"trial_type","trial_index","time_elapsed","internal_node_id","task_version","subject_id","interactions","blur_events","focus_events","fullscreenenter_events","fullscreenexit_events","success","view_history","rt","responses","num_errors","age","subject","participantId","rune","rune_set","hex","correct","choice","accuracy","outcome","keys","total_keys","block","practice","value","sub","trial","stimulus","robot","valence","action","sham"
"pavlovia","0","64","0.0-0.0","battery-v0.2","","""event"",""trial"",""time""
""focus"",""0"",""4""
""fullscreenenter"",""1"",""5669""
","
","""event"",""trial"",""time""
""focus"",""0"",""4""
","""event"",""trial"",""time""
""fullscreenenter"",""1"",""5669""
","
","","","","","","","","","","","","","","","","","","","","","","","","","","",""
"fullscreen","1","6390","0.0-1.0","battery-v0.2","","""event"",""trial"",""time""
""focus"",""0"",""4""
""fullscreenenter"",""1"",""5669""
","
","""event"",""trial"",""time""
""focus"",""0"",""4""
","""event"",""trial"",""time""
""fullscreenenter"",""1"",""5669""
","
","true","","","","","","","","","","","","","","","","","","","","","","","","","",""
"pit-instructions","2","15195","0.0-2.0-0.0","battery-v0.2","","""event"",""trial"",""time""
""focus"",""0"",""4""
""fullscreenenter"",""1"",""5669""
","
","""event"",""trial"",""time""
""focus"",""0"",""4""
","""event"",""trial"",""time""
""fullscreenenter"",""1"",""5669""
","
","","[{""page_index"":0,""viewing_time"":8791}]","8791","","","","","","","","","","","","","","","","","","","","","","","",""
"pit-comprehension","3","21467","0.0-2.0-1.0-0.0","battery-v0.2","","""event"",""trial"",""time""
""focus"",""0"",""4""
""fullscreenenter"",""1"",""5669""
","
","""event"",""trial"",""time""
""focus"",""0"",""4""
","""event"",""trial"",""time""
""fullscreenenter"",""1"",""5669""
","
","","","6267","[""shark""]","0","10","5026","2316","","","","","","","","","","","","","","","","","","",""
"pit-instructions","4","23727","0.0-2.0-1.0-1.0","battery-v0.2","","""event"",""trial"",""time""
""focus"",""0"",""4""
""fullscreenenter"",""1"",""5669""
","
","""event"",""trial"",""time""
""focus"",""0"",""4""
","""event"",""trial"",""time""
""fullscreenenter"",""1"",""5669""
","
","","[{""page_index"":0,""viewing_time"":2211}]","2211","","","","","","","","","","","","","","","","","","","","","","","",""
"pit-comprehension","5","27670","0.0-2.0-2.0-0.0","battery-v0.2","","""event"",""trial"",""time""
""focus"",""0"",""4""
""fullscreenenter"",""1"",""5669""
","
","""event"",""trial"",""time""
""focus"",""0"",""4""
","""event"",""trial"",""time""
""fullscreenenter"",""1"",""5669""
","
","","","3938","[""tiger""]","0","10","5026","2316","","","","","","","","","","","","","","","","","","",""
"pit-instructions","6","28877","0.0-2.0-2.0-1.0","battery-v0.2","","""event"",""trial"",""time""
""focus"",""0"",""4""
""fullscreenenter"",""1"",""5669""
","
","""event"",""trial"",""time""
""focus"",""0"",""4""
","""event"",""trial"",""time""
""fullscreenenter"",""1"",""5669""
","
","","[{""page_index"":0,""viewing_time"":1198}]","1199","","","","","","","","","","","","","","","","","","","","","","","",""
"pit-instructions","7","132249","0.0-2.0-3.0","battery-v0.2","","""event"",""trial"",""time""
""focus"",""0"",""4""
""fullscreenenter"",""1"",""5669""
","
","""event"",""trial"",""time""
""focus"",""0"",""4""
","""event"",""trial"",""time""
""fullscreenenter"",""1"",""5669""
","
","","[{""page_index"":0,""viewing_time"":8768},{""page_index"":1,""viewing_time"":6893},{""page_index"":2,""viewing_time"":6781},{""page_index"":3,""viewing_time"":7643},{""page_index"":4,""viewing_time"":6790},{""page_index"":5,""viewing_time"":7166},{""page_index"":6,""viewing_time"":7493},{""page_index"":7,""viewing_time"":7204},{""page_index"":8,""viewing_time"":6756},{""page_index"":9,""viewing_time"":11396},{""page_index"":10,""viewing_time"":8309},{""page_index"":11,""viewing_time"":6160},{""page_index"":12,""viewing_time"":6696},{""page_index"":13,""viewing_time"":5312}]","103368","","","","","","","","","","","","","","","","","","","","","","","",""
"pit-trial","8","136082","0.0-2.0-4.0-0.0","battery-v0.2","","""event"",""trial"",""time""
""focus"",""0"",""4""
""fullscreenenter"",""1"",""5669""
","
","""event"",""trial"",""time""
""focus"",""0"",""4""
","""event"",""trial"",""time""
""fullscreenenter"",""1"",""5669""
","
","","","949","","","10","5026","2316","&#9784;","elianto","#FFFFF080"," "," ","1","&#10004","[1815,3677]","2","0","0","","","","","","","",""
"pit-trial","9","139823","0.0-2.0-4.1-0.1","battery-v0.2","","""event"",""trial"",""time""
""focus"",""0"",""4""
""fullscreenenter"",""1"",""5669""
","
","""event"",""trial"",""time""
""focus"",""0"",""4""
","""event"",""trial"",""time""
""fullscreenenter"",""1"",""5669""
","
","","","864","","","10","5026","2316","&#9784;","elianto","#FFFFF080"," "," ","1","&#10004","[1717]","1","0","0","","","","","","","",""
"pit-trial","10","144692","0.0-2.0-4.2-0.2","battery-v0.2","","""event"",""trial"",""time""
""focus"",""0"",""4""
""fullscreenenter"",""1"",""5669""
","
","""event"",""trial"",""time""
""focus"",""0"",""4""
","""event"",""trial"",""time""
""fullscreenenter"",""1"",""5669""
","
","","","-1","","","10","5026","2316","&#9784;","elianto","#FFFFF080"," ","-1","0","&#10060","[68,3213]","2","0","0","","","","","","","",""
"pit-trial","11","148302","0.0-2.0-4.3-0.3","battery-v0.2","","""event"",""trial"",""time""
""focus"",""0"",""4""
""fullscreenenter"",""1"",""5669""
","
","""event"",""trial"",""time""
""focus"",""0"",""4""
","""event"",""trial"",""time""
""fullscreenenter"",""1"",""5669""
","
","","","731","","","10","5026","2316","&#9784;","elianto","#FFFFF080"," "," ","1","&#10004","[1588]","1","0","0","","","","","","","",""
"pit-trial","12","151764","0.0-2.0-4.4-0.4","battery-v0.2","","""event"",""trial"",""time""
""focus"",""0"",""4""
""fullscreenenter"",""1"",""5669""
","
","""event"",""trial"",""time""
""focus"",""0"",""4""
","""event"",""trial"",""time""
""fullscreenenter"",""1"",""5669""
","
","","","588","","","10","5026","2316","&#9784;","elianto","#FFFFF080"," "," ","1","&#10004","[1445]","1","0","0","","","","","","","",""
"pit-trial","13","155282","0.0-2.0-4.5-0.5","battery-v0.2","","""event"",""trial"",""time""
""focus"",""0"",""4""
""fullscreenenter"",""1"",""5669""
","
","""event"",""trial"",""time""
""focus"",""0"",""4""
","""event"",""trial"",""time""
""fullscreenenter"",""1"",""5669""
","
","","","650","","","10","5026","2316","&#9784;","elianto","#FFFFF080"," "," ","1","&#10004","[1500]","1","0","0","","","","","","","",""
"pit-instructions","14","177304","0.0-2.0-5.0","battery-v0.2","","""event"",""trial"",""time""
""focus"",""0"",""4""
""fullscreenenter"",""1"",""5669""
","
","""event"",""trial"",""time""
""focus"",""0"",""4""
","""event"",""trial"",""time""
""fullscreenenter"",""1"",""5669""
","
","","[{""page_index"":0,""viewing_time"":5845},{""page_index"":1,""viewing_time"":5406},{""page_index"":2,""viewing_time"":5508},{""page_index"":3,""viewing_time"":5252}]","22011","","","","","","","","","","","","","","","","","","","","","","","",""
"pit-trial","15","182183","0.0-2.0-6.0-0.0","battery-v0.2","","""event"",""trial"",""time""
""focus"",""0"",""4""
""fullscreenenter"",""1"",""5669""
","
","""event"",""trial"",""time""
""focus"",""0"",""4""
","""event"",""trial"",""time""
""fullscreenenter"",""1"",""5669""
","
","","","-1","","","10","5026","2316","&#9854;","elianto","#FFFFF080","-1","-1","1","&#10004","[]","0","0","1","","","","","","","",""
"pit-trial","16","187052","0.0-2.0-6.1-0.1","battery-v0.2","","""event"",""trial"",""time""
""focus"",""0"",""4""
""fullscreenenter"",""1"",""5669""
","
","""event"",""trial"",""time""
""focus"",""0"",""4""
","""event"",""trial"",""time""
""fullscreenenter"",""1"",""5669""
","
","","","-1","","","10","5026","2316","&#9854;","elianto","#FFFFF080","-1","-1","1","&#10004","[]","0","0","1","","","","","","","",""
"pit-trial","17","191944","0.0-2.0-6.2-0.2","battery-v0.2","","""event"",""trial"",""time""
""focus"",""0"",""4""
""fullscreenenter"",""1"",""5669""
","
","""event"",""trial"",""time""
""focus"",""0"",""4""
","""event"",""trial"",""time""
""fullscreenenter"",""1"",""5669""
","
","","","-1","","","10","5026","2316","&#9854;","elianto","#FFFFF080","-1","-1","1","&#10004","[]","0","0","1","","","","","","","",""
"pit-trial","18","196822","0.0-2.0-6.3-0.3","battery-v0.2","","""event"",""trial"",""time""
""focus"",""0"",""4""
""fullscreenenter"",""1"",""5669""
","
","""event"",""trial"",""time""
""focus"",""0"",""4""
","""event"",""trial"",""time""
""fullscreenenter"",""1"",""5669""
","
","","","-1","","","10","5026","2316","&#9854;","elianto","#FFFFF080","-1","-1","1","&#10004","[]","0","0","1","","","","","","","",""
"pit-trial","19","201703","0.0-2.0-6.4-0.4","battery-v0.2","","""event"",""trial"",""time""
""focus"",""0"",""4""
""fullscreenenter"",""1"",""5669""
","
","""event"",""trial"",""time""
""focus"",""0"",""4""
","""event"",""trial"",""time""
""fullscreenenter"",""1"",""5669""
","
","","","-1","","","10","5026","2316","&#9854;","elianto","#FFFFF080","-1","-1","1","&#10004","[]","0","0","1","","","","","","","",""
"pit-instructions","20","330557","0.0-2.0-7.0","battery-v0.2","","""event"",""trial"",""time""
""focus"",""0"",""4""
""fullscreenenter"",""1"",""5669""
","
","""event"",""trial"",""time""
""focus"",""0"",""4""
","""event"",""trial"",""time""
""fullscreenenter"",""1"",""5669""
","
","","[{""page_index"":0,""viewing_time"":8478},{""page_index"":1,""viewing_time"":7308},{""page_index"":2,""viewing_time"":6819},{""page_index"":3,""viewing_time"":6364},{""page_index"":4,""viewing_time"":6625},{""page_index"":5,""viewing_time"":6984},{""page_index"":6,""viewing_time"":5813},{""page_index"":7,""viewing_time"":9558},{""page_index"":8,""viewing_time"":6743},{""page_index"":9,""viewing_time"":6753},{""page_index"":10,""viewing_time"":6939},{""page_index"":11,""viewing_time"":4712},{""page_index"":12,""viewing_time"":8776},{""page_index"":13,""viewing_time"":7506},{""page_index"":14,""viewing_time"":8135},{""page_index"":15,""viewing_time"":6931},{""page_index"":16,""viewing_time"":6741},{""page_index"":17,""viewing_time"":7659}]","128845","","","","","","","","","","","","","","","","","","","","","","","",""
"pit-trial","21","334003","0.0-2.0-8.0-0.0","battery-v0.2","","""event"",""trial"",""time""
""focus"",""0"",""4""
""fullscreenenter"",""1"",""5669""
","
","""event"",""trial"",""time""
""focus"",""0"",""4""
","""event"",""trial"",""time""
""fullscreenenter"",""1"",""5669""
","
","","","571","","","10","5026","2316","&#9776;","elianto","#3366ff99"," "," ","1","+10","[1431,3318]","2","0","1","","","","","","","",""
"pit-trial","22","338344","0.0-2.0-8.0-1.0","battery-v0.2","","""event"",""trial"",""time""
""focus"",""0"",""4""
""fullscreenenter"",""1"",""5669""
","
","""event"",""trial"",""time""
""focus"",""0"",""4""
","""event"",""trial"",""time""
""fullscreenenter"",""1"",""5669""
","
","","","1451","","","10","5026","2316","&#9776;","elianto","#3366ff99"," "," ","1","+10","[2318]","1","0","1","","","","","","","",""
"pit-trial","23","341782","0.0-2.0-8.0-2.0","battery-v0.2","","""event"",""trial"",""time""
""focus"",""0"",""4""
""fullscreenenter"",""1"",""5669""
","
","""event"",""trial"",""time""
""focus"",""0"",""4""
","""event"",""trial"",""time""
""fullscreenenter"",""1"",""5669""
","
","","","563","","","10","5026","2316","&#9776;","elianto","#3366ff99"," "," ","1","+10","[1425]","1","0","1","","","","","","","",""
"pit-trial","24","345133","0.0-2.0-8.0-3.0","battery-v0.2","","""event"",""trial"",""time""
""focus"",""0"",""4""
""fullscreenenter"",""1"",""5669""
","
","""event"",""trial"",""time""
""focus"",""0"",""4""
","""event"",""trial"",""time""
""fullscreenenter"",""1"",""5669""
","
","","","466","","","10","5026","2316","&#9776;","elianto","#3366ff99"," "," ","1","0","[1331]","1","0","1","","","","","","","",""
"pit-trial","25","348513","0.0-2.0-8.0-4.0","battery-v0.2","","""event"",""trial"",""time""
""focus"",""0"",""4""
""fullscreenenter"",""1"",""5669""
","
","""event"",""trial"",""time""
""focus"",""0"",""4""
","""event"",""trial"",""time""
""fullscreenenter"",""1"",""5669""
","
","","","495","","","10","5026","2316","&#9776;","elianto","#3366ff99"," "," ","1","+10","[1360]","1","0","1","","","","","","","",""
"pit-trial","26","351863","0.0-2.0-8.1-0.1","battery-v0.2","","""event"",""trial"",""time""
""focus"",""0"",""4""
""fullscreenenter"",""1"",""5669""
","
","""event"",""trial"",""time""
""focus"",""0"",""4""
","""event"",""trial"",""time""
""fullscreenenter"",""1"",""5669""
","
","","","467","","","10","5026","2316","&#9776;","elianto","#3366ff99"," "," ","1","+10","[1331]","1","0","1","","","","","","","",""
"pit-trial","27","355194","0.0-2.0-8.1-1.1","battery-v0.2","","""event"",""trial"",""time""
""focus"",""0"",""4""
""fullscreenenter"",""1"",""5669""
","
","""event"",""trial"",""time""
""focus"",""0"",""4""
","""event"",""trial"",""time""
""fullscreenenter"",""1"",""5669""
","
","","","443","","","10","5026","2316","&#9776;","elianto","#3366ff99"," "," ","1","+10","[1308]","1","0","1","","","","","","","",""
"pit-trial","28","358872","0.0-2.0-8.1-2.1","battery-v0.2","","""event"",""trial"",""time""
""focus"",""0"",""4""
""fullscreenenter"",""1"",""5669""
","
","""event"",""trial"",""time""
""focus"",""0"",""4""
","""event"",""trial"",""time""
""fullscreenenter"",""1"",""5669""
","
","","","808","","","10","5026","2316","&#9776;","elianto","#3366ff99"," "," ","1","+10","[1671]","1","0","1","","","","","","","",""
"pit-trial","29","362360","0.0-2.0-8.1-3.1","battery-v0.2","","""event"",""trial"",""time""
""focus"",""0"",""4""
""fullscreenenter"",""1"",""5669""
","
","""event"",""trial"",""time""
""focus"",""0"",""4""
","""event"",""trial"",""time""
""fullscreenenter"",""1"",""5669""
","
","","","594","","","10","5026","2316","&#9776;","elianto","#3366ff99"," "," ","1","0","[1463]","1","0","1","","","","","","","",""
"pit-trial","30","365792","0.0-2.0-8.1-4.1","battery-v0.2","","""event"",""trial"",""time""
""focus"",""0"",""4""
""fullscreenenter"",""1"",""5669""
","
","""event"",""trial"",""time""
""focus"",""0"",""4""
","""event"",""trial"",""time""
""fullscreenenter"",""1"",""5669""
","
","","","549","","","10","5026","2316","&#9776;","elianto","#3366ff99"," "," ","1","+10","[1413]","1","0","1","","","","","","","",""
"pit-trial","31","369203","0.0-2.0-8.2-0.2","battery-v0.2","","""event"",""trial"",""time""
""focus"",""0"",""4""
""fullscreenenter"",""1"",""5669""
","
","""event"",""trial"",""time""
""focus"",""0"",""4""
","""event"",""trial"",""time""
""fullscreenenter"",""1"",""5669""
","
","","","525","","","10","5026","2316","&#9776;","elianto","#3366ff99"," "," ","1","+10","[1388]","1","0","1","","","","","","","",""
"pit-trial","32","372553","0.0-2.0-8.2-1.2","battery-v0.2","","""event"",""trial"",""time""
""focus"",""0"",""4""
""fullscreenenter"",""1"",""5669""
","
","""event"",""trial"",""time""
""focus"",""0"",""4""
","""event"",""trial"",""time""
""fullscreenenter"",""1"",""5669""
","
","","","469","","","10","5026","2316","&#9776;","elianto","#3366ff99"," "," ","1","+10","[1334]","1","0","1","","","","","","","",""
"pit-trial","33","375952","0.0-2.0-8.2-2.2","battery-v0.2","","""event"",""trial"",""time""
""focus"",""0"",""4""
""fullscreenenter"",""1"",""5669""
","
","""event"",""trial"",""time""
""focus"",""0"",""4""
","""event"",""trial"",""time""
""fullscreenenter"",""1"",""5669""
","
","","","522","","","10","5026","2316","&#9776;","elianto","#3366ff99"," "," ","1","+10","[1387]","1","0","1","","","","","","","",""
"pit-trial","34","379302","0.0-2.0-8.2-3.2","battery-v0.2","","""event"",""trial"",""time""
""focus"",""0"",""4""
""fullscreenenter"",""1"",""5669""
","
","""event"",""trial"",""time""
""focus"",""0"",""4""
","""event"",""trial"",""time""
""fullscreenenter"",""1"",""5669""
","
","","","474","","","10","5026","2316","&#9776;","elianto","#3366ff99"," "," ","1","0","[1343]","1","0","1","","","","","","","",""
"pit-trial","35","382353","0.0-2.0-8.2-4.2","battery-v0.2","","""event"",""trial"",""time""
""focus"",""0"",""4""
""fullscreenenter"",""1"",""5669""
","
","""event"",""trial"",""time""
""focus"",""0"",""4""
","""event"",""trial"",""time""
""fullscreenenter"",""1"",""5669""
","
","","","163","","","10","5026","2316","&#9776;","elianto","#3366ff99"," "," ","1","+10","[1029]","1","0","1","","","","","","","",""
"call-function","36","382358","0.0-2.0-9.0","battery-v0.2","","""event"",""trial"",""time""
""focus"",""0"",""4""
""fullscreenenter"",""1"",""5669""
","
","""event"",""trial"",""time""
""focus"",""0"",""4""
","""event"",""trial"",""time""
""fullscreenenter"",""1"",""5669""
","
","","","","","","","","","","","","","","","","","","","","","","","","","","",""
"pit-instructions","37","428009","0.0-2.0-10.0","battery-v0.2","","""event"",""trial"",""time""
""focus"",""0"",""4""
""fullscreenenter"",""1"",""5669""
","
","""event"",""trial"",""time""
""focus"",""0"",""4""
","""event"",""trial"",""time""
""fullscreenenter"",""1"",""5669""
","
","","[{""page_index"":0,""viewing_time"":9542},{""page_index"":1,""viewing_time"":9066},{""page_index"":2,""viewing_time"":9881},{""page_index"":3,""viewing_time"":9097},{""page_index"":4,""viewing_time"":8063}]","45650","","","","","","","","","","","","","","","","","","","","","","","",""
"pit-trial","38","431383","0.0-2.0-11.0-0.0","battery-v0.2","","""event"",""trial"",""time""
""focus"",""0"",""4""
""fullscreenenter"",""1"",""5669""
","
","""event"",""trial"",""time""
""focus"",""0"",""4""
","""event"",""trial"",""time""
""fullscreenenter"",""1"",""5669""
","
","","","489","","","10","5026","2316","&#9761;","elianto","#3366ff99","-1"," ","0","0","[1356]","1","0","2","","","","","","","",""
"pit-trial","39","436253","0.0-2.0-11.0-1.0","battery-v0.2","","""event"",""trial"",""time""
""focus"",""0"",""4""
""fullscreenenter"",""1"",""5669""
","
","""event"",""trial"",""time""
""focus"",""0"",""4""
","""event"",""trial"",""time""
""fullscreenenter"",""1"",""5669""
","
","","","-1","","","10","5026","2316","&#9761;","elianto","#3366ff99","-1","-1","1","+10","[]","0","0","2","","","","","","","",""
"pit-trial","40","441123","0.0-2.0-11.0-2.0","battery-v0.2","","""event"",""trial"",""time""
""focus"",""0"",""4""
""fullscreenenter"",""1"",""5669""
","
","""event"",""trial"",""time""
""focus"",""0"",""4""
","""event"",""trial"",""time""
""fullscreenenter"",""1"",""5669""
","
","","","-1","","","10","5026","2316","&#9761;","elianto","#3366ff99","-1","-1","1","+10","[]","0","0","2","","","","","","","",""
"pit-trial","41","446003","0.0-2.0-11.0-3.0","battery-v0.2","","""event"",""trial"",""time""
""focus"",""0"",""4""
""fullscreenenter"",""1"",""5669""
","
","""event"",""trial"",""time""
""focus"",""0"",""4""
","""event"",""trial"",""time""
""fullscreenenter"",""1"",""5669""
","
","","","-1","","","10","5026","2316","&#9761;","elianto","#3366ff99","-1","-1","1","0","[]","0","0","2","","","","","","","",""
"pit-trial","42","450883","0.0-2.0-11.0-4.0","battery-v0.2","","""event"",""trial"",""time""
""focus"",""0"",""4""
""fullscreenenter"",""1"",""5669""
","
","""event"",""trial"",""time""
""focus"",""0"",""4""
","""event"",""trial"",""time""
""fullscreenenter"",""1"",""5669""
","
","","","-1","","","10","5026","2316","&#9761;","elianto","#3366ff99","-1","-1","1","+10","[]","0","0","2","","","","","","","",""
"pit-trial","43","455763","0.0-2.0-11.1-0.1","battery-v0.2","","""event"",""trial"",""time""
""focus"",""0"",""4""
""fullscreenenter"",""1"",""5669""
","
","""event"",""trial"",""time""
""focus"",""0"",""4""
","""event"",""trial"",""time""
""fullscreenenter"",""1"",""5669""
","
","","","-1","","","10","5026","2316","&#9761;","elianto","#3366ff99","-1","-1","1","+10","[]","0","0","2","","","","","","","",""
"pit-trial","44","460653","0.0-2.0-11.1-1.1","battery-v0.2","","""event"",""trial"",""time""
""focus"",""0"",""4""
""fullscreenenter"",""1"",""5669""
","
","""event"",""trial"",""time""
""focus"",""0"",""4""
","""event"",""trial"",""time""
""fullscreenenter"",""1"",""5669""
","
","","","-1","","","10","5026","2316","&#9761;","elianto","#3366ff99","-1","-1","1","+10","[]","0","0","2","","","","","","","",""
"pit-trial","45","465533","0.0-2.0-11.1-2.1","battery-v0.2","","""event"",""trial"",""time""
""focus"",""0"",""4""
""fullscreenenter"",""1"",""5669""
","
","""event"",""trial"",""time""
""focus"",""0"",""4""
","""event"",""trial"",""time""
""fullscreenenter"",""1"",""5669""
","
","","","-1","","","10","5026","2316","&#9761;","elianto","#3366ff99","-1","-1","1","+10","[]","0","0","2","","","","","","","",""
"pit-trial","46","470423","0.0-2.0-11.1-3.1","battery-v0.2","","""event"",""trial"",""time""
""focus"",""0"",""4""
""fullscreenenter"",""1"",""5669""
","
","""event"",""trial"",""time""
""focus"",""0"",""4""
","""event"",""trial"",""time""
""fullscreenenter"",""1"",""5669""
","
","","","-1","","","10","5026","2316","&#9761;","elianto","#3366ff99","-1","-1","1","0","[]","0","0","2","","","","","","","",""
"pit-trial","47","475303","0.0-2.0-11.1-4.1","battery-v0.2","","""event"",""trial"",""time""
""focus"",""0"",""4""
""fullscreenenter"",""1"",""5669""
","
","""event"",""trial"",""time""
""focus"",""0"",""4""
","""event"",""trial"",""time""
""fullscreenenter"",""1"",""5669""
","
","","","-1","","","10","5026","2316","&#9761;","elianto","#3366ff99","-1","-1","1","+10","[]","0","0","2","","","","","","","",""
"pit-trial","48","480183","0.0-2.0-11.2-0.2","battery-v0.2","","""event"",""trial"",""time""
""focus"",""0"",""4""
""fullscreenenter"",""1"",""5669""
","
","""event"",""trial"",""time""
""focus"",""0"",""4""
","""event"",""trial"",""time""
""fullscreenenter"",""1"",""5669""
","
","","","-1","","","10","5026","2316","&#9761;","elianto","#3366ff99","-1","-1","1","+10","[]","0","0","2","","","","","","","",""
"pit-trial","49","485053","0.0-2.0-11.2-1.2","battery-v0.2","","""event"",""trial"",""time""
""focus"",""0"",""4""
""fullscreenenter"",""1"",""5669""
","
","""event"",""trial"",""time""
""focus"",""0"",""4""
","""event"",""trial"",""time""
""fullscreenenter"",""1"",""5669""
","
","","","-1","","","10","5026","2316","&#9761;","elianto","#3366ff99","-1","-1","1","+10","[]","0","0","2","","","","","","","",""
"pit-trial","50","489932","0.0-2.0-11.2-2.2","battery-v0.2","","""event"",""trial"",""time""
""focus"",""0"",""4""
""fullscreenenter"",""1"",""5669""
","
","""event"",""trial"",""time""
""focus"",""0"",""4""
","""event"",""trial"",""time""
""fullscreenenter"",""1"",""5669""
","
","","","-1","","","10","5026","2316","&#9761;","elianto","#3366ff99","-1","-1","1","+10","[]","0","0","2","","","","","","","",""
"pit-trial","51","494791","0.0-2.0-11.2-3.2","battery-v0.2","","""event"",""trial"",""time""
""focus"",""0"",""4""
""fullscreenenter"",""1"",""5669""
","
","""event"",""trial"",""time""
""focus"",""0"",""4""
","""event"",""trial"",""time""
""fullscreenenter"",""1"",""5669""
","
","","","-1","","","10","5026","2316","&#9761;","elianto","#3366ff99","-1","-1","1","0","[]","0","0","2","","","","","","","",""
"pit-trial","52","499672","0.0-2.0-11.2-4.2","battery-v0.2","","""event"",""trial"",""time""
""focus"",""0"",""4""
""fullscreenenter"",""1"",""5669""
","
","""event"",""trial"",""time""
""focus"",""0"",""4""
","""event"",""trial"",""time""
""fullscreenenter"",""1"",""5669""
","
","","","-1","","","10","5026","2316","&#9761;","elianto","#3366ff99","-1","-1","1","+10","[]","0","0","2","","","","","","","",""
"pit-trial","53","504553","0.0-2.0-11.3-0.3","battery-v0.2","","""event"",""trial"",""time""
""focus"",""0"",""4""
""fullscreenenter"",""1"",""5669""
","
","""event"",""trial"",""time""
""focus"",""0"",""4""
","""event"",""trial"",""time""
""fullscreenenter"",""1"",""5669""
","
","","","-1","","","10","5026","2316","&#9761;","elianto","#3366ff99","-1","-1","1","+10","[]","0","0","2","","","","","","","",""
"pit-trial","54","509442","0.0-2.0-11.3-1.3","battery-v0.2","","""event"",""trial"",""time""
""focus"",""0"",""4""
""fullscreenenter"",""1"",""5669""
","
","""event"",""trial"",""time""
""focus"",""0"",""4""
","""event"",""trial"",""time""
""fullscreenenter"",""1"",""5669""
","
","","","-1","","","10","5026","2316","&#9761;","elianto","#3366ff99","-1","-1","1","+10","[]","0","0","2","","","","","","","",""
"pit-trial","55","514333","0.0-2.0-11.3-2.3","battery-v0.2","","""event"",""trial"",""time""
""focus"",""0"",""4""
""fullscreenenter"",""1"",""5669""
","
","""event"",""trial"",""time""
""focus"",""0"",""4""
","""event"",""trial"",""time""
""fullscreenenter"",""1"",""5669""
","
","","","-1","","","10","5026","2316","&#9761;","elianto","#3366ff99","-1","-1","1","+10","[]","0","0","2","","","","","","","",""
"pit-trial","56","519224","0.0-2.0-11.3-3.3","battery-v0.2","","""event"",""trial"",""time""
""focus"",""0"",""4""
""fullscreenenter"",""1"",""5669""
","
","""event"",""trial"",""time""
""focus"",""0"",""4""
","""event"",""trial"",""time""
""fullscreenenter"",""1"",""5669""
","
","","","-1","","","10","5026","2316","&#9761;","elianto","#3366ff99","-1","-1","1","0","[]","0","0","2","","","","","","","",""
"pit-trial","57","524103","0.0-2.0-11.3-4.3","battery-v0.2","","""event"",""trial"",""time""
""focus"",""0"",""4""
""fullscreenenter"",""1"",""5669""
","
","""event"",""trial"",""time""
""focus"",""0"",""4""
","""event"",""trial"",""time""
""fullscreenenter"",""1"",""5669""
","
","","","-1","","","10","5026","2316","&#9761;","elianto","#3366ff99","-1","-1","1","+10","[]","0","0","2","","","","","","","",""
"call-function","58","524106","0.0-2.0-12.0","battery-v0.2","","""event"",""trial"",""time""
""focus"",""0"",""4""
""fullscreenenter"",""1"",""5669""
","
","""event"",""trial"",""time""
""focus"",""0"",""4""
","""event"",""trial"",""time""
""fullscreenenter"",""1"",""5669""
","
","","","","","","","","","","","","","","","","","","","","","","","","","","",""
"pit-instructions","59","561213","0.0-2.0-13.0","battery-v0.2","","""event"",""trial"",""time""
""focus"",""0"",""4""
""fullscreenenter"",""1"",""5669""
","
","""event"",""trial"",""time""
""focus"",""0"",""4""
","""event"",""trial"",""time""
""fullscreenenter"",""1"",""5669""
","
","","[{""page_index"":0,""viewing_time"":6451},{""page_index"":1,""viewing_time"":9431},{""page_index"":2,""viewing_time"":4538},{""page_index"":3,""viewing_time"":11477},{""page_index"":4,""viewing_time"":5208}]","37105","","","","","","","","","","","","","","","","","","","","","","","",""
"pit-trial","60","564613","0.0-2.0-14.0-0.0","battery-v0.2","","""event"",""trial"",""time""
""focus"",""0"",""4""
""fullscreenenter"",""1"",""5669""
","
","""event"",""trial"",""time""
""focus"",""0"",""4""
","""event"",""trial"",""time""
""fullscreenenter"",""1"",""5669""
","
","","","518","","","10","5026","2316","&#9826;","elianto","#f73b6a7A","-1"," ","0","-10","[1376]","1","0","3","","","","","","","",""
"pit-trial","61","569492","0.0-2.0-14.0-1.0","battery-v0.2","","""event"",""trial"",""time""
""focus"",""0"",""4""
""fullscreenenter"",""1"",""5669""
","
","""event"",""trial"",""time""
""focus"",""0"",""4""
","""event"",""trial"",""time""
""fullscreenenter"",""1"",""5669""
","
","","","-1","","","10","5026","2316","&#9826;","elianto","#f73b6a7A","-1","-1","1","0","[]","0","0","3","","","","","","","",""
"pit-trial","62","574363","0.0-2.0-14.0-2.0","battery-v0.2","","""event"",""trial"",""time""
""focus"",""0"",""4""
""fullscreenenter"",""1"",""5669""
","
","""event"",""trial"",""time""
""focus"",""0"",""4""
","""event"",""trial"",""time""
""fullscreenenter"",""1"",""5669""
","
","","","-1","","","10","5026","2316","&#9826;","elianto","#f73b6a7A","-1","-1","1","0","[]","0","0","3","","","","","","","",""
"pit-trial","63","579224","0.0-2.0-14.0-3.0","battery-v0.2","","""event"",""trial"",""time""
""focus"",""0"",""4""
""fullscreenenter"",""1"",""5669""
","
","""event"",""trial"",""time""
""focus"",""0"",""4""
","""event"",""trial"",""time""
""fullscreenenter"",""1"",""5669""
","
","","","-1","","","10","5026","2316","&#9826;","elianto","#f73b6a7A","-1","-1","1","-10","[]","0","0","3","","","","","","","",""
"pit-trial","64","584103","0.0-2.0-14.0-4.0","battery-v0.2","","""event"",""trial"",""time""
""focus"",""0"",""4""
""fullscreenenter"",""1"",""5669""
","
","""event"",""trial"",""time""
""focus"",""0"",""4""
","""event"",""trial"",""time""
""fullscreenenter"",""1"",""5669""
","
","","","-1","","","10","5026","2316","&#9826;","elianto","#f73b6a7A","-1","-1","1","0","[]","0","0","3","","","","","","","",""
"pit-trial","65","588973","0.0-2.0-14.1-0.1","battery-v0.2","","""event"",""trial"",""time""
""focus"",""0"",""4""
""fullscreenenter"",""1"",""5669""
","
","""event"",""trial"",""time""
""focus"",""0"",""4""
","""event"",""trial"",""time""
""fullscreenenter"",""1"",""5669""
","
","","","-1","","","10","5026","2316","&#9826;","elianto","#f73b6a7A","-1","-1","1","0","[]","0","0","3","","","","","","","",""
"pit-trial","66","593853","0.0-2.0-14.1-1.1","battery-v0.2","","""event"",""trial"",""time""
""focus"",""0"",""4""
""fullscreenenter"",""1"",""5669""
","
","""event"",""trial"",""time""
""focus"",""0"",""4""
","""event"",""trial"",""time""
""fullscreenenter"",""1"",""5669""
","
","","","-1","","","10","5026","2316","&#9826;","elianto","#f73b6a7A","-1","-1","1","0","[]","0","0","3","","","","","","","",""
"pit-trial","67","598743","0.0-2.0-14.1-2.1","battery-v0.2","","""event"",""trial"",""time""
""focus"",""0"",""4""
""fullscreenenter"",""1"",""5669""
","
","""event"",""trial"",""time""
""focus"",""0"",""4""
","""event"",""trial"",""time""
""fullscreenenter"",""1"",""5669""
","
","","","-1","","","10","5026","2316","&#9826;","elianto","#f73b6a7A","-1","-1","1","0","[]","0","0","3","","","","","","","",""
"pit-trial","68","603614","0.0-2.0-14.1-3.1","battery-v0.2","","""event"",""trial"",""time""
""focus"",""0"",""4""
""fullscreenenter"",""1"",""5669""
","
","""event"",""trial"",""time""
""focus"",""0"",""4""
","""event"",""trial"",""time""
""fullscreenenter"",""1"",""5669""
","
","","","-1","","","10","5026","2316","&#9826;","elianto","#f73b6a7A","-1","-1","1","-10","[]","0","0","3","","","","","","","",""
"pit-trial","69","608483","0.0-2.0-14.1-4.1","battery-v0.2","","""event"",""trial"",""time""
""focus"",""0"",""4""
""fullscreenenter"",""1"",""5669""
","
","""event"",""trial"",""time""
""focus"",""0"",""4""
","""event"",""trial"",""time""
""fullscreenenter"",""1"",""5669""
","
","","","-1","","","10","5026","2316","&#9826;","elianto","#f73b6a7A","-1","-1","1","0","[]","0","0","3","","","","","","","",""
"pit-trial","70","613363","0.0-2.0-14.2-0.2","battery-v0.2","","""event"",""trial"",""time""
""focus"",""0"",""4""
""fullscreenenter"",""1"",""5669""
","
","""event"",""trial"",""time""
""focus"",""0"",""4""
","""event"",""trial"",""time""
""fullscreenenter"",""1"",""5669""
","
","","","-1","","","10","5026","2316","&#9826;","elianto","#f73b6a7A","-1","-1","1","0","[]","0","0","3","","","","","","","",""
"pit-trial","71","618243","0.0-2.0-14.2-1.2","battery-v0.2","","""event"",""trial"",""time""
""focus"",""0"",""4""
""fullscreenenter"",""1"",""5669""
","
","""event"",""trial"",""time""
""focus"",""0"",""4""
","""event"",""trial"",""time""
""fullscreenenter"",""1"",""5669""
","
","","","-1","","","10","5026","2316","&#9826;","elianto","#f73b6a7A","-1","-1","1","0","[]","0","0","3","","","","","","","",""
"pit-trial","72","623123","0.0-2.0-14.2-2.2","battery-v0.2","","""event"",""trial"",""time""
""focus"",""0"",""4""
""fullscreenenter"",""1"",""5669""
","
","""event"",""trial"",""time""
""focus"",""0"",""4""
","""event"",""trial"",""time""
""fullscreenenter"",""1"",""5669""
","
","","","-1","","","10","5026","2316","&#9826;","elianto","#f73b6a7A","-1","-1","1","0","[]","0","0","3","","","","","","","",""
"pit-trial","73","628003","0.0-2.0-14.2-3.2","battery-v0.2","","""event"",""trial"",""time""
""focus"",""0"",""4""
""fullscreenenter"",""1"",""5669""
","
","""event"",""trial"",""time""
""focus"",""0"",""4""
","""event"",""trial"",""time""
""fullscreenenter"",""1"",""5669""
","
","","","-1","","","10","5026","2316","&#9826;","elianto","#f73b6a7A","-1","-1","1","-10","[]","0","0","3","","","","","","","",""
"pit-trial","74","632872","0.0-2.0-14.2-4.2","battery-v0.2","","""event"",""trial"",""time""
""focus"",""0"",""4""
""fullscreenenter"",""1"",""5669""
","
","""event"",""trial"",""time""
""focus"",""0"",""4""
","""event"",""trial"",""time""
""fullscreenenter"",""1"",""5669""
","
","","","-1","","","10","5026","2316","&#9826;","elianto","#f73b6a7A","-1","-1","1","0","[]","0","0","3","","","","","","","",""
"pit-trial","75","637744","0.0-2.0-14.3-0.3","battery-v0.2","","""event"",""trial"",""time""
""focus"",""0"",""4""
""fullscreenenter"",""1"",""5669""
","
","""event"",""trial"",""time""
""focus"",""0"",""4""
","""event"",""trial"",""time""
""fullscreenenter"",""1"",""5669""
","
","","","-1","","","10","5026","2316","&#9826;","elianto","#f73b6a7A","-1","-1","1","0","[]","0","0","3","","","","","","","",""
"pit-trial","76","642613","0.0-2.0-14.3-1.3","battery-v0.2","","""event"",""trial"",""time""
""focus"",""0"",""4""
""fullscreenenter"",""1"",""5669""
","
","""event"",""trial"",""time""
""focus"",""0"",""4""
","""event"",""trial"",""time""
""fullscreenenter"",""1"",""5669""
","
","","","-1","","","10","5026","2316","&#9826;","elianto","#f73b6a7A","-1","-1","1","0","[]","0","0","3","","","","","","","",""
"pit-trial","77","647493","0.0-2.0-14.3-2.3","battery-v0.2","","""event"",""trial"",""time""
""focus"",""0"",""4""
""fullscreenenter"",""1"",""5669""
","
","""event"",""trial"",""time""
""focus"",""0"",""4""
","""event"",""trial"",""time""
""fullscreenenter"",""1"",""5669""
","
","","","-1","","","10","5026","2316","&#9826;","elianto","#f73b6a7A","-1","-1","1","0","[]","0","0","3","","","","","","","",""
"pit-trial","78","652373","0.0-2.0-14.3-3.3","battery-v0.2","","""event"",""trial"",""time""
""focus"",""0"",""4""
""fullscreenenter"",""1"",""5669""
","
","""event"",""trial"",""time""
""focus"",""0"",""4""
","""event"",""trial"",""time""
""fullscreenenter"",""1"",""5669""
","
","","","-1","","","10","5026","2316","&#9826;","elianto","#f73b6a7A","-1","-1","1","-10","[]","0","0","3","","","","","","","",""
"pit-trial","79","657253","0.0-2.0-14.3-4.3","battery-v0.2","","""event"",""trial"",""time""
""focus"",""0"",""4""
""fullscreenenter"",""1"",""5669""
","
","""event"",""trial"",""time""
""focus"",""0"",""4""
","""event"",""trial"",""time""
""fullscreenenter"",""1"",""5669""
","
","","","-1","","","10","5026","2316","&#9826;","elianto","#f73b6a7A","-1","-1","1","0","[]","0","0","3","","","","","","","",""
"call-function","80","657257","0.0-2.0-15.0","battery-v0.2","","""event"",""trial"",""time""
""focus"",""0"",""4""
""fullscreenenter"",""1"",""5669""
","
","""event"",""trial"",""time""
""focus"",""0"",""4""
","""event"",""trial"",""time""
""fullscreenenter"",""1"",""5669""
","
","","","","","","","","","","","","","","","","","","","","","","","","","","",""
"pit-instructions","81","693208","0.0-2.0-16.0","battery-v0.2","","""event"",""trial"",""time""
""focus"",""0"",""4""
""fullscreenenter"",""1"",""5669""
","
","""event"",""trial"",""time""
""focus"",""0"",""4""
","""event"",""trial"",""time""
""fullscreenenter"",""1"",""5669""
","
","","[{""page_index"":0,""viewing_time"":16190},{""page_index"":1,""viewing_time"":10051},{""page_index"":2,""viewing_time"":4830},{""page_index"":3,""viewing_time"":4877}]","35948","","","","","","","","","","","","","","","","","","","","","","","",""
"pit-trial","82","696554","0.0-2.0-17.0-0.0","battery-v0.2","","""event"",""trial"",""time""
""focus"",""0"",""4""
""fullscreenenter"",""1"",""5669""
","
","""event"",""trial"",""time""
""focus"",""0"",""4""
","""event"",""trial"",""time""
""fullscreenenter"",""1"",""5669""
","
","","","478","","","10","5026","2316","&#9789;","elianto","#f73b6a7A"," "," ","1","0","[1336]","1","0","4","","","","","","","",""
"pit-trial","83","699564","0.0-2.0-17.0-1.0","battery-v0.2","","""event"",""trial"",""time""
""focus"",""0"",""4""
""fullscreenenter"",""1"",""5669""
","
","""event"",""trial"",""time""
""focus"",""0"",""4""
","""event"",""trial"",""time""
""fullscreenenter"",""1"",""5669""
","
","","","125","","","10","5026","2316","&#9789;","elianto","#f73b6a7A"," "," ","1","0","[990]","1","0","4","","","","","","","",""
"pit-trial","84","702753","0.0-2.0-17.0-2.0","battery-v0.2","","""event"",""trial"",""time""
""focus"",""0"",""4""
""fullscreenenter"",""1"",""5669""
","
","""event"",""trial"",""time""
""focus"",""0"",""4""
","""event"",""trial"",""time""
""fullscreenenter"",""1"",""5669""
","
","","","319","","","10","5026","2316","&#9789;","elianto","#f73b6a7A"," "," ","1","0","[1184]","1","0","4","","","","","","","",""
"pit-trial","85","706432","0.0-2.0-17.0-3.0","battery-v0.2","","""event"",""trial"",""time""
""focus"",""0"",""4""
""fullscreenenter"",""1"",""5669""
","
","""event"",""trial"",""time""
""focus"",""0"",""4""
","""event"",""trial"",""time""
""fullscreenenter"",""1"",""5669""
","
","","","802","","","10","5026","2316","&#9789;","elianto","#f73b6a7A"," "," ","1","-10","[1667]","1","0","4","","","","","","","",""
"pit-trial","86","709543","0.0-2.0-17.0-4.0","battery-v0.2","","""event"",""trial"",""time""
""focus"",""0"",""4""
""fullscreenenter"",""1"",""5669""
","
","""event"",""trial"",""time""
""focus"",""0"",""4""
","""event"",""trial"",""time""
""fullscreenenter"",""1"",""5669""
","
","","","218","","","10","5026","2316","&#9789;","elianto","#f73b6a7A"," "," ","1","0","[612,1086]","2","0","4","","","","","","","",""
"pit-trial","87","712683","0.0-2.0-17.1-0.1","battery-v0.2","","""event"",""trial"",""time""
""focus"",""0"",""4""
""fullscreenenter"",""1"",""5669""
","
","""event"",""trial"",""time""
""focus"",""0"",""4""
","""event"",""trial"",""time""
""fullscreenenter"",""1"",""5669""
","
","","","253","","","10","5026","2316","&#9789;","elianto","#f73b6a7A"," "," ","1","0","[1117]","1","0","4","","","","","","","",""
"pit-trial","88","715813","0.0-2.0-17.1-1.1","battery-v0.2","","""event"",""trial"",""time""
""focus"",""0"",""4""
""fullscreenenter"",""1"",""5669""
","
","""event"",""trial"",""time""
""focus"",""0"",""4""
","""event"",""trial"",""time""
""fullscreenenter"",""1"",""5669""
","
","","","247","","","10","5026","2316","&#9789;","elianto","#f73b6a7A"," "," ","1","0","[1112]","1","0","4","","","","","","","",""
"pit-trial","89","718933","0.0-2.0-17.1-2.1","battery-v0.2","","""event"",""trial"",""time""
""focus"",""0"",""4""
""fullscreenenter"",""1"",""5669""
","
","""event"",""trial"",""time""
""focus"",""0"",""4""
","""event"",""trial"",""time""
""fullscreenenter"",""1"",""5669""
","
","","","249","","","10","5026","2316","&#9789;","elianto","#f73b6a7A"," "," ","1","0","[1112]","1","0","4","","","","","","","",""
"pit-trial","90","722143","0.0-2.0-17.1-3.1","battery-v0.2","","""event"",""trial"",""time""
""focus"",""0"",""4""
""fullscreenenter"",""1"",""5669""
","
","""event"",""trial"",""time""
""focus"",""0"",""4""
","""event"",""trial"",""time""
""fullscreenenter"",""1"",""5669""
","
","","","326","","","10","5026","2316","&#9789;","elianto","#f73b6a7A"," "," ","1","-10","[1191]","1","0","4","","","","","","","",""
"pit-trial","91","725393","0.0-2.0-17.1-4.1","battery-v0.2","","""event"",""trial"",""time""
""focus"",""0"",""4""
""fullscreenenter"",""1"",""5669""
","
","""event"",""trial"",""time""
""focus"",""0"",""4""
","""event"",""trial"",""time""
""fullscreenenter"",""1"",""5669""
","
","","","377","","","10","5026","2316","&#9789;","elianto","#f73b6a7A"," "," ","1","0","[1246]","1","0","4","","","","","","","",""
"pit-trial","92","729443","0.0-2.0-17.2-0.2","battery-v0.2","","""event"",""trial"",""time""
""focus"",""0"",""4""
""fullscreenenter"",""1"",""5669""
","
","""event"",""trial"",""time""
""focus"",""0"",""4""
","""event"",""trial"",""time""
""fullscreenenter"",""1"",""5669""
","
","","","1163","","","10","5026","2316","&#9789;","elianto","#f73b6a7A"," "," ","1","0","[2028,3964]","2","0","4","","","","","","","",""
"pit-trial","93","733238","0.0-2.0-17.2-1.2","battery-v0.2","","""event"",""trial"",""time""
""focus"",""0"",""4""
""fullscreenenter"",""1"",""5669""
","
","""event"",""trial"",""time""
""focus"",""0"",""4""
","""event"",""trial"",""time""
""fullscreenenter"",""1"",""5669""
","
","","","913","","","10","5026","2316","&#9789;","elianto","#f73b6a7A"," "," ","1","0","[1778,2168,3030,3353,3790]","5","0","4","","","","","","","",""
"pit-trial","94","736923","0.0-2.0-17.2-2.2","battery-v0.2","","""event"",""trial"",""time""
""focus"",""0"",""4""
""fullscreenenter"",""1"",""5669""
","
","""event"",""trial"",""time""
""focus"",""0"",""4""
","""event"",""trial"",""time""
""fullscreenenter"",""1"",""5669""
","
","","","797","","","10","5026","2316","&#9789;","elianto","#f73b6a7A"," "," ","1","0","[803,1664,1887,2121,2282,2501,2716,2922,3149,3363,3588]","11","0","4","","","","","","","",""
"pit-trial","95","739994","0.0-2.0-17.2-3.2","battery-v0.2","","""event"",""trial"",""time""
""focus"",""0"",""4""
""fullscreenenter"",""1"",""5669""
","
","""event"",""trial"",""time""
""focus"",""0"",""4""
","""event"",""trial"",""time""
""fullscreenenter"",""1"",""5669""
","
","","","185","","","10","5026","2316","&#9789;","elianto","#f73b6a7A"," "," ","1","-10","[121,353,598,852,1049,1266,1509,1740,1975,2235,2491,2788,2995]","13","0","4","","","","","","","",""
"pit-trial","96","742874","0.0-2.0-17.2-4.2","battery-v0.2","","""event"",""trial"",""time""
""focus"",""0"",""4""
""fullscreenenter"",""1"",""5669""
","
","""event"",""trial"",""time""
""focus"",""0"",""4""
","""event"",""trial"",""time""
""fullscreenenter"",""1"",""5669""
","
","","","1","","","10","5026","2316","&#9789;","elianto","#f73b6a7A"," "," ","1","0","[148,395,862,1089,1298,1543,1748,1983,2222,2435,2685]","11","0","4","","","","","","","",""
"pit-trial","97","745854","0.0-2.0-17.3-0.3","battery-v0.2","","""event"",""trial"",""time""
""focus"",""0"",""4""
""fullscreenenter"",""1"",""5669""
","
","""event"",""trial"",""time""
""focus"",""0"",""4""
","""event"",""trial"",""time""
""fullscreenenter"",""1"",""5669""
","
","","","106","","","10","5026","2316","&#9789;","elianto","#f73b6a7A"," "," ","1","0","[57,271,497,742,968,1200,1472,1694,1930,2198,2453,2741]","12","0","4","","","","","","","",""
"pit-trial","98","748803","0.0-2.0-17.3-1.3","battery-v0.2","","""event"",""trial"",""time""
""focus"",""0"",""4""
""fullscreenenter"",""1"",""5669""
","
","""event"",""trial"",""time""
""focus"",""0"",""4""
","""event"",""trial"",""time""
""fullscreenenter"",""1"",""5669""
","
","","","70","","","10","5026","2316","&#9789;","elianto","#f73b6a7A"," "," ","1","0","[27,369,664,935,1218,1470,1711,2218,2511,2747]","10","0","4","","","","","","","",""
"pit-trial","99","751883","0.0-2.0-17.3-2.3","battery-v0.2","","""event"",""trial"",""time""
""focus"",""0"",""4""
""fullscreenenter"",""1"",""5669""
","
","""event"",""trial"",""time""
""focus"",""0"",""4""
","""event"",""trial"",""time""
""fullscreenenter"",""1"",""5669""
","
","","","203","","","10","5026","2316","&#9789;","elianto","#f73b6a7A"," "," ","1","0","[77,562,829,1067,1312,1641,1918,2143,2421,2654,2901]","11","0","4","","","","","","","",""
"pit-trial","100","754959","0.0-2.0-17.3-3.3","battery-v0.2","","""event"",""trial"",""time""
""focus"",""0"",""4""
""fullscreenenter"",""1"",""5669""
","
","""event"",""trial"",""time""
""focus"",""0"",""4""
","""event"",""trial"",""time""
""fullscreenenter"",""1"",""5669""
","
","","","194","","","10","5026","2316","&#9789;","elianto","#f73b6a7A"," "," ","1","-10","[79,310,563,809,1059,1340,1579,1852,2107,2375,2615,2899]","12","0","4","","","","","","","",""
"pit-trial","101","757873","0.0-2.0-17.3-4.3","battery-v0.2","","""event"",""trial"",""time""
""focus"",""0"",""4""
""fullscreenenter"",""1"",""5669""
","
","""event"",""trial"",""time""
""focus"",""0"",""4""
","""event"",""trial"",""time""
""fullscreenenter"",""1"",""5669""
","
","","","38","","","10","5026","2316","&#9789;","elianto","#f73b6a7A"," "," ","1","0","[67,357,658,906,1448,1746,2056,2339]","8","0","4","","","","","","","",""
"call-function","102","757876","0.0-2.0-18.0","battery-v0.2","","""event"",""trial"",""time""
""focus"",""0"",""4""
""fullscreenenter"",""1"",""5669""
","
","""event"",""trial"",""time""
""focus"",""0"",""4""
","""event"",""trial"",""time""
""fullscreenenter"",""1"",""5669""
","
","","","","","","","","","","","","","","","","","","","","","","","","","","",""
"pit-instructions","103","828515","0.0-2.0-19.0","battery-v0.2","","""event"",""trial"",""time""
""focus"",""0"",""4""
""fullscreenenter"",""1"",""5669""
","
","""event"",""trial"",""time""
""focus"",""0"",""4""
","""event"",""trial"",""time""
""fullscreenenter"",""1"",""5669""
","
","","[{""page_index"":0,""viewing_time"":6835},{""page_index"":1,""viewing_time"":7973},{""page_index"":2,""viewing_time"":9677},{""page_index"":3,""viewing_time"":7634},{""page_index"":4,""viewing_time"":8310},{""page_index"":5,""viewing_time"":8148},{""page_index"":6,""viewing_time"":9935},{""page_index"":7,""viewing_time"":7128},{""page_index"":8,""viewing_time"":4996}]","70637","","","","","","","","","","","","","","","","","","","","","","","",""
"pit-comprehension","104","834180","0.0-2.0-20.0-0.0","battery-v0.2","","""event"",""trial"",""time""
""focus"",""0"",""4""
""fullscreenenter"",""1"",""5669""
","
","""event"",""trial"",""time""
""focus"",""0"",""4""
","""event"",""trial"",""time""
""fullscreenenter"",""1"",""5669""
","
","","","5659","[""SPACE""]","0","10","5026","2316","","","","","","","","","","","","","","","","","","",""
"pit-instructions","105","838265","0.0-2.0-20.0-1.0","battery-v0.2","","""event"",""trial"",""time""
""focus"",""0"",""4""
""fullscreenenter"",""1"",""5669""
","
","""event"",""trial"",""time""
""focus"",""0"",""4""
","""event"",""trial"",""time""
""fullscreenenter"",""1"",""5669""
","
","","[{""page_index"":0,""viewing_time"":3994}]","3994","","","","","","","","","","","","","","","","","","","","","","","",""
"pit-comprehension","106","845758","0.0-2.0-21.0-0.0","battery-v0.2","","""event"",""trial"",""time""
""focus"",""0"",""4""
""fullscreenenter"",""1"",""5669""
","
","""event"",""trial"",""time""
""focus"",""0"",""4""
","""event"",""trial"",""time""
""fullscreenenter"",""1"",""5669""
","
","","","7489","[""10""]","0","10","5026","2316","","","","","","","","","","","","","","","","","","",""
"pit-instructions","107","849457","0.0-2.0-21.0-1.0","battery-v0.2","","""event"",""trial"",""time""
""focus"",""0"",""4""
""fullscreenenter"",""1"",""5669""
","
","""event"",""trial"",""time""
""focus"",""0"",""4""
","""event"",""trial"",""time""
""fullscreenenter"",""1"",""5669""
","
","","[{""page_index"":0,""viewing_time"":3621}]","3621","","","","","","","","","","","","","","","","","","","","","","","",""
"pit-comprehension","108","856738","0.0-2.0-22.0-0.0","battery-v0.2","","""event"",""trial"",""time""
""focus"",""0"",""4""
""fullscreenenter"",""1"",""5669""
","
","""event"",""trial"",""time""
""focus"",""0"",""4""
","""event"",""trial"",""time""
""fullscreenenter"",""1"",""5669""
","
","","","7276","[""0""]","0","10","5026","2316","","","","","","","","","","","","","","","","","","",""
"pit-instructions","109","858543","0.0-2.0-22.0-1.0","battery-v0.2","","""event"",""trial"",""time""
""focus"",""0"",""4""
""fullscreenenter"",""1"",""5669""
","
","""event"",""trial"",""time""
""focus"",""0"",""4""
","""event"",""trial"",""time""
""fullscreenenter"",""1"",""5669""
","
","","[{""page_index"":0,""viewing_time"":1715}]","1715","","","","","","","","","","","","","","","","","","","","","","","",""
"pit-comprehension","110","875569","0.0-2.0-23.0-0.0","battery-v0.2","","""event"",""trial"",""time""
""focus"",""0"",""4""
""fullscreenenter"",""1"",""5669""
","
","""event"",""trial"",""time""
""focus"",""0"",""4""
","""event"",""trial"",""time""
""fullscreenenter"",""1"",""5669""
","
","","","17023","[""True""]","0","10","5026","2316","","","","","","","","","","","","","","","","","","",""
"pit-instructions","111","878086","0.0-2.0-23.0-1.0","battery-v0.2","","""event"",""trial"",""time""
""focus"",""0"",""4""
""fullscreenenter"",""1"",""5669""
","
","""event"",""trial"",""time""
""focus"",""0"",""4""
","""event"",""trial"",""time""
""fullscreenenter"",""1"",""5669""
","
","","[{""page_index"":0,""viewing_time"":2424}]","2424","","","","","","","","","","","","","","","","","","","","","","","",""
"pit-comprehension","112","889826","0.0-2.0-24.0-0.0","battery-v0.2","","""event"",""trial"",""time""
""focus"",""0"",""4""
""fullscreenenter"",""1"",""5669""
","
","""event"",""trial"",""time""
""focus"",""0"",""4""
","""event"",""trial"",""time""
""fullscreenenter"",""1"",""5669""
","
","","","11736","[""True""]","0","10","5026","2316","","","","","","","","","","","","","","","","","","",""
"pit-instructions","113","891927","0.0-2.0-24.0-1.0","battery-v0.2","","""event"",""trial"",""time""
""focus"",""0"",""4""
""fullscreenenter"",""1"",""5669""
","
","""event"",""trial"",""time""
""focus"",""0"",""4""
","""event"",""trial"",""time""
""fullscreenenter"",""1"",""5669""
","
","","[{""page_index"":0,""viewing_time"":1999}]","1999","","","","","","","","","","","","","","","","","","","","","","","",""
"pit-comprehension","114","899078","0.0-2.0-25.0-0.0","battery-v0.2","","""event"",""trial"",""time""
""focus"",""0"",""4""
""fullscreenenter"",""1"",""5669""
","
","""event"",""trial"",""time""
""focus"",""0"",""4""
","""event"",""trial"",""time""
""fullscreenenter"",""1"",""5669""
","
","","","7147","[""True""]","0","10","5026","2316","","","","","","","","","","","","","","","","","","",""
"pit-instructions","115","901117","0.0-2.0-25.0-1.0","battery-v0.2","","""event"",""trial"",""time""
""focus"",""0"",""4""
""fullscreenenter"",""1"",""5669""
","
","""event"",""trial"",""time""
""focus"",""0"",""4""
","""event"",""trial"",""time""
""fullscreenenter"",""1"",""5669""
","
","","[{""page_index"":0,""viewing_time"":1947}]","1947","","","","","","","","","","","","","","","","","","","","","","","",""
"pit-comprehension","116","910369","0.0-2.0-26.0-0.0","battery-v0.2","","""event"",""trial"",""time""
""focus"",""0"",""4""
""fullscreenenter"",""1"",""5669""
","
","""event"",""trial"",""time""
""focus"",""0"",""4""
","""event"",""trial"",""time""
""fullscreenenter"",""1"",""5669""
","
","","","9247","[""True""]","1","10","5026","2316","","","","","","","","","","","","","","","","","","",""
"pit-instructions","117","913046","0.0-2.0-26.0-1.0","battery-v0.2","","""event"",""trial"",""time""
""focus"",""0"",""4""
""fullscreenenter"",""1"",""5669""
","
","""event"",""trial"",""time""
""focus"",""0"",""4""
","""event"",""trial"",""time""
""fullscreenenter"",""1"",""5669""
","
","","[{""page_index"":0,""viewing_time"":2577}]","2578","","","","","","","","","","","","","","","","","","","","","","","",""
"pit-instructions","118","915255","0.0-2.0-26.0-2.0-0.0","battery-v0.2","","""event"",""trial"",""time""
""focus"",""0"",""4""
""fullscreenenter"",""1"",""5669""
","
","""event"",""trial"",""time""
""focus"",""0"",""4""
","""event"",""trial"",""time""
""fullscreenenter"",""1"",""5669""
","
","","[{""page_index"":0,""viewing_time"":2206}]","2207","","","","","","","","","","","","","","","","","","","","","","","",""
"pit-comprehension","119","923060","0.0-2.0-26.1-0.1","battery-v0.2","","""event"",""trial"",""time""
""focus"",""0"",""4""
""fullscreenenter"",""1"",""5669""
","
","""event"",""trial"",""time""
""focus"",""0"",""4""
","""event"",""trial"",""time""
""fullscreenenter"",""1"",""5669""
","
","","","7802","[""False""]","0","10","5026","2316","","","","","","","","","","","","","","","","","","",""
"pit-instructions","120","924323","0.0-2.0-26.1-1.1","battery-v0.2","","""event"",""trial"",""time""
""focus"",""0"",""4""
""fullscreenenter"",""1"",""5669""
","
","""event"",""trial"",""time""
""focus"",""0"",""4""
","""event"",""trial"",""time""
""fullscreenenter"",""1"",""5669""
","
","","[{""page_index"":0,""viewing_time"":1167}]","1168","","","","","","","","","","","","","","","","","","","","","","","",""
"pit-instructions","121","942914","0.0-3.0","battery-v0.2","","""event"",""trial"",""time""
""focus"",""0"",""4""
""fullscreenenter"",""1"",""5669""
","
","""event"",""trial"",""time""
""focus"",""0"",""4""
","""event"",""trial"",""time""
""fullscreenenter"",""1"",""5669""
","
","","[{""page_index"":0,""viewing_time"":5666},{""page_index"":1,""viewing_time"":5773},{""page_index"":2,""viewing_time"":7149}]","18588","","","","","","","","","","","","","","","","","","","","","","","",""
"pit-trial","122","946554","0.0-4.0","battery-v0.2","","""event"",""trial"",""time""
""focus"",""0"",""4""
""fullscreenenter"",""1"",""5669""
","
","""event"",""trial"",""time""
""focus"",""0"",""4""
","""event"",""trial"",""time""
""fullscreenenter"",""1"",""5669""
","
","","","765","","","10","5026","2316","&#9733;","elianto","#3366ff99","-1"," ","0","0","[1618]","1","1","","","5026","1","2","2","win","no-go","0"
"pit-trial","123","950214","0.0-5.0","battery-v0.2","","""event"",""trial"",""time""
""focus"",""0"",""4""
""fullscreenenter"",""1"",""5669""
","
","""event"",""trial"",""time""
""focus"",""0"",""4""
","""event"",""trial"",""time""
""fullscreenenter"",""1"",""5669""
","
","","","789","","","10","5026","2316","&#9728;","elianto","#f73b6a7A","-1"," ","0","-10","[1639]","1","1","","","5026","2","0","4","lose","no-go","0"
"pit-trial","124","954244","0.0-6.0","battery-v0.2","","""event"",""trial"",""time""
""focus"",""0"",""4""
""fullscreenenter"",""1"",""5669""
","
","""event"",""trial"",""time""
""focus"",""0"",""4""
","""event"",""trial"",""time""
""fullscreenenter"",""1"",""5669""
","
","","","1147","","","10","5026","2316","&#9752;","elianto","#f73b6a7A"," "," ","1","-10","[2013]","1","1","","","5026","3","3","3","lose","go","1"
"pit-trial","125","957869","0.0-7.0","battery-v0.2","","""event"",""trial"",""time""
""focus"",""0"",""4""
""fullscreenenter"",""1"",""5669""
","
","""event"",""trial"",""time""
""focus"",""0"",""4""
","""event"",""trial"",""time""
""fullscreenenter"",""1"",""5669""
","
","","","744","","","10","5026","2316","&#9730;","elianto","#3366ff99"," "," ","1","+10","[1608]","1","1","","","5026","4","1","1","win","go","0"
"pit-trial","126","962754","0.0-8.0","battery-v0.2","","""event"",""trial"",""time""
""focus"",""0"",""4""
""fullscreenenter"",""1"",""5669""
","
","""event"",""trial"",""time""
""focus"",""0"",""4""
","""event"",""trial"",""time""
""fullscreenenter"",""1"",""5669""
","
","","","-1","","","10","5026","2316","&#9733;","elianto","#3366ff99","-1","-1","1","+10","[]","0","1","","","5026","5","2","2","win","no-go","0"
"pit-trial","127","966484","0.0-9.0","battery-v0.2","","""event"",""trial"",""time""
""focus"",""0"",""4""
""fullscreenenter"",""1"",""5669""
","
","""event"",""trial"",""time""
""focus"",""0"",""4""
","""event"",""trial"",""time""
""fullscreenenter"",""1"",""5669""
","
","","","859","","","10","5026","2316","&#9730;","elianto","#3366ff99"," "," ","1","+10","[1725]","1","1","","","5026","6","1","1","win","go","0"
"pit-trial","128","971364","0.0-10.0","battery-v0.2","","""event"",""trial"",""time""
""focus"",""0"",""4""
""fullscreenenter"",""1"",""5669""
","
","""event"",""trial"",""time""
""focus"",""0"",""4""
","""event"",""trial"",""time""
""fullscreenenter"",""1"",""5669""
","
","","","-1","","","10","5026","2316","&#9728;","elianto","#f73b6a7A","-1","-1","1","-10","[]","0","1","","","5026","7","0","4","lose","no-go","1"
"pit-trial","129","976244","0.0-11.0","battery-v0.2","","""event"",""trial"",""time""
""focus"",""0"",""4""
""fullscreenenter"",""1"",""5669""
","
","""event"",""trial"",""time""
""focus"",""0"",""4""
","""event"",""trial"",""time""
""fullscreenenter"",""1"",""5669""
","
","","","-1","","","10","5026","2316","&#9752;","elianto","#f73b6a7A"," ","-1","0","-10","[]","0","1","","","5026","8","3","3","lose","go","0"
"pit-trial","130","981124","0.0-12.0","battery-v0.2","","""event"",""trial"",""time""
""focus"",""0"",""4""
""fullscreenenter"",""1"",""5669""
","
","""event"",""trial"",""time""
""focus"",""0"",""4""
","""event"",""trial"",""time""
""fullscreenenter"",""1"",""5669""
","
","","","-1","","","10","5026","2316","&#9733;","elianto","#3366ff99","-1","-1","1","+10","[119]","1","1","","","5026","9","2","2","win","no-go","0"
"pit-trial","131","984954","0.0-13.0","battery-v0.2","","""event"",""trial"",""time""
""focus"",""0"",""4""
""fullscreenenter"",""1"",""5669""
","
","""event"",""trial"",""time""
""focus"",""0"",""4""
","""event"",""trial"",""time""
""fullscreenenter"",""1"",""5669""
","
","","","959","","","10","5026","2316","&#9728;","elianto","#f73b6a7A","-1"," ","0","-10","[1824]","1","1","","","5026","10","0","4","lose","no-go","0"
"pit-trial","132","988664","0.0-14.0","battery-v0.2","","""event"",""trial"",""time""
""focus"",""0"",""4""
""fullscreenenter"",""1"",""5669""
","
","""event"",""trial"",""time""
""focus"",""0"",""4""
","""event"",""trial"",""time""
""fullscreenenter"",""1"",""5669""
","
","","","825","","","10","5026","2316","&#9730;","elianto","#3366ff99"," "," ","1","+10","[1687]","1","1","","","5026","11","1","1","win","go","0"
"pit-trial","133","993544","0.0-15.0","battery-v0.2","","""event"",""trial"",""time""
""focus"",""0"",""4""
""fullscreenenter"",""1"",""5669""
","
","""event"",""trial"",""time""
""focus"",""0"",""4""
","""event"",""trial"",""time""
""fullscreenenter"",""1"",""5669""
","
","","","-1","","","10","5026","2316","&#9752;","elianto","#f73b6a7A"," ","-1","0","-10","[]","0","1","","","5026","12","3","3","lose","go","0"
"pit-trial","134","998424","0.0-16.0","battery-v0.2","","""event"",""trial"",""time""
""focus"",""0"",""4""
""fullscreenenter"",""1"",""5669""
","
","""event"",""trial"",""time""
""focus"",""0"",""4""
","""event"",""trial"",""time""
""fullscreenenter"",""1"",""5669""
","
","","","-1","","","10","5026","2316","&#9728;","elianto","#f73b6a7A","-1","-1","1","0","[]","0","1","","","5026","13","0","4","lose","no-go","0"
"pit-trial","135","1002324","0.0-17.0","battery-v0.2","","""event"",""trial"",""time""
""focus"",""0"",""4""
""fullscreenenter"",""1"",""5669""
","
","""event"",""trial"",""time""
""focus"",""0"",""4""
","""event"",""trial"",""time""
""fullscreenenter"",""1"",""5669""
","
","","","1015","","","10","5026","2316","&#9730;","elianto","#3366ff99"," "," ","1","+10","[1879]","1","1","","","5026","14","1","1","win","go","0"
"pit-trial","136","1006207","0.0-18.0","battery-v0.2","","""event"",""trial"",""time""
""focus"",""0"",""4""
""fullscreenenter"",""1"",""5669""
","
","""event"",""trial"",""time""
""focus"",""0"",""4""
","""event"",""trial"",""time""
""fullscreenenter"",""1"",""5669""
","
","","","1008","","","10","5026","2316","&#9752;","elianto","#f73b6a7A"," "," ","1","0","[1871]","1","1","","","5026","15","3","3","lose","go","0"
"pit-trial","137","1011084","0.0-19.0","battery-v0.2","","""event"",""trial"",""time""
""focus"",""0"",""4""
""fullscreenenter"",""1"",""5669""
","
","""event"",""trial"",""time""
""focus"",""0"",""4""
","""event"",""trial"",""time""
""fullscreenenter"",""1"",""5669""
","
","","","-1","","","10","5026","2316","&#9733;","elianto","#3366ff99","-1","-1","1","+10","[]","0","1","","","5026","16","2","2","win","no-go","0"
"pit-trial","138","1015974","0.0-20.0","battery-v0.2","","""event"",""trial"",""time""
""focus"",""0"",""4""
""fullscreenenter"",""1"",""5669""
","
","""event"",""trial"",""time""
""focus"",""0"",""4""
","""event"",""trial"",""time""
""fullscreenenter"",""1"",""5669""
","
","","","-1","","","10","5026","2316","&#9728;","elianto","#f73b6a7A","-1","-1","1","0","[]","0","1","","","5026","17","0","4","lose","no-go","0"
"pit-trial","139","1020105","0.0-21.0","battery-v0.2","","""event"",""trial"",""time""
""focus"",""0"",""4""
""fullscreenenter"",""1"",""5669""
","
","""event"",""trial"",""time""
""focus"",""0"",""4""
","""event"",""trial"",""time""
""fullscreenenter"",""1"",""5669""
","
","","","1245","","","10","5026","2316","&#9752;","elianto","#f73b6a7A"," "," ","1","0","[2110]","1","1","","","5026","18","3","3","lose","go","0"
"pit-trial","140","1023594","0.0-22.0","battery-v0.2","","""event"",""trial"",""time""
""focus"",""0"",""4""
""fullscreenenter"",""1"",""5669""
","
","""event"",""trial"",""time""
""focus"",""0"",""4""
","""event"",""trial"",""time""
""fullscreenenter"",""1"",""5669""
","
","","","613","","","10","5026","2316","&#9730;","elianto","#3366ff99"," "," ","1","+10","[1477]","1","1","","","5026","19","1","1","win","go","0"
"pit-trial","141","1028465","0.0-23.0","battery-v0.2","","""event"",""trial"",""time""
""focus"",""0"",""4""
""fullscreenenter"",""1"",""5669""
","
","""event"",""trial"",""time""
""focus"",""0"",""4""
","""event"",""trial"",""time""
""fullscreenenter"",""1"",""5669""
","
","","","-1","","","10","5026","2316","&#9733;","elianto","#3366ff99","-1","-1","1","0","[]","0","1","","","5026","20","2","2","win","no-go","1"
"pit-instructions","142","1041398","0.0-24.0","battery-v0.2","","""event"",""trial"",""time""
""focus"",""0"",""4""
""fullscreenenter"",""1"",""5669""
","
","""event"",""trial"",""time""
""focus"",""0"",""4""
","""event"",""trial"",""time""
""fullscreenenter"",""1"",""5669""
","
","","[{""page_index"":0,""viewing_time"":5734},{""page_index"":1,""viewing_time"":7197}]","12931","","","","","","","","","","","","","","","","","","","","","","","",""
"pit-trial","143","1044794","0.0-25.0","battery-v0.2","","""event"",""trial"",""time""
""focus"",""0"",""4""
""fullscreenenter"",""1"",""5669""
","
","""event"",""trial"",""time""
""focus"",""0"",""4""
","""event"",""trial"",""time""
""fullscreenenter"",""1"",""5669""
","
","","","523","","","10","5026","2316","e","elianto","#f73b6a7A","-1"," ","0","-10","[1387]","1","2","","","5026","21","2","4","lose","no-go","0"
"pit-trial","144","1048320","0.0-26.0","battery-v0.2","","""event"",""trial"",""time""
""focus"",""0"",""4""
""fullscreenenter"",""1"",""5669""
","
","""event"",""trial"",""time""
""focus"",""0"",""4""
","""event"",""trial"",""time""
""fullscreenenter"",""1"",""5669""
","
","","","653","","","10","5026","2316","j","elianto","#f73b6a7A","-1"," ","0","-10","[1519]","1","2","","","5026","22","0","4","lose","no-go","0"
"pit-trial","145","1051913","0.0-27.0","battery-v0.2","","""event"",""trial"",""time""
""focus"",""0"",""4""
""fullscreenenter"",""1"",""5669""
","
","""event"",""trial"",""time""
""focus"",""0"",""4""
","""event"",""trial"",""time""
""fullscreenenter"",""1"",""5669""
","
","","","706","","","10","5026","2316","d","elianto","#3366ff99"," "," ","1","+10","[1576]","1","2","","","5026","23","1","1","win","go","0"
"pit-trial","146","1055604","0.0-28.0","battery-v0.2","","""event"",""trial"",""time""
""focus"",""0"",""4""
""fullscreenenter"",""1"",""5669""
","
","""event"",""trial"",""time""
""focus"",""0"",""4""
","""event"",""trial"",""time""
""fullscreenenter"",""1"",""5669""
","
","","","821","","","10","5026","2316","w","elianto","#f73b6a7A"," "," ","1","0","[1685]","1","2","","","5026","24","3","3","lose","go","0"
"pit-trial","147","1059674","0.0-29.0","battery-v0.2","","""event"",""trial"",""time""
""focus"",""0"",""4""
""fullscreenenter"",""1"",""5669""
","
","""event"",""trial"",""time""
""focus"",""0"",""4""
","""event"",""trial"",""time""
""fullscreenenter"",""1"",""5669""
","
","","","1196","","","10","5026","2316","d","elianto","#3366ff99"," "," ","1","+10","[2063]","1","2","","","5026","25","1","1","win","go","0"
"pit-trial","148","1064544","0.0-30.0","battery-v0.2","","""event"",""trial"",""time""
""focus"",""0"",""4""
""fullscreenenter"",""1"",""5669""
","
","""event"",""trial"",""time""
""focus"",""0"",""4""
","""event"",""trial"",""time""
""fullscreenenter"",""1"",""5669""
","
","","","-1","","","10","5026","2316","e","elianto","#f73b6a7A","-1","-1","1","0","[]","0","2","","","5026","26","2","4","lose","no-go","0"
"pit-trial","149","1069415","0.0-31.0","battery-v0.2","","""event"",""trial"",""time""
""focus"",""0"",""4""
""fullscreenenter"",""1"",""5669""
","
","""event"",""trial"",""time""
""focus"",""0"",""4""
","""event"",""trial"",""time""
""fullscreenenter"",""1"",""5669""
","
","","","-1","","","10","5026","2316","w","elianto","#f73b6a7A"," ","-1","0","0","[2858]","1","2","","","5026","27","3","3","lose","go","1"
"pit-trial","150","1074294","0.0-32.0","battery-v0.2","","""event"",""trial"",""time""
""focus"",""0"",""4""
""fullscreenenter"",""1"",""5669""
","
","""event"",""trial"",""time""
""focus"",""0"",""4""
","""event"",""trial"",""time""
""fullscreenenter"",""1"",""5669""
","
","","","-1","","","10","5026","2316","j","elianto","#f73b6a7A","-1","-1","1","0","[]","0","2","","","5026","28","0","4","lose","no-go","0"
"pit-trial","151","1078525","0.0-33.0","battery-v0.2","","""event"",""trial"",""time""
""focus"",""0"",""4""
""fullscreenenter"",""1"",""5669""
","
","""event"",""trial"",""time""
""focus"",""0"",""4""
","""event"",""trial"",""time""
""fullscreenenter"",""1"",""5669""
","
","","","1356","","","10","5026","2316","e","elianto","#f73b6a7A","-1"," ","0","0","[2222]","1","2","","","5026","29","2","4","lose","no-go","1"
"pit-trial","152","1081894","0.0-34.0","battery-v0.2","","""event"",""trial"",""time""
""focus"",""0"",""4""
""fullscreenenter"",""1"",""5669""
","
","""event"",""trial"",""time""
""focus"",""0"",""4""
","""event"",""trial"",""time""
""fullscreenenter"",""1"",""5669""
","
","","","480","","","10","5026","2316","d","elianto","#3366ff99"," "," ","1","+10","[1345]","1","2","","","5026","30","1","1","win","go","0"
"pit-trial","153","1086764","0.0-35.0","battery-v0.2","","""event"",""trial"",""time""
""focus"",""0"",""4""
""fullscreenenter"",""1"",""5669""
","
","""event"",""trial"",""time""
""focus"",""0"",""4""
","""event"",""trial"",""time""
""fullscreenenter"",""1"",""5669""
","
","","","-1","","","10","5026","2316","w","elianto","#f73b6a7A"," ","-1","0","-10","[]","0","2","","","5026","31","3","3","lose","go","0"
"pit-trial","154","1091643","0.0-36.0","battery-v0.2","","""event"",""trial"",""time""
""focus"",""0"",""4""
""fullscreenenter"",""1"",""5669""
","
","""event"",""trial"",""time""
""focus"",""0"",""4""
","""event"",""trial"",""time""
""fullscreenenter"",""1"",""5669""
","
","","","-1","","","10","5026","2316","j","elianto","#f73b6a7A","-1","-1","1","0","[]","0","2","","","5026","32","0","4","lose","no-go","0"
"pit-trial","155","1095074","0.0-37.0","battery-v0.2","","""event"",""trial"",""time""
""focus"",""0"",""4""
""fullscreenenter"",""1"",""5669""
","
","""event"",""trial"",""time""
""focus"",""0"",""4""
","""event"",""trial"",""time""
""fullscreenenter"",""1"",""5669""
","
","","","542","","","10","5026","2316","w","elianto","#f73b6a7A"," "," ","1","0","[1411]","1","2","","","5026","33","3","3","lose","go","0"
"pit-trial","156","1099944","0.0-38.0","battery-v0.2","","""event"",""trial"",""time""
""focus"",""0"",""4""
""fullscreenenter"",""1"",""5669""
","
","""event"",""trial"",""time""
""focus"",""0"",""4""
","""event"",""trial"",""time""
""fullscreenenter"",""1"",""5669""
","
","","","-1","","","10","5026","2316","j","elianto","#f73b6a7A","-1","-1","1","0","[]","0","2","","","5026","34","0","4","lose","no-go","0"
"pit-trial","157","1103504","0.0-39.0","battery-v0.2","","""event"",""trial"",""time""
""focus"",""0"",""4""
""fullscreenenter"",""1"",""5669""
","
","""event"",""trial"",""time""
""focus"",""0"",""4""
","""event"",""trial"",""time""
""fullscreenenter"",""1"",""5669""
","
","","","680","","","10","5026","2316","d","elianto","#3366ff99"," "," ","1","+10","[1549]","1","2","","","5026","35","1","1","win","go","0"
"pit-trial","158","1108393","0.0-40.0","battery-v0.2","","""event"",""trial"",""time""
""focus"",""0"",""4""
""fullscreenenter"",""1"",""5669""
","
","""event"",""trial"",""time""
""focus"",""0"",""4""
","""event"",""trial"",""time""
""fullscreenenter"",""1"",""5669""
","
","","","-1","","","10","5026","2316","e","elianto","#f73b6a7A","-1","-1","1","0","[4361]","1","2","","","5026","36","2","4","lose","no-go","0"
"pit-trial","159","1111924","0.0-41.0","battery-v0.2","","""event"",""trial"",""time""
""focus"",""0"",""4""
""fullscreenenter"",""1"",""5669""
","
","""event"",""trial"",""time""
""focus"",""0"",""4""
","""event"",""trial"",""time""
""fullscreenenter"",""1"",""5669""
","
","","","640","","","10","5026","2316","d","elianto","#3366ff99"," "," ","1","0","[1509]","1","2","","","5026","37","1","1","win","go","1"
"pit-trial","160","1116814","0.0-42.0","battery-v0.2","","""event"",""trial"",""time""
""focus"",""0"",""4""
""fullscreenenter"",""1"",""5669""
","
","""event"",""trial"",""time""
""focus"",""0"",""4""
","""event"",""trial"",""time""
""fullscreenenter"",""1"",""5669""
","
","","","-1","","","10","5026","2316","e","elianto","#f73b6a7A","-1","-1","1","0","[]","0","2","","","5026","38","2","4","lose","no-go","0"
"pit-trial","161","1120655","0.0-43.0","battery-v0.2","","""event"",""trial"",""time""
""focus"",""0"",""4""
""fullscreenenter"",""1"",""5669""
","
","""event"",""trial"",""time""
""focus"",""0"",""4""
","""event"",""trial"",""time""
""fullscreenenter"",""1"",""5669""
","
","","","958","","","10","5026","2316","w","elianto","#f73b6a7A"," "," ","1","-10","[1822]","1","2","","","5026","39","3","3","lose","go","1"
"pit-trial","162","1125524","0.0-44.0","battery-v0.2","","""event"",""trial"",""time""
""focus"",""0"",""4""
""fullscreenenter"",""1"",""5669""
","
","""event"",""trial"",""time""
""focus"",""0"",""4""
","""event"",""trial"",""time""
""fullscreenenter"",""1"",""5669""
","
","","","-1","","","10","5026","2316","j","elianto","#f73b6a7A","-1","-1","1","-10","[]","0","2","","","5026","40","0","4","lose","no-go","1"
"pit-trial","163","1129183","0.0-45.0","battery-v0.2","","""event"",""trial"",""time""
""focus"",""0"",""4""
""fullscreenenter"",""1"",""5669""
","
","""event"",""trial"",""time""
""focus"",""0"",""4""
","""event"",""trial"",""time""
""fullscreenenter"",""1"",""5669""
","
","","","771","","","10","5026","2316","w","elianto","#f73b6a7A"," "," ","1","-10","[1640]","1","2","","","5026","41","3","3","lose","go","1"
"pit-trial","164","1134054","0.0-46.0","battery-v0.2","","""event"",""trial"",""time""
""focus"",""0"",""4""
""fullscreenenter"",""1"",""5669""
","
","""event"",""trial"",""time""
""focus"",""0"",""4""
","""event"",""trial"",""time""
""fullscreenenter"",""1"",""5669""
","
","","","-1","","","10","5026","2316","e","elianto","#f73b6a7A","-1","-1","1","-10","[]","0","2","","","5026","42","2","4","lose","no-go","1"
"pit-trial","165","1138014","0.0-47.0","battery-v0.2","","""event"",""trial"",""time""
""focus"",""0"",""4""
""fullscreenenter"",""1"",""5669""
","
","""event"",""trial"",""time""
""focus"",""0"",""4""
","""event"",""trial"",""time""
""fullscreenenter"",""1"",""5669""
","
","","","1071","","","10","5026","2316","j","elianto","#f73b6a7A","-1"," ","0","-10","[1937]","1","2","","","5026","43","0","4","lose","no-go","0"
"pit-trial","166","1141584","0.0-48.0","battery-v0.2","","""event"",""trial"",""time""
""focus"",""0"",""4""
""fullscreenenter"",""1"",""5669""
","
","""event"",""trial"",""time""
""focus"",""0"",""4""
","""event"",""trial"",""time""
""fullscreenenter"",""1"",""5669""
","
","","","704","","","10","5026","2316","d","elianto","#3366ff99"," "," ","1","+10","[1566]","1","2","","","5026","44","1","1","win","go","0"
"pit-trial","167","1146464","0.0-49.0","battery-v0.2","","""event"",""trial"",""time""
""focus"",""0"",""4""
""fullscreenenter"",""1"",""5669""
","
","""event"",""trial"",""time""
""focus"",""0"",""4""
","""event"",""trial"",""time""
""fullscreenenter"",""1"",""5669""
","
","","","-1","","","10","5026","2316","e","elianto","#f73b6a7A","-1","-1","1","0","[]","0","2","","","5026","45","2","4","lose","no-go","0"
"pit-trial","168","1151334","0.0-50.0","battery-v0.2","","""event"",""trial"",""time""
""focus"",""0"",""4""
""fullscreenenter"",""1"",""5669""
","
","""event"",""trial"",""time""
""focus"",""0"",""4""
","""event"",""trial"",""time""
""fullscreenenter"",""1"",""5669""
","
","","","-1","","","10","5026","2316","s","elianto","#3366ff99","-1","-1","1","+10","[]","0","2","","","5026","46","4","2","win","no-go","0"
"pit-trial","169","1156194","0.0-51.0","battery-v0.2","","""event"",""trial"",""time""
""focus"",""0"",""4""
""fullscreenenter"",""1"",""5669""
","
","""event"",""trial"",""time""
""focus"",""0"",""4""
","""event"",""trial"",""time""
""fullscreenenter"",""1"",""5669""
","
","","","-1","","","10","5026","2316","j","elianto","#f73b6a7A","-1","-1","1","0","[]","0","2","","","5026","47","0","4","lose","no-go","0"
"pit-trial","170","1159884","0.0-52.0","battery-v0.2","","""event"",""trial"",""time""
""focus"",""0"",""4""
""fullscreenenter"",""1"",""5669""
","
","""event"",""trial"",""time""
""focus"",""0"",""4""
","""event"",""trial"",""time""
""fullscreenenter"",""1"",""5669""
","
","","","816","","","10","5026","2316","w","elianto","#f73b6a7A"," "," ","1","0","[1679]","1","2","","","5026","48","3","3","lose","go","0"
"pit-trial","171","1163154","0.0-53.0","battery-v0.2","","""event"",""trial"",""time""
""focus"",""0"",""4""
""fullscreenenter"",""1"",""5669""
","
","""event"",""trial"",""time""
""focus"",""0"",""4""
","""event"",""trial"",""time""
""fullscreenenter"",""1"",""5669""
","
","","","383","","","10","5026","2316","d","elianto","#3366ff99"," "," ","1","+10","[1251]","1","2","","","5026","49","1","1","win","go","0"
"pit-trial","172","1168023","0.0-54.0","battery-v0.2","","""event"",""trial"",""time""
""focus"",""0"",""4""
""fullscreenenter"",""1"",""5669""
","
","""event"",""trial"",""time""
""focus"",""0"",""4""
","""event"",""trial"",""time""
""fullscreenenter"",""1"",""5669""
","
","","","-1","","","10","5026","2316","j","elianto","#f73b6a7A","-1","-1","1","0","[]","0","2","","","5026","50","0","4","lose","no-go","0"
"pit-trial","173","1171704","0.0-55.0","battery-v0.2","","""event"",""trial"",""time""
""focus"",""0"",""4""
""fullscreenenter"",""1"",""5669""
","
","""event"",""trial"",""time""
""focus"",""0"",""4""
","""event"",""trial"",""time""
""fullscreenenter"",""1"",""5669""
","
","","","791","","","10","5026","2316","s","elianto","#3366ff99","-1"," ","0","0","[1659,3022]","2","2","","","5026","51","4","2","win","no-go","0"
"pit-trial","174","1175325","0.0-56.0","battery-v0.2","","""event"",""trial"",""time""
""focus"",""0"",""4""
""fullscreenenter"",""1"",""5669""
","
","""event"",""trial"",""time""
""focus"",""0"",""4""
","""event"",""trial"",""time""
""fullscreenenter"",""1"",""5669""
","
","","","745","","","10","5026","2316","w","elianto","#f73b6a7A"," "," ","1","0","[1611]","1","2","","","5026","52","3","3","lose","go","0"
"pit-trial","175","1180184","0.0-57.0","battery-v0.2","","""event"",""trial"",""time""
""focus"",""0"",""4""
""fullscreenenter"",""1"",""5669""
","
","""event"",""trial"",""time""
""focus"",""0"",""4""
","""event"",""trial"",""time""
""fullscreenenter"",""1"",""5669""
","
","","","-1","","","10","5026","2316","j","elianto","#f73b6a7A","-1","-1","1","-10","[]","0","2","","","5026","53","0","4","lose","no-go","1"
"pit-trial","176","1185054","0.0-58.0","battery-v0.2","","""event"",""trial"",""time""
""focus"",""0"",""4""
""fullscreenenter"",""1"",""5669""
","
","""event"",""trial"",""time""
""focus"",""0"",""4""
","""event"",""trial"",""time""
""fullscreenenter"",""1"",""5669""
","
","","","-1","","","10","5026","2316","e","elianto","#f73b6a7A","-1","-1","1","0","[]","0","2","","","5026","54","2","4","lose","no-go","0"
"pit-trial","177","1188484","0.0-59.0","battery-v0.2","","""event"",""trial"",""time""
""focus"",""0"",""4""
""fullscreenenter"",""1"",""5669""
","
","""event"",""trial"",""time""
""focus"",""0"",""4""
","""event"",""trial"",""time""
""fullscreenenter"",""1"",""5669""
","
","","","555","","","10","5026","2316","d","elianto","#3366ff99"," "," ","1","+10","[1420]","1","2","","","5026","55","1","1","win","go","0"
"pit-trial","178","1192145","0.0-60.0","battery-v0.2","","""event"",""trial"",""time""
""focus"",""0"",""4""
""fullscreenenter"",""1"",""5669""
","
","""event"",""trial"",""time""
""focus"",""0"",""4""
","""event"",""trial"",""time""
""fullscreenenter"",""1"",""5669""
","
","","","782","","","10","5026","2316","s","elianto","#3366ff99","-1"," ","0","0","[1651]","1","2","","","5026","56","4","2","win","no-go","0"
"pit-trial","179","1197024","0.0-61.0","battery-v0.2","","""event"",""trial"",""time""
""focus"",""0"",""4""
""fullscreenenter"",""1"",""5669""
","
","""event"",""trial"",""time""
""focus"",""0"",""4""
","""event"",""trial"",""time""
""fullscreenenter"",""1"",""5669""
","
","","","-1","","","10","5026","2316","j","elianto","#f73b6a7A","-1","-1","1","0","[]","0","2","","","5026","57","0","4","lose","no-go","0"
"pit-trial","180","1201904","0.0-62.0","battery-v0.2","","""event"",""trial"",""time""
""focus"",""0"",""4""
""fullscreenenter"",""1"",""5669""
","
","""event"",""trial"",""time""
""focus"",""0"",""4""
","""event"",""trial"",""time""
""fullscreenenter"",""1"",""5669""
","
","","","-1","","","10","5026","2316","s","elianto","#3366ff99","-1","-1","1","+10","[]","0","2","","","5026","58","4","2","win","no-go","0"
"pit-trial","181","1205494","0.0-63.0","battery-v0.2","","""event"",""trial"",""time""
""focus"",""0"",""4""
""fullscreenenter"",""1"",""5669""
","
","""event"",""trial"",""time""
""focus"",""0"",""4""
","""event"",""trial"",""time""
""fullscreenenter"",""1"",""5669""
","
","","","713","","","10","5026","2316","d","elianto","#3366ff99"," "," ","1","+10","[1577]","1","2","","","5026","59","1","1","win","go","0"
"pit-trial","182","1208935","0.0-64.0","battery-v0.2","","""event"",""trial"",""time""
""focus"",""0"",""4""
""fullscreenenter"",""1"",""5669""
","
","""event"",""trial"",""time""
""focus"",""0"",""4""
","""event"",""trial"",""time""
""fullscreenenter"",""1"",""5669""
","
","","","570","","","10","5026","2316","w","elianto","#f73b6a7A"," "," ","1","-10","[1435]","1","2","","","5026","60","3","3","lose","go","1"
"pit-trial","183","1213824","0.0-65.0","battery-v0.2","","""event"",""trial"",""time""
""focus"",""0"",""4""
""fullscreenenter"",""1"",""5669""
","
","""event"",""trial"",""time""
""focus"",""0"",""4""
","""event"",""trial"",""time""
""fullscreenenter"",""1"",""5669""
","
","","","-1","","","10","5026","2316","s","elianto","#3366ff99","-1","-1","1","+10","[4347]","1","2","","","5026","61","4","2","win","no-go","0"
"pit-trial","184","1217840","0.0-66.0","battery-v0.2","","""event"",""trial"",""time""
""focus"",""0"",""4""
""fullscreenenter"",""1"",""5669""
","
","""event"",""trial"",""time""
""focus"",""0"",""4""
","""event"",""trial"",""time""
""fullscreenenter"",""1"",""5669""
","
","","","1134","","","10","5026","2316","e","elianto","#f73b6a7A","-1"," ","0","-10","[2000]","1","2","","","5026","62","2","4","lose","no-go","0"
"pit-trial","185","1221743","0.0-67.0","battery-v0.2","","""event"",""trial"",""time""
""focus"",""0"",""4""
""fullscreenenter"",""1"",""5669""
","
","""event"",""trial"",""time""
""focus"",""0"",""4""
","""event"",""trial"",""time""
""fullscreenenter"",""1"",""5669""
","
","","","1024","","","10","5026","2316","w","elianto","#f73b6a7A"," "," ","1","0","[1893]","1","2","","","5026","63","3","3","lose","go","0"
"pit-trial","186","1225284","0.0-68.0","battery-v0.2","","""event"",""trial"",""time""
""focus"",""0"",""4""
""fullscreenenter"",""1"",""5669""
","
","""event"",""trial"",""time""
""focus"",""0"",""4""
","""event"",""trial"",""time""
""fullscreenenter"",""1"",""5669""
","
","","","662","","","10","5026","2316","d","elianto","#3366ff99"," "," ","1","+10","[1525]","1","2","","","5026","64","1","1","win","go","0"
"pit-trial","187","1228245","0.0-69.0","battery-v0.2","","""event"",""trial"",""time""
""focus"",""0"",""4""
""fullscreenenter"",""1"",""5669""
","
","""event"",""trial"",""time""
""focus"",""0"",""4""
","""event"",""trial"",""time""
""fullscreenenter"",""1"",""5669""
","
","","","86","","","10","5026","2316","e","elianto","#f73b6a7A","-1"," ","0","0","[951]","1","2","","","5026","65","2","4","lose","no-go","1"
"pit-trial","188","1231904","0.0-70.0","battery-v0.2","","""event"",""trial"",""time""
""focus"",""0"",""4""
""fullscreenenter"",""1"",""5669""
","
","""event"",""trial"",""time""
""focus"",""0"",""4""
","""event"",""trial"",""time""
""fullscreenenter"",""1"",""5669""
","
","","","784","","","10","5026","2316","d","elianto","#3366ff99"," "," ","1","+10","[788,1649]","2","2","","","5026","66","1","1","win","go","0"
"pit-trial","189","1236774","0.0-71.0","battery-v0.2","","""event"",""trial"",""time""
""focus"",""0"",""4""
""fullscreenenter"",""1"",""5669""
","
","""event"",""trial"",""time""
""focus"",""0"",""4""
","""event"",""trial"",""time""
""fullscreenenter"",""1"",""5669""
","
","","","-1","","","10","5026","2316","s","elianto","#3366ff99","-1","-1","1","+10","[]","0","2","","","5026","67","4","2","win","no-go","0"
"pit-trial","190","1240525","0.0-72.0","battery-v0.2","","""event"",""trial"",""time""
""focus"",""0"",""4""
""fullscreenenter"",""1"",""5669""
","
","""event"",""trial"",""time""
""focus"",""0"",""4""
","""event"",""trial"",""time""
""fullscreenenter"",""1"",""5669""
","
","","","878","","","10","5026","2316","w","elianto","#f73b6a7A"," "," ","1","-10","[1744]","1","2","","","5026","68","3","3","lose","go","1"
"pit-trial","191","1245415","0.0-73.0","battery-v0.2","","""event"",""trial"",""time""
""focus"",""0"",""4""
""fullscreenenter"",""1"",""5669""
","
","""event"",""trial"",""time""
""focus"",""0"",""4""
","""event"",""trial"",""time""
""fullscreenenter"",""1"",""5669""
","
","","","-1","","","10","5026","2316","p","elianto","#3366ff99"," ","-1","0","0","[]","0","2","","","5026","69","5","1","win","go","0"
"pit-trial","192","1249144","0.0-74.0","battery-v0.2","","""event"",""trial"",""time""
""focus"",""0"",""4""
""fullscreenenter"",""1"",""5669""
","
","""event"",""trial"",""time""
""focus"",""0"",""4""
","""event"",""trial"",""time""
""fullscreenenter"",""1"",""5669""
","
","","","845","","","10","5026","2316","d","elianto","#3366ff99"," "," ","1","+10","[1709]","1","2","","","5026","70","1","1","win","go","0"
"pit-trial","193","1253053","0.0-75.0","battery-v0.2","","""event"",""trial"",""time""
""focus"",""0"",""4""
""fullscreenenter"",""1"",""5669""
","
","""event"",""trial"",""time""
""focus"",""0"",""4""
","""event"",""trial"",""time""
""fullscreenenter"",""1"",""5669""
","
","","","1023","","","10","5026","2316","w","elianto","#f73b6a7A"," "," ","1","0","[1889]","1","2","","","5026","71","3","3","lose","go","0"
"pit-trial","194","1257924","0.0-76.0","battery-v0.2","","""event"",""trial"",""time""
""focus"",""0"",""4""
""fullscreenenter"",""1"",""5669""
","
","""event"",""trial"",""time""
""focus"",""0"",""4""
","""event"",""trial"",""time""
""fullscreenenter"",""1"",""5669""
","
","","","-1","","","10","5026","2316","s","elianto","#3366ff99","-1","-1","1","+10","[]","0","2","","","5026","72","4","2","win","no-go","0"
"pit-trial","195","1261645","0.0-77.0","battery-v0.2","","""event"",""trial"",""time""
""focus"",""0"",""4""
""fullscreenenter"",""1"",""5669""
","
","""event"",""trial"",""time""
""focus"",""0"",""4""
","""event"",""trial"",""time""
""fullscreenenter"",""1"",""5669""
","
","","","844","","","10","5026","2316","d","elianto","#3366ff99"," "," ","1","+10","[1709]","1","2","","","5026","73","1","1","win","go","0"
"pit-trial","196","1266524","0.0-78.0","battery-v0.2","","""event"",""trial"",""time""
""focus"",""0"",""4""
""fullscreenenter"",""1"",""5669""
","
","""event"",""trial"",""time""
""focus"",""0"",""4""
","""event"",""trial"",""time""
""fullscreenenter"",""1"",""5669""
","
","","","-1","","","10","5026","2316","s","elianto","#3366ff99","-1","-1","1","+10","[]","0","2","","","5026","74","4","2","win","no-go","0"
"pit-trial","197","1270173","0.0-79.0","battery-v0.2","","""event"",""trial"",""time""
""focus"",""0"",""4""
""fullscreenenter"",""1"",""5669""
","
","""event"",""trial"",""time""
""focus"",""0"",""4""
","""event"",""trial"",""time""
""fullscreenenter"",""1"",""5669""
","
","","","779","","","10","5026","2316","w","elianto","#f73b6a7A"," "," ","1","0","[1645]","1","2","","","5026","75","3","3","lose","go","0"
"pit-trial","198","1274124","0.0-80.0","battery-v0.2","","""event"",""trial"",""time""
""focus"",""0"",""4""
""fullscreenenter"",""1"",""5669""
","
","""event"",""trial"",""time""
""focus"",""0"",""4""
","""event"",""trial"",""time""
""fullscreenenter"",""1"",""5669""
","
","","","1072","","","10","5026","2316","p","elianto","#3366ff99"," "," ","1","+10","[1931]","1","2","","","5026","76","5","1","win","go","0"
"pit-trial","199","1279004","0.0-81.0","battery-v0.2","","""event"",""trial"",""time""
""focus"",""0"",""4""
""fullscreenenter"",""1"",""5669""
","
","""event"",""trial"",""time""
""focus"",""0"",""4""
","""event"",""trial"",""time""
""fullscreenenter"",""1"",""5669""
","
","","","-1","","","10","5026","2316","g","elianto","#f73b6a7A","-1","-1","1","0","[]","0","2","","","5026","77","6","4","lose","no-go","0"
"pit-trial","200","1282675","0.0-82.0","battery-v0.2","","""event"",""trial"",""time""
""focus"",""0"",""4""
""fullscreenenter"",""1"",""5669""
","
","""event"",""trial"",""time""
""focus"",""0"",""4""
","""event"",""trial"",""time""
""fullscreenenter"",""1"",""5669""
","
","","","789","","","10","5026","2316","p","elianto","#3366ff99"," "," ","1","0","[1654]","1","2","","","5026","78","5","1","win","go","1"
"pit-trial","201","1286265","0.0-83.0","battery-v0.2","","""event"",""trial"",""time""
""focus"",""0"",""4""
""fullscreenenter"",""1"",""5669""
","
","""event"",""trial"",""time""
""focus"",""0"",""4""
","""event"",""trial"",""time""
""fullscreenenter"",""1"",""5669""
","
","","","711","","","10","5026","2316","w","elianto","#f73b6a7A"," "," ","1","0","[1575]","1","2","","","5026","79","3","3","lose","go","0"
"pit-trial","202","1291140","0.0-84.0","battery-v0.2","","""event"",""trial"",""time""
""focus"",""0"",""4""
""fullscreenenter"",""1"",""5669""
","
","""event"",""trial"",""time""
""focus"",""0"",""4""
","""event"",""trial"",""time""
""fullscreenenter"",""1"",""5669""
","
","","","-1","","","10","5026","2316","s","elianto","#3366ff99","-1","-1","1","+10","[]","0","2","","","5026","80","4","2","win","no-go","0"
"pit-trial","203","1296014","0.0-85.0","battery-v0.2","","""event"",""trial"",""time""
""focus"",""0"",""4""
""fullscreenenter"",""1"",""5669""
","
","""event"",""trial"",""time""
""focus"",""0"",""4""
","""event"",""trial"",""time""
""fullscreenenter"",""1"",""5669""
","
","","","-1","","","10","5026","2316","g","elianto","#f73b6a7A","-1","-1","1","0","[]","0","2","","","5026","81","6","4","lose","no-go","0"
"pit-trial","204","1300885","0.0-86.0","battery-v0.2","","""event"",""trial"",""time""
""focus"",""0"",""4""
""fullscreenenter"",""1"",""5669""
","
","""event"",""trial"",""time""
""focus"",""0"",""4""
","""event"",""trial"",""time""
""fullscreenenter"",""1"",""5669""
","
","","","-1","","","10","5026","2316","a","elianto","#f73b6a7A"," ","-1","0","-10","[]","0","2","","","5026","82","7","3","lose","go","0"
"pit-trial","205","1304594","0.0-87.0","battery-v0.2","","""event"",""trial"",""time""
""focus"",""0"",""4""
""fullscreenenter"",""1"",""5669""
","
","""event"",""trial"",""time""
""focus"",""0"",""4""
","""event"",""trial"",""time""
""fullscreenenter"",""1"",""5669""
","
","","","832","","","10","5026","2316","p","elianto","#3366ff99"," "," ","1","+10","[1697]","1","2","","","5026","83","5","1","win","go","0"
"pit-trial","206","1309464","0.0-88.0","battery-v0.2","","""event"",""trial"",""time""
""focus"",""0"",""4""
""fullscreenenter"",""1"",""5669""
","
","""event"",""trial"",""time""
""focus"",""0"",""4""
","""event"",""trial"",""time""
""fullscreenenter"",""1"",""5669""
","
","","","-1","","","10","5026","2316","s","elianto","#3366ff99","-1","-1","1","+10","[]","0","2","","","5026","84","4","2","win","no-go","0"
"pit-trial","207","1314344","0.0-89.0","battery-v0.2","","""event"",""trial"",""time""
""focus"",""0"",""4""
""fullscreenenter"",""1"",""5669""
","
","""event"",""trial"",""time""
""focus"",""0"",""4""
","""event"",""trial"",""time""
""fullscreenenter"",""1"",""5669""
","
","","","-1","","","10","5026","2316","s","elianto","#3366ff99","-1","-1","1","+10","[]","0","2","","","5026","85","4","2","win","no-go","0"
"pit-trial","208","1319224","0.0-90.0","battery-v0.2","","""event"",""trial"",""time""
""focus"",""0"",""4""
""fullscreenenter"",""1"",""5669""
","
","""event"",""trial"",""time""
""focus"",""0"",""4""
","""event"",""trial"",""time""
""fullscreenenter"",""1"",""5669""
","
","","","-1","","","10","5026","2316","a","elianto","#f73b6a7A"," ","-1","0","0","[]","0","2","","","5026","86","7","3","lose","go","1"
"pit-trial","209","1322984","0.0-91.0","battery-v0.2","","""event"",""trial"",""time""
""focus"",""0"",""4""
""fullscreenenter"",""1"",""5669""
","
","""event"",""trial"",""time""
""focus"",""0"",""4""
","""event"",""trial"",""time""
""fullscreenenter"",""1"",""5669""
","
","","","883","","","10","5026","2316","p","elianto","#3366ff99"," "," ","1","0","[1752]","1","2","","","5026","87","5","1","win","go","1"
"pit-trial","210","1327875","0.0-92.0","battery-v0.2","","""event"",""trial"",""time""
""focus"",""0"",""4""
""fullscreenenter"",""1"",""5669""
","
","""event"",""trial"",""time""
""focus"",""0"",""4""
","""event"",""trial"",""time""
""fullscreenenter"",""1"",""5669""
","
","","","-1","","","10","5026","2316","g","elianto","#f73b6a7A","-1","-1","1","0","[]","0","2","","","5026","88","6","4","lose","no-go","0"
"pit-trial","211","1332754","0.0-93.0","battery-v0.2","","""event"",""trial"",""time""
""focus"",""0"",""4""
""fullscreenenter"",""1"",""5669""
","
","""event"",""trial"",""time""
""focus"",""0"",""4""
","""event"",""trial"",""time""
""fullscreenenter"",""1"",""5669""
","
","","","-1","","","10","5026","2316","g","elianto","#f73b6a7A","-1","-1","1","0","[]","0","2","","","5026","89","6","4","lose","no-go","0"
"pit-trial","212","1337624","0.0-94.0","battery-v0.2","","""event"",""trial"",""time""
""focus"",""0"",""4""
""fullscreenenter"",""1"",""5669""
","
","""event"",""trial"",""time""
""focus"",""0"",""4""
","""event"",""trial"",""time""
""fullscreenenter"",""1"",""5669""
","
","","","-1","","","10","5026","2316","a","elianto","#f73b6a7A"," ","-1","0","-10","[]","0","2","","","5026","90","7","3","lose","go","0"
"pit-trial","213","1341630","0.0-95.0","battery-v0.2","","""event"",""trial"",""time""
""focus"",""0"",""4""
""fullscreenenter"",""1"",""5669""
","
","""event"",""trial"",""time""
""focus"",""0"",""4""
","""event"",""trial"",""time""
""fullscreenenter"",""1"",""5669""
","
","","","1128","","","10","5026","2316","p","elianto","#3366ff99"," "," ","1","+10","[1997]","1","2","","","5026","91","5","1","win","go","0"
"pit-trial","214","1346505","0.0-96.0","battery-v0.2","","""event"",""trial"",""time""
""focus"",""0"",""4""
""fullscreenenter"",""1"",""5669""
","
","""event"",""trial"",""time""
""focus"",""0"",""4""
","""event"",""trial"",""time""
""fullscreenenter"",""1"",""5669""
","
","","","-1","","","10","5026","2316","s","elianto","#3366ff99","-1","-1","1","+10","[]","0","2","","","5026","92","4","2","win","no-go","0"
"pit-trial","215","1350865","0.0-97.0","battery-v0.2","","""event"",""trial"",""time""
""focus"",""0"",""4""
""fullscreenenter"",""1"",""5669""
","
","""event"",""trial"",""time""
""focus"",""0"",""4""
","""event"",""trial"",""time""
""fullscreenenter"",""1"",""5669""
","
","","","1487","","","10","5026","2316","g","elianto","#f73b6a7A","-1"," ","0","-10","[2355]","1","2","","","5026","93","6","4","lose","no-go","0"
"pit-trial","216","1355735","0.0-98.0","battery-v0.2","","""event"",""trial"",""time""
""focus"",""0"",""4""
""fullscreenenter"",""1"",""5669""
","
","""event"",""trial"",""time""
""focus"",""0"",""4""
","""event"",""trial"",""time""
""fullscreenenter"",""1"",""5669""
","
","","","-1","","","10","5026","2316","a","elianto","#f73b6a7A"," ","-1","0","-10","[]","0","2","","","5026","94","7","3","lose","go","0"
"pit-trial","217","1359444","0.0-99.0","battery-v0.2","","""event"",""trial"",""time""
""focus"",""0"",""4""
""fullscreenenter"",""1"",""5669""
","
","""event"",""trial"",""time""
""focus"",""0"",""4""
","""event"",""trial"",""time""
""fullscreenenter"",""1"",""5669""
","
","","","838","","","10","5026","2316","p","elianto","#3366ff99"," "," ","1","+10","[1702]","1","2","","","5026","95","5","1","win","go","0"
"pit-trial","218","1363615","0.0-100.0","battery-v0.2","","""event"",""trial"",""time""
""focus"",""0"",""4""
""fullscreenenter"",""1"",""5669""
","
","""event"",""trial"",""time""
""focus"",""0"",""4""
","""event"",""trial"",""time""
""fullscreenenter"",""1"",""5669""
","
","","","1295","","","10","5026","2316","l","elianto","#3366ff99","-1"," ","0","+10","[2164]","1","2","","","5026","96","8","2","win","no-go","1"
"pit-trial","219","1367455","0.0-101.0","battery-v0.2","","""event"",""trial"",""time""
""focus"",""0"",""4""
""fullscreenenter"",""1"",""5669""
","
","""event"",""trial"",""time""
""focus"",""0"",""4""
","""event"",""trial"",""time""
""fullscreenenter"",""1"",""5669""
","
","","","955","","","10","5026","2316","l","elianto","#3366ff99","-1"," ","0","0","[1820]","1","2","","","5026","97","8","2","win","no-go","0"
"pit-trial","220","1372335","0.0-102.0","battery-v0.2","","""event"",""trial"",""time""
""focus"",""0"",""4""
""fullscreenenter"",""1"",""5669""
","
","""event"",""trial"",""time""
""focus"",""0"",""4""
","""event"",""trial"",""time""
""fullscreenenter"",""1"",""5669""
","
","","","-1","","","10","5026","2316","g","elianto","#f73b6a7A","-1","-1","1","-10","[]","0","2","","","5026","98","6","4","lose","no-go","1"
"pit-trial","221","1377195","0.0-103.0","battery-v0.2","","""event"",""trial"",""time""
""focus"",""0"",""4""
""fullscreenenter"",""1"",""5669""
","
","""event"",""trial"",""time""
""focus"",""0"",""4""
","""event"",""trial"",""time""
""fullscreenenter"",""1"",""5669""
","
","","","-1","","","10","5026","2316","a","elianto","#f73b6a7A"," ","-1","0","-10","[]","0","2","","","5026","99","7","3","lose","go","0"
"pit-trial","222","1380784","0.0-104.0","battery-v0.2","","""event"",""trial"",""time""
""focus"",""0"",""4""
""fullscreenenter"",""1"",""5669""
","
","""event"",""trial"",""time""
""focus"",""0"",""4""
","""event"",""trial"",""time""
""fullscreenenter"",""1"",""5669""
","
","","","703","","","10","5026","2316","p","elianto","#3366ff99"," "," ","1","+10","[1568]","1","2","","","5026","100","5","1","win","go","0"
"pit-trial","223","1384575","0.0-105.0","battery-v0.2","","""event"",""trial"",""time""
""focus"",""0"",""4""
""fullscreenenter"",""1"",""5669""
","
","""event"",""trial"",""time""
""focus"",""0"",""4""
","""event"",""trial"",""time""
""fullscreenenter"",""1"",""5669""
","
","","","904","","","10","5026","2316","u","elianto","#3366ff99","-1"," ","0","+10","[1770]","1","2","","","5026","101","9","2","win","no-go","1"
"pit-trial","224","1388164","0.0-106.0","battery-v0.2","","""event"",""trial"",""time""
""focus"",""0"",""4""
""fullscreenenter"",""1"",""5669""
","
","""event"",""trial"",""time""
""focus"",""0"",""4""
","""event"",""trial"",""time""
""fullscreenenter"",""1"",""5669""
","
","","","707","","","10","5026","2316","p","elianto","#3366ff99"," "," ","1","+10","[1573]","1","2","","","5026","102","5","1","win","go","0"
"pit-trial","225","1391694","0.0-107.0","battery-v0.2","","""event"",""trial"",""time""
""focus"",""0"",""4""
""fullscreenenter"",""1"",""5669""
","
","""event"",""trial"",""time""
""focus"",""0"",""4""
","""event"",""trial"",""time""
""fullscreenenter"",""1"",""5669""
","
","","","653","","","10","5026","2316","l","elianto","#3366ff99","-1"," ","0","0","[1521]","1","2","","","5026","103","8","2","win","no-go","0"
"pit-trial","226","1396564","0.0-108.0","battery-v0.2","","""event"",""trial"",""time""
""focus"",""0"",""4""
""fullscreenenter"",""1"",""5669""
","
","""event"",""trial"",""time""
""focus"",""0"",""4""
","""event"",""trial"",""time""
""fullscreenenter"",""1"",""5669""
","
","","","-1","","","10","5026","2316","g","elianto","#f73b6a7A","-1","-1","1","0","[]","0","2","","","5026","104","6","4","lose","no-go","0"
"pit-trial","227","1401454","0.0-109.0","battery-v0.2","","""event"",""trial"",""time""
""focus"",""0"",""4""
""fullscreenenter"",""1"",""5669""
","
","""event"",""trial"",""time""
""focus"",""0"",""4""
","""event"",""trial"",""time""
""fullscreenenter"",""1"",""5669""
","
","","","-1","","","10","5026","2316","g","elianto","#f73b6a7A","-1","-1","1","0","[]","0","2","","","5026","105","6","4","lose","no-go","0"
"pit-trial","228","1405105","0.0-110.0","battery-v0.2","","""event"",""trial"",""time""
""focus"",""0"",""4""
""fullscreenenter"",""1"",""5669""
","
","""event"",""trial"",""time""
""focus"",""0"",""4""
","""event"",""trial"",""time""
""fullscreenenter"",""1"",""5669""
","
","","","775","","","10","5026","2316","p","elianto","#3366ff99"," "," ","1","+10","[1640]","1","2","","","5026","106","5","1","win","go","0"
"pit-trial","229","1408575","0.0-111.0","battery-v0.2","","""event"",""trial"",""time""
""focus"",""0"",""4""
""fullscreenenter"",""1"",""5669""
","
","""event"",""trial"",""time""
""focus"",""0"",""4""
","""event"",""trial"",""time""
""fullscreenenter"",""1"",""5669""
","
","","","582","","","10","5026","2316","u","elianto","#3366ff99","-1"," ","0","0","[1447]","1","2","","","5026","107","9","2","win","no-go","0"
