"trial_type","trial_index","time_elapsed","internal_node_id","task_version","subject_id","interactions","blur_events","focus_events","fullscreenenter_events","fullscreenexit_events","success","view_history","rt","responses","num_errors","age","subject","participantId","rune","rune_set","hex","correct","choice","accuracy","outcome","keys","total_keys","block","practice","value","sub","trial","stimulus","robot","valence","action","sham"
"pavlovia","0","5","0.0-0.0","battery-v0.2","","""event"",""trial"",""time""
""fullscreenenter"",""1"",""1623""
","
","
","""event"",""trial"",""time""
""fullscreenenter"",""1"",""1623""
","
","","","","","","","","","","","","","","","","","","","","","","","","","","",""
"fullscreen","1","2618","0.0-1.0","battery-v0.2","","""event"",""trial"",""time""
""fullscreenenter"",""1"",""1623""
","
","
","""event"",""trial"",""time""
""fullscreenenter"",""1"",""1623""
","
","true","","","","","","","","","","","","","","","","","","","","","","","","","",""
"pit-instructions","2","9565","0.0-2.0-0.0","battery-v0.2","","""event"",""trial"",""time""
""fullscreenenter"",""1"",""1623""
","
","
","""event"",""trial"",""time""
""fullscreenenter"",""1"",""1623""
","
","","[{""page_index"":0,""viewing_time"":6940.199999999255}]","6941.799999998882","","","","","","","","","","","","","","","","","","","","","","","",""
"pit-comprehension","3","18140","0.0-2.0-1.0-0.0","battery-v0.2","","""event"",""trial"",""time""
""fullscreenenter"",""1"",""1623""
","
","
","""event"",""trial"",""time""
""fullscreenenter"",""1"",""1623""
","
","","","8567.400000000373","[""fish""]","1","22","4587","3206","","","","","","","","","","","","","","","","","","",""
"pit-instructions","4","19440","0.0-2.0-1.0-1.0","battery-v0.2","","""event"",""trial"",""time""
""fullscreenenter"",""1"",""1623""
","
","
","""event"",""trial"",""time""
""fullscreenenter"",""1"",""1623""
","
","","[{""page_index"":0,""viewing_time"":1274.4000000003725}]","1275.199999999255","","","","","","","","","","","","","","","","","","","","","","","",""
"pit-instructions","5","20315","0.0-2.0-1.0-2.0-0.0","battery-v0.2","","""event"",""trial"",""time""
""fullscreenenter"",""1"",""1623""
","
","
","""event"",""trial"",""time""
""fullscreenenter"",""1"",""1623""
","
","","[{""page_index"":0,""viewing_time"":868.1999999992549}]","869.0999999996275","","","","","","","","","","","","","","","","","","","","","","","",""
"pit-comprehension","6","22874","0.0-2.0-1.1-0.1","battery-v0.2","","""event"",""trial"",""time""
""fullscreenenter"",""1"",""1623""
","
","
","""event"",""trial"",""time""
""fullscreenenter"",""1"",""1623""
","
","","","2551","[""shark""]","0","22","4587","3206","","","","","","","","","","","","","","","","","","",""
"pit-instructions","7","24017","0.0-2.0-1.1-1.1","battery-v0.2","","""event"",""trial"",""time""
""fullscreenenter"",""1"",""1623""
","
","
","""event"",""trial"",""time""
""fullscreenenter"",""1"",""1623""
","
","","[{""page_index"":0,""viewing_time"":1135.800000000745}]","1136.5","","","","","","","","","","","","","","","","","","","","","","","",""
"pit-comprehension","8","32935","0.0-2.0-2.0-0.0","battery-v0.2","","""event"",""trial"",""time""
""fullscreenenter"",""1"",""1623""
","
","
","""event"",""trial"",""time""
""fullscreenenter"",""1"",""1623""
","
","","","8909.700000001118","[""tiger""]","0","22","4587","3206","","","","","","","","","","","","","","","","","","",""
"pit-instructions","9","34211","0.0-2.0-2.0-1.0","battery-v0.2","","""event"",""trial"",""time""
""fullscreenenter"",""1"",""1623""
","
","
","""event"",""trial"",""time""
""fullscreenenter"",""1"",""1623""
","
","","[{""page_index"":0,""viewing_time"":1266.5999999996275}]","1267.2999999988824","","","","","","","","","","","","","","","","","","","","","","","",""
"pit-instructions","10","134871","0.0-2.0-3.0","battery-v0.2","","""event"",""trial"",""time""
""fullscreenenter"",""1"",""1623""
","
","
","""event"",""trial"",""time""
""fullscreenenter"",""1"",""1623""
","
","","[{""page_index"":0,""viewing_time"":9304.699999999255},{""page_index"":1,""viewing_time"":5127.800000000745},{""page_index"":2,""viewing_time"":7669.299999998882},{""page_index"":3,""viewing_time"":5192.0999999996275},{""page_index"":4,""viewing_time"":6647.9000000003725},{""page_index"":5,""viewing_time"":5948.0999999996275},{""page_index"":6,""viewing_time"":6542.200000001118},{""page_index"":7,""viewing_time"":6851.9000000003725},{""page_index"":8,""viewing_time"":6307.5999999996275},{""page_index"":9,""viewing_time"":5929.5},{""page_index"":10,""viewing_time"":10325},{""page_index"":11,""viewing_time"":9968.400000000373},{""page_index"":12,""viewing_time"":7096.89999999851},{""page_index"":13,""viewing_time"":7742.5}]","100656.19999999925","","","","","","","","","","","","","","","","","","","","","","","",""
"pit-trial","11","138277","0.0-2.0-4.0-0.0","battery-v0.2","","""event"",""trial"",""time""
""fullscreenenter"",""1"",""1623""
","
","
","""event"",""trial"",""time""
""fullscreenenter"",""1"",""1623""
","
","","","545.5","","","22","4587","3206","&#9784;","elianto","#FFFFF080"," "," ","1","&#10004","[1397.9000000003725]","1","0","0","","","","","","","",""
"pit-trial","12","141477","0.0-2.0-4.1-0.1","battery-v0.2","","""event"",""trial"",""time""
""fullscreenenter"",""1"",""1623""
","
","
","""event"",""trial"",""time""
""fullscreenenter"",""1"",""1623""
","
","","","339.7999999988824","","","22","4587","3206","&#9784;","elianto","#FFFFF080"," "," ","1","&#10004","[1190.5999999996275]","1","0","0","","","","","","","",""
"pit-trial","13","144783","0.0-2.0-4.2-0.2","battery-v0.2","","""event"",""trial"",""time""
""fullscreenenter"",""1"",""1623""
","
","
","""event"",""trial"",""time""
""fullscreenenter"",""1"",""1623""
","
","","","444.69999999925494","","","22","4587","3206","&#9784;","elianto","#FFFFF080"," "," ","1","&#10004","[1295]","1","0","0","","","","","","","",""
"pit-trial","14","147993","0.0-2.0-4.3-0.3","battery-v0.2","","""event"",""trial"",""time""
""fullscreenenter"",""1"",""1623""
","
","
","""event"",""trial"",""time""
""fullscreenenter"",""1"",""1623""
","
","","","346.7999999988824","","","22","4587","3206","&#9784;","elianto","#FFFFF080"," "," ","1","&#10004","[1197.9000000003725]","1","0","0","","","","","","","",""
"pit-trial","15","151372","0.0-2.0-4.4-0.4","battery-v0.2","","""event"",""trial"",""time""
""fullscreenenter"",""1"",""1623""
","
","
","""event"",""trial"",""time""
""fullscreenenter"",""1"",""1623""
","
","","","519.7000000011176","","","22","4587","3206","&#9784;","elianto","#FFFFF080"," "," ","1","&#10004","[1370]","1","0","0","","","","","","","",""
"pit-instructions","16","171427","0.0-2.0-5.0","battery-v0.2","","""event"",""trial"",""time""
""fullscreenenter"",""1"",""1623""
","
","
","""event"",""trial"",""time""
""fullscreenenter"",""1"",""1623""
","
","","[{""page_index"":0,""viewing_time"":4694.4000000003725},{""page_index"":1,""viewing_time"":5248.39999999851},{""page_index"":2,""viewing_time"":4818.60000000149},{""page_index"":3,""viewing_time"":5286.199999999255}]","20048.199999999255","","","","","","","","","","","","","","","","","","","","","","","",""
"pit-trial","17","176289","0.0-2.0-6.0-0.0","battery-v0.2","","""event"",""trial"",""time""
""fullscreenenter"",""1"",""1623""
","
","
","""event"",""trial"",""time""
""fullscreenenter"",""1"",""1623""
","
","","","-1","","","22","4587","3206","&#9854;","elianto","#FFFFF080","-1","-1","1","&#10004","[]","0","0","1","","","","","","","",""
"pit-trial","18","181149","0.0-2.0-6.1-0.1","battery-v0.2","","""event"",""trial"",""time""
""fullscreenenter"",""1"",""1623""
","
","
","""event"",""trial"",""time""
""fullscreenenter"",""1"",""1623""
","
","","","-1","","","22","4587","3206","&#9854;","elianto","#FFFFF080","-1","-1","1","&#10004","[]","0","0","1","","","","","","","",""
"pit-trial","19","186009","0.0-2.0-6.2-0.2","battery-v0.2","","""event"",""trial"",""time""
""fullscreenenter"",""1"",""1623""
","
","
","""event"",""trial"",""time""
""fullscreenenter"",""1"",""1623""
","
","","","-1","","","22","4587","3206","&#9854;","elianto","#FFFFF080","-1","-1","1","&#10004","[]","0","0","1","","","","","","","",""
"pit-trial","20","190871","0.0-2.0-6.3-0.3","battery-v0.2","","""event"",""trial"",""time""
""fullscreenenter"",""1"",""1623""
","
","
","""event"",""trial"",""time""
""fullscreenenter"",""1"",""1623""
","
","","","-1","","","22","4587","3206","&#9854;","elianto","#FFFFF080","-1","-1","1","&#10004","[]","0","0","1","","","","","","","",""
"pit-trial","21","195733","0.0-2.0-6.4-0.4","battery-v0.2","","""event"",""trial"",""time""
""fullscreenenter"",""1"",""1623""
","
","
","""event"",""trial"",""time""
""fullscreenenter"",""1"",""1623""
","
","","","-1","","","22","4587","3206","&#9854;","elianto","#FFFFF080","-1","-1","1","&#10004","[]","0","0","1","","","","","","","",""
"pit-instructions","22","314199","0.0-2.0-7.0","battery-v0.2","","""event"",""trial"",""time""
""fullscreenenter"",""1"",""1623""
","
","
","""event"",""trial"",""time""
""fullscreenenter"",""1"",""1623""
","
","","[{""page_index"":0,""viewing_time"":5554.300000000745},{""page_index"":1,""viewing_time"":6475.89999999851},{""page_index"":2,""viewing_time"":6061.5},{""page_index"":3,""viewing_time"":6259.10000000149},{""page_index"":4,""viewing_time"":5309.599999997765},{""page_index"":5,""viewing_time"":6260},{""page_index"":6,""viewing_time"":4978.300000000745},{""page_index"":7,""viewing_time"":7933.900000002235},{""page_index"":8,""viewing_time"":6630.599999997765},{""page_index"":9,""viewing_time"":6909.699999999255},{""page_index"":10,""viewing_time"":8580.10000000149},{""page_index"":11,""viewing_time"":4917.300000000745},{""page_index"":12,""viewing_time"":7301.39999999851},{""page_index"":13,""viewing_time"":7872.10000000149},{""page_index"":14,""viewing_time"":7425.89999999851},{""page_index"":15,""viewing_time"":6504.699999999255},{""page_index"":16,""viewing_time"":6240.900000002235},{""page_index"":17,""viewing_time"":7242.800000000745}]","118459","","","","","","","","","","","","","","","","","","","","","","","",""
"pit-trial","23","317905","0.0-2.0-8.0-0.0","battery-v0.2","","""event"",""trial"",""time""
""fullscreenenter"",""1"",""1623""
","
","
","""event"",""trial"",""time""
""fullscreenenter"",""1"",""1623""
","
","","","847.2999999970198","","","22","4587","3206","&#9776;","elianto","#3366ff99"," "," ","1","+10","[1697.8999999985099]","1","0","1","","","","","","","",""
"pit-trial","24","321394","0.0-2.0-8.0-1.0","battery-v0.2","","""event"",""trial"",""time""
""fullscreenenter"",""1"",""1623""
","
","
","""event"",""trial"",""time""
""fullscreenenter"",""1"",""1623""
","
","","","628.0999999977648","","","22","4587","3206","&#9776;","elianto","#3366ff99"," "," ","1","+10","[1480.5999999977648]","1","0","1","","","","","","","",""
"pit-trial","25","324640","0.0-2.0-8.0-2.0","battery-v0.2","","""event"",""trial"",""time""
""fullscreenenter"",""1"",""1623""
","
","
","""event"",""trial"",""time""
""fullscreenenter"",""1"",""1623""
","
","","","382.5","","","22","4587","3206","&#9776;","elianto","#3366ff99"," "," ","1","+10","[1234]","1","0","1","","","","","","","",""
"pit-trial","26","327786","0.0-2.0-8.0-3.0","battery-v0.2","","""event"",""trial"",""time""
""fullscreenenter"",""1"",""1623""
","
","
","""event"",""trial"",""time""
""fullscreenenter"",""1"",""1623""
","
","","","284.5","","","22","4587","3206","&#9776;","elianto","#3366ff99"," "," ","1","0","[1137]","1","0","1","","","","","","","",""
"pit-trial","27","330952","0.0-2.0-8.0-4.0","battery-v0.2","","""event"",""trial"",""time""
""fullscreenenter"",""1"",""1623""
","
","
","""event"",""trial"",""time""
""fullscreenenter"",""1"",""1623""
","
","","","309.1000000014901","","","22","4587","3206","&#9776;","elianto","#3366ff99"," "," ","1","+10","[1159.5]","1","0","1","","","","","","","",""
"pit-trial","28","334090","0.0-2.0-8.1-0.1","battery-v0.2","","""event"",""trial"",""time""
""fullscreenenter"",""1"",""1623""
","
","
","""event"",""trial"",""time""
""fullscreenenter"",""1"",""1623""
","
","","","273.3999999985099","","","22","4587","3206","&#9776;","elianto","#3366ff99"," "," ","1","+10","[1125.5]","1","0","1","","","","","","","",""
"pit-trial","29","337284","0.0-2.0-8.1-1.1","battery-v0.2","","""event"",""trial"",""time""
""fullscreenenter"",""1"",""1623""
","
","
","""event"",""trial"",""time""
""fullscreenenter"",""1"",""1623""
","
","","","328.3999999985099","","","22","4587","3206","&#9776;","elianto","#3366ff99"," "," ","1","+10","[1181.4000000022352]","1","0","1","","","","","","","",""
"pit-trial","30","340409","0.0-2.0-8.1-2.1","battery-v0.2","","""event"",""trial"",""time""
""fullscreenenter"",""1"",""1623""
","
","
","""event"",""trial"",""time""
""fullscreenenter"",""1"",""1623""
","
","","","262.4000000022352","","","22","4587","3206","&#9776;","elianto","#3366ff99"," "," ","1","+10","[1112.7000000029802]","1","0","1","","","","","","","",""
"pit-trial","31","343441","0.0-2.0-8.1-3.1","battery-v0.2","","""event"",""trial"",""time""
""fullscreenenter"",""1"",""1623""
","
","
","""event"",""trial"",""time""
""fullscreenenter"",""1"",""1623""
","
","","","172.59999999776483","","","22","4587","3206","&#9776;","elianto","#3366ff99"," "," ","1","0","[1023.0999999977648]","1","0","1","","","","","","","",""
"pit-trial","32","346394","0.0-2.0-8.1-4.1","battery-v0.2","","""event"",""trial"",""time""
""fullscreenenter"",""1"",""1623""
","
","
","""event"",""trial"",""time""
""fullscreenenter"",""1"",""1623""
","
","","","88.30000000074506","","","22","4587","3206","&#9776;","elianto","#3366ff99"," "," ","1","+10","[940.5999999977648]","1","0","1","","","","","","","",""
"pit-trial","33","349389","0.0-2.0-8.2-0.2","battery-v0.2","","""event"",""trial"",""time""
""fullscreenenter"",""1"",""1623""
","
","
","""event"",""trial"",""time""
""fullscreenenter"",""1"",""1623""
","
","","","134.60000000149012","","","22","4587","3206","&#9776;","elianto","#3366ff99"," "," ","1","+10","[986.8000000007451]","1","0","1","","","","","","","",""
"pit-trial","34","352605","0.0-2.0-8.2-1.2","battery-v0.2","","""event"",""trial"",""time""
""fullscreenenter"",""1"",""1623""
","
","
","""event"",""trial"",""time""
""fullscreenenter"",""1"",""1623""
","
","","","354.3999999985099","","","22","4587","3206","&#9776;","elianto","#3366ff99"," "," ","1","+10","[1207.199999999255]","1","0","1","","","","","","","",""
"pit-trial","35","355816","0.0-2.0-8.2-2.2","battery-v0.2","","""event"",""trial"",""time""
""fullscreenenter"",""1"",""1623""
","
","
","""event"",""trial"",""time""
""fullscreenenter"",""1"",""1623""
","
","","","345.69999999925494","","","22","4587","3206","&#9776;","elianto","#3366ff99"," "," ","1","+10","[1198.6000000014901]","1","0","1","","","","","","","",""
"pit-trial","36","359014","0.0-2.0-8.2-3.2","battery-v0.2","","""event"",""trial"",""time""
""fullscreenenter"",""1"",""1623""
","
","
","""event"",""trial"",""time""
""fullscreenenter"",""1"",""1623""
","
","","","337.6000000014901","","","22","4587","3206","&#9776;","elianto","#3366ff99"," "," ","1","0","[1188.4000000022352]","1","0","1","","","","","","","",""
"pit-trial","37","362236","0.0-2.0-8.2-4.2","battery-v0.2","","""event"",""trial"",""time""
""fullscreenenter"",""1"",""1623""
","
","
","""event"",""trial"",""time""
""fullscreenenter"",""1"",""1623""
","
","","","361.5999999977648","","","22","4587","3206","&#9776;","elianto","#3366ff99"," "," ","1","+10","[1212.5]","1","0","1","","","","","","","",""
"call-function","38","362242","0.0-2.0-9.0","battery-v0.2","","""event"",""trial"",""time""
""fullscreenenter"",""1"",""1623""
","
","
","""event"",""trial"",""time""
""fullscreenenter"",""1"",""1623""
","
","","","","","","","","","","","","","","","","","","","","","","","","","","",""
"pit-instructions","39","400808","0.0-2.0-10.0","battery-v0.2","","""event"",""trial"",""time""
""fullscreenenter"",""1"",""1623""
","
","
","""event"",""trial"",""time""
""fullscreenenter"",""1"",""1623""
","
","","[{""page_index"":0,""viewing_time"":5626.800000000745},{""page_index"":1,""viewing_time"":6692},{""page_index"":2,""viewing_time"":9023.699999999255},{""page_index"":3,""viewing_time"":9163.199999999255},{""page_index"":4,""viewing_time"":8058.300000000745}]","38565.199999999255","","","","","","","","","","","","","","","","","","","","","","","",""
"pit-trial","40","404219","0.0-2.0-11.0-0.0","battery-v0.2","","""event"",""trial"",""time""
""fullscreenenter"",""1"",""1623""
","
","
","""event"",""trial"",""time""
""fullscreenenter"",""1"",""1623""
","
","","","549.1999999992549","","","22","4587","3206","&#9761;","elianto","#3366ff99","-1"," ","0","0","[1400.300000000745]","1","0","2","","","","","","","",""
"pit-trial","41","407282","0.0-2.0-11.0-1.0","battery-v0.2","","""event"",""trial"",""time""
""fullscreenenter"",""1"",""1623""
","
","
","""event"",""trial"",""time""
""fullscreenenter"",""1"",""1623""
","
","","","202.19999999925494","","","22","4587","3206","&#9761;","elianto","#3366ff99","-1"," ","0","0","[1053.300000000745]","1","0","2","","","","","","","",""
"pit-trial","42","410356","0.0-2.0-11.0-2.0","battery-v0.2","","""event"",""trial"",""time""
""fullscreenenter"",""1"",""1623""
","
","
","""event"",""trial"",""time""
""fullscreenenter"",""1"",""1623""
","
","","","210.70000000298023","","","22","4587","3206","&#9761;","elianto","#3366ff99","-1"," ","0","0","[1061.699999999255]","1","0","2","","","","","","","",""
"pit-trial","43","413393","0.0-2.0-11.0-3.0","battery-v0.2","","""event"",""trial"",""time""
""fullscreenenter"",""1"",""1623""
","
","
","""event"",""trial"",""time""
""fullscreenenter"",""1"",""1623""
","
","","","175.10000000149012","","","22","4587","3206","&#9761;","elianto","#3366ff99","-1"," ","0","+10","[1027.1000000014901]","1","0","2","","","","","","","",""
"pit-trial","44","416425","0.0-2.0-11.0-4.0","battery-v0.2","","""event"",""trial"",""time""
""fullscreenenter"",""1"",""1623""
","
","
","""event"",""trial"",""time""
""fullscreenenter"",""1"",""1623""
","
","","","171.79999999701977","","","22","4587","3206","&#9761;","elianto","#3366ff99","-1"," ","0","0","[1023.1000000014901]","1","0","2","","","","","","","",""
"pit-trial","45","419459","0.0-2.0-11.1-0.1","battery-v0.2","","""event"",""trial"",""time""
""fullscreenenter"",""1"",""1623""
","
","
","""event"",""trial"",""time""
""fullscreenenter"",""1"",""1623""
","
","","","171","","","22","4587","3206","&#9761;","elianto","#3366ff99","-1"," ","0","0","[1022.2999999970198]","1","0","2","","","","","","","",""
"pit-trial","46","422453","0.0-2.0-11.1-1.1","battery-v0.2","","""event"",""trial"",""time""
""fullscreenenter"",""1"",""1623""
","
","
","""event"",""trial"",""time""
""fullscreenenter"",""1"",""1623""
","
","","","133.40000000223517","","","22","4587","3206","&#9761;","elianto","#3366ff99","-1"," ","0","0","[984.3000000007451]","1","0","2","","","","","","","",""
"pit-trial","47","425401","0.0-2.0-11.1-2.1","battery-v0.2","","""event"",""trial"",""time""
""fullscreenenter"",""1"",""1623""
","
","
","""event"",""trial"",""time""
""fullscreenenter"",""1"",""1623""
","
","","","88.69999999925494","","","22","4587","3206","&#9761;","elianto","#3366ff99","-1"," ","0","0","[940.7999999970198]","1","0","2","","","","","","","",""
"pit-trial","48","428327","0.0-2.0-11.1-3.1","battery-v0.2","","""event"",""trial"",""time""
""fullscreenenter"",""1"",""1623""
","
","
","""event"",""trial"",""time""
""fullscreenenter"",""1"",""1623""
","
","","","68.09999999776483","","","22","4587","3206","&#9761;","elianto","#3366ff99","-1"," ","0","+10","[919.0999999977648]","1","0","2","","","","","","","",""
"pit-trial","49","431346","0.0-2.0-11.1-4.1","battery-v0.2","","""event"",""trial"",""time""
""fullscreenenter"",""1"",""1623""
","
","
","""event"",""trial"",""time""
""fullscreenenter"",""1"",""1623""
","
","","","155.69999999925494","","","22","4587","3206","&#9761;","elianto","#3366ff99","-1"," ","0","0","[1005.8999999985099]","1","0","2","","","","","","","",""
"pit-trial","50","434393","0.0-2.0-11.2-0.2","battery-v0.2","","""event"",""trial"",""time""
""fullscreenenter"",""1"",""1623""
","
","
","""event"",""trial"",""time""
""fullscreenenter"",""1"",""1623""
","
","","","183.69999999925494","","","22","4587","3206","&#9761;","elianto","#3366ff99","-1"," ","0","0","[1033.8999999985099]","1","0","2","","","","","","","",""
"pit-trial","51","437658","0.0-2.0-11.2-1.2","battery-v0.2","","""event"",""trial"",""time""
""fullscreenenter"",""1"",""1623""
","
","
","""event"",""trial"",""time""
""fullscreenenter"",""1"",""1623""
","
","","","403.6000000014901","","","22","4587","3206","&#9761;","elianto","#3366ff99","-1"," ","0","0","[1255.8999999985099]","1","0","2","","","","","","","",""
"pit-trial","52","440755","0.0-2.0-11.2-2.2","battery-v0.2","","""event"",""trial"",""time""
""fullscreenenter"",""1"",""1623""
","
","
","""event"",""trial"",""time""
""fullscreenenter"",""1"",""1623""
","
","","","235.90000000223517","","","22","4587","3206","&#9761;","elianto","#3366ff99","-1"," ","0","0","[1086.5]","1","0","2","","","","","","","",""
"pit-trial","53","443832","0.0-2.0-11.2-3.2","battery-v0.2","","""event"",""trial"",""time""
""fullscreenenter"",""1"",""1623""
","
","
","""event"",""trial"",""time""
""fullscreenenter"",""1"",""1623""
","
","","","215.30000000074506","","","22","4587","3206","&#9761;","elianto","#3366ff99","-1"," ","0","+10","[1066.699999999255]","1","0","2","","","","","","","",""
"pit-trial","54","446839","0.0-2.0-11.2-4.2","battery-v0.2","","""event"",""trial"",""time""
""fullscreenenter"",""1"",""1623""
","
","
","""event"",""trial"",""time""
""fullscreenenter"",""1"",""1623""
","
","","","143.60000000149012","","","22","4587","3206","&#9761;","elianto","#3366ff99","-1"," ","0","0","[994.6000000014901]","1","0","2","","","","","","","",""
"pit-trial","55","449921","0.0-2.0-11.3-0.3","battery-v0.2","","""event"",""trial"",""time""
""fullscreenenter"",""1"",""1623""
","
","
","""event"",""trial"",""time""
""fullscreenenter"",""1"",""1623""
","
","","","221.80000000074506","","","22","4587","3206","&#9761;","elianto","#3366ff99","-1"," ","0","0","[1073.4000000022352]","1","0","2","","","","","","","",""
"pit-trial","56","453218","0.0-2.0-11.3-1.3","battery-v0.2","","""event"",""trial"",""time""
""fullscreenenter"",""1"",""1623""
","
","
","""event"",""trial"",""time""
""fullscreenenter"",""1"",""1623""
","
","","","432.9000000022352","","","22","4587","3206","&#9761;","elianto","#3366ff99","-1"," ","0","0","[1283.800000000745]","1","0","2","","","","","","","",""
"pit-trial","57","456986","0.0-2.0-11.3-2.3","battery-v0.2","","""event"",""trial"",""time""
""fullscreenenter"",""1"",""1623""
","
","
","""event"",""trial"",""time""
""fullscreenenter"",""1"",""1623""
","
","","","904","","","22","4587","3206","&#9761;","elianto","#3366ff99","-1"," ","0","0","[1754.800000000745]","1","0","2","","","","","","","",""
"pit-trial","58","460724","0.0-2.0-11.3-3.3","battery-v0.2","","""event"",""trial"",""time""
""fullscreenenter"",""1"",""1623""
","
","
","""event"",""trial"",""time""
""fullscreenenter"",""1"",""1623""
","
","","","878","","","22","4587","3206","&#9761;","elianto","#3366ff99","-1"," ","0","+10","[1728.300000000745]","1","0","2","","","","","","","",""
"pit-trial","59","463801","0.0-2.0-11.3-4.3","battery-v0.2","","""event"",""trial"",""time""
""fullscreenenter"",""1"",""1623""
","
","
","""event"",""trial"",""time""
""fullscreenenter"",""1"",""1623""
","
","","","212.10000000149012","","","22","4587","3206","&#9761;","elianto","#3366ff99","-1"," ","0","0","[1063.0999999977648]","1","0","2","","","","","","","",""
"call-function","60","463808","0.0-2.0-12.0","battery-v0.2","","""event"",""trial"",""time""
""fullscreenenter"",""1"",""1623""
","
","
","""event"",""trial"",""time""
""fullscreenenter"",""1"",""1623""
","
","","","","","","","","","","","","","","","","","","","","","","","","","","",""
"pit-instructions","61","497693","0.0-2.0-13.0","battery-v0.2","","""event"",""trial"",""time""
""fullscreenenter"",""1"",""1623""
","
","
","""event"",""trial"",""time""
""fullscreenenter"",""1"",""1623""
","
","","[{""page_index"":0,""viewing_time"":8076.79999999702},{""page_index"":1,""viewing_time"":6746.300000000745},{""page_index"":2,""viewing_time"":3291.800000000745},{""page_index"":3,""viewing_time"":11006.199999999255},{""page_index"":4,""viewing_time"":4762.900000002235}]","33885.199999999255","","","","","","","","","","","","","","","","","","","","","","","",""
"pit-trial","62","502559","0.0-2.0-14.0-0.0","battery-v0.2","","""event"",""trial"",""time""
""fullscreenenter"",""1"",""1623""
","
","
","""event"",""trial"",""time""
""fullscreenenter"",""1"",""1623""
","
","","","-1","","","22","4587","3206","&#9826;","elianto","#f73b6a7A","-1","-1","1","0","[]","0","0","3","","","","","","","",""
"pit-trial","63","507423","0.0-2.0-14.0-1.0","battery-v0.2","","""event"",""trial"",""time""
""fullscreenenter"",""1"",""1623""
","
","
","""event"",""trial"",""time""
""fullscreenenter"",""1"",""1623""
","
","","","-1","","","22","4587","3206","&#9826;","elianto","#f73b6a7A","-1","-1","1","0","[]","0","0","3","","","","","","","",""
"pit-trial","64","510871","0.0-2.0-14.0-2.0","battery-v0.2","","""event"",""trial"",""time""
""fullscreenenter"",""1"",""1623""
","
","
","""event"",""trial"",""time""
""fullscreenenter"",""1"",""1623""
","
","","","582.3999999985099","","","22","4587","3206","&#9826;","elianto","#f73b6a7A","-1"," ","0","-10","[1435.1000000014901]","1","0","3","","","","","","","",""
"pit-trial","65","514391","0.0-2.0-14.0-3.0","battery-v0.2","","""event"",""trial"",""time""
""fullscreenenter"",""1"",""1623""
","
","
","""event"",""trial"",""time""
""fullscreenenter"",""1"",""1623""
","
","","","656.4000000022352","","","22","4587","3206","&#9826;","elianto","#f73b6a7A","-1"," ","0","0","[1508.9000000022352]","1","0","3","","","","","","","",""
"pit-trial","66","519250","0.0-2.0-14.0-4.0","battery-v0.2","","""event"",""trial"",""time""
""fullscreenenter"",""1"",""1623""
","
","
","""event"",""trial"",""time""
""fullscreenenter"",""1"",""1623""
","
","","","-1","","","22","4587","3206","&#9826;","elianto","#f73b6a7A","-1","-1","1","0","[]","0","0","3","","","","","","","",""
"pit-trial","67","522777","0.0-2.0-14.1-0.1","battery-v0.2","","""event"",""trial"",""time""
""fullscreenenter"",""1"",""1623""
","
","
","""event"",""trial"",""time""
""fullscreenenter"",""1"",""1623""
","
","","","666.6000000014901","","","22","4587","3206","&#9826;","elianto","#f73b6a7A","-1"," ","0","-10","[1517.199999999255]","1","0","3","","","","","","","",""
"pit-trial","68","527639","0.0-2.0-14.1-1.1","battery-v0.2","","""event"",""trial"",""time""
""fullscreenenter"",""1"",""1623""
","
","
","""event"",""trial"",""time""
""fullscreenenter"",""1"",""1623""
","
","","","-1","","","22","4587","3206","&#9826;","elianto","#f73b6a7A","-1","-1","1","0","[]","0","0","3","","","","","","","",""
"pit-trial","69","532505","0.0-2.0-14.1-2.1","battery-v0.2","","""event"",""trial"",""time""
""fullscreenenter"",""1"",""1623""
","
","
","""event"",""trial"",""time""
""fullscreenenter"",""1"",""1623""
","
","","","-1","","","22","4587","3206","&#9826;","elianto","#f73b6a7A","-1","-1","1","0","[]","0","0","3","","","","","","","",""
"pit-trial","70","537373","0.0-2.0-14.1-3.1","battery-v0.2","","""event"",""trial"",""time""
""fullscreenenter"",""1"",""1623""
","
","
","""event"",""trial"",""time""
""fullscreenenter"",""1"",""1623""
","
","","","-1","","","22","4587","3206","&#9826;","elianto","#f73b6a7A","-1","-1","1","-10","[]","0","0","3","","","","","","","",""
"pit-trial","71","542239","0.0-2.0-14.1-4.1","battery-v0.2","","""event"",""trial"",""time""
""fullscreenenter"",""1"",""1623""
","
","
","""event"",""trial"",""time""
""fullscreenenter"",""1"",""1623""
","
","","","-1","","","22","4587","3206","&#9826;","elianto","#f73b6a7A","-1","-1","1","0","[]","0","0","3","","","","","","","",""
"pit-trial","72","545699","0.0-2.0-14.2-0.2","battery-v0.2","","""event"",""trial"",""time""
""fullscreenenter"",""1"",""1623""
","
","
","""event"",""trial"",""time""
""fullscreenenter"",""1"",""1623""
","
","","","597.8000000007451","","","22","4587","3206","&#9826;","elianto","#f73b6a7A","-1"," ","0","-10","[1450.5999999977648]","1","0","3","","","","","","","",""
"pit-trial","73","550564","0.0-2.0-14.2-1.2","battery-v0.2","","""event"",""trial"",""time""
""fullscreenenter"",""1"",""1623""
","
","
","""event"",""trial"",""time""
""fullscreenenter"",""1"",""1623""
","
","","","-1","","","22","4587","3206","&#9826;","elianto","#f73b6a7A","-1","-1","1","0","[]","0","0","3","","","","","","","",""
"pit-trial","74","555428","0.0-2.0-14.2-2.2","battery-v0.2","","""event"",""trial"",""time""
""fullscreenenter"",""1"",""1623""
","
","
","""event"",""trial"",""time""
""fullscreenenter"",""1"",""1623""
","
","","","-1","","","22","4587","3206","&#9826;","elianto","#f73b6a7A","-1","-1","1","0","[]","0","0","3","","","","","","","",""
"pit-trial","75","560293","0.0-2.0-14.2-3.2","battery-v0.2","","""event"",""trial"",""time""
""fullscreenenter"",""1"",""1623""
","
","
","""event"",""trial"",""time""
""fullscreenenter"",""1"",""1623""
","
","","","-1","","","22","4587","3206","&#9826;","elianto","#f73b6a7A","-1","-1","1","-10","[]","0","0","3","","","","","","","",""
"pit-trial","76","565152","0.0-2.0-14.2-4.2","battery-v0.2","","""event"",""trial"",""time""
""fullscreenenter"",""1"",""1623""
","
","
","""event"",""trial"",""time""
""fullscreenenter"",""1"",""1623""
","
","","","-1","","","22","4587","3206","&#9826;","elianto","#f73b6a7A","-1","-1","1","0","[]","0","0","3","","","","","","","",""
"pit-trial","77","568710","0.0-2.0-14.3-0.3","battery-v0.2","","""event"",""trial"",""time""
""fullscreenenter"",""1"",""1623""
","
","
","""event"",""trial"",""time""
""fullscreenenter"",""1"",""1623""
","
","","","697.0999999977648","","","22","4587","3206","&#9826;","elianto","#f73b6a7A","-1"," ","0","-10","[1548.199999999255]","1","0","3","","","","","","","",""
"pit-trial","78","572257","0.0-2.0-14.3-1.3","battery-v0.2","","""event"",""trial"",""time""
""fullscreenenter"",""1"",""1623""
","
","
","""event"",""trial"",""time""
""fullscreenenter"",""1"",""1623""
","
","","","684.1000000014901","","","22","4587","3206","&#9826;","elianto","#f73b6a7A","-1"," ","0","-10","[1535.199999999255]","1","0","3","","","","","","","",""
"pit-trial","79","577122","0.0-2.0-14.3-2.3","battery-v0.2","","""event"",""trial"",""time""
""fullscreenenter"",""1"",""1623""
","
","
","""event"",""trial"",""time""
""fullscreenenter"",""1"",""1623""
","
","","","-1","","","22","4587","3206","&#9826;","elianto","#f73b6a7A","-1","-1","1","0","[]","0","0","3","","","","","","","",""
"pit-trial","80","581986","0.0-2.0-14.3-3.3","battery-v0.2","","""event"",""trial"",""time""
""fullscreenenter"",""1"",""1623""
","
","
","""event"",""trial"",""time""
""fullscreenenter"",""1"",""1623""
","
","","","-1","","","22","4587","3206","&#9826;","elianto","#f73b6a7A","-1","-1","1","-10","[]","0","0","3","","","","","","","",""
"pit-trial","81","586096","0.0-2.0-14.3-4.3","battery-v0.2","","""event"",""trial"",""time""
""fullscreenenter"",""1"",""1623""
","
","
","""event"",""trial"",""time""
""fullscreenenter"",""1"",""1623""
","
","","","1249.0999999977648","","","22","4587","3206","&#9826;","elianto","#f73b6a7A","-1"," ","0","-10","[2100.39999999851]","1","0","3","","","","","","","",""
"call-function","82","586102","0.0-2.0-15.0","battery-v0.2","","""event"",""trial"",""time""
""fullscreenenter"",""1"",""1623""
","
","
","""event"",""trial"",""time""
""fullscreenenter"",""1"",""1623""
","
","","","","","","","","","","","","","","","","","","","","","","","","","","",""
"pit-instructions","83","612531","0.0-2.0-16.0","battery-v0.2","","""event"",""trial"",""time""
""fullscreenenter"",""1"",""1623""
","
","
","""event"",""trial"",""time""
""fullscreenenter"",""1"",""1623""
","
","","[{""page_index"":0,""viewing_time"":6553.29999999702},{""page_index"":1,""viewing_time"":8803.5},{""page_index"":2,""viewing_time"":4946.10000000149},{""page_index"":3,""viewing_time"":6123.39999999851}]","26427.599999997765","","","","","","","","","","","","","","","","","","","","","","","",""
"pit-trial","84","617393","0.0-2.0-17.0-0.0","battery-v0.2","","""event"",""trial"",""time""
""fullscreenenter"",""1"",""1623""
","
","
","""event"",""trial"",""time""
""fullscreenenter"",""1"",""1623""
","
","","","-1","","","22","4587","3206","&#9789;","elianto","#f73b6a7A"," ","-1","0","-10","[]","0","0","4","","","","","","","",""
"pit-trial","85","622257","0.0-2.0-17.0-1.0","battery-v0.2","","""event"",""trial"",""time""
""fullscreenenter"",""1"",""1623""
","
","
","""event"",""trial"",""time""
""fullscreenenter"",""1"",""1623""
","
","","","-1","","","22","4587","3206","&#9789;","elianto","#f73b6a7A"," ","-1","0","-10","[]","0","0","4","","","","","","","",""
"pit-trial","86","627122","0.0-2.0-17.0-2.0","battery-v0.2","","""event"",""trial"",""time""
""fullscreenenter"",""1"",""1623""
","
","
","""event"",""trial"",""time""
""fullscreenenter"",""1"",""1623""
","
","","","-1","","","22","4587","3206","&#9789;","elianto","#f73b6a7A"," ","-1","0","-10","[]","0","0","4","","","","","","","",""
"pit-trial","87","630399","0.0-2.0-17.0-3.0","battery-v0.2","","""event"",""trial"",""time""
""fullscreenenter"",""1"",""1623""
","
","
","""event"",""trial"",""time""
""fullscreenenter"",""1"",""1623""
","
","","","417.20000000298023","","","22","4587","3206","&#9789;","elianto","#f73b6a7A"," "," ","1","-10","[1267.300000000745]","1","0","4","","","","","","","",""
"pit-trial","88","634142","0.0-2.0-17.0-4.0","battery-v0.2","","""event"",""trial"",""time""
""fullscreenenter"",""1"",""1623""
","
","
","""event"",""trial"",""time""
""fullscreenenter"",""1"",""1623""
","
","","","878.6999999992549","","","22","4587","3206","&#9789;","elianto","#f73b6a7A"," "," ","1","0","[1729.800000000745]","1","0","4","","","","","","","",""
"pit-trial","89","639002","0.0-2.0-17.1-0.1","battery-v0.2","","""event"",""trial"",""time""
""fullscreenenter"",""1"",""1623""
","
","
","""event"",""trial"",""time""
""fullscreenenter"",""1"",""1623""
","
","","","-1","","","22","4587","3206","&#9789;","elianto","#f73b6a7A"," ","-1","0","-10","[]","0","0","4","","","","","","","",""
"pit-trial","90","642810","0.0-2.0-17.1-1.1","battery-v0.2","","""event"",""trial"",""time""
""fullscreenenter"",""1"",""1623""
","
","
","""event"",""trial"",""time""
""fullscreenenter"",""1"",""1623""
","
","","","943.6000000014901","","","22","4587","3206","&#9789;","elianto","#f73b6a7A"," "," ","1","0","[1795]","1","0","4","","","","","","","",""
"pit-trial","91","647277","0.0-2.0-17.1-2.1","battery-v0.2","","""event"",""trial"",""time""
""fullscreenenter"",""1"",""1623""
","
","
","""event"",""trial"",""time""
""fullscreenenter"",""1"",""1623""
","
","","","1602.199999999255","","","22","4587","3206","&#9789;","elianto","#f73b6a7A"," "," ","1","0","[2452.699999999255]","1","0","4","","","","","","","",""
"pit-trial","92","652142","0.0-2.0-17.1-3.1","battery-v0.2","","""event"",""trial"",""time""
""fullscreenenter"",""1"",""1623""
","
","
","""event"",""trial"",""time""
""fullscreenenter"",""1"",""1623""
","
","","","-1","","","22","4587","3206","&#9789;","elianto","#f73b6a7A"," ","-1","0","0","[]","0","0","4","","","","","","","",""
"pit-trial","93","657002","0.0-2.0-17.1-4.1","battery-v0.2","","""event"",""trial"",""time""
""fullscreenenter"",""1"",""1623""
","
","
","""event"",""trial"",""time""
""fullscreenenter"",""1"",""1623""
","
","","","-1","","","22","4587","3206","&#9789;","elianto","#f73b6a7A"," ","-1","0","-10","[]","0","0","4","","","","","","","",""
"pit-trial","94","661866","0.0-2.0-17.2-0.2","battery-v0.2","","""event"",""trial"",""time""
""fullscreenenter"",""1"",""1623""
","
","
","""event"",""trial"",""time""
""fullscreenenter"",""1"",""1623""
","
","","","-1","","","22","4587","3206","&#9789;","elianto","#f73b6a7A"," ","-1","0","-10","[]","0","0","4","","","","","","","",""
"pit-trial","95","665534","0.0-2.0-17.2-1.2","battery-v0.2","","""event"",""trial"",""time""
""fullscreenenter"",""1"",""1623""
","
","
","""event"",""trial"",""time""
""fullscreenenter"",""1"",""1623""
","
","","","804.5999999977648","","","22","4587","3206","&#9789;","elianto","#f73b6a7A"," "," ","1","0","[1655.5]","1","0","4","","","","","","","",""
"pit-trial","96","670401","0.0-2.0-17.2-2.2","battery-v0.2","","""event"",""trial"",""time""
""fullscreenenter"",""1"",""1623""
","
","
","""event"",""trial"",""time""
""fullscreenenter"",""1"",""1623""
","
","","","-1","","","22","4587","3206","&#9789;","elianto","#f73b6a7A"," ","-1","0","-10","[]","0","0","4","","","","","","","",""
"pit-trial","97","675263","0.0-2.0-17.2-3.2","battery-v0.2","","""event"",""trial"",""time""
""fullscreenenter"",""1"",""1623""
","
","
","""event"",""trial"",""time""
""fullscreenenter"",""1"",""1623""
","
","","","-1","","","22","4587","3206","&#9789;","elianto","#f73b6a7A"," ","-1","0","0","[]","0","0","4","","","","","","","",""
"pit-trial","98","680128","0.0-2.0-17.2-4.2","battery-v0.2","","""event"",""trial"",""time""
""fullscreenenter"",""1"",""1623""
","
","
","""event"",""trial"",""time""
""fullscreenenter"",""1"",""1623""
","
","","","-1","","","22","4587","3206","&#9789;","elianto","#f73b6a7A"," ","-1","0","-10","[]","0","0","4","","","","","","","",""
"pit-trial","99","683315","0.0-2.0-17.3-0.3","battery-v0.2","","""event"",""trial"",""time""
""fullscreenenter"",""1"",""1623""
","
","
","""event"",""trial"",""time""
""fullscreenenter"",""1"",""1623""
","
","","","323.5","","","22","4587","3206","&#9789;","elianto","#f73b6a7A"," "," ","1","0","[1173.8999999985099]","1","0","4","","","","","","","",""
"pit-trial","100","688179","0.0-2.0-17.3-1.3","battery-v0.2","","""event"",""trial"",""time""
""fullscreenenter"",""1"",""1623""
","
","
","""event"",""trial"",""time""
""fullscreenenter"",""1"",""1623""
","
","","","-1","","","22","4587","3206","&#9789;","elianto","#f73b6a7A"," ","-1","0","-10","[]","0","0","4","","","","","","","",""
"pit-trial","101","693046","0.0-2.0-17.3-2.3","battery-v0.2","","""event"",""trial"",""time""
""fullscreenenter"",""1"",""1623""
","
","
","""event"",""trial"",""time""
""fullscreenenter"",""1"",""1623""
","
","","","-1","","","22","4587","3206","&#9789;","elianto","#f73b6a7A"," ","-1","0","-10","[]","0","0","4","","","","","","","",""
"pit-trial","102","697909","0.0-2.0-17.3-3.3","battery-v0.2","","""event"",""trial"",""time""
""fullscreenenter"",""1"",""1623""
","
","
","""event"",""trial"",""time""
""fullscreenenter"",""1"",""1623""
","
","","","-1","","","22","4587","3206","&#9789;","elianto","#f73b6a7A"," ","-1","0","0","[]","0","0","4","","","","","","","",""
"pit-trial","103","700985","0.0-2.0-17.3-4.3","battery-v0.2","","""event"",""trial"",""time""
""fullscreenenter"",""1"",""1623""
","
","
","""event"",""trial"",""time""
""fullscreenenter"",""1"",""1623""
","
","","","214.69999999925494","","","22","4587","3206","&#9789;","elianto","#f73b6a7A"," "," ","1","0","[1064.699999999255]","1","0","4","","","","","","","",""
"call-function","104","700992","0.0-2.0-18.0","battery-v0.2","","""event"",""trial"",""time""
""fullscreenenter"",""1"",""1623""
","
","
","""event"",""trial"",""time""
""fullscreenenter"",""1"",""1623""
","
","","","","","","","","","","","","","","","","","","","","","","","","","","",""
"pit-instructions","105","813880","0.0-2.0-19.0","battery-v0.2","","""event"",""trial"",""time""
""fullscreenenter"",""1"",""1623""
","
","
","""event"",""trial"",""time""
""fullscreenenter"",""1"",""1623""
","
","","[{""page_index"":0,""viewing_time"":6578.800000000745},{""page_index"":1,""viewing_time"":5992.199999999255},{""page_index"":2,""viewing_time"":36526.39999999851},{""page_index"":3,""viewing_time"":8062.900000002235},{""page_index"":4,""viewing_time"":7999.699999999255},{""page_index"":5,""viewing_time"":9558.300000000745},{""page_index"":6,""viewing_time"":11002.39999999851},{""page_index"":7,""viewing_time"":22138.699999999255},{""page_index"":8,""viewing_time"":5027.10000000149}]","112887.80000000075","","","","","","","","","","","","","","","","","","","","","","","",""
"pit-comprehension","106","818466","0.0-2.0-20.0-0.0","battery-v0.2","","""event"",""trial"",""time""
""fullscreenenter"",""1"",""1623""
","
","
","""event"",""trial"",""time""
""fullscreenenter"",""1"",""1623""
","
","","","4577.39999999851","[""SPACE""]","0","22","4587","3206","","","","","","","","","","","","","","","","","","",""
"pit-instructions","107","821928","0.0-2.0-20.0-1.0","battery-v0.2","","""event"",""trial"",""time""
""fullscreenenter"",""1"",""1623""
","
","
","""event"",""trial"",""time""
""fullscreenenter"",""1"",""1623""
","
","","[{""page_index"":0,""viewing_time"":3427.2000000029802}]","3427.900000002235","","","","","","","","","","","","","","","","","","","","","","","",""
"pit-comprehension","108","827389","0.0-2.0-21.0-0.0","battery-v0.2","","""event"",""trial"",""time""
""fullscreenenter"",""1"",""1623""
","
","
","""event"",""trial"",""time""
""fullscreenenter"",""1"",""1623""
","
","","","5452.60000000149","[""10""]","0","22","4587","3206","","","","","","","","","","","","","","","","","","",""
"pit-instructions","109","829294","0.0-2.0-21.0-1.0","battery-v0.2","","""event"",""trial"",""time""
""fullscreenenter"",""1"",""1623""
","
","
","""event"",""trial"",""time""
""fullscreenenter"",""1"",""1623""
","
","","[{""page_index"":0,""viewing_time"":1867.5}]","1868.300000000745","","","","","","","","","","","","","","","","","","","","","","","",""
"pit-comprehension","110","835910","0.0-2.0-22.0-0.0","battery-v0.2","","""event"",""trial"",""time""
""fullscreenenter"",""1"",""1623""
","
","
","""event"",""trial"",""time""
""fullscreenenter"",""1"",""1623""
","
","","","6607.199999999255","[""0""]","0","22","4587","3206","","","","","","","","","","","","","","","","","","",""
"pit-instructions","111","837656","0.0-2.0-22.0-1.0","battery-v0.2","","""event"",""trial"",""time""
""fullscreenenter"",""1"",""1623""
","
","
","""event"",""trial"",""time""
""fullscreenenter"",""1"",""1623""
","
","","[{""page_index"":0,""viewing_time"":1707.8999999985099}]","1708.7999999970198","","","","","","","","","","","","","","","","","","","","","","","",""
"pit-comprehension","112","847139","0.0-2.0-23.0-0.0","battery-v0.2","","""event"",""trial"",""time""
""fullscreenenter"",""1"",""1623""
","
","
","""event"",""trial"",""time""
""fullscreenenter"",""1"",""1623""
","
","","","9474.400000002235","[""False""]","1","22","4587","3206","","","","","","","","","","","","","","","","","","",""
"pit-instructions","113","851665","0.0-2.0-23.0-1.0","battery-v0.2","","""event"",""trial"",""time""
""fullscreenenter"",""1"",""1623""
","
","
","""event"",""trial"",""time""
""fullscreenenter"",""1"",""1623""
","
","","[{""page_index"":0,""viewing_time"":4488.60000000149}]","4489.60000000149","","","","","","","","","","","","","","","","","","","","","","","",""
"pit-instructions","114","852610","0.0-2.0-23.0-2.0-0.0","battery-v0.2","","""event"",""trial"",""time""
""fullscreenenter"",""1"",""1623""
","
","
","""event"",""trial"",""time""
""fullscreenenter"",""1"",""1623""
","
","","[{""page_index"":0,""viewing_time"":937.3000000007451}]","938.1000000014901","","","","","","","","","","","","","","","","","","","","","","","",""
"pit-comprehension","115","861092","0.0-2.0-23.1-0.1","battery-v0.2","","""event"",""trial"",""time""
""fullscreenenter"",""1"",""1623""
","
","
","""event"",""trial"",""time""
""fullscreenenter"",""1"",""1623""
","
","","","8475.300000000745","[""True""]","0","22","4587","3206","","","","","","","","","","","","","","","","","","",""
"pit-instructions","116","867043","0.0-2.0-23.1-1.1","battery-v0.2","","""event"",""trial"",""time""
""fullscreenenter"",""1"",""1623""
","
","
","""event"",""trial"",""time""
""fullscreenenter"",""1"",""1623""
","
","","[{""page_index"":0,""viewing_time"":5910.199999999255}]","5911","","","","","","","","","","","","","","","","","","","","","","","",""
"pit-comprehension","117","874459","0.0-2.0-24.0-0.0","battery-v0.2","","""event"",""trial"",""time""
""fullscreenenter"",""1"",""1623""
","
","
","""event"",""trial"",""time""
""fullscreenenter"",""1"",""1623""
","
","","","7409.5","[""True""]","0","22","4587","3206","","","","","","","","","","","","","","","","","","",""
"pit-instructions","118","876259","0.0-2.0-24.0-1.0","battery-v0.2","","""event"",""trial"",""time""
""fullscreenenter"",""1"",""1623""
","
","
","""event"",""trial"",""time""
""fullscreenenter"",""1"",""1623""
","
","","[{""page_index"":0,""viewing_time"":1758.800000000745}]","1759.6000000014901","","","","","","","","","","","","","","","","","","","","","","","",""
"pit-comprehension","119","882950","0.0-2.0-25.0-0.0","battery-v0.2","","""event"",""trial"",""time""
""fullscreenenter"",""1"",""1623""
","
","
","""event"",""trial"",""time""
""fullscreenenter"",""1"",""1623""
","
","","","6683","[""True""]","0","22","4587","3206","","","","","","","","","","","","","","","","","","",""
"pit-instructions","120","884657","0.0-2.0-25.0-1.0","battery-v0.2","","""event"",""trial"",""time""
""fullscreenenter"",""1"",""1623""
","
","
","""event"",""trial"",""time""
""fullscreenenter"",""1"",""1623""
","
","","[{""page_index"":0,""viewing_time"":1671.8999999985099}]","1672.5999999977648","","","","","","","","","","","","","","","","","","","","","","","",""
"pit-comprehension","121","889593","0.0-2.0-26.0-0.0","battery-v0.2","","""event"",""trial"",""time""
""fullscreenenter"",""1"",""1623""
","
","
","""event"",""trial"",""time""
""fullscreenenter"",""1"",""1623""
","
","","","4927.39999999851","[""False""]","0","22","4587","3206","","","","","","","","","","","","","","","","","","",""
"pit-instructions","122","891727","0.0-2.0-26.0-1.0","battery-v0.2","","""event"",""trial"",""time""
""fullscreenenter"",""1"",""1623""
","
","
","""event"",""trial"",""time""
""fullscreenenter"",""1"",""1623""
","
","","[{""page_index"":0,""viewing_time"":2092.599999997765}]","2093.39999999851","","","","","","","","","","","","","","","","","","","","","","","",""
"pit-instructions","123","911784","0.0-3.0","battery-v0.2","","""event"",""trial"",""time""
""fullscreenenter"",""1"",""1623""
","
","
","""event"",""trial"",""time""
""fullscreenenter"",""1"",""1623""
","
","","[{""page_index"":0,""viewing_time"":5288.400000002235},{""page_index"":1,""viewing_time"":6567.099999997765},{""page_index"":2,""viewing_time"":8195.10000000149}]","20050.900000002235","","","","","","","","","","","","","","","","","","","","","","","",""
"pit-trial","124","916650","0.0-4.0","battery-v0.2","","""event"",""trial"",""time""
""fullscreenenter"",""1"",""1623""
","
","
","""event"",""trial"",""time""
""fullscreenenter"",""1"",""1623""
","
","","","-1","","","22","4587","3206","&#9728;","elianto","#f73b6a7A","-1","-1","1","0","[]","0","1","","","4587","1","0","4","lose","no-go","0"
"pit-trial","125","920307","0.0-5.0","battery-v0.2","","""event"",""trial"",""time""
""fullscreenenter"",""1"",""1623""
","
","
","""event"",""trial"",""time""
""fullscreenenter"",""1"",""1623""
","
","","","797","","","22","4587","3206","&#9730;","elianto","#3366ff99"," "," ","1","+10","[1647.699999999255]","1","1","","","4587","2","1","1","win","go","0"
"pit-trial","126","925167","0.0-6.0","battery-v0.2","","""event"",""trial"",""time""
""fullscreenenter"",""1"",""1623""
","
","
","""event"",""trial"",""time""
""fullscreenenter"",""1"",""1623""
","
","","","-1","","","22","4587","3206","&#9752;","elianto","#f73b6a7A"," ","-1","0","-10","[]","0","1","","","4587","3","3","3","lose","go","0"
"pit-trial","127","930027","0.0-7.0","battery-v0.2","","""event"",""trial"",""time""
""fullscreenenter"",""1"",""1623""
","
","
","""event"",""trial"",""time""
""fullscreenenter"",""1"",""1623""
","
","","","-1","","","22","4587","3206","&#9733;","elianto","#3366ff99","-1","-1","1","0","[]","0","1","","","4587","4","2","2","win","no-go","1"
"pit-trial","128","933975","0.0-8.0","battery-v0.2","","""event"",""trial"",""time""
""fullscreenenter"",""1"",""1623""
","
","
","""event"",""trial"",""time""
""fullscreenenter"",""1"",""1623""
","
","","","1083.0999999977648","","","22","4587","3206","&#9752;","elianto","#f73b6a7A"," "," ","1","0","[1934.6000000014901]","1","1","","","4587","5","3","3","lose","go","0"
"pit-trial","129","937953","0.0-9.0","battery-v0.2","","""event"",""trial"",""time""
""fullscreenenter"",""1"",""1623""
","
","
","""event"",""trial"",""time""
""fullscreenenter"",""1"",""1623""
","
","","","1113.699999999255","","","22","4587","3206","&#9733;","elianto","#3366ff99","-1"," ","0","0","[1964.5]","1","1","","","4587","6","2","2","win","no-go","0"
"pit-trial","130","941842","0.0-10.0","battery-v0.2","","""event"",""trial"",""time""
""fullscreenenter"",""1"",""1623""
","
","
","""event"",""trial"",""time""
""fullscreenenter"",""1"",""1623""
","
","","","1028.5","","","22","4587","3206","&#9728;","elianto","#f73b6a7A","-1"," ","0","-10","[1880.1000000014901]","1","1","","","4587","7","0","4","lose","no-go","0"
"pit-trial","131","945496","0.0-11.0","battery-v0.2","","""event"",""trial"",""time""
""fullscreenenter"",""1"",""1623""
","
","
","""event"",""trial"",""time""
""fullscreenenter"",""1"",""1623""
","
","","","789.6000000014901","","","22","4587","3206","&#9730;","elianto","#3366ff99"," "," ","1","0","[1641.1000000014901]","1","1","","","4587","8","1","1","win","go","1"
"pit-trial","132","949279","0.0-12.0","battery-v0.2","","""event"",""trial"",""time""
""fullscreenenter"",""1"",""1623""
","
","
","""event"",""trial"",""time""
""fullscreenenter"",""1"",""1623""
","
","","","920.8999999985099","","","22","4587","3206","&#9733;","elianto","#3366ff99","-1"," ","0","0","[1771.3999999985099]","1","1","","","4587","9","2","2","win","no-go","0"
"pit-trial","133","954143","0.0-13.0","battery-v0.2","","""event"",""trial"",""time""
""fullscreenenter"",""1"",""1623""
","
","
","""event"",""trial"",""time""
""fullscreenenter"",""1"",""1623""
","
","","","-1","","","22","4587","3206","&#9752;","elianto","#f73b6a7A"," ","-1","0","-10","[]","0","1","","","4587","10","3","3","lose","go","0"
"pit-trial","134","957801","0.0-14.0","battery-v0.2","","""event"",""trial"",""time""
""fullscreenenter"",""1"",""1623""
","
","
","""event"",""trial"",""time""
""fullscreenenter"",""1"",""1623""
","
","","","794","","","22","4587","3206","&#9730;","elianto","#3366ff99"," "," ","1","+10","[1644.199999999255]","1","1","","","4587","11","1","1","win","go","0"
"pit-trial","135","961897","0.0-15.0","battery-v0.2","","""event"",""trial"",""time""
""fullscreenenter"",""1"",""1623""
","
","
","""event"",""trial"",""time""
""fullscreenenter"",""1"",""1623""
","
","","","1232.5","","","22","4587","3206","&#9728;","elianto","#f73b6a7A","-1"," ","0","-10","[2082.699999999255]","1","1","","","4587","12","0","4","lose","no-go","0"
"pit-trial","136","966763","0.0-16.0","battery-v0.2","","""event"",""trial"",""time""
""fullscreenenter"",""1"",""1623""
","
","
","""event"",""trial"",""time""
""fullscreenenter"",""1"",""1623""
","
","","","-1","","","22","4587","3206","&#9733;","elianto","#3366ff99","-1","-1","1","+10","[]","0","1","","","4587","13","2","2","win","no-go","0"
"pit-trial","137","970543","0.0-17.0","battery-v0.2","","""event"",""trial"",""time""
""fullscreenenter"",""1"",""1623""
","
","
","""event"",""trial"",""time""
""fullscreenenter"",""1"",""1623""
","
","","","921.7000000029802","","","22","4587","3206","&#9752;","elianto","#f73b6a7A"," "," ","1","0","[1773.5]","1","1","","","4587","14","3","3","lose","go","0"
"pit-trial","138","974223","0.0-18.0","battery-v0.2","","""event"",""trial"",""time""
""fullscreenenter"",""1"",""1623""
","
","
","""event"",""trial"",""time""
""fullscreenenter"",""1"",""1623""
","
","","","817.6000000014901","","","22","4587","3206","&#9730;","elianto","#3366ff99"," "," ","1","0","[1669.1000000014901]","1","1","","","4587","15","1","1","win","go","1"
"pit-trial","139","979088","0.0-19.0","battery-v0.2","","""event"",""trial"",""time""
""fullscreenenter"",""1"",""1623""
","
","
","""event"",""trial"",""time""
""fullscreenenter"",""1"",""1623""
","
","","","-1","","","22","4587","3206","&#9728;","elianto","#f73b6a7A","-1","-1","1","0","[]","0","1","","","4587","16","0","4","lose","no-go","0"
"pit-trial","140","982736","0.0-20.0","battery-v0.2","","""event"",""trial"",""time""
""fullscreenenter"",""1"",""1623""
","
","
","""event"",""trial"",""time""
""fullscreenenter"",""1"",""1623""
","
","","","786.1000000014901","","","22","4587","3206","&#9730;","elianto","#3366ff99"," "," ","1","+10","[1637]","1","1","","","4587","17","1","1","win","go","0"
"pit-trial","141","987598","0.0-21.0","battery-v0.2","","""event"",""trial"",""time""
""fullscreenenter"",""1"",""1623""
","
","
","""event"",""trial"",""time""
""fullscreenenter"",""1"",""1623""
","
","","","-1","","","22","4587","3206","&#9728;","elianto","#f73b6a7A","-1","-1","1","0","[]","0","1","","","4587","18","0","4","lose","no-go","0"
"pit-trial","142","991179","0.0-22.0","battery-v0.2","","""event"",""trial"",""time""
""fullscreenenter"",""1"",""1623""
","
","
","""event"",""trial"",""time""
""fullscreenenter"",""1"",""1623""
","
","","","719","","","22","4587","3206","&#9752;","elianto","#f73b6a7A"," "," ","1","0","[1569.3999999985099]","1","1","","","4587","19","3","3","lose","go","0"
"pit-trial","143","996043","0.0-23.0","battery-v0.2","","""event"",""trial"",""time""
""fullscreenenter"",""1"",""1623""
","
","
","""event"",""trial"",""time""
""fullscreenenter"",""1"",""1623""
","
","","","-1","","","22","4587","3206","&#9733;","elianto","#3366ff99","-1","-1","1","+10","[]","0","1","","","4587","20","2","2","win","no-go","0"
"pit-instructions","144","1008740","0.0-24.0","battery-v0.2","","""event"",""trial"",""time""
""fullscreenenter"",""1"",""1623""
","
","
","""event"",""trial"",""time""
""fullscreenenter"",""1"",""1623""
","
","","[{""page_index"":0,""viewing_time"":5780.800000000745},{""page_index"":1,""viewing_time"":6909.199999999255}]","12690.5","","","","","","","","","","","","","","","","","","","","","","","",""
"pit-trial","145","1012408","0.0-25.0","battery-v0.2","","""event"",""trial"",""time""
""fullscreenenter"",""1"",""1623""
","
","
","""event"",""trial"",""time""
""fullscreenenter"",""1"",""1623""
","
","","","805.6999999992549","","","22","4587","3206","e","elianto","#f73b6a7A","-1"," ","0","-10","[1658.199999999255]","1","2","","","4587","21","2","4","lose","no-go","0"
"pit-trial","146","1017272","0.0-26.0","battery-v0.2","","""event"",""trial"",""time""
""fullscreenenter"",""1"",""1623""
","
","
","""event"",""trial"",""time""
""fullscreenenter"",""1"",""1623""
","
","","","-1","","","22","4587","3206","w","elianto","#f73b6a7A"," ","-1","0","-10","[]","0","2","","","4587","22","3","3","lose","go","0"
"pit-trial","147","1021344","0.0-27.0","battery-v0.2","","""event"",""trial"",""time""
""fullscreenenter"",""1"",""1623""
","
","
","""event"",""trial"",""time""
""fullscreenenter"",""1"",""1623""
","
","","","1207.9000000022352","","","22","4587","3206","d","elianto","#3366ff99"," "," ","1","+10","[2060.300000000745]","1","2","","","4587","23","1","1","win","go","0"
"pit-trial","148","1026208","0.0-28.0","battery-v0.2","","""event"",""trial"",""time""
""fullscreenenter"",""1"",""1623""
","
","
","""event"",""trial"",""time""
""fullscreenenter"",""1"",""1623""
","
","","","-1","","","22","4587","3206","j","elianto","#f73b6a7A","-1","-1","1","0","[]","0","2","","","4587","24","0","4","lose","no-go","0"
"pit-trial","149","1030663","0.0-29.0","battery-v0.2","","""event"",""trial"",""time""
""fullscreenenter"",""1"",""1623""
","
","
","""event"",""trial"",""time""
""fullscreenenter"",""1"",""1623""
","
","","","1594.800000000745","","","22","4587","3206","d","elianto","#3366ff99"," "," ","1","+10","[2446.300000000745]","1","2","","","4587","25","1","1","win","go","0"
"pit-trial","150","1034846","0.0-30.0","battery-v0.2","","""event"",""trial"",""time""
""fullscreenenter"",""1"",""1623""
","
","
","""event"",""trial"",""time""
""fullscreenenter"",""1"",""1623""
","
","","","1323.2999999970198","","","22","4587","3206","e","elianto","#f73b6a7A","-1"," ","0","0","[2173.89999999851]","1","2","","","4587","26","2","4","lose","no-go","1"
"pit-trial","151","1039710","0.0-31.0","battery-v0.2","","""event"",""trial"",""time""
""fullscreenenter"",""1"",""1623""
","
","
","""event"",""trial"",""time""
""fullscreenenter"",""1"",""1623""
","
","","","-1","","","22","4587","3206","j","elianto","#f73b6a7A","-1","-1","1","0","[]","0","2","","","4587","27","0","4","lose","no-go","0"
"pit-trial","152","1043479","0.0-32.0","battery-v0.2","","""event"",""trial"",""time""
""fullscreenenter"",""1"",""1623""
","
","
","""event"",""trial"",""time""
""fullscreenenter"",""1"",""1623""
","
","","","905.1999999992549","","","22","4587","3206","w","elianto","#f73b6a7A"," "," ","1","0","[1755.3999999985099]","1","2","","","4587","28","3","3","lose","go","0"
"pit-trial","153","1047024","0.0-33.0","battery-v0.2","","""event"",""trial"",""time""
""fullscreenenter"",""1"",""1623""
","
","
","""event"",""trial"",""time""
""fullscreenenter"",""1"",""1623""
","
","","","683.3000000007451","","","22","4587","3206","d","elianto","#3366ff99"," "," ","1","+10","[1533.699999999255]","1","2","","","4587","29","1","1","win","go","0"
"pit-trial","154","1050849","0.0-34.0","battery-v0.2","","""event"",""trial"",""time""
""fullscreenenter"",""1"",""1623""
","
","
","""event"",""trial"",""time""
""fullscreenenter"",""1"",""1623""
","
","","","961.8000000007451","","","22","4587","3206","w","elianto","#f73b6a7A"," "," ","1","0","[1812.199999999255]","1","2","","","4587","30","3","3","lose","go","0"
"pit-trial","155","1055714","0.0-35.0","battery-v0.2","","""event"",""trial"",""time""
""fullscreenenter"",""1"",""1623""
","
","
","""event"",""trial"",""time""
""fullscreenenter"",""1"",""1623""
","
","","","-1","","","22","4587","3206","e","elianto","#f73b6a7A","-1","-1","1","0","[]","0","2","","","4587","31","2","4","lose","no-go","0"
"pit-trial","156","1060581","0.0-36.0","battery-v0.2","","""event"",""trial"",""time""
""fullscreenenter"",""1"",""1623""
","
","
","""event"",""trial"",""time""
""fullscreenenter"",""1"",""1623""
","
","","","-1","","","22","4587","3206","j","elianto","#f73b6a7A","-1","-1","1","-10","[]","0","2","","","4587","32","0","4","lose","no-go","1"
"pit-trial","157","1064741","0.0-37.0","battery-v0.2","","""event"",""trial"",""time""
""fullscreenenter"",""1"",""1623""
","
","
","""event"",""trial"",""time""
""fullscreenenter"",""1"",""1623""
","
","","","1294.5","","","22","4587","3206","j","elianto","#f73b6a7A","-1"," ","0","-10","[2145.60000000149]","1","2","","","4587","33","0","4","lose","no-go","0"
"pit-trial","158","1069607","0.0-38.0","battery-v0.2","","""event"",""trial"",""time""
""fullscreenenter"",""1"",""1623""
","
","
","""event"",""trial"",""time""
""fullscreenenter"",""1"",""1623""
","
","","","-1","","","22","4587","3206","e","elianto","#f73b6a7A","-1","-1","1","0","[]","0","2","","","4587","34","2","4","lose","no-go","0"
"pit-trial","159","1073109","0.0-39.0","battery-v0.2","","""event"",""trial"",""time""
""fullscreenenter"",""1"",""1623""
","
","
","""event"",""trial"",""time""
""fullscreenenter"",""1"",""1623""
","
","","","636.8000000007451","","","22","4587","3206","d","elianto","#3366ff99"," "," ","1","+10","[1487.6000000014901]","1","2","","","4587","35","1","1","win","go","0"
"pit-trial","160","1077860","0.0-40.0","battery-v0.2","","""event"",""trial"",""time""
""fullscreenenter"",""1"",""1623""
","
","
","""event"",""trial"",""time""
""fullscreenenter"",""1"",""1623""
","
","","","1888.1000000014901","","","22","4587","3206","w","elianto","#f73b6a7A"," "," ","1","0","[2738.10000000149]","1","2","","","4587","36","3","3","lose","go","0"
"pit-trial","161","1082725","0.0-41.0","battery-v0.2","","""event"",""trial"",""time""
""fullscreenenter"",""1"",""1623""
","
","
","""event"",""trial"",""time""
""fullscreenenter"",""1"",""1623""
","
","","","-1","","","22","4587","3206","e","elianto","#f73b6a7A","-1","-1","1","0","[]","0","2","","","4587","37","2","4","lose","no-go","0"
"pit-trial","162","1086561","0.0-42.0","battery-v0.2","","""event"",""trial"",""time""
""fullscreenenter"",""1"",""1623""
","
","
","""event"",""trial"",""time""
""fullscreenenter"",""1"",""1623""
","
","","","976.9000000022352","","","22","4587","3206","j","elianto","#f73b6a7A","-1"," ","0","-10","[1827.300000000745,3727.800000000745]","2","2","","","4587","38","0","4","lose","no-go","0"
"pit-trial","163","1090572","0.0-43.0","battery-v0.2","","""event"",""trial"",""time""
""fullscreenenter"",""1"",""1623""
","
","
","""event"",""trial"",""time""
""fullscreenenter"",""1"",""1623""
","
","","","1149.9000000022352","","","22","4587","3206","w","elianto","#f73b6a7A"," "," ","1","0","[2000.0999999977648]","1","2","","","4587","39","3","3","lose","go","0"
"pit-trial","164","1094131","0.0-44.0","battery-v0.2","","""event"",""trial"",""time""
""fullscreenenter"",""1"",""1623""
","
","
","""event"",""trial"",""time""
""fullscreenenter"",""1"",""1623""
","
","","","693.7000000029802","","","22","4587","3206","d","elianto","#3366ff99"," "," ","1","+10","[1546.199999999255]","1","2","","","4587","40","1","1","win","go","0"
"pit-trial","165","1097950","0.0-45.0","battery-v0.2","","""event"",""trial"",""time""
""fullscreenenter"",""1"",""1623""
","
","
","""event"",""trial"",""time""
""fullscreenenter"",""1"",""1623""
","
","","","961","","","22","4587","3206","w","elianto","#f73b6a7A"," "," ","1","0","[1811.1000000014901]","1","2","","","4587","41","3","3","lose","go","0"
"pit-trial","166","1101439","0.0-46.0","battery-v0.2","","""event"",""trial"",""time""
""fullscreenenter"",""1"",""1623""
","
","
","""event"",""trial"",""time""
""fullscreenenter"",""1"",""1623""
","
","","","627","","","22","4587","3206","d","elianto","#3366ff99"," "," ","1","+10","[1477.5]","1","2","","","4587","42","1","1","win","go","0"
"pit-trial","167","1105215","0.0-47.0","battery-v0.2","","""event"",""trial"",""time""
""fullscreenenter"",""1"",""1623""
","
","
","""event"",""trial"",""time""
""fullscreenenter"",""1"",""1623""
","
","","","911.4000000022352","","","22","4587","3206","j","elianto","#f73b6a7A","-1"," ","0","0","[1762.5]","1","2","","","4587","43","0","4","lose","no-go","1"
"pit-trial","168","1110083","0.0-48.0","battery-v0.2","","""event"",""trial"",""time""
""fullscreenenter"",""1"",""1623""
","
","
","""event"",""trial"",""time""
""fullscreenenter"",""1"",""1623""
","
","","","-1","","","22","4587","3206","e","elianto","#f73b6a7A","-1","-1","1","0","[]","0","2","","","4587","44","2","4","lose","no-go","0"
"pit-trial","169","1114297","0.0-49.0","battery-v0.2","","""event"",""trial"",""time""
""fullscreenenter"",""1"",""1623""
","
","
","""event"",""trial"",""time""
""fullscreenenter"",""1"",""1623""
","
","","","1350.3999999985099","","","22","4587","3206","s","elianto","#3366ff99","-1"," ","0","+10","[2201.5]","1","2","","","4587","45","4","2","win","no-go","1"
"pit-trial","170","1119164","0.0-50.0","battery-v0.2","","""event"",""trial"",""time""
""fullscreenenter"",""1"",""1623""
","
","
","""event"",""trial"",""time""
""fullscreenenter"",""1"",""1623""
","
","","","-1","","","22","4587","3206","e","elianto","#f73b6a7A","-1","-1","1","0","[]","0","2","","","4587","46","2","4","lose","no-go","0"
"pit-trial","171","1123003","0.0-51.0","battery-v0.2","","""event"",""trial"",""time""
""fullscreenenter"",""1"",""1623""
","
","
","""event"",""trial"",""time""
""fullscreenenter"",""1"",""1623""
","
","","","978.8000000007451","","","22","4587","3206","j","elianto","#f73b6a7A","-1"," ","0","-10","[1829]","1","2","","","4587","47","0","4","lose","no-go","0"
"pit-trial","172","1126664","0.0-52.0","battery-v0.2","","""event"",""trial"",""time""
""fullscreenenter"",""1"",""1623""
","
","
","""event"",""trial"",""time""
""fullscreenenter"",""1"",""1623""
","
","","","796.3000000007451","","","22","4587","3206","w","elianto","#f73b6a7A"," "," ","1","0","[1648.8999999985099]","1","2","","","4587","48","3","3","lose","go","0"
"pit-trial","173","1130296","0.0-53.0","battery-v0.2","","""event"",""trial"",""time""
""fullscreenenter"",""1"",""1623""
","
","
","""event"",""trial"",""time""
""fullscreenenter"",""1"",""1623""
","
","","","769.3000000007451","","","22","4587","3206","w","elianto","#f73b6a7A"," "," ","1","0","[1620.300000000745]","1","2","","","4587","49","3","3","lose","go","0"
"pit-trial","174","1135161","0.0-54.0","battery-v0.2","","""event"",""trial"",""time""
""fullscreenenter"",""1"",""1623""
","
","
","""event"",""trial"",""time""
""fullscreenenter"",""1"",""1623""
","
","","","-1","","","22","4587","3206","j","elianto","#f73b6a7A","-1","-1","1","0","[]","0","2","","","4587","50","0","4","lose","no-go","0"
"pit-trial","175","1138794","0.0-55.0","battery-v0.2","","""event"",""trial"",""time""
""fullscreenenter"",""1"",""1623""
","
","
","""event"",""trial"",""time""
""fullscreenenter"",""1"",""1623""
","
","","","770.1000000014901","","","22","4587","3206","s","elianto","#3366ff99","-1"," ","0","0","[1620.800000000745]","1","2","","","4587","51","4","2","win","no-go","0"
"pit-trial","176","1142382","0.0-56.0","battery-v0.2","","""event"",""trial"",""time""
""fullscreenenter"",""1"",""1623""
","
","
","""event"",""trial"",""time""
""fullscreenenter"",""1"",""1623""
","
","","","723.6000000014901","","","22","4587","3206","d","elianto","#3366ff99"," "," ","1","+10","[1574]","1","2","","","4587","52","1","1","win","go","0"
"pit-trial","177","1145975","0.0-57.0","battery-v0.2","","""event"",""trial"",""time""
""fullscreenenter"",""1"",""1623""
","
","
","""event"",""trial"",""time""
""fullscreenenter"",""1"",""1623""
","
","","","730.8000000007451","","","22","4587","3206","d","elianto","#3366ff99"," "," ","1","+10","[1581.1000000014901]","1","2","","","4587","53","1","1","win","go","0"
"pit-trial","178","1150840","0.0-58.0","battery-v0.2","","""event"",""trial"",""time""
""fullscreenenter"",""1"",""1623""
","
","
","""event"",""trial"",""time""
""fullscreenenter"",""1"",""1623""
","
","","","-1","","","22","4587","3206","s","elianto","#3366ff99","-1","-1","1","+10","[]","0","2","","","4587","54","4","2","win","no-go","0"
"pit-trial","179","1154737","0.0-59.0","battery-v0.2","","""event"",""trial"",""time""
""fullscreenenter"",""1"",""1623""
","
","
","""event"",""trial"",""time""
""fullscreenenter"",""1"",""1623""
","
","","","1031.5","","","22","4587","3206","j","elianto","#f73b6a7A","-1"," ","0","-10","[1882.8999999985099]","1","2","","","4587","55","0","4","lose","no-go","0"
"pit-trial","180","1159599","0.0-60.0","battery-v0.2","","""event"",""trial"",""time""
""fullscreenenter"",""1"",""1623""
","
","
","""event"",""trial"",""time""
""fullscreenenter"",""1"",""1623""
","
","","","-1","","","22","4587","3206","e","elianto","#f73b6a7A","-1","-1","1","0","[]","0","2","","","4587","56","2","4","lose","no-go","0"
"pit-trial","181","1163175","0.0-61.0","battery-v0.2","","""event"",""trial"",""time""
""fullscreenenter"",""1"",""1623""
","
","
","""event"",""trial"",""time""
""fullscreenenter"",""1"",""1623""
","
","","","714.8999999985099","","","22","4587","3206","w","elianto","#f73b6a7A"," "," ","1","0","[1564.8999999985099]","1","2","","","4587","57","3","3","lose","go","0"
"pit-trial","182","1166711","0.0-62.0","battery-v0.2","","""event"",""trial"",""time""
""fullscreenenter"",""1"",""1623""
","
","
","""event"",""trial"",""time""
""fullscreenenter"",""1"",""1623""
","
","","","674.7999999970198","","","22","4587","3206","d","elianto","#3366ff99"," "," ","1","+10","[1525.5]","1","2","","","4587","58","1","1","win","go","0"
"pit-trial","183","1171574","0.0-63.0","battery-v0.2","","""event"",""trial"",""time""
""fullscreenenter"",""1"",""1623""
","
","
","""event"",""trial"",""time""
""fullscreenenter"",""1"",""1623""
","
","","","-1","","","22","4587","3206","s","elianto","#3366ff99","-1","-1","1","+10","[]","0","2","","","4587","59","4","2","win","no-go","0"
"pit-trial","184","1176436","0.0-64.0","battery-v0.2","","""event"",""trial"",""time""
""fullscreenenter"",""1"",""1623""
","
","
","""event"",""trial"",""time""
""fullscreenenter"",""1"",""1623""
","
","","","-1","","","22","4587","3206","j","elianto","#f73b6a7A","-1","-1","1","0","[]","0","2","","","4587","60","0","4","lose","no-go","0"
"pit-trial","185","1180110","0.0-65.0","battery-v0.2","","""event"",""trial"",""time""
""fullscreenenter"",""1"",""1623""
","
","
","""event"",""trial"",""time""
""fullscreenenter"",""1"",""1623""
","
","","","810.1999999992549","","","22","4587","3206","w","elianto","#f73b6a7A"," "," ","1","0","[1662.199999999255]","1","2","","","4587","61","3","3","lose","go","0"
"pit-trial","186","1184973","0.0-66.0","battery-v0.2","","""event"",""trial"",""time""
""fullscreenenter"",""1"",""1623""
","
","
","""event"",""trial"",""time""
""fullscreenenter"",""1"",""1623""
","
","","","-1","","","22","4587","3206","s","elianto","#3366ff99","-1","-1","1","+10","[]","0","2","","","4587","62","4","2","win","no-go","0"
"pit-trial","187","1189839","0.0-67.0","battery-v0.2","","""event"",""trial"",""time""
""fullscreenenter"",""1"",""1623""
","
","
","""event"",""trial"",""time""
""fullscreenenter"",""1"",""1623""
","
","","","-1","","","22","4587","3206","e","elianto","#f73b6a7A","-1","-1","1","0","[]","0","2","","","4587","63","2","4","lose","no-go","0"
"pit-trial","188","1193390","0.0-68.0","battery-v0.2","","""event"",""trial"",""time""
""fullscreenenter"",""1"",""1623""
","
","
","""event"",""trial"",""time""
""fullscreenenter"",""1"",""1623""
","
","","","684.6000000014901","","","22","4587","3206","d","elianto","#3366ff99"," "," ","1","+10","[1537.1000000014901]","1","2","","","4587","64","1","1","win","go","0"
"pit-trial","189","1198261","0.0-69.0","battery-v0.2","","""event"",""trial"",""time""
""fullscreenenter"",""1"",""1623""
","
","
","""event"",""trial"",""time""
""fullscreenenter"",""1"",""1623""
","
","","","-1","","","22","4587","3206","s","elianto","#3366ff99","-1","-1","1","0","[]","0","2","","","4587","65","4","2","win","no-go","1"
"pit-trial","190","1203129","0.0-70.0","battery-v0.2","","""event"",""trial"",""time""
""fullscreenenter"",""1"",""1623""
","
","
","""event"",""trial"",""time""
""fullscreenenter"",""1"",""1623""
","
","","","-1","","","22","4587","3206","e","elianto","#f73b6a7A","-1","-1","1","0","[]","0","2","","","4587","66","2","4","lose","no-go","0"
"pit-trial","191","1206765","0.0-71.0","battery-v0.2","","""event"",""trial"",""time""
""fullscreenenter"",""1"",""1623""
","
","
","""event"",""trial"",""time""
""fullscreenenter"",""1"",""1623""
","
","","","774","","","22","4587","3206","w","elianto","#f73b6a7A"," "," ","1","-10","[1624.1000000014901]","1","2","","","4587","67","3","3","lose","go","1"
"pit-trial","192","1210353","0.0-72.0","battery-v0.2","","""event"",""trial"",""time""
""fullscreenenter"",""1"",""1623""
","
","
","""event"",""trial"",""time""
""fullscreenenter"",""1"",""1623""
","
","","","723.2999999970198","","","22","4587","3206","d","elianto","#3366ff99"," "," ","1","+10","[1573.699999999255]","1","2","","","4587","68","1","1","win","go","0"
"pit-trial","193","1214102","0.0-73.0","battery-v0.2","","""event"",""trial"",""time""
""fullscreenenter"",""1"",""1623""
","
","
","""event"",""trial"",""time""
""fullscreenenter"",""1"",""1623""
","
","","","883","","","22","4587","3206","s","elianto","#3366ff99","-1"," ","0","0","[1735.5]","1","2","","","4587","69","4","2","win","no-go","0"
"pit-trial","194","1217640","0.0-74.0","battery-v0.2","","""event"",""trial"",""time""
""fullscreenenter"",""1"",""1623""
","
","
","""event"",""trial"",""time""
""fullscreenenter"",""1"",""1623""
","
","","","672.1000000014901","","","22","4587","3206","d","elianto","#3366ff99"," "," ","1","+10","[1522.4000000022352]","1","2","","","4587","70","1","1","win","go","0"
"pit-trial","195","1221207","0.0-75.0","battery-v0.2","","""event"",""trial"",""time""
""fullscreenenter"",""1"",""1623""
","
","
","""event"",""trial"",""time""
""fullscreenenter"",""1"",""1623""
","
","","","699.8000000007451","","","22","4587","3206","w","elianto","#f73b6a7A"," "," ","1","0","[1551.3999999985099]","1","2","","","4587","71","3","3","lose","go","0"
"pit-trial","196","1226067","0.0-76.0","battery-v0.2","","""event"",""trial"",""time""
""fullscreenenter"",""1"",""1623""
","
","
","""event"",""trial"",""time""
""fullscreenenter"",""1"",""1623""
","
","","","-1","","","22","4587","3206","p","elianto","#3366ff99"," ","-1","0","0","[]","0","2","","","4587","72","5","1","win","go","0"
"pit-trial","197","1230934","0.0-77.0","battery-v0.2","","""event"",""trial"",""time""
""fullscreenenter"",""1"",""1623""
","
","
","""event"",""trial"",""time""
""fullscreenenter"",""1"",""1623""
","
","","","-1","","","22","4587","3206","s","elianto","#3366ff99","-1","-1","1","+10","[]","0","2","","","4587","73","4","2","win","no-go","0"
"pit-trial","198","1235180","0.0-78.0","battery-v0.2","","""event"",""trial"",""time""
""fullscreenenter"",""1"",""1623""
","
","
","""event"",""trial"",""time""
""fullscreenenter"",""1"",""1623""
","
","","","1380.5","","","22","4587","3206","p","elianto","#3366ff99"," "," ","1","+10","[2232.199999999255]","1","2","","","4587","74","5","1","win","go","0"
"pit-trial","199","1239056","0.0-79.0","battery-v0.2","","""event"",""trial"",""time""
""fullscreenenter"",""1"",""1623""
","
","
","""event"",""trial"",""time""
""fullscreenenter"",""1"",""1623""
","
","","","1014.5999999977648","","","22","4587","3206","w","elianto","#f73b6a7A"," "," ","1","-10","[1864.800000000745]","1","2","","","4587","75","3","3","lose","go","1"
"pit-trial","200","1242646","0.0-80.0","battery-v0.2","","""event"",""trial"",""time""
""fullscreenenter"",""1"",""1623""
","
","
","""event"",""trial"",""time""
""fullscreenenter"",""1"",""1623""
","
","","","728.2999999970198","","","22","4587","3206","d","elianto","#3366ff99"," "," ","1","+10","[1580.9000000022352]","1","2","","","4587","76","1","1","win","go","0"
"pit-trial","201","1247508","0.0-81.0","battery-v0.2","","""event"",""trial"",""time""
""fullscreenenter"",""1"",""1623""
","
","
","""event"",""trial"",""time""
""fullscreenenter"",""1"",""1623""
","
","","","-1","","","22","4587","3206","s","elianto","#3366ff99","-1","-1","1","0","[]","0","2","","","4587","77","4","2","win","no-go","1"
"pit-trial","202","1251452","0.0-82.0","battery-v0.2","","""event"",""trial"",""time""
""fullscreenenter"",""1"",""1623""
","
","
","""event"",""trial"",""time""
""fullscreenenter"",""1"",""1623""
","
","","","1084","","","22","4587","3206","p","elianto","#3366ff99"," "," ","1","+10","[1935.5]","1","2","","","4587","78","5","1","win","go","0"
"pit-trial","203","1255782","0.0-83.0","battery-v0.2","","""event"",""trial"",""time""
""fullscreenenter"",""1"",""1623""
","
","
","""event"",""trial"",""time""
""fullscreenenter"",""1"",""1623""
","
","","","1470.6000000014901","","","22","4587","3206","g","elianto","#f73b6a7A","-1"," ","0","-10","[2320.89999999851]","1","2","","","4587","79","6","4","lose","no-go","0"
"pit-trial","204","1259542","0.0-84.0","battery-v0.2","","""event"",""trial"",""time""
""fullscreenenter"",""1"",""1623""
","
","
","""event"",""trial"",""time""
""fullscreenenter"",""1"",""1623""
","
","","","896.8999999985099","","","22","4587","3206","w","elianto","#f73b6a7A"," "," ","1","0","[1747.3999999985099]","1","2","","","4587","80","3","3","lose","go","0"
"pit-trial","205","1264407","0.0-85.0","battery-v0.2","","""event"",""trial"",""time""
""fullscreenenter"",""1"",""1623""
","
","
","""event"",""trial"",""time""
""fullscreenenter"",""1"",""1623""
","
","","","-1","","","22","4587","3206","a","elianto","#f73b6a7A"," ","-1","0","0","[]","0","2","","","4587","81","7","3","lose","go","1"
"pit-trial","206","1269271","0.0-86.0","battery-v0.2","","""event"",""trial"",""time""
""fullscreenenter"",""1"",""1623""
","
","
","""event"",""trial"",""time""
""fullscreenenter"",""1"",""1623""
","
","","","-1","","","22","4587","3206","s","elianto","#3366ff99","-1","-1","1","0","[]","0","2","","","4587","82","4","2","win","no-go","1"
"pit-trial","207","1274136","0.0-87.0","battery-v0.2","","""event"",""trial"",""time""
""fullscreenenter"",""1"",""1623""
","
","
","""event"",""trial"",""time""
""fullscreenenter"",""1"",""1623""
","
","","","-1","","","22","4587","3206","g","elianto","#f73b6a7A","-1","-1","1","0","[]","0","2","","","4587","83","6","4","lose","no-go","0"
"pit-trial","208","1278037","0.0-88.0","battery-v0.2","","""event"",""trial"",""time""
""fullscreenenter"",""1"",""1623""
","
","
","""event"",""trial"",""time""
""fullscreenenter"",""1"",""1623""
","
","","","1037","","","22","4587","3206","p","elianto","#3366ff99"," "," ","1","+10","[1888.0999999977648]","1","2","","","4587","84","5","1","win","go","0"
"pit-trial","209","1282008","0.0-89.0","battery-v0.2","","""event"",""trial"",""time""
""fullscreenenter"",""1"",""1623""
","
","
","""event"",""trial"",""time""
""fullscreenenter"",""1"",""1623""
","
","","","1110.1000000014901","","","22","4587","3206","s","elianto","#3366ff99","-1"," ","0","0","[1961.300000000745]","1","2","","","4587","85","4","2","win","no-go","0"
"pit-trial","210","1286875","0.0-90.0","battery-v0.2","","""event"",""trial"",""time""
""fullscreenenter"",""1"",""1623""
","
","
","""event"",""trial"",""time""
""fullscreenenter"",""1"",""1623""
","
","","","-1","","","22","4587","3206","a","elianto","#f73b6a7A"," ","-1","0","-10","[]","0","2","","","4587","86","7","3","lose","go","0"
"pit-trial","211","1290669","0.0-91.0","battery-v0.2","","""event"",""trial"",""time""
""fullscreenenter"",""1"",""1623""
","
","
","""event"",""trial"",""time""
""fullscreenenter"",""1"",""1623""
","
","","","929.6999999992549","","","22","4587","3206","p","elianto","#3366ff99"," "," ","1","+10","[1780]","1","2","","","4587","87","5","1","win","go","0"
"pit-trial","212","1295535","0.0-92.0","battery-v0.2","","""event"",""trial"",""time""
""fullscreenenter"",""1"",""1623""
","
","
","""event"",""trial"",""time""
""fullscreenenter"",""1"",""1623""
","
","","","-1","","","22","4587","3206","g","elianto","#f73b6a7A","-1","-1","1","0","[]","0","2","","","4587","88","6","4","lose","no-go","0"
"pit-trial","213","1299974","0.0-93.0","battery-v0.2","","""event"",""trial"",""time""
""fullscreenenter"",""1"",""1623""
","
","
","""event"",""trial"",""time""
""fullscreenenter"",""1"",""1623""
","
","","","1574.8999999985099","","","22","4587","3206","a","elianto","#f73b6a7A"," "," ","1","0","[2426.300000000745]","1","2","","","4587","89","7","3","lose","go","0"
"pit-trial","214","1303991","0.0-94.0","battery-v0.2","","""event"",""trial"",""time""
""fullscreenenter"",""1"",""1623""
","
","
","""event"",""trial"",""time""
""fullscreenenter"",""1"",""1623""
","
","","","1152.800000000745","","","22","4587","3206","p","elianto","#3366ff99"," "," ","1","+10","[2003.6000000014901]","1","2","","","4587","90","5","1","win","go","0"
"pit-trial","215","1308014","0.0-95.0","battery-v0.2","","""event"",""trial"",""time""
""fullscreenenter"",""1"",""1623""
","
","
","""event"",""trial"",""time""
""fullscreenenter"",""1"",""1623""
","
","","","1162","","","22","4587","3206","s","elianto","#3366ff99","-1"," ","0","0","[2013.2999999970198]","1","2","","","4587","91","4","2","win","no-go","0"
"pit-trial","216","1312879","0.0-96.0","battery-v0.2","","""event"",""trial"",""time""
""fullscreenenter"",""1"",""1623""
","
","
","""event"",""trial"",""time""
""fullscreenenter"",""1"",""1623""
","
","","","-1","","","22","4587","3206","g","elianto","#f73b6a7A","-1","-1","1","0","[]","0","2","","","4587","92","6","4","lose","no-go","0"
"pit-trial","217","1316576","0.0-97.0","battery-v0.2","","""event"",""trial"",""time""
""fullscreenenter"",""1"",""1623""
","
","
","""event"",""trial"",""time""
""fullscreenenter"",""1"",""1623""
","
","","","834.5","","","22","4587","3206","a","elianto","#f73b6a7A"," "," ","1","0","[1684.800000000745]","1","2","","","4587","93","7","3","lose","go","0"
"pit-trial","218","1320273","0.0-98.0","battery-v0.2","","""event"",""trial"",""time""
""fullscreenenter"",""1"",""1623""
","
","
","""event"",""trial"",""time""
""fullscreenenter"",""1"",""1623""
","
","","","833.6999999992549","","","22","4587","3206","p","elianto","#3366ff99"," "," ","1","0","[1684.300000000745]","1","2","","","4587","94","5","1","win","go","1"
"pit-trial","219","1325138","0.0-99.0","battery-v0.2","","""event"",""trial"",""time""
""fullscreenenter"",""1"",""1623""
","
","
","""event"",""trial"",""time""
""fullscreenenter"",""1"",""1623""
","
","","","-1","","","22","4587","3206","l","elianto","#3366ff99","-1","-1","1","+10","[]","0","2","","","4587","95","8","2","win","no-go","0"
"pit-trial","220","1330000","0.0-100.0","battery-v0.2","","""event"",""trial"",""time""
""fullscreenenter"",""1"",""1623""
","
","
","""event"",""trial"",""time""
""fullscreenenter"",""1"",""1623""
","
","","","-1","","","22","4587","3206","g","elianto","#f73b6a7A","-1","-1","1","0","[]","0","2","","","4587","96","6","4","lose","no-go","0"
"pit-trial","221","1333845","0.0-101.0","battery-v0.2","","""event"",""trial"",""time""
""fullscreenenter"",""1"",""1623""
","
","
","""event"",""trial"",""time""
""fullscreenenter"",""1"",""1623""
","
","","","980.1999999992549","","","22","4587","3206","a","elianto","#f73b6a7A"," "," ","1","0","[1832.199999999255]","1","2","","","4587","97","7","3","lose","go","0"
"pit-trial","222","1337642","0.0-102.0","battery-v0.2","","""event"",""trial"",""time""
""fullscreenenter"",""1"",""1623""
","
","
","""event"",""trial"",""time""
""fullscreenenter"",""1"",""1623""
","
","","","936.5999999977648","","","22","4587","3206","p","elianto","#3366ff99"," "," ","1","0","[1787]","1","2","","","4587","98","5","1","win","go","1"
"pit-trial","223","1342506","0.0-103.0","battery-v0.2","","""event"",""trial"",""time""
""fullscreenenter"",""1"",""1623""
","
","
","""event"",""trial"",""time""
""fullscreenenter"",""1"",""1623""
","
","","","-1","","","22","4587","3206","g","elianto","#f73b6a7A","-1","-1","1","0","[]","0","2","","","4587","99","6","4","lose","no-go","0"
"pit-trial","224","1347371","0.0-104.0","battery-v0.2","","""event"",""trial"",""time""
""fullscreenenter"",""1"",""1623""
","
","
","""event"",""trial"",""time""
""fullscreenenter"",""1"",""1623""
","
","","","-1","","","22","4587","3206","l","elianto","#3366ff99","-1","-1","1","0","[]","0","2","","","4587","100","8","2","win","no-go","1"
"pit-trial","225","1351295","0.0-105.0","battery-v0.2","","""event"",""trial"",""time""
""fullscreenenter"",""1"",""1623""
","
","
","""event"",""trial"",""time""
""fullscreenenter"",""1"",""1623""
","
","","","1057.5","","","22","4587","3206","u","elianto","#3366ff99","-1"," ","0","+10","[1909.699999999255]","1","2","","","4587","101","9","2","win","no-go","1"
"pit-trial","226","1356160","0.0-106.0","battery-v0.2","","""event"",""trial"",""time""
""fullscreenenter"",""1"",""1623""
","
","
","""event"",""trial"",""time""
""fullscreenenter"",""1"",""1623""
","
","","","-1","","","22","4587","3206","g","elianto","#f73b6a7A","-1","-1","1","0","[]","0","2","","","4587","102","6","4","lose","no-go","0"
"pit-trial","227","1359788","0.0-107.0","battery-v0.2","","""event"",""trial"",""time""
""fullscreenenter"",""1"",""1623""
","
","
","""event"",""trial"",""time""
""fullscreenenter"",""1"",""1623""
","
","","","763.4000000022352","","","22","4587","3206","p","elianto","#3366ff99"," "," ","1","0","[1614]","1","2","","","4587","103","5","1","win","go","1"
"pit-trial","228","1363492","0.0-108.0","battery-v0.2","","""event"",""trial"",""time""
""fullscreenenter"",""1"",""1623""
","
","
","""event"",""trial"",""time""
""fullscreenenter"",""1"",""1623""
","
","","","837.8000000007451","","","22","4587","3206","l","elianto","#3366ff99","-1"," ","0","0","[1690.6000000014901]","1","2","","","4587","104","8","2","win","no-go","0"
"pit-trial","229","1367137","0.0-109.0","battery-v0.2","","""event"",""trial"",""time""
""fullscreenenter"",""1"",""1623""
","
","
","""event"",""trial"",""time""
""fullscreenenter"",""1"",""1623""
","
","","","782.1999999992549","","","22","4587","3206","u","elianto","#3366ff99","-1"," ","0","+10","[1633.4000000022352]","1","2","","","4587","105","9","2","win","no-go","1"
"pit-trial","230","1372002","0.0-110.0","battery-v0.2","","""event"",""trial"",""time""
""fullscreenenter"",""1"",""1623""
","
","
","""event"",""trial"",""time""
""fullscreenenter"",""1"",""1623""
","
","","","-1","","","22","4587","3206","l","elianto","#3366ff99","-1","-1","1","0","[]","0","2","","","4587","106","8","2","win","no-go","1"
"pit-trial","231","1376234","0.0-111.0","battery-v0.2","","""event"",""trial"",""time""
""fullscreenenter"",""1"",""1623""
","
","
","""event"",""trial"",""time""
""fullscreenenter"",""1"",""1623""
","
","","","1369","","","22","4587","3206","p","elianto","#3366ff99"," "," ","1","0","[2220]","1","2","","","4587","107","5","1","win","go","1"
"pit-trial","232","1381098","0.0-112.0","battery-v0.2","","""event"",""trial"",""time""
""fullscreenenter"",""1"",""1623""
","
","
","""event"",""trial"",""time""
""fullscreenenter"",""1"",""1623""
","
","","","-1","","","22","4587","3206","g","elianto","#f73b6a7A","-1","-1","1","0","[]","0","2","","","4587","108","6","4","lose","no-go","0"
"pit-trial","233","1384720","0.0-113.0","battery-v0.2","","""event"",""trial"",""time""
""fullscreenenter"",""1"",""1623""
","
","
","""event"",""trial"",""time""
""fullscreenenter"",""1"",""1623""
","
","","","756.3000000007451","","","22","4587","3206","p","elianto","#3366ff99"," "," ","1","+10","[1607]","1","2","","","4587","109","5","1","win","go","0"
"pit-trial","234","1389057","0.0-114.0","battery-v0.2","","""event"",""trial"",""time""
""fullscreenenter"",""1"",""1623""
","
","
","""event"",""trial"",""time""
""fullscreenenter"",""1"",""1623""
","
","","","1474.1000000014901","","","22","4587","3206","l","elianto","#3366ff99","-1"," ","0","+10","[2325.699999999255]","1","2","","","4587","110","8","2","win","no-go","1"
"pit-trial","235","1393921","0.0-115.0","battery-v0.2","","""event"",""trial"",""time""
""fullscreenenter"",""1"",""1623""
","
","
","""event"",""trial"",""time""
""fullscreenenter"",""1"",""1623""
","
","","","-1","","","22","4587","3206","g","elianto","#f73b6a7A","-1","-1","1","0","[]","0","2","","","4587","111","6","4","lose","no-go","0"
"pit-trial","236","1397793","0.0-116.0","battery-v0.2","","""event"",""trial"",""time""
""fullscreenenter"",""1"",""1623""
","
","
","""event"",""trial"",""time""
""fullscreenenter"",""1"",""1623""
","
","","","1008.5","","","22","4587","3206","u","elianto","#3366ff99","-1"," ","0","+10","[1861.199999999255]","1","2","","","4587","112","9","2","win","no-go","1"
"pit-trial","237","1401491","0.0-117.0","battery-v0.2","","""event"",""trial"",""time""
""fullscreenenter"",""1"",""1623""
","
","
","""event"",""trial"",""time""
""fullscreenenter"",""1"",""1623""
","
","","","835","","","22","4587","3206","u","elianto","#3366ff99","-1"," ","0","0","[1685.2000000029802]","1","2","","","4587","113","9","2","win","no-go","0"
"pit-trial","238","1405333","0.0-118.0","battery-v0.2","","""event"",""trial"",""time""
""fullscreenenter"",""1"",""1623""
","
","
","""event"",""trial"",""time""
""fullscreenenter"",""1"",""1623""
","
","","","977.5999999977648","","","22","4587","3206","a","elianto","#f73b6a7A"," "," ","1","-10","[1828.5]","1","2","","","4587","114","7","3","lose","go","1"
"pit-trial","239","1409183","0.0-119.0","battery-v0.2","","""event"",""trial"",""time""
""fullscreenenter"",""1"",""1623""
","
","
","""event"",""trial"",""time""
""fullscreenenter"",""1"",""1623""
","
","","","987.1000000014901","","","22","4587","3206","l","elianto","#3366ff99","-1"," ","0","0","[1837.8999999985099]","1","2","","","4587","115","8","2","win","no-go","0"
"pit-trial","240","1413042","0.0-120.0","battery-v0.2","","""event"",""trial"",""time""
""fullscreenenter"",""1"",""1623""
","
","
","""event"",""trial"",""time""
""fullscreenenter"",""1"",""1623""
","
","","","995.6999999992549","","","22","4587","3206","p","elianto","#3366ff99"," "," ","1","+10","[1846.5]","1","2","","","4587","116","5","1","win","go","0"
"pit-trial","241","1416786","0.0-121.0","battery-v0.2","","""event"",""trial"",""time""
""fullscreenenter"",""1"",""1623""
","
","
","""event"",""trial"",""time""
""fullscreenenter"",""1"",""1623""
","
","","","882.8000000007451","","","22","4587","3206","u","elianto","#3366ff99","-1"," ","0","0","[1733.2000000029802]","1","2","","","4587","117","9","2","win","no-go","0"
"pit-trial","242","1420353","0.0-122.0","battery-v0.2","","""event"",""trial"",""time""
""fullscreenenter"",""1"",""1623""
","
","
","""event"",""trial"",""time""
""fullscreenenter"",""1"",""1623""
","
","","","703.6999999992549","","","22","4587","3206","p","elianto","#3366ff99"," "," ","1","+10","[1554.8999999985099]","1","2","","","4587","118","5","1","win","go","0"
"pit-trial","243","1425215","0.0-123.0","battery-v0.2","","""event"",""trial"",""time""
""fullscreenenter"",""1"",""1623""
","
","
","""event"",""trial"",""time""
""fullscreenenter"",""1"",""1623""
","
","","","-1","","","22","4587","3206","g","elianto","#f73b6a7A","-1","-1","1","0","[]","0","2","","","4587","119","6","4","lose","no-go","0"
"pit-trial","244","1428930","0.0-124.0","battery-v0.2","","""event"",""trial"",""time""
""fullscreenenter"",""1"",""1623""
","
","
","""event"",""trial"",""time""
""fullscreenenter"",""1"",""1623""
","
","","","852.3999999985099","","","22","4587","3206","l","elianto","#3366ff99","-1"," ","0","0","[1703]","1","2","","","4587","120","8","2","win","no-go","0"
"pit-trial","245","1432634","0.0-125.0","battery-v0.2","","""event"",""trial"",""time""
""fullscreenenter"",""1"",""1623""
","
","
","""event"",""trial"",""time""
""fullscreenenter"",""1"",""1623""
","
","","","844.5999999977648","","","22","4587","3206","p","elianto","#3366ff99"," "," ","1","+10","[1694.7000000029802]","1","2","","","4587","121","5","1","win","go","0"
"pit-trial","246","1436614","0.0-126.0","battery-v0.2","","""event"",""trial"",""time""
""fullscreenenter"",""1"",""1623""
","
","
","""event"",""trial"",""time""
""fullscreenenter"",""1"",""1623""
","
","","","1117.300000000745","","","22","4587","3206","a","elianto","#f73b6a7A"," "," ","1","0","[1967.6000000014901]","1","2","","","4587","122","7","3","lose","go","0"
"pit-trial","247","1440198","0.0-127.0","battery-v0.2","","""event"",""trial"",""time""
""fullscreenenter"",""1"",""1623""
","
","
","""event"",""trial"",""time""
""fullscreenenter"",""1"",""1623""
","
","","","723.6999999992549","","","22","4587","3206","u","elianto","#3366ff99","-1"," ","0","0","[1574.3999999985099]","1","2","","","4587","123","9","2","win","no-go","0"
"pit-trial","248","1443959","0.0-128.0","battery-v0.2","","""event"",""trial"",""time""
""fullscreenenter"",""1"",""1623""
","
","
","""event"",""trial"",""time""
""fullscreenenter"",""1"",""1623""
","
","","","897.8999999985099","","","22","4587","3206","l","elianto","#3366ff99","-1"," ","0","+10","[1749.1000000014901]","1","2","","","4587","124","8","2","win","no-go","1"
"pit-trial","249","1447829","0.0-129.0","battery-v0.2","","""event"",""trial"",""time""
""fullscreenenter"",""1"",""1623""
","
","
","""event"",""trial"",""time""
""fullscreenenter"",""1"",""1623""
","
","","","1005.8000000007451","","","22","4587","3206","l","elianto","#3366ff99","-1"," ","0","+10","[1856.1000000014901]","1","2","","","4587","125","8","2","win","no-go","1"
"pit-trial","250","1451488","0.0-130.0","battery-v0.2","","""event"",""trial"",""time""
""fullscreenenter"",""1"",""1623""
","
","
","""event"",""trial"",""time""
""fullscreenenter"",""1"",""1623""
","
","","","793.6000000014901","","","22","4587","3206","a","elianto","#f73b6a7A"," "," ","1","0","[1644.5]","1","2","","","4587","126","7","3","lose","go","0"
"pit-trial","251","1455951","0.0-131.0","battery-v0.2","","""event"",""trial"",""time""
""fullscreenenter"",""1"",""1623""
","
","
","""event"",""trial"",""time""
""fullscreenenter"",""1"",""1623""
","
","","","1598.800000000745","","","22","4587","3206","u","elianto","#3366ff99","-1"," ","0","+10","[2451.199999999255]","1","2","","","4587","127","9","2","win","no-go","1"
"pit-trial","252","1460813","0.0-132.0","battery-v0.2","","""event"",""trial"",""time""
""fullscreenenter"",""1"",""1623""
","
","
","""event"",""trial"",""time""
""fullscreenenter"",""1"",""1623""
","
","","","-1","","","22","4587","3206","g","elianto","#f73b6a7A","-1","-1","1","0","[]","0","2","","","4587","128","6","4","lose","no-go","0"
"pit-trial","253","1464502","0.0-133.0","battery-v0.2","","""event"",""trial"",""time""
""fullscreenenter"",""1"",""1623""
","
","
","""event"",""trial"",""time""
""fullscreenenter"",""1"",""1623""
","
","","","826.3999999985099","","","22","4587","3206","l","elianto","#3366ff99","-1"," ","0","+10","[1676.699999999255]","1","2","","","4587","129","8","2","win","no-go","1"
"pit-trial","254","1468251","0.0-134.0","battery-v0.2","","""event"",""trial"",""time""
""fullscreenenter"",""1"",""1623""
","
","
","""event"",""trial"",""time""
""fullscreenenter"",""1"",""1623""
","
","","","889","","","22","4587","3206","a","elianto","#f73b6a7A"," "," ","1","0","[1739.9000000022352]","1","2","","","4587","130","7","3","lose","go","0"
"pit-trial","255","1473112","0.0-135.0","battery-v0.2","","""event"",""trial"",""time""
""fullscreenenter"",""1"",""1623""
","
","
","""event"",""trial"",""time""
""fullscreenenter"",""1"",""1623""
","
","","","-1","","","22","4587","3206","g","elianto","#f73b6a7A","-1","-1","1","0","[]","0","2","","","4587","131","6","4","lose","no-go","0"
"pit-trial","256","1476601","0.0-136.0","battery-v0.2","","""event"",""trial"",""time""
""fullscreenenter"",""1"",""1623""
","
","
","""event"",""trial"",""time""
""fullscreenenter"",""1"",""1623""
","
","","","626.6000000014901","","","22","4587","3206","u","elianto","#3366ff99","-1"," ","0","0","[1478.5]","1","2","","","4587","132","9","2","win","no-go","0"
"pit-trial","257","1480275","0.0-137.0","battery-v0.2","","""event"",""trial"",""time""
""fullscreenenter"",""1"",""1623""
","
","
","""event"",""trial"",""time""
""fullscreenenter"",""1"",""1623""
","
","","","808.3999999985099","","","22","4587","3206","a","elianto","#f73b6a7A"," "," ","1","0","[1659.8999999985099]","1","2","","","4587","133","7","3","lose","go","0"
"pit-trial","258","1484269","0.0-138.0","battery-v0.2","","""event"",""trial"",""time""
""fullscreenenter"",""1"",""1623""
","
","
","""event"",""trial"",""time""
""fullscreenenter"",""1"",""1623""
","
","","","1132","","","22","4587","3206","u","elianto","#3366ff99","-1"," ","0","0","[1982]","1","2","","","4587","134","9","2","win","no-go","0"
"pit-trial","259","1489134","0.0-139.0","battery-v0.2","","""event"",""trial"",""time""
""fullscreenenter"",""1"",""1623""
","
","
","""event"",""trial"",""time""
""fullscreenenter"",""1"",""1623""
","
","","","-1","","","22","4587","3206","g","elianto","#f73b6a7A","-1","-1","1","0","[]","0","2","","","4587","135","6","4","lose","no-go","0"
"pit-trial","260","1492695","0.0-140.0","battery-v0.2","","""event"",""trial"",""time""
""fullscreenenter"",""1"",""1623""
","
","
","""event"",""trial"",""time""
""fullscreenenter"",""1"",""1623""
","
","","","695.6999999992549","","","22","4587","3206","l","elianto","#3366ff99","-1"," ","0","0","[1546.699999999255]","1","2","","","4587","136","8","2","win","no-go","0"
"pit-trial","261","1496222","0.0-141.0","battery-v0.2","","""event"",""trial"",""time""
""fullscreenenter"",""1"",""1623""
","
","
","""event"",""trial"",""time""
""fullscreenenter"",""1"",""1623""
","
","","","662.4000000022352","","","22","4587","3206","u","elianto","#3366ff99","-1"," ","0","+10","[1512.6000000014901]","1","2","","","4587","137","9","2","win","no-go","1"
"pit-trial","262","1499873","0.0-142.0","battery-v0.2","","""event"",""trial"",""time""
""fullscreenenter"",""1"",""1623""
","
","
","""event"",""trial"",""time""
""fullscreenenter"",""1"",""1623""
","
","","","785.5","","","22","4587","3206","a","elianto","#f73b6a7A"," "," ","1","0","[1637.300000000745]","1","2","","","4587","138","7","3","lose","go","0"
"pit-trial","263","1504738","0.0-143.0","battery-v0.2","","""event"",""trial"",""time""
""fullscreenenter"",""1"",""1623""
","
","
","""event"",""trial"",""time""
""fullscreenenter"",""1"",""1623""
","
","","","-1","","","22","4587","3206","g","elianto","#f73b6a7A","-1","-1","1","0","[]","0","2","","","4587","139","6","4","lose","no-go","0"
"pit-trial","264","1509607","0.0-144.0","battery-v0.2","","""event"",""trial"",""time""
""fullscreenenter"",""1"",""1623""
","
","
","""event"",""trial"",""time""
""fullscreenenter"",""1"",""1623""
","
","","","-1","","","22","4587","3206","l","elianto","#3366ff99","-1","-1","1","+10","[]","0","2","","","4587","140","8","2","win","no-go","0"
"pit-instructions","265","1678238","0.0-145.0","battery-v0.2","","""event"",""trial"",""time""
""fullscreenenter"",""1"",""1623""
","
","
","""event"",""trial"",""time""
""fullscreenenter"",""1"",""1623""
","
","","[{""page_index"":0,""viewing_time"":160334},{""page_index"":1,""viewing_time"":8289.89999999851}]","168624.69999999925","","","","","","","","","","","","","","","","","","","","","","","",""
"pit-trial","266","1683106","0.0-146.0","battery-v0.2","","""event"",""trial"",""time""
""fullscreenenter"",""1"",""1623""
","
","
","""event"",""trial"",""time""
