"trial_type","trial_index","time_elapsed","internal_node_id","task_version","subject_id","interactions","blur_events","focus_events","fullscreenenter_events","fullscreenexit_events","success","view_history","rt","responses","num_errors","age","subject","participantId","rune","rune_set","hex","correct","choice","accuracy","outcome","keys","total_keys","block","practice","value","sub","trial","stimulus","robot","valence","action","sham"
"pavlovia","0","8","0.0-0.0","battery-v0.2","","""event"",""trial"",""time""
""fullscreenenter"",""1"",""2547""
","
","
","""event"",""trial"",""time""
""fullscreenenter"",""1"",""2547""
","
","","","","","","","","","","","","","","","","","","","","","","","","","","",""
"fullscreen","1","3536","0.0-1.0","battery-v0.2","","""event"",""trial"",""time""
""fullscreenenter"",""1"",""2547""
","
","
","""event"",""trial"",""time""
""fullscreenenter"",""1"",""2547""
","
","true","","","","","","","","","","","","","","","","","","","","","","","","","",""
"pit-instructions","2","21927","0.0-2.0-0.0","battery-v0.2","","""event"",""trial"",""time""
""fullscreenenter"",""1"",""2547""
","
","
","""event"",""trial"",""time""
""fullscreenenter"",""1"",""2547""
","
","","[{""page_index"":0,""viewing_time"":18388.79999999702}]","18389.10000000894","","","","","","","","","","","","","","","","","","","","","","","",""
"pit-comprehension","3","27664","0.0-2.0-1.0-0.0","battery-v0.2","","""event"",""trial"",""time""
""fullscreenenter"",""1"",""2547""
","
","
","""event"",""trial"",""time""
""fullscreenenter"",""1"",""2547""
","
","","","5734.70000000298","[""shark""]","0","12","15775","6250","","","","","","","","","","","","","","","","","","",""
"pit-instructions","4","31903","0.0-2.0-1.0-1.0","battery-v0.2","","""event"",""trial"",""time""
""fullscreenenter"",""1"",""2547""
","
","
","""event"",""trial"",""time""
""fullscreenenter"",""1"",""2547""
","
","","[{""page_index"":0,""viewing_time"":4229.9000000059605}]","4230","","","","","","","","","","","","","","","","","","","","","","","",""
"pit-comprehension","5","35455","0.0-2.0-2.0-0.0","battery-v0.2","","""event"",""trial"",""time""
""fullscreenenter"",""1"",""2547""
","
","
","""event"",""trial"",""time""
""fullscreenenter"",""1"",""2547""
","
","","","3550","[""tiger""]","0","12","15775","6250","","","","","","","","","","","","","","","","","","",""
"pit-instructions","6","39095","0.0-2.0-2.0-1.0","battery-v0.2","","""event"",""trial"",""time""
""fullscreenenter"",""1"",""2547""
","
","
","""event"",""trial"",""time""
""fullscreenenter"",""1"",""2547""
","
","","[{""page_index"":0,""viewing_time"":3637.9000000059605}]","3638.1000000089407","","","","","","","","","","","","","","","","","","","","","","","",""
"pit-instructions","7","149191","0.0-2.0-3.0","battery-v0.2","","""event"",""trial"",""time""
""fullscreenenter"",""1"",""2547""
","
","
","""event"",""trial"",""time""
""fullscreenenter"",""1"",""2547""
","
","","[{""page_index"":0,""viewing_time"":8390.20000000298},{""page_index"":1,""viewing_time"":5600},{""page_index"":2,""viewing_time"":6743.899999991059},{""page_index"":3,""viewing_time"":8575.90000000596},{""page_index"":4,""viewing_time"":5960.20000000298},{""page_index"":5,""viewing_time"":5599.899999991059},{""page_index"":6,""viewing_time"":7416.600000008941},{""page_index"":7,""viewing_time"":8815.5},{""page_index"":8,""viewing_time"":12151.89999999106},{""page_index"":9,""viewing_time"":7728.100000008941},{""page_index"":10,""viewing_time"":8328},{""page_index"":11,""viewing_time"":9447.89999999106},{""page_index"":12,""viewing_time"":7159.79999999702},{""page_index"":13,""viewing_time"":8176.70000000298}]","110094.89999999106","","","","","","","","","","","","","","","","","","","","","","","",""
"pit-trial","8","152744","0.0-2.0-4.0-0.0","battery-v0.2","","""event"",""trial"",""time""
""fullscreenenter"",""1"",""2547""
","
","
","""event"",""trial"",""time""
""fullscreenenter"",""1"",""2547""
","
","","","685.3999999910593","","","12","15775","6250","&#9784;","elianto","#FFFFF080"," "," ","1","&#10004","[1543.4000000059605]","1","0","0","","","","","","","",""
"pit-trial","9","156195","0.0-2.0-4.1-0.1","battery-v0.2","","""event"",""trial"",""time""
""fullscreenenter"",""1"",""2547""
","
","
","""event"",""trial"",""time""
""fullscreenenter"",""1"",""2547""
","
","","","583.6000000089407","","","12","15775","6250","&#9784;","elianto","#FFFFF080"," "," ","1","&#10004","[1435.2999999970198]","1","0","0","","","","","","","",""
"pit-trial","10","159499","0.0-2.0-4.2-0.2","battery-v0.2","","""event"",""trial"",""time""
""fullscreenenter"",""1"",""2547""
","
","
","""event"",""trial"",""time""
""fullscreenenter"",""1"",""2547""
","
","","","437.09999999403954","","","12","15775","6250","&#9784;","elianto","#FFFFF080"," "," ","1","&#10004","[1298.6000000089407]","1","0","0","","","","","","","",""
"pit-trial","11","162960","0.0-2.0-4.3-0.3","battery-v0.2","","""event"",""trial"",""time""
""fullscreenenter"",""1"",""2547""
","
","
","""event"",""trial"",""time""
""fullscreenenter"",""1"",""2547""
","
","","","590.5","","","12","15775","6250","&#9784;","elianto","#FFFFF080"," "," ","1","&#10004","[1451]","1","0","0","","","","","","","",""
"pit-trial","12","166456","0.0-2.0-4.4-0.4","battery-v0.2","","""event"",""trial"",""time""
""fullscreenenter"",""1"",""2547""
","
","
","""event"",""trial"",""time""
""fullscreenenter"",""1"",""2547""
","
","","","632.2999999970198","","","12","15775","6250","&#9784;","elianto","#FFFFF080"," "," ","1","&#10004","[1486.5]","1","0","0","","","","","","","",""
"pit-instructions","13","187998","0.0-2.0-5.0","battery-v0.2","","""event"",""trial"",""time""
""fullscreenenter"",""1"",""2547""
","
","
","""event"",""trial"",""time""
""fullscreenenter"",""1"",""2547""
","
","","[{""page_index"":0,""viewing_time"":5401.600000008941},{""page_index"":1,""viewing_time"":5624.5},{""page_index"":2,""viewing_time"":4847.29999999702},{""page_index"":3,""viewing_time"":5663.899999991059}]","21537.5","","","","","","","","","","","","","","","","","","","","","","","",""
"pit-trial","14","192857","0.0-2.0-6.0-0.0","battery-v0.2","","""event"",""trial"",""time""
""fullscreenenter"",""1"",""2547""
","
","
","""event"",""trial"",""time""
""fullscreenenter"",""1"",""2547""
","
","","","-1","","","12","15775","6250","&#9854;","elianto","#FFFFF080","-1","-1","1","&#10004","[]","0","0","1","","","","","","","",""
"pit-trial","15","197729","0.0-2.0-6.1-0.1","battery-v0.2","","""event"",""trial"",""time""
""fullscreenenter"",""1"",""2547""
","
","
","""event"",""trial"",""time""
""fullscreenenter"",""1"",""2547""
","
","","","-1","","","12","15775","6250","&#9854;","elianto","#FFFFF080","-1","-1","1","&#10004","[]","0","0","1","","","","","","","",""
"pit-trial","16","202598","0.0-2.0-6.2-0.2","battery-v0.2","","""event"",""trial"",""time""
""fullscreenenter"",""1"",""2547""
","
","
","""event"",""trial"",""time""
""fullscreenenter"",""1"",""2547""
","
","","","-1","","","12","15775","6250","&#9854;","elianto","#FFFFF080","-1","-1","1","&#10004","[]","0","0","1","","","","","","","",""
"pit-trial","17","207469","0.0-2.0-6.3-0.3","battery-v0.2","","""event"",""trial"",""time""
""fullscreenenter"",""1"",""2547""
","
","
","""event"",""trial"",""time""
""fullscreenenter"",""1"",""2547""
","
","","","-1","","","12","15775","6250","&#9854;","elianto","#FFFFF080","-1","-1","1","&#10004","[]","0","0","1","","","","","","","",""
"pit-trial","18","212337","0.0-2.0-6.4-0.4","battery-v0.2","","""event"",""trial"",""time""
""fullscreenenter"",""1"",""2547""
","
","
","""event"",""trial"",""time""
""fullscreenenter"",""1"",""2547""
","
","","","-1","","","12","15775","6250","&#9854;","elianto","#FFFFF080","-1","-1","1","&#10004","[]","0","0","1","","","","","","","",""
"pit-instructions","19","365487","0.0-2.0-7.0","battery-v0.2","","""event"",""trial"",""time""
""fullscreenenter"",""1"",""2547""
","
","
","""event"",""trial"",""time""
""fullscreenenter"",""1"",""2547""
","
","","[{""page_index"":0,""viewing_time"":12730.300000011921},{""page_index"":1,""viewing_time"":8831.79999999702},{""page_index"":2,""viewing_time"":5792.399999991059},{""page_index"":3,""viewing_time"":5879.20000000298},{""page_index"":4,""viewing_time"":7616.5},{""page_index"":5,""viewing_time"":6192.4000000059605},{""page_index"":6,""viewing_time"":6551.70000000298},{""page_index"":7,""viewing_time"":8655.5},{""page_index"":8,""viewing_time"":6336.29999999702},{""page_index"":9,""viewing_time"":6096},{""page_index"":10,""viewing_time"":7255.899999991059},{""page_index"":11,""viewing_time"":6895.5},{""page_index"":12,""viewing_time"":8808.60000000894},{""page_index"":13,""viewing_time"":10168.5},{""page_index"":14,""viewing_time"":11599.39999999106},{""page_index"":15,""viewing_time"":20016.20000000298},{""page_index"":16,""viewing_time"":6767.600000008941},{""page_index"":17,""viewing_time"":6952.199999988079}]","153146.40000000596","","","","","","","","","","","","","","","","","","","","","","","",""
"pit-trial","20","370356","0.0-2.0-8.0-0.0","battery-v0.2","","""event"",""trial"",""time""
""fullscreenenter"",""1"",""2547""
","
","
","""event"",""trial"",""time""
""fullscreenenter"",""1"",""2547""
","
","","","-1","","","12","15775","6250","&#9776;","elianto","#3366ff99"," ","-1","0","0","[]","0","0","1","","","","","","","",""
"pit-trial","21","373957","0.0-2.0-8.0-1.0","battery-v0.2","","""event"",""trial"",""time""
""fullscreenenter"",""1"",""2547""
","
","
","""event"",""trial"",""time""
""fullscreenenter"",""1"",""2547""
","
","","","735.6000000089407","","","12","15775","6250","&#9776;","elianto","#3366ff99"," "," ","1","+10","[1585.6000000089407]","1","0","1","","","","","","","",""
"pit-trial","22","377513","0.0-2.0-8.0-2.0","battery-v0.2","","""event"",""trial"",""time""
""fullscreenenter"",""1"",""2547""
","
","
","""event"",""trial"",""time""
""fullscreenenter"",""1"",""2547""
","
","","","692.9000000059605","","","12","15775","6250","&#9776;","elianto","#3366ff99"," "," ","1","+10","[1543.5999999940395]","1","0","1","","","","","","","",""
"pit-trial","23","380966","0.0-2.0-8.0-3.0","battery-v0.2","","""event"",""trial"",""time""
""fullscreenenter"",""1"",""2547""
","
","
","""event"",""trial"",""time""
""fullscreenenter"",""1"",""2547""
","
","","","585.6000000089407","","","12","15775","6250","&#9776;","elianto","#3366ff99"," "," ","1","0","[1436.2000000029802]","1","0","1","","","","","","","",""
"pit-trial","24","384435","0.0-2.0-8.0-4.0","battery-v0.2","","""event"",""trial"",""time""
""fullscreenenter"",""1"",""2547""
","
","
","""event"",""trial"",""time""
""fullscreenenter"",""1"",""2547""
","
","","","604.5999999940395","","","12","15775","6250","&#9776;","elianto","#3366ff99"," "," ","1","+10","[1455.2000000029802]","1","0","1","","","","","","","",""
"pit-trial","25","388217","0.0-2.0-8.1-0.1","battery-v0.2","","""event"",""trial"",""time""
""fullscreenenter"",""1"",""2547""
","
","
","""event"",""trial"",""time""
""fullscreenenter"",""1"",""2547""
","
","","","926.6000000089407","","","12","15775","6250","&#9776;","elianto","#3366ff99"," "," ","1","+10","[1776.9000000059605]","1","0","1","","","","","","","",""
"pit-trial","26","391751","0.0-2.0-8.1-1.1","battery-v0.2","","""event"",""trial"",""time""
""fullscreenenter"",""1"",""2547""
","
","
","""event"",""trial"",""time""
""fullscreenenter"",""1"",""2547""
","
","","","667.1000000089407","","","12","15775","6250","&#9776;","elianto","#3366ff99"," "," ","1","+10","[1524.5]","1","0","1","","","","","","","",""
"pit-trial","27","395235","0.0-2.0-8.1-2.1","battery-v0.2","","""event"",""trial"",""time""
""fullscreenenter"",""1"",""2547""
","
","
","""event"",""trial"",""time""
""fullscreenenter"",""1"",""2547""
","
","","","614.0999999940395","","","12","15775","6250","&#9776;","elianto","#3366ff99"," "," ","1","+10","[1469.9000000059605]","1","0","1","","","","","","","",""
"pit-trial","28","399512","0.0-2.0-8.1-3.1","battery-v0.2","","""event"",""trial"",""time""
""fullscreenenter"",""1"",""2547""
","
","
","""event"",""trial"",""time""
""fullscreenenter"",""1"",""2547""
","
","","","1423.2999999970198","","","12","15775","6250","&#9776;","elianto","#3366ff99"," "," ","1","0","[2273.5]","1","0","1","","","","","","","",""
"pit-trial","29","402719","0.0-2.0-8.1-4.1","battery-v0.2","","""event"",""trial"",""time""
""fullscreenenter"",""1"",""2547""
","
","
","""event"",""trial"",""time""
""fullscreenenter"",""1"",""2547""
","
","","","352.79999999701977","","","12","15775","6250","&#9776;","elianto","#3366ff99"," "," ","1","+10","[1204.5]","1","0","1","","","","","","","",""
"pit-trial","30","406095","0.0-2.0-8.2-0.2","battery-v0.2","","""event"",""trial"",""time""
""fullscreenenter"",""1"",""2547""
","
","
","""event"",""trial"",""time""
""fullscreenenter"",""1"",""2547""
","
","","","523.2000000029802","","","12","15775","6250","&#9776;","elianto","#3366ff99"," "," ","1","+10","[1373.2000000029802]","1","0","1","","","","","","","",""
"pit-trial","31","409888","0.0-2.0-8.2-1.2","battery-v0.2","","""event"",""trial"",""time""
""fullscreenenter"",""1"",""2547""
","
","
","""event"",""trial"",""time""
""fullscreenenter"",""1"",""2547""
","
","","","939.2999999970198","","","12","15775","6250","&#9776;","elianto","#3366ff99"," "," ","1","+10","[1789.6000000089407]","1","0","1","","","","","","","",""
"pit-trial","32","413304","0.0-2.0-8.2-2.2","battery-v0.2","","""event"",""trial"",""time""
""fullscreenenter"",""1"",""2547""
","
","
","""event"",""trial"",""time""
""fullscreenenter"",""1"",""2547""
","
","","","561.7000000029802","","","12","15775","6250","&#9776;","elianto","#3366ff99"," "," ","1","+10","[1412.6000000089407]","1","0","1","","","","","","","",""
"pit-trial","33","417703","0.0-2.0-8.2-3.2","battery-v0.2","","""event"",""trial"",""time""
""fullscreenenter"",""1"",""2547""
","
","
","""event"",""trial"",""time""
""fullscreenenter"",""1"",""2547""
","
","","","1546.2000000029802","","","12","15775","6250","&#9776;","elianto","#3366ff99"," "," ","1","0","[2396.2999999970198]","1","0","1","","","","","","","",""
"pit-trial","34","421232","0.0-2.0-8.2-4.2","battery-v0.2","","""event"",""trial"",""time""
""fullscreenenter"",""1"",""2547""
","
","
","""event"",""trial"",""time""
""fullscreenenter"",""1"",""2547""
","
","","","675.7999999970198","","","12","15775","6250","&#9776;","elianto","#3366ff99"," "," ","1","+10","[1526.2999999970198]","1","0","1","","","","","","","",""
"call-function","35","421234","0.0-2.0-9.0","battery-v0.2","","""event"",""trial"",""time""
""fullscreenenter"",""1"",""2547""
","
","
","""event"",""trial"",""time""
""fullscreenenter"",""1"",""2547""
","
","","","","","","","","","","","","","","","","","","","","","","","","","","",""
"pit-instructions","36","487182","0.0-2.0-10.0","battery-v0.2","","""event"",""trial"",""time""
""fullscreenenter"",""1"",""2547""
","
","
","""event"",""trial"",""time""
""fullscreenenter"",""1"",""2547""
","
","","[{""page_index"":0,""viewing_time"":6772},{""page_index"":1,""viewing_time"":9215.20000000298},{""page_index"":2,""viewing_time"":14895.89999999106},{""page_index"":3,""viewing_time"":16584},{""page_index"":4,""viewing_time"":18479.80000001192}]","65947.20000000298","","","","","","","","","","","","","","","","","","","","","","","",""
"pit-trial","37","492052","0.0-2.0-11.0-0.0","battery-v0.2","","""event"",""trial"",""time""
""fullscreenenter"",""1"",""2547""
","
","
","""event"",""trial"",""time""
""fullscreenenter"",""1"",""2547""
","
","","","-1","","","12","15775","6250","&#9761;","elianto","#3366ff99","-1","-1","1","+10","[]","0","0","2","","","","","","","",""
"pit-trial","38","495330","0.0-2.0-11.0-1.0","battery-v0.2","","""event"",""trial"",""time""
""fullscreenenter"",""1"",""2547""
","
","
","""event"",""trial"",""time""
""fullscreenenter"",""1"",""2547""
","
","","","407.20000000298023","","","12","15775","6250","&#9761;","elianto","#3366ff99","-1"," ","0","0","[1265.5]","1","0","2","","","","","","","",""
"pit-trial","39","498334","0.0-2.0-11.0-2.0","battery-v0.2","","""event"",""trial"",""time""
""fullscreenenter"",""1"",""2547""
","
","
","""event"",""trial"",""time""
""fullscreenenter"",""1"",""2547""
","
","","","137.1000000089407","","","12","15775","6250","&#9761;","elianto","#3366ff99","-1"," ","0","0","[988.5]","1","0","2","","","","","","","",""
"pit-trial","40","503215","0.0-2.0-11.0-3.0","battery-v0.2","","""event"",""trial"",""time""
""fullscreenenter"",""1"",""2547""
","
","
","""event"",""trial"",""time""
""fullscreenenter"",""1"",""2547""
","
","","","-1","","","12","15775","6250","&#9761;","elianto","#3366ff99","-1","-1","1","0","[]","0","0","2","","","","","","","",""
"pit-trial","41","508074","0.0-2.0-11.0-4.0","battery-v0.2","","""event"",""trial"",""time""
""fullscreenenter"",""1"",""2547""
","
","
","""event"",""trial"",""time""
""fullscreenenter"",""1"",""2547""
","
","","","-1","","","12","15775","6250","&#9761;","elianto","#3366ff99","-1","-1","1","+10","[]","0","0","2","","","","","","","",""
"pit-trial","42","512929","0.0-2.0-11.1-0.1","battery-v0.2","","""event"",""trial"",""time""
""fullscreenenter"",""1"",""2547""
","
","
","""event"",""trial"",""time""
""fullscreenenter"",""1"",""2547""
","
","","","-1","","","12","15775","6250","&#9761;","elianto","#3366ff99","-1","-1","1","+10","[]","0","0","2","","","","","","","",""
"pit-trial","43","517783","0.0-2.0-11.1-1.1","battery-v0.2","","""event"",""trial"",""time""
""fullscreenenter"",""1"",""2547""
","
","
","""event"",""trial"",""time""
""fullscreenenter"",""1"",""2547""
","
","","","-1","","","12","15775","6250","&#9761;","elianto","#3366ff99","-1","-1","1","+10","[]","0","0","2","","","","","","","",""
"pit-trial","44","522641","0.0-2.0-11.1-2.1","battery-v0.2","","""event"",""trial"",""time""
""fullscreenenter"",""1"",""2547""
","
","
","""event"",""trial"",""time""
""fullscreenenter"",""1"",""2547""
","
","","","-1","","","12","15775","6250","&#9761;","elianto","#3366ff99","-1","-1","1","+10","[]","0","0","2","","","","","","","",""
"pit-trial","45","527499","0.0-2.0-11.1-3.1","battery-v0.2","","""event"",""trial"",""time""
""fullscreenenter"",""1"",""2547""
","
","
","""event"",""trial"",""time""
""fullscreenenter"",""1"",""2547""
","
","","","-1","","","12","15775","6250","&#9761;","elianto","#3366ff99","-1","-1","1","0","[]","0","0","2","","","","","","","",""
"pit-trial","46","532351","0.0-2.0-11.1-4.1","battery-v0.2","","""event"",""trial"",""time""
""fullscreenenter"",""1"",""2547""
","
","
","""event"",""trial"",""time""
""fullscreenenter"",""1"",""2547""
","
","","","-1","","","12","15775","6250","&#9761;","elianto","#3366ff99","-1","-1","1","+10","[]","0","0","2","","","","","","","",""
"pit-trial","47","537220","0.0-2.0-11.2-0.2","battery-v0.2","","""event"",""trial"",""time""
""fullscreenenter"",""1"",""2547""
","
","
","""event"",""trial"",""time""
""fullscreenenter"",""1"",""2547""
","
","","","-1","","","12","15775","6250","&#9761;","elianto","#3366ff99","-1","-1","1","+10","[]","0","0","2","","","","","","","",""
"pit-trial","48","542073","0.0-2.0-11.2-1.2","battery-v0.2","","""event"",""trial"",""time""
""fullscreenenter"",""1"",""2547""
","
","
","""event"",""trial"",""time""
""fullscreenenter"",""1"",""2547""
","
","","","-1","","","12","15775","6250","&#9761;","elianto","#3366ff99","-1","-1","1","+10","[]","0","0","2","","","","","","","",""
"pit-trial","49","546926","0.0-2.0-11.2-2.2","battery-v0.2","","""event"",""trial"",""time""
""fullscreenenter"",""1"",""2547""
","
","
","""event"",""trial"",""time""
""fullscreenenter"",""1"",""2547""
","
","","","-1","","","12","15775","6250","&#9761;","elianto","#3366ff99","-1","-1","1","+10","[]","0","0","2","","","","","","","",""
"pit-trial","50","551779","0.0-2.0-11.2-3.2","battery-v0.2","","""event"",""trial"",""time""
""fullscreenenter"",""1"",""2547""
","
","
","""event"",""trial"",""time""
""fullscreenenter"",""1"",""2547""
","
","","","-1","","","12","15775","6250","&#9761;","elianto","#3366ff99","-1","-1","1","0","[]","0","0","2","","","","","","","",""
"pit-trial","51","556632","0.0-2.0-11.2-4.2","battery-v0.2","","""event"",""trial"",""time""
""fullscreenenter"",""1"",""2547""
","
","
","""event"",""trial"",""time""
""fullscreenenter"",""1"",""2547""
","
","","","-1","","","12","15775","6250","&#9761;","elianto","#3366ff99","-1","-1","1","+10","[]","0","0","2","","","","","","","",""
"pit-trial","52","561487","0.0-2.0-11.3-0.3","battery-v0.2","","""event"",""trial"",""time""
""fullscreenenter"",""1"",""2547""
","
","
","""event"",""trial"",""time""
""fullscreenenter"",""1"",""2547""
","
","","","-1","","","12","15775","6250","&#9761;","elianto","#3366ff99","-1","-1","1","+10","[]","0","0","2","","","","","","","",""
"pit-trial","53","566339","0.0-2.0-11.3-1.3","battery-v0.2","","""event"",""trial"",""time""
""fullscreenenter"",""1"",""2547""
","
","
","""event"",""trial"",""time""
""fullscreenenter"",""1"",""2547""
","
","","","-1","","","12","15775","6250","&#9761;","elianto","#3366ff99","-1","-1","1","+10","[]","0","0","2","","","","","","","",""
"pit-trial","54","571206","0.0-2.0-11.3-2.3","battery-v0.2","","""event"",""trial"",""time""
""fullscreenenter"",""1"",""2547""
","
","
","""event"",""trial"",""time""
""fullscreenenter"",""1"",""2547""
","
","","","-1","","","12","15775","6250","&#9761;","elianto","#3366ff99","-1","-1","1","+10","[]","0","0","2","","","","","","","",""
"pit-trial","55","576058","0.0-2.0-11.3-3.3","battery-v0.2","","""event"",""trial"",""time""
""fullscreenenter"",""1"",""2547""
","
","
","""event"",""trial"",""time""
""fullscreenenter"",""1"",""2547""
","
","","","-1","","","12","15775","6250","&#9761;","elianto","#3366ff99","-1","-1","1","0","[]","0","0","2","","","","","","","",""
"pit-trial","56","580912","0.0-2.0-11.3-4.3","battery-v0.2","","""event"",""trial"",""time""
""fullscreenenter"",""1"",""2547""
","
","
","""event"",""trial"",""time""
""fullscreenenter"",""1"",""2547""
","
","","","-1","","","12","15775","6250","&#9761;","elianto","#3366ff99","-1","-1","1","+10","[]","0","0","2","","","","","","","",""
"call-function","57","580914","0.0-2.0-12.0","battery-v0.2","","""event"",""trial"",""time""
""fullscreenenter"",""1"",""2547""
","
","
","""event"",""trial"",""time""
""fullscreenenter"",""1"",""2547""
","
","","","","","","","","","","","","","","","","","","","","","","","","","","",""
"pit-instructions","58","660198","0.0-2.0-13.0","battery-v0.2","","""event"",""trial"",""time""
""fullscreenenter"",""1"",""2547""
","
","
","""event"",""trial"",""time""
""fullscreenenter"",""1"",""2547""
","
","","[{""page_index"":0,""viewing_time"":13970.5},{""page_index"":1,""viewing_time"":22792.5},{""page_index"":2,""viewing_time"":13983.800000011921},{""page_index"":3,""viewing_time"":17592},{""page_index"":4,""viewing_time"":10944}]","79283.20000000298","","","","","","","","","","","","","","","","","","","","","","","",""
"pit-trial","59","664328","0.0-2.0-14.0-0.0","battery-v0.2","","""event"",""trial"",""time""
""fullscreenenter"",""1"",""2547""
","
","
","""event"",""trial"",""time""
""fullscreenenter"",""1"",""2547""
","
","","","1276.5999999940395","","","12","15775","6250","&#9826;","elianto","#f73b6a7A","-1"," ","0","-10","[2127.4000000059605]","1","0","3","","","","","","","",""
"pit-trial","60","668390","0.0-2.0-14.0-1.0","battery-v0.2","","""event"",""trial"",""time""
""fullscreenenter"",""1"",""2547""
","
","
","""event"",""trial"",""time""
""fullscreenenter"",""1"",""2547""
","
","","","1198.5999999940395","","","12","15775","6250","&#9826;","elianto","#f73b6a7A","-1"," ","0","-10","[2052.3999999910593]","1","0","3","","","","","","","",""
"pit-trial","61","673263","0.0-2.0-14.0-2.0","battery-v0.2","","""event"",""trial"",""time""
""fullscreenenter"",""1"",""2547""
","
","
","""event"",""trial"",""time""
""fullscreenenter"",""1"",""2547""
","
","","","-1","","","12","15775","6250","&#9826;","elianto","#f73b6a7A","-1","-1","1","0","[]","0","0","3","","","","","","","",""
"pit-trial","62","678127","0.0-2.0-14.0-3.0","battery-v0.2","","""event"",""trial"",""time""
""fullscreenenter"",""1"",""2547""
","
","
","""event"",""trial"",""time""
""fullscreenenter"",""1"",""2547""
","
","","","-1","","","12","15775","6250","&#9826;","elianto","#f73b6a7A","-1","-1","1","-10","[]","0","0","3","","","","","","","",""
"pit-trial","63","682987","0.0-2.0-14.0-4.0","battery-v0.2","","""event"",""trial"",""time""
""fullscreenenter"",""1"",""2547""
","
","
","""event"",""trial"",""time""
""fullscreenenter"",""1"",""2547""
","
","","","-1","","","12","15775","6250","&#9826;","elianto","#f73b6a7A","-1","-1","1","0","[]","0","0","3","","","","","","","",""
"pit-trial","64","687840","0.0-2.0-14.1-0.1","battery-v0.2","","""event"",""trial"",""time""
""fullscreenenter"",""1"",""2547""
","
","
","""event"",""trial"",""time""
""fullscreenenter"",""1"",""2547""
","
","","","-1","","","12","15775","6250","&#9826;","elianto","#f73b6a7A","-1","-1","1","0","[]","0","0","3","","","","","","","",""
"pit-trial","65","692693","0.0-2.0-14.1-1.1","battery-v0.2","","""event"",""trial"",""time""
""fullscreenenter"",""1"",""2547""
","
","
","""event"",""trial"",""time""
""fullscreenenter"",""1"",""2547""
","
","","","-1","","","12","15775","6250","&#9826;","elianto","#f73b6a7A","-1","-1","1","0","[]","0","0","3","","","","","","","",""
"pit-trial","66","697547","0.0-2.0-14.1-2.1","battery-v0.2","","""event"",""trial"",""time""
""fullscreenenter"",""1"",""2547""
","
","
","""event"",""trial"",""time""
""fullscreenenter"",""1"",""2547""
","
","","","-1","","","12","15775","6250","&#9826;","elianto","#f73b6a7A","-1","-1","1","0","[]","0","0","3","","","","","","","",""
"pit-trial","67","702400","0.0-2.0-14.1-3.1","battery-v0.2","","""event"",""trial"",""time""
""fullscreenenter"",""1"",""2547""
","
","
","""event"",""trial"",""time""
""fullscreenenter"",""1"",""2547""
","
","","","-1","","","12","15775","6250","&#9826;","elianto","#f73b6a7A","-1","-1","1","-10","[]","0","0","3","","","","","","","",""
"pit-trial","68","707253","0.0-2.0-14.1-4.1","battery-v0.2","","""event"",""trial"",""time""
""fullscreenenter"",""1"",""2547""
","
","
","""event"",""trial"",""time""
""fullscreenenter"",""1"",""2547""
","
","","","-1","","","12","15775","6250","&#9826;","elianto","#f73b6a7A","-1","-1","1","0","[]","0","0","3","","","","","","","",""
"pit-trial","69","712106","0.0-2.0-14.2-0.2","battery-v0.2","","""event"",""trial"",""time""
""fullscreenenter"",""1"",""2547""
","
","
","""event"",""trial"",""time""
""fullscreenenter"",""1"",""2547""
","
","","","-1","","","12","15775","6250","&#9826;","elianto","#f73b6a7A","-1","-1","1","0","[]","0","0","3","","","","","","","",""
"pit-trial","70","716960","0.0-2.0-14.2-1.2","battery-v0.2","","""event"",""trial"",""time""
""fullscreenenter"",""1"",""2547""
","
","
","""event"",""trial"",""time""
""fullscreenenter"",""1"",""2547""
","
","","","-1","","","12","15775","6250","&#9826;","elianto","#f73b6a7A","-1","-1","1","0","[]","0","0","3","","","","","","","",""
"pit-trial","71","721813","0.0-2.0-14.2-2.2","battery-v0.2","","""event"",""trial"",""time""
""fullscreenenter"",""1"",""2547""
","
","
","""event"",""trial"",""time""
""fullscreenenter"",""1"",""2547""
","
","","","-1","","","12","15775","6250","&#9826;","elianto","#f73b6a7A","-1","-1","1","0","[]","0","0","3","","","","","","","",""
"pit-trial","72","726667","0.0-2.0-14.2-3.2","battery-v0.2","","""event"",""trial"",""time""
""fullscreenenter"",""1"",""2547""
","
","
","""event"",""trial"",""time""
""fullscreenenter"",""1"",""2547""
","
","","","-1","","","12","15775","6250","&#9826;","elianto","#f73b6a7A","-1","-1","1","-10","[]","0","0","3","","","","","","","",""
"pit-trial","73","731520","0.0-2.0-14.2-4.2","battery-v0.2","","""event"",""trial"",""time""
""fullscreenenter"",""1"",""2547""
","
","
","""event"",""trial"",""time""
""fullscreenenter"",""1"",""2547""
","
","","","-1","","","12","15775","6250","&#9826;","elianto","#f73b6a7A","-1","-1","1","0","[]","0","0","3","","","","","","","",""
"pit-trial","74","736374","0.0-2.0-14.3-0.3","battery-v0.2","","""event"",""trial"",""time""
""fullscreenenter"",""1"",""2547""
","
","
","""event"",""trial"",""time""
""fullscreenenter"",""1"",""2547""
","
","","","-1","","","12","15775","6250","&#9826;","elianto","#f73b6a7A","-1","-1","1","0","[]","0","0","3","","","","","","","",""
"pit-trial","75","741244","0.0-2.0-14.3-1.3","battery-v0.2","","""event"",""trial"",""time""
""fullscreenenter"",""1"",""2547""
","
","
","""event"",""trial"",""time""
""fullscreenenter"",""1"",""2547""
","
","","","-1","","","12","15775","6250","&#9826;","elianto","#f73b6a7A","-1","-1","1","0","[]","0","0","3","","","","","","","",""
"pit-trial","76","746098","0.0-2.0-14.3-2.3","battery-v0.2","","""event"",""trial"",""time""
""fullscreenenter"",""1"",""2547""
","
","
","""event"",""trial"",""time""
""fullscreenenter"",""1"",""2547""
","
","","","-1","","","12","15775","6250","&#9826;","elianto","#f73b6a7A","-1","-1","1","0","[]","0","0","3","","","","","","","",""
"pit-trial","77","750950","0.0-2.0-14.3-3.3","battery-v0.2","","""event"",""trial"",""time""
""fullscreenenter"",""1"",""2547""
","
","
","""event"",""trial"",""time""
""fullscreenenter"",""1"",""2547""
","
","","","-1","","","12","15775","6250","&#9826;","elianto","#f73b6a7A","-1","-1","1","-10","[]","0","0","3","","","","","","","",""
"pit-trial","78","755805","0.0-2.0-14.3-4.3","battery-v0.2","","""event"",""trial"",""time""
""fullscreenenter"",""1"",""2547""
","
","
","""event"",""trial"",""time""
""fullscreenenter"",""1"",""2547""
","
","","","-1","","","12","15775","6250","&#9826;","elianto","#f73b6a7A","-1","-1","1","0","[]","0","0","3","","","","","","","",""
"call-function","79","755807","0.0-2.0-15.0","battery-v0.2","","""event"",""trial"",""time""
""fullscreenenter"",""1"",""2547""
","
","
","""event"",""trial"",""time""
""fullscreenenter"",""1"",""2547""
","
","","","","","","","","","","","","","","","","","","","","","","","","","","",""
"pit-instructions","80","809287","0.0-2.0-16.0","battery-v0.2","","""event"",""trial"",""time""
""fullscreenenter"",""1"",""2547""
","
","
","""event"",""trial"",""time""
""fullscreenenter"",""1"",""2547""
","
","","[{""page_index"":0,""viewing_time"":14478.60000000894},{""page_index"":1,""viewing_time"":18495.39999999106},{""page_index"":2,""viewing_time"":8031.9000000059605},{""page_index"":3,""viewing_time"":12471.89999999106}]","53478.20000000298","","","","","","","","","","","","","","","","","","","","","","","",""
"pit-trial","81","814143","0.0-2.0-17.0-0.0","battery-v0.2","","""event"",""trial"",""time""
""fullscreenenter"",""1"",""2547""
","
","
","""event"",""trial"",""time""
""fullscreenenter"",""1"",""2547""
","
","","","-1","","","12","15775","6250","&#9789;","elianto","#f73b6a7A"," ","-1","0","-10","[]","0","0","4","","","","","","","",""
"pit-trial","82","817830","0.0-2.0-17.0-1.0","battery-v0.2","","""event"",""trial"",""time""
""fullscreenenter"",""1"",""2547""
","
","
","""event"",""trial"",""time""
""fullscreenenter"",""1"",""2547""
","
","","","821.0999999940395","","","12","15775","6250","&#9789;","elianto","#f73b6a7A"," "," ","1","0","[1676.8999999910593]","1","0","4","","","","","","","",""
"pit-trial","83","821972","0.0-2.0-17.0-2.0","battery-v0.2","","""event"",""trial"",""time""
""fullscreenenter"",""1"",""2547""
","
","
","""event"",""trial"",""time""
""fullscreenenter"",""1"",""2547""
","
","","","1271.2000000029802","","","12","15775","6250","&#9789;","elianto","#f73b6a7A"," "," ","1","0","[2127]","1","0","4","","","","","","","",""
"pit-trial","84","825350","0.0-2.0-17.0-3.0","battery-v0.2","","""event"",""trial"",""time""
""fullscreenenter"",""1"",""2547""
","
","
","""event"",""trial"",""time""
""fullscreenenter"",""1"",""2547""
","
","","","517.2999999970198","","","12","15775","6250","&#9789;","elianto","#f73b6a7A"," "," ","1","-10","[1369.5]","1","0","4","","","","","","","",""
"pit-trial","85","828875","0.0-2.0-17.0-4.0","battery-v0.2","","""event"",""trial"",""time""
""fullscreenenter"",""1"",""2547""
","
","
","""event"",""trial"",""time""
""fullscreenenter"",""1"",""2547""
","
","","","659.7000000029802","","","12","15775","6250","&#9789;","elianto","#f73b6a7A"," "," ","1","0","[1511]","1","0","4","","","","","","","",""
"pit-trial","86","832567","0.0-2.0-17.1-0.1","battery-v0.2","","""event"",""trial"",""time""
""fullscreenenter"",""1"",""2547""
","
","
","""event"",""trial"",""time""
""fullscreenenter"",""1"",""2547""
","
","","","834.2999999970198","","","12","15775","6250","&#9789;","elianto","#f73b6a7A"," "," ","1","0","[1689]","1","0","4","","","","","","","",""
"pit-trial","87","836190","0.0-2.0-17.1-1.1","battery-v0.2","","""event"",""trial"",""time""
""fullscreenenter"",""1"",""2547""
","
","
","""event"",""trial"",""time""
""fullscreenenter"",""1"",""2547""
","
","","","769.5","","","12","15775","6250","&#9789;","elianto","#f73b6a7A"," "," ","1","0","[1621.4000000059605]","1","0","4","","","","","","","",""
"pit-trial","88","840559","0.0-2.0-17.1-2.1","battery-v0.2","","""event"",""trial"",""time""
""fullscreenenter"",""1"",""2547""
","
","
","""event"",""trial"",""time""
""fullscreenenter"",""1"",""2547""
","
","","","1514.7999999970198","","","12","15775","6250","&#9789;","elianto","#f73b6a7A"," "," ","1","0","[2366.0999999940395]","1","0","4","","","","","","","",""
"pit-trial","89","843711","0.0-2.0-17.1-3.1","battery-v0.2","","""event"",""trial"",""time""
""fullscreenenter"",""1"",""2547""
","
","
","""event"",""trial"",""time""
""fullscreenenter"",""1"",""2547""
","
","","","298.20000000298023","","","12","15775","6250","&#9789;","elianto","#f73b6a7A"," "," ","1","-10","[1149.5]","1","0","4","","","","","","","",""
"pit-trial","90","847696","0.0-2.0-17.1-4.1","battery-v0.2","","""event"",""trial"",""time""
""fullscreenenter"",""1"",""2547""
","
","
","""event"",""trial"",""time""
""fullscreenenter"",""1"",""2547""
","
","","","1131.7000000029802","","","12","15775","6250","&#9789;","elianto","#f73b6a7A"," "," ","1","0","[1981.8999999910593]","1","0","4","","","","","","","",""
"pit-trial","91","850984","0.0-2.0-17.2-0.2","battery-v0.2","","""event"",""trial"",""time""
""fullscreenenter"",""1"",""2547""
","
","
","""event"",""trial"",""time""
""fullscreenenter"",""1"",""2547""
","
","","","433.3999999910593","","","12","15775","6250","&#9789;","elianto","#f73b6a7A"," "," ","1","0","[1284.5]","1","0","4","","","","","","","",""
"pit-trial","92","855424","0.0-2.0-17.2-1.2","battery-v0.2","","""event"",""trial"",""time""
""fullscreenenter"",""1"",""2547""
","
","
","""event"",""trial"",""time""
""fullscreenenter"",""1"",""2547""
","
","","","1587.5","","","12","15775","6250","&#9789;","elianto","#f73b6a7A"," "," ","1","0","[2437.5]","1","0","4","","","","","","","",""
"pit-trial","93","859046","0.0-2.0-17.2-2.2","battery-v0.2","","""event"",""trial"",""time""
""fullscreenenter"",""1"",""2547""
","
","
","""event"",""trial"",""time""
""fullscreenenter"",""1"",""2547""
","
","","","770.2000000029802","","","12","15775","6250","&#9789;","elianto","#f73b6a7A"," "," ","1","0","[1620.2000000029802]","1","0","4","","","","","","","",""
"pit-trial","94","862383","0.0-2.0-17.2-3.2","battery-v0.2","","""event"",""trial"",""time""
""fullscreenenter"",""1"",""2547""
","
","
","""event"",""trial"",""time""
""fullscreenenter"",""1"",""2547""
","
","","","478.70000000298023","","","12","15775","6250","&#9789;","elianto","#f73b6a7A"," "," ","1","-10","[1334.2000000029802]","1","0","4","","","","","","","",""
"pit-trial","95","865734","0.0-2.0-17.2-4.2","battery-v0.2","","""event"",""trial"",""time""
""fullscreenenter"",""1"",""2547""
","
","
","""event"",""trial"",""time""
""fullscreenenter"",""1"",""2547""
","
","","","498.3999999910593","","","12","15775","6250","&#9789;","elianto","#f73b6a7A"," "," ","1","0","[1348.5999999940395]","1","0","4","","","","","","","",""
"pit-trial","96","869007","0.0-2.0-17.3-0.3","battery-v0.2","","""event"",""trial"",""time""
""fullscreenenter"",""1"",""2547""
","
","
","""event"",""trial"",""time""
""fullscreenenter"",""1"",""2547""
","
","","","419.1000000089407","","","12","15775","6250","&#9789;","elianto","#f73b6a7A"," "," ","1","0","[1269.7999999970198]","1","0","4","","","","","","","",""
"pit-trial","97","872295","0.0-2.0-17.3-1.3","battery-v0.2","","""event"",""trial"",""time""
""fullscreenenter"",""1"",""2547""
","
","
","""event"",""trial"",""time""
""fullscreenenter"",""1"",""2547""
","
","","","433.40000000596046","","","12","15775","6250","&#9789;","elianto","#f73b6a7A"," "," ","1","0","[1285.4000000059605]","1","0","4","","","","","","","",""
"pit-trial","98","876335","0.0-2.0-17.3-2.3","battery-v0.2","","""event"",""trial"",""time""
""fullscreenenter"",""1"",""2547""
","
","
","""event"",""trial"",""time""
""fullscreenenter"",""1"",""2547""
","
","","","1186.2999999970198","","","12","15775","6250","&#9789;","elianto","#f73b6a7A"," "," ","1","0","[2037.2999999970198]","1","0","4","","","","","","","",""
"pit-trial","99","881031","0.0-2.0-17.3-3.3","battery-v0.2","","""event"",""trial"",""time""
""fullscreenenter"",""1"",""2547""
","
","
","""event"",""trial"",""time""
""fullscreenenter"",""1"",""2547""
","
","","","1841.8999999910593","","","12","15775","6250","&#9789;","elianto","#f73b6a7A"," "," ","1","-10","[2692.9000000059605]","1","0","4","","","","","","","",""
"pit-trial","100","885511","0.0-2.0-17.3-4.3","battery-v0.2","","""event"",""trial"",""time""
""fullscreenenter"",""1"",""2547""
","
","
","""event"",""trial"",""time""
""fullscreenenter"",""1"",""2547""
","
","","","1627.5999999940395","","","12","15775","6250","&#9789;","elianto","#f73b6a7A"," "," ","1","0","[2478.5999999940395]","1","0","4","","","","","","","",""
"call-function","101","885514","0.0-2.0-18.0","battery-v0.2","","""event"",""trial"",""time""
""fullscreenenter"",""1"",""2547""
","
","
","""event"",""trial"",""time""
""fullscreenenter"",""1"",""2547""
","
","","","","","","","","","","","","","","","","","","","","","","","","","","",""
"pit-instructions","102","993711","0.0-2.0-19.0","battery-v0.2","","""event"",""trial"",""time""
""fullscreenenter"",""1"",""2547""
","
","
","""event"",""trial"",""time""
""fullscreenenter"",""1"",""2547""
","
","","[{""page_index"":0,""viewing_time"":19635.20000000298},{""page_index"":1,""viewing_time"":9443.70000000298},{""page_index"":2,""viewing_time"":11621.20000000298},{""page_index"":3,""viewing_time"":7167.29999999702},{""page_index"":4,""viewing_time"":12543.89999999106},{""page_index"":5,""viewing_time"":9392.10000000894},{""page_index"":6,""viewing_time"":14913},{""page_index"":7,""viewing_time"":13534.5},{""page_index"":8,""viewing_time"":9945.09999999404}]","108196.29999999702","","","","","","","","","","","","","","","","","","","","","","","",""
"pit-comprehension","103","1000775","0.0-2.0-20.0-0.0","battery-v0.2","","""event"",""trial"",""time""
""fullscreenenter"",""1"",""2547""
","
","
","""event"",""trial"",""time""
""fullscreenenter"",""1"",""2547""
","
","","","7061.300000011921","[""SPACE""]","0","12","15775","6250","","","","","","","","","","","","","","","","","","",""
"pit-instructions","104","1006256","0.0-2.0-20.0-1.0","battery-v0.2","","""event"",""trial"",""time""
""fullscreenenter"",""1"",""2547""
","
","
","""event"",""trial"",""time""
""fullscreenenter"",""1"",""2547""
","
","","[{""page_index"":0,""viewing_time"":5456}]","5456.20000000298","","","","","","","","","","","","","","","","","","","","","","","",""
"pit-comprehension","105","1012623","0.0-2.0-21.0-0.0","battery-v0.2","","""event"",""trial"",""time""
""fullscreenenter"",""1"",""2547""
","
","
","""event"",""trial"",""time""
""fullscreenenter"",""1"",""2547""
","
","","","6364.5","[""10""]","0","12","15775","6250","","","","","","","","","","","","","","","","","","",""
"pit-instructions","106","1030181","0.0-2.0-21.0-1.0","battery-v0.2","","""event"",""trial"",""time""
""fullscreenenter"",""1"",""2547""
","
","
","""event"",""trial"",""time""
""fullscreenenter"",""1"",""2547""
","
","","[{""page_index"":0,""viewing_time"":17530.79999999702}]","17531","","","","","","","","","","","","","","","","","","","","","","","",""
"pit-comprehension","107","1036222","0.0-2.0-22.0-0.0","battery-v0.2","","""event"",""trial"",""time""
""fullscreenenter"",""1"",""2547""
","
","
","""event"",""trial"",""time""
""fullscreenenter"",""1"",""2547""
","
","","","6038.79999999702","[""0""]","0","12","15775","6250","","","","","","","","","","","","","","","","","","",""
"pit-instructions","108","1059077","0.0-2.0-22.0-1.0","battery-v0.2","","""event"",""trial"",""time""
""fullscreenenter"",""1"",""2547""
","
","
","""event"",""trial"",""time""
""fullscreenenter"",""1"",""2547""
","
","","[{""page_index"":0,""viewing_time"":22832.20000000298}]","22832.39999999106","","","","","","","","","","","","","","","","","","","","","","","",""
"pit-comprehension","109","1082350","0.0-2.0-23.0-0.0","battery-v0.2","","""event"",""trial"",""time""
""fullscreenenter"",""1"",""2547""
","
","
","""event"",""trial"",""time""
""fullscreenenter"",""1"",""2547""
","
","","","23270.40000000596","[""True""]","0","12","15775","6250","","","","","","","","","","","","","","","","","","",""
"pit-instructions","110","1085517","0.0-2.0-23.0-1.0","battery-v0.2","","""event"",""trial"",""time""
""fullscreenenter"",""1"",""2547""
","
","
","""event"",""trial"",""time""
""fullscreenenter"",""1"",""2547""
","
","","[{""page_index"":0,""viewing_time"":3138.7000000029802}]","3138.9000000059605","","","","","","","","","","","","","","","","","","","","","","","",""
"pit-comprehension","111","1096333","0.0-2.0-24.0-0.0","battery-v0.2","","""event"",""trial"",""time""
""fullscreenenter"",""1"",""2547""
","
","
","""event"",""trial"",""time""
""fullscreenenter"",""1"",""2547""
","
","","","10814.20000000298","[""True""]","0","12","15775","6250","","","","","","","","","","","","","","","","","","",""
"pit-instructions","112","1110517","0.0-2.0-24.0-1.0","battery-v0.2","","""event"",""trial"",""time""
""fullscreenenter"",""1"",""2547""
","
","
","""event"",""trial"",""time""
""fullscreenenter"",""1"",""2547""
","
","","[{""page_index"":0,""viewing_time"":14158.70000000298}]","14158.90000000596","","","","","","","","","","","","","","","","","","","","","","","",""
"pit-comprehension","113","1116654","0.0-2.0-25.0-0.0","battery-v0.2","","""event"",""trial"",""time""
""fullscreenenter"",""1"",""2547""
","
","
","""event"",""trial"",""time""
""fullscreenenter"",""1"",""2547""
","
","","","6134.29999999702","[""True""]","0","12","15775","6250","","","","","","","","","","","","","","","","","","",""
"pit-instructions","114","1148998","0.0-2.0-25.0-1.0","battery-v0.2","","""event"",""trial"",""time""
""fullscreenenter"",""1"",""2547""
","
","
","""event"",""trial"",""time""
""fullscreenenter"",""1"",""2547""
","
","","[{""page_index"":0,""viewing_time"":32319.20000000298}]","32319.40000000596","","","","","","","","","","","","","","","","","","","","","","","",""
"pit-comprehension","115","1154718","0.0-2.0-26.0-0.0","battery-v0.2","","""event"",""trial"",""time""
""fullscreenenter"",""1"",""2547""
","
","
","""event"",""trial"",""time""
""fullscreenenter"",""1"",""2547""
","
","","","5718.800000011921","[""False""]","0","12","15775","6250","","","","","","","","","","","","","","","","","","",""
"pit-instructions","116","1167134","0.0-2.0-26.0-1.0","battery-v0.2","","""event"",""trial"",""time""
""fullscreenenter"",""1"",""2547""
","
","
","""event"",""trial"",""time""
""fullscreenenter"",""1"",""2547""
","
","","[{""page_index"":0,""viewing_time"":12391.300000011921}]","12391.5","","","","","","","","","","","","","","","","","","","","","","","",""
"pit-instructions","117","1192685","0.0-3.0","battery-v0.2","","""event"",""trial"",""time""
""fullscreenenter"",""1"",""2547""
","
","
","""event"",""trial"",""time""
""fullscreenenter"",""1"",""2547""
","
","","[{""page_index"":0,""viewing_time"":4446.600000008941},{""page_index"":1,""viewing_time"":5528.399999991059},{""page_index"":2,""viewing_time"":15575.5}]","25550.70000000298","","","","","","","","","","","","","","","","","","","","","","","",""
"pit-trial","118","1196999","0.0-4.0","battery-v0.2","","""event"",""trial"",""time""
""fullscreenenter"",""1"",""2547""
","
","
","""event"",""trial"",""time""
""fullscreenenter"",""1"",""2547""
","
","","","1459.0999999940395","","","12","15775","6250","&#9730;","elianto","#3366ff99"," "," ","1","+10","[2309.5999999940395]","1","1","","","15775","1","1","1","win","go","0"
"pit-trial","119","1201351","0.0-5.0","battery-v0.2","","""event"",""trial"",""time""
""fullscreenenter"",""1"",""2547""
","
","
","""event"",""trial"",""time""
""fullscreenenter"",""1"",""2547""
","
","","","1499.9000000059605","","","12","15775","6250","&#9728;","elianto","#f73b6a7A","-1"," ","0","-10","[2350.5999999940395]","1","1","","","15775","2","0","4","lose","no-go","0"
"pit-trial","120","1206204","0.0-6.0","battery-v0.2","","""event"",""trial"",""time""
""fullscreenenter"",""1"",""2547""
","
","
","""event"",""trial"",""time""
""fullscreenenter"",""1"",""2547""
","
","","","-1","","","12","15775","6250","&#9733;","elianto","#3366ff99","-1","-1","1","+10","[]","0","1","","","15775","3","2","2","win","no-go","0"
"pit-trial","121","1210241","0.0-7.0","battery-v0.2","","""event"",""trial"",""time""
""fullscreenenter"",""1"",""2547""
","
","
","""event"",""trial"",""time""
""fullscreenenter"",""1"",""2547""
","
","","","1170.5","","","12","15775","6250","&#9752;","elianto","#f73b6a7A"," "," ","1","0","[2023.9000000059605]","1","1","","","15775","4","3","3","lose","go","0"
"pit-trial","122","1215109","0.0-8.0","battery-v0.2","","""event"",""trial"",""time""
""fullscreenenter"",""1"",""2547""
","
","
","""event"",""trial"",""time""
""fullscreenenter"",""1"",""2547""
","
","","","-1","","","12","15775","6250","&#9733;","elianto","#3366ff99","-1","-1","1","+10","[]","0","1","","","15775","5","2","2","win","no-go","0"
"pit-trial","123","1219279","0.0-9.0","battery-v0.2","","""event"",""trial"",""time""
""fullscreenenter"",""1"",""2547""
","
","
","""event"",""trial"",""time""
""fullscreenenter"",""1"",""2547""
","
","","","1316.8999999910593","","","12","15775","6250","&#9752;","elianto","#f73b6a7A"," "," ","1","0","[2167.3999999910593]","1","1","","","15775","6","3","3","lose","go","0"
"pit-trial","124","1224132","0.0-10.0","battery-v0.2","","""event"",""trial"",""time""
""fullscreenenter"",""1"",""2547""
","
","
","""event"",""trial"",""time""
""fullscreenenter"",""1"",""2547""
","
","","","-1","","","12","15775","6250","&#9728;","elianto","#f73b6a7A","-1","-1","1","0","[]","0","1","","","15775","7","0","4","lose","no-go","0"
"pit-trial","125","1228615","0.0-11.0","battery-v0.2","","""event"",""trial"",""time""
""fullscreenenter"",""1"",""2547""
","
","
","""event"",""trial"",""time""
""fullscreenenter"",""1"",""2547""
","
","","","1628.4000000059605","","","12","15775","6250","&#9730;","elianto","#3366ff99"," "," ","1","+10","[2479.7999999970198]","1","1","","","15775","8","1","1","win","go","0"
"pit-trial","126","1232735","0.0-12.0","battery-v0.2","","""event"",""trial"",""time""
""fullscreenenter"",""1"",""2547""
","
","
","""event"",""trial"",""time""
""fullscreenenter"",""1"",""2547""
","
","","","1267.2000000029802","","","12","15775","6250","&#9730;","elianto","#3366ff99"," "," ","1","+10","[2117.5]","1","1","","","15775","9","1","1","win","go","0"
"pit-trial","127","1237447","0.0-13.0","battery-v0.2","","""event"",""trial"",""time""
""fullscreenenter"",""1"",""2547""
","
","
","""event"",""trial"",""time""
""fullscreenenter"",""1"",""2547""
","
","","","1860.3999999910593","","","12","15775","6250","&#9733;","elianto","#3366ff99","-1"," ","0","+10","[2710.3999999910593]","1","1","","","15775","10","2","2","win","no-go","1"
"pit-trial","128","1241455","0.0-14.0","battery-v0.2","","""event"",""trial"",""time""
""fullscreenenter"",""1"",""2547""
","
","
","""event"",""trial"",""time""
""fullscreenenter"",""1"",""2547""
","
","","","1153.7000000029802","","","12","15775","6250","&#9752;","elianto","#f73b6a7A"," "," ","1","0","[2004.9000000059605]","1","1","","","15775","11","3","3","lose","go","0"
"pit-trial","129","1246309","0.0-15.0","battery-v0.2","","""event"",""trial"",""time""
""fullscreenenter"",""1"",""2547""
","
","
","""event"",""trial"",""time""
""fullscreenenter"",""1"",""2547""
","
","","","-1","","","12","15775","6250","&#9728;","elianto","#f73b6a7A","-1","-1","1","-10","[]","0","1","","","15775","12","0","4","lose","no-go","1"
"pit-trial","130","1250424","0.0-16.0","battery-v0.2","","""event"",""trial"",""time""
""fullscreenenter"",""1"",""2547""
","
","
","""event"",""trial"",""time""
""fullscreenenter"",""1"",""2547""
","
","","","1261.5","","","12","15775","6250","&#9728;","elianto","#f73b6a7A","-1"," ","0","0","[2111.9000000059605]","1","1","","","15775","13","0","4","lose","no-go","1"
"pit-trial","131","1254512","0.0-17.0","battery-v0.2","","""event"",""trial"",""time""
""fullscreenenter"",""1"",""2547""
","
","
","""event"",""trial"",""time""
""fullscreenenter"",""1"",""2547""
","
","","","1234.5","","","12","15775","6250","&#9733;","elianto","#3366ff99","-1"," ","0","0","[2084.5]","1","1","","","15775","14","2","2","win","no-go","0"
"pit-trial","132","1259031","0.0-18.0","battery-v0.2","","""event"",""trial"",""time""
""fullscreenenter"",""1"",""2547""
","
","
","""event"",""trial"",""time""
""fullscreenenter"",""1"",""2547""
","
","","","1666.1000000089407","","","12","15775","6250","&#9730;","elianto","#3366ff99"," "," ","1","+10","[2516.7000000029802]","1","1","","","15775","15","1","1","win","go","0"
"pit-trial","133","1262855","0.0-19.0","battery-v0.2","","""event"",""trial"",""time""
""fullscreenenter"",""1"",""2547""
","
","
","""event"",""trial"",""time""
""fullscreenenter"",""1"",""2547""
","
","","","969.7999999970198","","","12","15775","6250","&#9752;","elianto","#f73b6a7A"," "," ","1","-10","[1821.3999999910593]","1","1","","","15775","16","3","3","lose","go","1"
"pit-trial","134","1267710","0.0-20.0","battery-v0.2","","""event"",""trial"",""time""
""fullscreenenter"",""1"",""2547""
","
","
","""event"",""trial"",""time""
""fullscreenenter"",""1"",""2547""
","
","","","-1","","","12","15775","6250","&#9730;","elianto","#3366ff99"," ","-1","0","0","[3205.5999999940395]","1","1","","","15775","17","1","1","win","go","0"
"pit-trial","135","1272151","0.0-21.0","battery-v0.2","","""event"",""trial"",""time""
""fullscreenenter"",""1"",""2547""
","
","
","""event"",""trial"",""time""
""fullscreenenter"",""1"",""2547""
","
","","","1588","","","12","15775","6250","&#9733;","elianto","#3366ff99","-1"," ","0","0","[2438.7000000029802]","1","1","","","15775","18","2","2","win","no-go","0"
"pit-trial","136","1276631","0.0-22.0","battery-v0.2","","""event"",""trial"",""time""
""fullscreenenter"",""1"",""2547""
","
","
","""event"",""trial"",""time""
""fullscreenenter"",""1"",""2547""
","
","","","1625.5","","","12","15775","6250","&#9728;","elianto","#f73b6a7A","-1"," ","0","-10","[2477.199999988079,2749.3999999910593,3237.199999988079,3501.5999999940395,3717.5,4005.8999999910593]","6","1","","","15775","19","0","4","lose","no-go","0"
"pit-trial","137","1280119","0.0-23.0","battery-v0.2","","""event"",""trial"",""time""
""fullscreenenter"",""1"",""2547""
","
","
","""event"",""trial"",""time""
""fullscreenenter"",""1"",""2547""
","
","","","634.9000000059605","","","12","15775","6250","&#9752;","elianto","#f73b6a7A"," "," ","1","-10","[109.09999999403954,717.2999999970198,1485.2999999970198,1797.0999999940395,2085.3999999910593,2317.2000000029802,2605.0999999940395,2860.0999999940395]","8","1","","","15775","20","3","3","lose","go","1"
"pit-instructions","138","1327277","0.0-24.0","battery-v0.2","","""event"",""trial"",""time""
""fullscreenenter"",""1"",""2547""
","
","
","""event"",""trial"",""time""
""fullscreenenter"",""1"",""2547""
","
","","[{""page_index"":0,""viewing_time"":6516.4000000059605},{""page_index"":1,""viewing_time"":40639.89999999106}]","47156.60000000894","","","","","","","","","","","","","","","","","","","","","","","",""
"pit-trial","139","1331414","0.0-25.0","battery-v0.2","","""event"",""trial"",""time""
""fullscreenenter"",""1"",""2547""
","
","
","""event"",""trial"",""time""
""fullscreenenter"",""1"",""2547""
","
","","","1269.8999999910593","","","12","15775","6250","b","elianto","#f73b6a7A"," "," ","1","-10","[2120.199999988079]","1","2","","","15775","21","3","3","lose","go","1"
"pit-trial","140","1335504","0.0-26.0","battery-v0.2","","""event"",""trial"",""time""
""fullscreenenter"",""1"",""2547""
","
","
","""event"",""trial"",""time""
""fullscreenenter"",""1"",""2547""
","
","","","1235.2999999970198","","","12","15775","6250","f","elianto","#3366ff99"," "," ","1","0","[2086.0999999940395]","1","2","","","15775","22","1","1","win","go","1"
"pit-trial","141","1339670","0.0-27.0","battery-v0.2","","""event"",""trial"",""time""
""fullscreenenter"",""1"",""2547""
","
","
","""event"",""trial"",""time""
""fullscreenenter"",""1"",""2547""
","
","","","1314.0999999940395","","","12","15775","6250","t","elianto","#f73b6a7A","-1"," ","0","0","[2164.2000000029802]","1","2","","","15775","23","2","4","lose","no-go","1"
"pit-trial","142","1343870","0.0-28.0","battery-v0.2","","""event"",""trial"",""time""
""fullscreenenter"",""1"",""2547""
","
","
","""event"",""trial"",""time""
""fullscreenenter"",""1"",""2547""
","
","","","1346.7000000029802","","","12","15775","6250","n","elianto","#f73b6a7A","-1"," ","0","-10","[2197.4000000059605]","1","2","","","15775","24","0","4","lose","no-go","0"
"pit-trial","143","1348724","0.0-29.0","battery-v0.2","","""event"",""trial"",""time""
""fullscreenenter"",""1"",""2547""
","
","
","""event"",""trial"",""time""
""fullscreenenter"",""1"",""2547""
","
","","","-1","","","12","15775","6250","n","elianto","#f73b6a7A","-1","-1","1","0","[]","0","2","","","15775","25","0","4","lose","no-go","0"
"pit-trial","144","1352799","0.0-30.0","battery-v0.2","","""event"",""trial"",""time""
""fullscreenenter"",""1"",""2547""
","
","
","""event"",""trial"",""time""
""fullscreenenter"",""1"",""2547""
","
","","","1220.300000011921","","","12","15775","6250","f","elianto","#3366ff99"," "," ","1","+10","[2071.5]","1","2","","","15775","26","1","1","win","go","0"
"pit-trial","145","1357652","0.0-31.0","battery-v0.2","","""event"",""trial"",""time""
""fullscreenenter"",""1"",""2547""
","
","
","""event"",""trial"",""time""
""fullscreenenter"",""1"",""2547""
","
","","","-1","","","12","15775","6250","t","elianto","#f73b6a7A","-1","-1","1","0","[]","0","2","","","15775","27","2","4","lose","no-go","0"
"pit-trial","146","1361958","0.0-32.0","battery-v0.2","","""event"",""trial"",""time""
""fullscreenenter"",""1"",""2547""
","
","
","""event"",""trial"",""time""
""fullscreenenter"",""1"",""2547""
","
","","","1454.0999999940395","","","12","15775","6250","b","elianto","#f73b6a7A"," "," ","1","0","[2304.9000000059605]","1","2","","","15775","28","3","3","lose","go","0"
"pit-trial","147","1365735","0.0-33.0","battery-v0.2","","""event"",""trial"",""time""
""fullscreenenter"",""1"",""2547""
","
","
","""event"",""trial"",""time""
""fullscreenenter"",""1"",""2547""
","
","","","923.8999999910593","","","12","15775","6250","f","elianto","#3366ff99"," "," ","1","+10","[1774.699999988079]","1","2","","","15775","29","1","1","win","go","0"
"pit-trial","148","1369799","0.0-34.0","battery-v0.2","","""event"",""trial"",""time""
""fullscreenenter"",""1"",""2547""
","
","
","""event"",""trial"",""time""
""fullscreenenter"",""1"",""2547""
","
","","","1210.4000000059605","","","12","15775","6250","t","elianto","#f73b6a7A","-1"," ","0","-10","[2061.5]","1","2","","","15775","30","2","4","lose","no-go","0"
"pit-trial","149","1373366","0.0-35.0","battery-v0.2","","""event"",""trial"",""time""
""fullscreenenter"",""1"",""2547""
","
","
","""event"",""trial"",""time""
""fullscreenenter"",""1"",""2547""
","
","","","713.7000000029802","","","12","15775","6250","n","elianto","#f73b6a7A","-1"," ","0","-10","[1563.9000000059605,2604.2000000029802,2828.4000000059605,3027.9000000059605,3140.2000000029802,3220.2000000029802,3308.4000000059605,3420.2000000029802]","8","2","","","15775","31","0","4","lose","no-go","0"
"pit-trial","150","1376253","0.0-36.0","battery-v0.2","","""event"",""trial"",""time""
""fullscreenenter"",""1"",""2547""
","
","
","""event"",""trial"",""time""
""fullscreenenter"",""1"",""2547""
","
","","","34.900000005960464","","","12","15775","6250","b","elianto","#f73b6a7A"," "," ","1","0","[37.5,238.09999999403954,337,437.20000000298023,653.7999999970198,885.2999999970198,942,1070,1142.0999999940395,1286.2000000029802,1470.0999999940395,1654.0999999940395,1854,2045.8999999910593,2334.2000000029802,2494,2709.5999999940395]","17","2","","","15775","32","3","3","lose","go","0"
"pit-trial","151","1379150","0.0-37.0","battery-v0.2","","""event"",""trial"",""time""
""fullscreenenter"",""1"",""2547""
","
","
","""event"",""trial"",""time""
""fullscreenenter"",""1"",""2547""
","
","","","43.599999994039536","","","12","15775","6250","b","elianto","#f73b6a7A"," "," ","1","0","[29.5,270.29999999701977,470.3999999910593,543.2000000029802,686.5,894.2999999970198,1110.7000000029802,1318.5999999940395,1501.7000000029802,1710.5,1894.7000000029802,2102.5999999940395,2374.7000000029802,2589.8999999910593,2798.5]","15","2","","","15775","33","3","3","lose","go","0"
"pit-trial","152","1382551","0.0-38.0","battery-v0.2","","""event"",""trial"",""time""
""fullscreenenter"",""1"",""2547""
","
","
","""event"",""trial"",""time""
""fullscreenenter"",""1"",""2547""
","
","","","547.7999999970198","","","12","15775","6250","n","elianto","#f73b6a7A","-1"," ","0","-10","[117.3999999910593,349.79999999701977,1398.0999999940395]","3","2","","","15775","34","0","4","lose","no-go","0"
"pit-trial","153","1386231","0.0-39.0","battery-v0.2","","""event"",""trial"",""time""
""fullscreenenter"",""1"",""2547""
","
","
","""event"",""trial"",""time""
""fullscreenenter"",""1"",""2547""
","
","","","826.2999999970198","","","12","15775","6250","f","elianto","#3366ff99"," "," ","1","0","[1677]","1","2","","","15775","35","1","1","win","go","1"
"pit-trial","154","1390237","0.0-40.0","battery-v0.2","","""event"",""trial"",""time""
""fullscreenenter"",""1"",""2547""
","
","
","""event"",""trial"",""time""
""fullscreenenter"",""1"",""2547""
","
","","","1153.4000000059605","","","12","15775","6250","t","elianto","#f73b6a7A","-1"," ","0","-10","[2004.5999999940395]","1","2","","","15775","36","2","4","lose","no-go","0"
"pit-trial","155","1394166","0.0-41.0","battery-v0.2","","""event"",""trial"",""time""
""fullscreenenter"",""1"",""2547""
","
","
","""event"",""trial"",""time""
""fullscreenenter"",""1"",""2547""
","
","","","1073.9000000059605","","","12","15775","6250","f","elianto","#3366ff99"," "," ","1","+10","[1925.6000000089407]","1","2","","","15775","37","1","1","win","go","0"
"pit-trial","156","1399020","0.0-42.0","battery-v0.2","","""event"",""trial"",""time""
""fullscreenenter"",""1"",""2547""
","
","
","""event"",""trial"",""time""
""fullscreenenter"",""1"",""2547""
","
","","","-1","","","12","15775","6250","t","elianto","#f73b6a7A","-1","-1","1","0","[]","0","2","","","15775","38","2","4","lose","no-go","0"
"pit-trial","157","1403872","0.0-43.0","battery-v0.2","","""event"",""trial"",""time""
""fullscreenenter"",""1"",""2547""
","
","
","""event"",""trial"",""time""
""fullscreenenter"",""1"",""2547""
","
","","","-1","","","12","15775","6250","b","elianto","#f73b6a7A"," ","-1","0","0","[]","0","2","","","15775","39","3","3","lose","go","1"
"pit-trial","158","1408723","0.0-44.0","battery-v0.2","","""event"",""trial"",""time""
""fullscreenenter"",""1"",""2547""
","
","
","""event"",""trial"",""time""
""fullscreenenter"",""1"",""2547""
","
","","","-1","","","12","15775","6250","n","elianto","#f73b6a7A","-1","-1","1","0","[]","0","2","","","15775","40","0","4","lose","no-go","0"
"pit-trial","159","1413576","0.0-45.0","battery-v0.2","","""event"",""trial"",""time""
""fullscreenenter"",""1"",""2547""
","
","
","""event"",""trial"",""time""
""fullscreenenter"",""1"",""2547""
","
","","","-1","","","12","15775","6250","t","elianto","#f73b6a7A","-1","-1","1","0","[]","0","2","","","15775","41","2","4","lose","no-go","0"
"pit-trial","160","1418430","0.0-46.0","battery-v0.2","","""event"",""trial"",""time""
""fullscreenenter"",""1"",""2547""
","
","
","""event"",""trial"",""time""
""fullscreenenter"",""1"",""2547""
","
","","","-1","","","12","15775","6250","b","elianto","#f73b6a7A"," ","-1","0","-10","[]","0","2","","","15775","42","3","3","lose","go","0"
"pit-trial","161","1423284","0.0-47.0","battery-v0.2","","""event"",""trial"",""time""
""fullscreenenter"",""1"",""2547""
","
","
","""event"",""trial"",""time""
""fullscreenenter"",""1"",""2547""
","
","","","-1","","","12","15775","6250","n","elianto","#f73b6a7A","-1","-1","1","0","[]","0","2","","","15775","43","0","4","lose","no-go","0"
"pit-trial","162","1427014","0.0-48.0","battery-v0.2","","""event"",""trial"",""time""
""fullscreenenter"",""1"",""2547""
","
","
","""event"",""trial"",""time""
""fullscreenenter"",""1"",""2547""
","
","","","878.2999999970198","","","12","15775","6250","f","elianto","#3366ff99"," "," ","1","+10","[1728.2999999970198]","1","2","","","15775","44","1","1","win","go","0"
"pit-trial","163","1431867","0.0-49.0","battery-v0.2","","""event"",""trial"",""time""
""fullscreenenter"",""1"",""2547""
","
","
","""event"",""trial"",""time""
""fullscreenenter"",""1"",""2547""
","
","","","-1","","","12","15775","6250","t","elianto","#f73b6a7A","-1","-1","1","0","[]","0","2","","","15775","45","2","4","lose","no-go","0"
"pit-trial","164","1436720","0.0-50.0","battery-v0.2","","""event"",""trial"",""time""
""fullscreenenter"",""1"",""2547""
","
","
","""event"",""trial"",""time""
""fullscreenenter"",""1"",""2547""
","
","","","-1","","","12","15775","6250","b","elianto","#f73b6a7A"," ","-1","0","-10","[4464.4000000059605]","1","2","","","15775","46","3","3","lose","go","0"
"pit-trial","165","1440254","0.0-51.0","battery-v0.2","","""event"",""trial"",""time""
""fullscreenenter"",""1"",""2547""
","
","
","""event"",""trial"",""time""
""fullscreenenter"",""1"",""2547""
","
","","","681.4000000059605","","","12","15775","6250","c","elianto","#3366ff99","-1"," ","0","+10","[1531.5]","1","2","","","15775","47","4","2","win","no-go","1"
"pit-trial","166","1445108","0.0-52.0","battery-v0.2","","""event"",""trial"",""time""
""fullscreenenter"",""1"",""2547""
","
","
","""event"",""trial"",""time""
""fullscreenenter"",""1"",""2547""
","
","","","-1","","","12","15775","6250","n","elianto","#f73b6a7A","-1","-1","1","0","[]","0","2","","","15775","48","0","4","lose","no-go","0"
"pit-trial","167","1449962","0.0-53.0","battery-v0.2","","""event"",""trial"",""time""
""fullscreenenter"",""1"",""2547""
","
","
","""event"",""trial"",""time""
""fullscreenenter"",""1"",""2547""
","
","","","-1","","","12","15775","6250","n","elianto","#f73b6a7A","-1","-1","1","0","[]","0","2","","","15775","49","0","4","lose","no-go","0"
"pit-trial","168","1453751","0.0-54.0","battery-v0.2","","""event"",""trial"",""time""
""fullscreenenter"",""1"",""2547""
","
","
","""event"",""trial"",""time""
""fullscreenenter"",""1"",""2547""
","
","","","936.1999999880791","","","12","15775","6250","c","elianto","#3366ff99","-1"," ","0","0","[1786.9000000059605]","1","2","","","15775","50","4","2","win","no-go","0"
"pit-trial","169","1458605","0.0-55.0","battery-v0.2","","""event"",""trial"",""time""
""fullscreenenter"",""1"",""2547""
","
","
","""event"",""trial"",""time""
""fullscreenenter"",""1"",""2547""
","
","","","-1","","","12","15775","6250","b","elianto","#f73b6a7A"," ","-1","0","-10","[]","0","2","","","15775","51","3","3","lose","go","0"
"pit-trial","170","1462454","0.0-56.0","battery-v0.2","","""event"",""trial"",""time""
""fullscreenenter"",""1"",""2547""
","
","
","""event"",""trial"",""time""
""fullscreenenter"",""1"",""2547""
","
","","","995.3999999910593","","","12","15775","6250","f","elianto","#3366ff99"," "," ","1","+10","[1846.5]","1","2","","","15775","52","1","1","win","go","0"
"pit-trial","171","1466015","0.0-57.0","battery-v0.2","","""event"",""trial"",""time""
""fullscreenenter"",""1"",""2547""
","
","
","""event"",""trial"",""time""
""fullscreenenter"",""1"",""2547""
","
","","","709.5999999940395","","","12","15775","6250","c","elianto","#3366ff99","-1"," ","0","0","[1559.6000000089407]","1","2","","","15775","53","4","2","win","no-go","0"
"pit-trial","172","1470869","0.0-58.0","battery-v0.2","","""event"",""trial"",""time""
""fullscreenenter"",""1"",""2547""
","
","
","""event"",""trial"",""time""
""fullscreenenter"",""1"",""2547""
","
","","","-1","","","12","15775","6250","n","elianto","#f73b6a7A","-1","-1","1","0","[]","0","2","","","15775","54","0","4","lose","no-go","0"
"pit-trial","173","1475722","0.0-59.0","battery-v0.2","","""event"",""trial"",""time""
""fullscreenenter"",""1"",""2547""
","
","
","""event"",""trial"",""time""
""fullscreenenter"",""1"",""2547""
","
","","","-1","","","12","15775","6250","t","elianto","#f73b6a7A","-1","-1","1","0","[]","0","2","","","15775","55","2","4","lose","no-go","0"
"pit-trial","174","1479943","0.0-60.0","battery-v0.2","","""event"",""trial"",""time""
""fullscreenenter"",""1"",""2547""
","
","
","""event"",""trial"",""time""
""fullscreenenter"",""1"",""2547""
","
","","","1367.7000000029802","","","12","15775","6250","f","elianto","#3366ff99"," "," ","1","+10","[2218.4000000059605]","1","2","","","15775","56","1","1","win","go","0"
"pit-trial","175","1484797","0.0-61.0","battery-v0.2","","""event"",""trial"",""time""
""fullscreenenter"",""1"",""2547""
","
","
","""event"",""trial"",""time""
""fullscreenenter"",""1"",""2547""
","
","","","-1","","","12","15775","6250","b","elianto","#f73b6a7A"," ","-1","0","-10","[]","0","2","","","15775","57","3","3","lose","go","0"
"pit-trial","176","1488526","0.0-62.0","battery-v0.2","","""event"",""trial"",""time""
""fullscreenenter"",""1"",""2547""
","
","
","""event"",""trial"",""time""
""fullscreenenter"",""1"",""2547""
","
","","","875.5","","","12","15775","6250","f","elianto","#3366ff99"," "," ","1","+10","[1726.699999988079]","1","2","","","15775","58","1","1","win","go","0"
"pit-trial","177","1493385","0.0-63.0","battery-v0.2","","""event"",""trial"",""time""
""fullscreenenter"",""1"",""2547""
","
","
","""event"",""trial"",""time""
""fullscreenenter"",""1"",""2547""
","
","","","-1","","","12","15775","6250","c","elianto","#3366ff99","-1","-1","1","+10","[]","0","2","","","15775","59","4","2","win","no-go","0"
"pit-trial","178","1498239","0.0-64.0","battery-v0.2","","""event"",""trial"",""time""
""fullscreenenter"",""1"",""2547""
","
","
","""event"",""trial"",""time""
""fullscreenenter"",""1"",""2547""
","
","","","-1","","","12","15775","6250","n","elianto","#f73b6a7A","-1","-1","1","0","[]","0","2","","","15775","60","0","4","lose","no-go","0"
"pit-trial","179","1503093","0.0-65.0","battery-v0.2","","""event"",""trial"",""time""
""fullscreenenter"",""1"",""2547""
","
","
","""event"",""trial"",""time""
""fullscreenenter"",""1"",""2547""
","
","","","-1","","","12","15775","6250","b","elianto","#f73b6a7A"," ","-1","0","0","[]","0","2","","","15775","61","3","3","lose","go","1"
"pit-trial","180","1506767","0.0-66.0","battery-v0.2","","""event"",""trial"",""time""
""fullscreenenter"",""1"",""2547""
","
","
","""event"",""trial"",""time""
""fullscreenenter"",""1"",""2547""
","
","","","820.2999999970198","","","12","15775","6250","f","elianto","#3366ff99"," "," ","1","+10","[1672.2999999970198]","1","2","","","15775","62","1","1","win","go","0"
"pit-trial","181","1511619","0.0-67.0","battery-v0.2","","""event"",""trial"",""time""
""fullscreenenter"",""1"",""2547""
","
","
","""event"",""trial"",""time""
""fullscreenenter"",""1"",""2547""
","
","","","-1","","","12","15775","6250","t","elianto","#f73b6a7A","-1","-1","1","0","[]","0","2","","","15775","63","2","4","lose","no-go","0"
"pit-trial","182","1516473","0.0-68.0","battery-v0.2","","""event"",""trial"",""time""
""fullscreenenter"",""1"",""2547""
","
","
","""event"",""trial"",""time""
""fullscreenenter"",""1"",""2547""
","
","","","-1","","","12","15775","6250","c","elianto","#3366ff99","-1","-1","1","+10","[]","0","2","","","15775","64","4","2","win","no-go","0"
"pit-trial","183","1520246","0.0-69.0","battery-v0.2","","""event"",""trial"",""time""
""fullscreenenter"",""1"",""2547""
","
","
","""event"",""trial"",""time""
""fullscreenenter"",""1"",""2547""
","
","","","920.5","","","12","15775","6250","t","elianto","#f73b6a7A","-1"," ","0","-10","[1770.7999999970198]","1","2","","","15775","65","2","4","lose","no-go","0"
"pit-trial","184","1525100","0.0-70.0","battery-v0.2","","""event"",""trial"",""time""
""fullscreenenter"",""1"",""2547""
","
","
","""event"",""trial"",""time""
""fullscreenenter"",""1"",""2547""
","
","","","-1","","","12","15775","6250","f","elianto","#3366ff99"," ","-1","0","0","[]","0","2","","","15775","66","1","1","win","go","0"
"pit-trial","185","1529954","0.0-71.0","battery-v0.2","","""event"",""trial"",""time""
""fullscreenenter"",""1"",""2547""
","
","
","""event"",""trial"",""time""
""fullscreenenter"",""1"",""2547""
","
","","","-1","","","12","15775","6250","b","elianto","#f73b6a7A"," ","-1","0","-10","[]","0","2","","","15775","67","3","3","lose","go","0"
"pit-trial","186","1534818","0.0-72.0","battery-v0.2","","""event"",""trial"",""time""
""fullscreenenter"",""1"",""2547""
","
","
","""event"",""trial"",""time""
""fullscreenenter"",""1"",""2547""
","
","","","-1","","","12","15775","6250","c","elianto","#3366ff99","-1","-1","1","+10","[]","0","2","","","15775","68","4","2","win","no-go","0"
"pit-trial","187","1539670","0.0-73.0","battery-v0.2","","""event"",""trial"",""time""
""fullscreenenter"",""1"",""2547""
","
","
","""event"",""trial"",""time""
""fullscreenenter"",""1"",""2547""
","
","","","-1","","","12","15775","6250","c","elianto","#3366ff99","-1","-1","1","+10","[]","0","2","","","15775","69","4","2","win","no-go","0"
"pit-trial","188","1544525","0.0-74.0","battery-v0.2","","""event"",""trial"",""time""
""fullscreenenter"",""1"",""2547""
","
","
","""event"",""trial"",""time""
""fullscreenenter"",""1"",""2547""
","
","","","-1","","","12","15775","6250","z","elianto","#3366ff99"," ","-1","0","+10","[]","0","2","","","15775","70","5","1","win","go","1"
"pit-trial","189","1549377","0.0-75.0","battery-v0.2","","""event"",""trial"",""time""
""fullscreenenter"",""1"",""2547""
","
","
","""event"",""trial"",""time""
""fullscreenenter"",""1"",""2547""
","
","","","-1","","","12","15775","6250","b","elianto","#f73b6a7A"," ","-1","0","-10","[]","0","2","","","15775","71","3","3","lose","go","0"
"pit-trial","190","1553679","0.0-76.0","battery-v0.2","","""event"",""trial"",""time""
""fullscreenenter"",""1"",""2547""
","
","
","""event"",""trial"",""time""
""fullscreenenter"",""1"",""2547""
","
","","","1447.7000000029802","","","12","15775","6250","f","elianto","#3366ff99"," "," ","1","+10","[2298.8999999910593]","1","2","","","15775","72","1","1","win","go","0"
"pit-trial","191","1557566","0.0-77.0","battery-v0.2","","""event"",""trial"",""time""
""fullscreenenter"",""1"",""2547""
","
","
","""event"",""trial"",""time""
""fullscreenenter"",""1"",""2547""
","
","","","1034.7000000029802","","","12","15775","6250","f","elianto","#3366ff99"," "," ","1","+10","[1885.7000000029802]","1","2","","","15775","73","1","1","win","go","0"
"pit-trial","192","1562420","0.0-78.0","battery-v0.2","","""event"",""trial"",""time""
""fullscreenenter"",""1"",""2547""
","
","
","""event"",""trial"",""time""
""fullscreenenter"",""1"",""2547""
","
","","","-1","","","12","15775","6250","c","elianto","#3366ff99","-1","-1","1","+10","[]","0","2","","","15775","74","4","2","win","no-go","0"
"pit-trial","193","1567273","0.0-79.0","battery-v0.2","","""event"",""trial"",""time""
""fullscreenenter"",""1"",""2547""
","
","
","""event"",""trial"",""time""
""fullscreenenter"",""1"",""2547""
","
","","","-1","","","12","15775","6250","z","elianto","#3366ff99"," ","-1","0","0","[]","0","2","","","15775","75","5","1","win","go","0"
"pit-trial","194","1572127","0.0-80.0","battery-v0.2","","""event"",""trial"",""time""
""fullscreenenter"",""1"",""2547""
","
","
","""event"",""trial"",""time""
""fullscreenenter"",""1"",""2547""
","
","","","-1","","","12","15775","6250","b","elianto","#f73b6a7A"," ","-1","0","0","[]","0","2","","","15775","76","3","3","lose","go","1"
"pit-trial","195","1576981","0.0-81.0","battery-v0.2","","""event"",""trial"",""time""
""fullscreenenter"",""1"",""2547""
","
","
","""event"",""trial"",""time""
""fullscreenenter"",""1"",""2547""
","
","","","-1","","","12","15775","6250","b","elianto","#f73b6a7A"," ","-1","0","-10","[]","0","2","","","15775","77","3","3","lose","go","0"
"pit-trial","196","1581845","0.0-82.0","battery-v0.2","","""event"",""trial"",""time""
""fullscreenenter"",""1"",""2547""
","
","
","""event"",""trial"",""time""
""fullscreenenter"",""1"",""2547""
","
","","","-1","","","12","15775","6250","z","elianto","#3366ff99"," ","-1","0","+10","[]","0","2","","","15775","78","5","1","win","go","1"
"pit-trial","197","1586697","0.0-83.0","battery-v0.2","","""event"",""trial"",""time""
""fullscreenenter"",""1"",""2547""
","
","
","""event"",""trial"",""time""
""fullscreenenter"",""1"",""2547""
","
","","","-1","","","12","15775","6250","h","elianto","#f73b6a7A","-1","-1","1","0","[]","0","2","","","15775","79","6","4","lose","no-go","0"
"pit-trial","198","1591550","0.0-84.0","battery-v0.2","","""event"",""trial"",""time""
""fullscreenenter"",""1"",""2547""
","
","
","""event"",""trial"",""time""
""fullscreenenter"",""1"",""2547""
","
","","","-1","","","12","15775","6250","c","elianto","#3366ff99","-1","-1","1","+10","[]","0","2","","","15775","80","4","2","win","no-go","0"
"pit-trial","199","1596403","0.0-85.0","battery-v0.2","","""event"",""trial"",""time""
""fullscreenenter"",""1"",""2547""
","
","
","""event"",""trial"",""time""
""fullscreenenter"",""1"",""2547""
","
","","","-1","","","12","15775","6250","z","elianto","#3366ff99"," ","-1","0","0","[]","0","2","","","15775","81","5","1","win","go","0"
"pit-trial","200","1601256","0.0-86.0","battery-v0.2","","""event"",""trial"",""time""
""fullscreenenter"",""1"",""2547""
","
","
","""event"",""trial"",""time""
""fullscreenenter"",""1"",""2547""
","
","","","-1","","","12","15775","6250","h","elianto","#f73b6a7A","-1","-1","1","0","[]","0","2","","","15775","82","6","4","lose","no-go","0"
"pit-trial","201","1606110","0.0-87.0","battery-v0.2","","""event"",""trial"",""time""
""fullscreenenter"",""1"",""2547""
","
","
","""event"",""trial"",""time""
""fullscreenenter"",""1"",""2547""
","
","","","-1","","","12","15775","6250","c","elianto","#3366ff99","-1","-1","1","0","[]","0","2","","","15775","83","4","2","win","no-go","1"
"pit-trial","202","1610964","0.0-88.0","battery-v0.2","","""event"",""trial"",""time""
""fullscreenenter"",""1"",""2547""
","
","
","""event"",""trial"",""time""
""fullscreenenter"",""1"",""2547""
","
","","","-1","","","12","15775","6250","y","elianto","#f73b6a7A"," ","-1","0","-10","[]","0","2","","","15775","84","7","3","lose","go","0"
"pit-trial","203","1615818","0.0-89.0","battery-v0.2","","""event"",""trial"",""time""
""fullscreenenter"",""1"",""2547""
","
","
","""event"",""trial"",""time""
""fullscreenenter"",""1"",""2547""
","
","","","-1","","","12","15775","6250","z","elianto","#3366ff99"," ","-1","0","0","[]","0","2","","","15775","85","5","1","win","go","0"
"pit-trial","204","1619727","0.0-90.0","battery-v0.2","","""event"",""trial"",""time""
""fullscreenenter"",""1"",""2547""
","
","
","""event"",""trial"",""time""
""fullscreenenter"",""1"",""2547""
","
","","","1056.5999999940395","","","12","15775","6250","y","elianto","#f73b6a7A"," "," ","1","-10","[1906.7999999970198]","1","2","","","15775","86","7","3","lose","go","1"
"pit-trial","205","1624580","0.0-91.0","battery-v0.2","","""event"",""trial"",""time""
""fullscreenenter"",""1"",""2547""
","
","
","""event"",""trial"",""time""
""fullscreenenter"",""1"",""2547""
","
","","","-1","","","12","15775","6250","h","elianto","#f73b6a7A","-1","-1","1","0","[]","0","2","","","15775","87","6","4","lose","no-go","0"
"pit-trial","206","1629434","0.0-92.0","battery-v0.2","","""event"",""trial"",""time""
""fullscreenenter"",""1"",""2547""
","
","
","""event"",""trial"",""time""
""fullscreenenter"",""1"",""2547""
","
","","","-1","","","12","15775","6250","c","elianto","#3366ff99","-1","-1","1","+10","[]","0","2","","","15775","88","4","2","win","no-go","0"
"pit-trial","207","1634287","0.0-93.0","battery-v0.2","","""event"",""trial"",""time""
""fullscreenenter"",""1"",""2547""
","
","
","""event"",""trial"",""time""
""fullscreenenter"",""1"",""2547""
","
","","","-1","","","12","15775","6250","c","elianto","#3366ff99","-1","-1","1","+10","[]","0","2","","","15775","89","4","2","win","no-go","0"
"pit-trial","208","1638384","0.0-94.0","battery-v0.2","","""event"",""trial"",""time""
""fullscreenenter"",""1"",""2547""
","
","
","""event"",""trial"",""time""
""fullscreenenter"",""1"",""2547""
","
","","","1243.5","","","12","15775","6250","z","elianto","#3366ff99"," "," ","1","+10","[2094.2999999970198]","1","2","","","15775","90","5","1","win","go","0"
"pit-trial","209","1643236","0.0-95.0","battery-v0.2","","""event"",""trial"",""time""
""fullscreenenter"",""1"",""2547""
","
","
","""event"",""trial"",""time""
""fullscreenenter"",""1"",""2547""
","
","","","-1","","","12","15775","6250","h","elianto","#f73b6a7A","-1","-1","1","0","[]","0","2","","","15775","91","6","4","lose","no-go","0"
"pit-trial","210","1647159","0.0-96.0","battery-v0.2","","""event"",""trial"",""time""
""fullscreenenter"",""1"",""2547""
","
","
","""event"",""trial"",""time""
""fullscreenenter"",""1"",""2547""
","
","","","1068.6000000089407","","","12","15775","6250","y","elianto","#f73b6a7A"," "," ","1","-10","[1919.800000011921]","1","2","","","15775","92","7","3","lose","go","1"
"pit-trial","211","1651184","0.0-97.0","battery-v0.2","","""event"",""trial"",""time""
""fullscreenenter"",""1"",""2547""
","
","
","""event"",""trial"",""time""
""fullscreenenter"",""1"",""2547""
","
","","","1170.5","","","12","15775","6250","z","elianto","#3366ff99"," "," ","1","+10","[2021.7999999970198]","1","2","","","15775","93","5","1","win","go","0"
"pit-trial","212","1656038","0.0-98.0","battery-v0.2","","""event"",""trial"",""time""
""fullscreenenter"",""1"",""2547""
","
","
","""event"",""trial"",""time""
""fullscreenenter"",""1"",""2547""
","
","","","-1","","","12","15775","6250","h","elianto","#f73b6a7A","-1","-1","1","-10","[]","0","2","","","15775","94","6","4","lose","no-go","1"
"pit-trial","213","1660891","0.0-99.0","battery-v0.2","","""event"",""trial"",""time""
""fullscreenenter"",""1"",""2547""
","
","
","""event"",""trial"",""time""
""fullscreenenter"",""1"",""2547""
","
","","","-1","","","12","15775","6250","y","elianto","#f73b6a7A"," ","-1","0","-10","[]","0","2","","","15775","95","7","3","lose","go","0"
"pit-trial","214","1665745","0.0-100.0","battery-v0.2","","""event"",""trial"",""time""
""fullscreenenter"",""1"",""2547""
","
","
","""event"",""trial"",""time""
""fullscreenenter"",""1"",""2547""
","
","","","-1","","","12","15775","6250","r","elianto","#3366ff99","-1","-1","1","+10","[]","0","2","","","15775","96","8","2","win","no-go","0"
"pit-trial","215","1670598","0.0-101.0","battery-v0.2","","""event"",""trial"",""time""
""fullscreenenter"",""1"",""2547""
","
","
","""event"",""trial"",""time""
""fullscreenenter"",""1"",""2547""
","
","","","-1","","","12","15775","6250","h","elianto","#f73b6a7A","-1","-1","1","0","[]","0","2","","","15775","97","6","4","lose","no-go","0"
"pit-trial","216","1675206","0.0-102.0","battery-v0.2","","""event"",""trial"",""time""
""fullscreenenter"",""1"",""2547""
","
","
","""event"",""trial"",""time""
""fullscreenenter"",""1"",""2547""
","
","","","1755.699999988079","","","12","15775","6250","z","elianto","#3366ff99"," "," ","1","+10","[2605.8999999910593]","1","2","","","15775","98","5","1","win","go","0"
"pit-trial","217","1680059","0.0-103.0","battery-v0.2","","""event"",""trial"",""time""
""fullscreenenter"",""1"",""2547""
","
","
","""event"",""trial"",""time""
""fullscreenenter"",""1"",""2547""
","
","","","-1","","","12","15775","6250","r","elianto","#3366ff99","-1","-1","1","+10","[]","0","2","","","15775","99","8","2","win","no-go","0"
"pit-trial","218","1684913","0.0-104.0","battery-v0.2","","""event"",""trial"",""time""
""fullscreenenter"",""1"",""2547""
","
","
","""event"",""trial"",""time""
""fullscreenenter"",""1"",""2547""
","
","","","-1","","","12","15775","6250","y","elianto","#f73b6a7A"," ","-1","0","-10","[]","0","2","","","15775","100","7","3","lose","go","0"
"pit-trial","219","1689767","0.0-105.0","battery-v0.2","","""event"",""trial"",""time""
""fullscreenenter"",""1"",""2547""
","
","
","""event"",""trial"",""time""
""fullscreenenter"",""1"",""2547""
","
","","","-1","","","12","15775","6250","m","elianto","#3366ff99","-1","-1","1","+10","[]","0","2","","","15775","101","9","2","win","no-go","0"
"pit-trial","220","1694620","0.0-106.0","battery-v0.2","","""event"",""trial"",""time""
""fullscreenenter"",""1"",""2547""
","
","
","""event"",""trial"",""time""
""fullscreenenter"",""1"",""2547""
","
","","","-1","","","12","15775","6250","r","elianto","#3366ff99","-1","-1","1","+10","[]","0","2","","","15775","102","8","2","win","no-go","0"
"pit-trial","221","1699475","0.0-107.0","battery-v0.2","","""event"",""trial"",""time""
""fullscreenenter"",""1"",""2547""
","
","
","""event"",""trial"",""time""
""fullscreenenter"",""1"",""2547""
","
","","","-1","","","12","15775","6250","h","elianto","#f73b6a7A","-1","-1","1","-10","[]","0","2","","","15775","103","6","4","lose","no-go","1"
"pit-trial","222","1703639","0.0-108.0","battery-v0.2","","""event"",""trial"",""time""
""fullscreenenter"",""1"",""2547""
","
","
","""event"",""trial"",""time""
""fullscreenenter"",""1"",""2547""
","
","","","1311.7000000029802","","","12","15775","6250","z","elianto","#3366ff99"," "," ","1","+10","[2161.8999999910593]","1","2","","","15775","104","5","1","win","go","0"
"pit-trial","223","1708294","0.0-109.0","battery-v0.2","","""event"",""trial"",""time""
""fullscreenenter"",""1"",""2547""
","
","
","""event"",""trial"",""time""
""fullscreenenter"",""1"",""2547""
","
","","","1802.2999999970198","","","12","15775","6250","h","elianto","#f73b6a7A","-1"," ","0","-10","[2653.0999999940395]","1","2","","","15775","105","6","4","lose","no-go","0"
"pit-trial","224","1712655","0.0-110.0","battery-v0.2","","""event"",""trial"",""time""
""fullscreenenter"",""1"",""2547""
","
","
","""event"",""trial"",""time""
""fullscreenenter"",""1"",""2547""
","
","","","1507.5","","","12","15775","6250","z","elianto","#3366ff99"," "," ","1","+10","[2357.7999999970198]","1","2","","","15775","106","5","1","win","go","0"
"pit-trial","225","1716614","0.0-111.0","battery-v0.2","","""event"",""trial"",""time""
""fullscreenenter"",""1"",""2547""
","
","
","""event"",""trial"",""time""
""fullscreenenter"",""1"",""2547""
","
","","","1105.7999999970198","","","12","15775","6250","r","elianto","#3366ff99","-1"," ","0","0","[1958.0999999940395,3765.7000000029802]","2","2","","","15775","107","8","2","win","no-go","0"
"pit-trial","226","1719663","0.0-112.0","battery-v0.2","","""event"",""trial"",""time""
""fullscreenenter"",""1"",""2547""
","
","
","""event"",""trial"",""time""
""fullscreenenter"",""1"",""2547""
","
","","","195.19999998807907","","","12","15775","6250","m","elianto","#3366ff99","-1"," ","0","+10","[165.40000000596046,381.40000000596046,781.4000000059605,1045.5999999940395,1301.2999999970198,1541.7999999970198,1765,2013.5,2229,2477.4000000059605,2677.2999999970198,2804.2999999970198,2909.0999999940395,3020.4000000059605]","14","2","","","15775","108","9","2","win","no-go","1"
"pit-trial","227","1722742","0.0-113.0","battery-v0.2","","""event"",""trial"",""time""
""fullscreenenter"",""1"",""2547""
","
","
","""event"",""trial"",""time""
""fullscreenenter"",""1"",""2547""
","
","","","226.29999999701977","","","12","15775","6250","h","elianto","#f73b6a7A","-1"," ","0","-10","[69.1000000089407,205,294.70000000298023,565,813.7000000029802,1077.7000000029802,1190.1000000089407,1319.7000000029802,1534,1766.2999999970198,2029.4000000059605,2326.1000000089407,2406.4000000059605,2542.1000000089407,2806.1000000089407,2974.2000000029802]","16","2","","","15775","109","6","4","lose","no-go","0"
"pit-trial","228","1725799","0.0-114.0","battery-v0.2","","""event"",""trial"",""time""
""fullscreenenter"",""1"",""2547""
","
","
","""event"",""trial"",""time""
""fullscreenenter"",""1"",""2547""
","
","","","203","","","12","15775","6250","z","elianto","#3366ff99"," "," ","1","0","[125.20000000298023,356.90000000596046,597.2000000029802,812.6000000089407,1053.300000011921,1149.2000000029802,1260.800000011921,1341.5,1436.1000000089407,1620.6000000089407,1805.4000000059605,1957.5,2036.5,2285.2000000029802,2477.2000000029802,2717.2000000029802,2957.5]","17","2","","","15775","110","5","1","win","go","1"
"pit-trial","229","1728759","0.0-115.0","battery-v0.2","","""event"",""trial"",""time""
""fullscreenenter"",""1"",""2547""
","
","
","""event"",""trial"",""time""
""fullscreenenter"",""1"",""2547""
","
","","","98.80000001192093","","","12","15775","6250","m","elianto","#3366ff99","-1"," ","0","+10","[124.5,956.6000000089407]","2","2","","","15775","111","9","2","win","no-go","1"
"pit-trial","230","1732095","0.0-116.0","battery-v0.2","","""event"",""trial"",""time""
""fullscreenenter"",""1"",""2547""
","
","
","""event"",""trial"",""time""
""fullscreenenter"",""1"",""2547""
","
","","","482.90000000596046","","","12","15775","6250","r","elianto","#3366ff99","-1"," ","0","+10","[1332.8999999910593]","1","2","","","15775","112","8","2","win","no-go","1"
"pit-trial","231","1735926","0.0-117.0","battery-v0.2","","""event"",""trial"",""time""
""fullscreenenter"",""1"",""2547""
","
","
","""event"",""trial"",""time""
""fullscreenenter"",""1"",""2547""
","
","","","978.5","","","12","15775","6250","y","elianto","#f73b6a7A"," "," ","1","0","[1829]","1","2","","","15775","113","7","3","lose","go","0"
"pit-trial","232","1739399","0.0-118.0","battery-v0.2","","""event"",""trial"",""time""
""fullscreenenter"",""1"",""2547""
","
","
","""event"",""trial"",""time""
""fullscreenenter"",""1"",""2547""
","
","","","619.4000000059605","","","12","15775","6250","m","elianto","#3366ff99","-1"," ","0","+10","[1469.7000000029802]","1","2","","","15775","114","9","2","win","no-go","1"
"pit-trial","233","1742942","0.0-119.0","battery-v0.2","","""event"",""trial"",""time""
""fullscreenenter"",""1"",""2547""
","
","
","""event"",""trial"",""time""
""fullscreenenter"",""1"",""2547""
","
","","","689.9000000059605","","","12","15775","6250","r","elianto","#3366ff99","-1"," ","0","0","[1540.7000000029802]","1","2","","","15775","115","8","2","win","no-go","0"
"pit-trial","234","1746581","0.0-120.0","battery-v0.2","","""event"",""trial"",""time""
""fullscreenenter"",""1"",""2547""
","
","
","""event"",""trial"",""time""
""fullscreenenter"",""1"",""2547""
","
","","","787.1999999880791","","","12","15775","6250","z","elianto","#3366ff99"," "," ","1","+10","[1637.699999988079]","1","2","","","15775","116","5","1","win","go","0"
"pit-trial","235","1751441","0.0-121.0","battery-v0.2","","""event"",""trial"",""time""
""fullscreenenter"",""1"",""2547""
","
","
","""event"",""trial"",""time""
""fullscreenenter"",""1"",""2547""
","
","","","-1","","","12","15775","6250","h","elianto","#f73b6a7A","-1","-1","1","0","[]","0","2","","","15775","117","6","4","lose","no-go","0"
"pit-trial","236","1755071","0.0-122.0","battery-v0.2","","""event"",""trial"",""time""
""fullscreenenter"",""1"",""2547""
","
","
","""event"",""trial"",""time""
""fullscreenenter"",""1"",""2547""
","
","","","776","","","12","15775","6250","r","elianto","#3366ff99","-1"," ","0","0","[1627.7000000029802]","1","2","","","15775","118","8","2","win","no-go","0"
"pit-trial","237","1758982","0.0-123.0","battery-v0.2","","""event"",""trial"",""time""
""fullscreenenter"",""1"",""2547""
","
","
","""event"",""trial"",""time""
""fullscreenenter"",""1"",""2547""
","
","","","1058.7000000029802","","","12","15775","6250","z","elianto","#3366ff99"," "," ","1","+10","[1908.9000000059605]","1","2","","","15775","119","5","1","win","go","0"
"pit-trial","238","1762966","0.0-124.0","battery-v0.2","","""event"",""trial"",""time""
""fullscreenenter"",""1"",""2547""
","
","
","""event"",""trial"",""time""
""fullscreenenter"",""1"",""2547""
","
","","","1129.9000000059605","","","12","15775","6250","m","elianto","#3366ff99","-1"," ","0","+10","[1981.7000000029802]","1","2","","","15775","120","9","2","win","no-go","1"
"pit-trial","239","1767048","0.0-125.0","battery-v0.2","","""event"",""trial"",""time""
""fullscreenenter"",""1"",""2547""
","
","
","""event"",""trial"",""time""
""fullscreenenter"",""1"",""2547""
","
","","","1227.7999999970198","","","12","15775","6250","r","elianto","#3366ff99","-1"," ","0","0","[2077.7000000029802]","1","2","","","15775","121","8","2","win","no-go","0"
"pit-trial","240","1770942","0.0-126.0","battery-v0.2","","""event"",""trial"",""time""
""fullscreenenter"",""1"",""2547""
","
","
","""event"",""trial"",""time""
""fullscreenenter"",""1"",""2547""
","
","","","1040.0999999940395","","","12","15775","6250","z","elianto","#3366ff99"," "," ","1","+10","[1891.0999999940395]","1","2","","","15775","122","5","1","win","go","0"
"pit-trial","241","1774814","0.0-127.0","battery-v0.2","","""event"",""trial"",""time""
""fullscreenenter"",""1"",""2547""
","
","
","""event"",""trial"",""time""
""fullscreenenter"",""1"",""2547""
","
","","","1019.2999999970198","","","12","15775","6250","y","elianto","#f73b6a7A"," "," ","1","0","[1870.0999999940395]","1","2","","","15775","123","7","3","lose","go","0"
"pit-trial","242","1779667","0.0-128.0","battery-v0.2","","""event"",""trial"",""time""
""fullscreenenter"",""1"",""2547""
","
","
","""event"",""trial"",""time""
""fullscreenenter"",""1"",""2547""
","
","","","-1","","","12","15775","6250","m","elianto","#3366ff99","-1","-1","1","0","[]","0","2","","","15775","124","9","2","win","no-go","1"
"pit-trial","243","1784520","0.0-129.0","battery-v0.2","","""event"",""trial"",""time""
""fullscreenenter"",""1"",""2547""
","
","
","""event"",""trial"",""time""
""fullscreenenter"",""1"",""2547""
","
","","","-1","","","12","15775","6250","m","elianto","#3366ff99","-1","-1","1","+10","[3152.3999999910593]","1","2","","","15775","125","9","2","win","no-go","0"
"pit-trial","244","1789373","0.0-130.0","battery-v0.2","","""event"",""trial"",""time""
""fullscreenenter"",""1"",""2547""
","
","
","""event"",""trial"",""time""
""fullscreenenter"",""1"",""2547""
","
","","","-1","","","12","15775","6250","y","elianto","#f73b6a7A"," ","-1","0","-10","[]","0","2","","","15775","126","7","3","lose","go","0"
"pit-trial","245","1794226","0.0-131.0","battery-v0.2","","""event"",""trial"",""time""
""fullscreenenter"",""1"",""2547""
","
","
","""event"",""trial"",""time""
""fullscreenenter"",""1"",""2547""
","
","","","-1","","","12","15775","6250","h","elianto","#f73b6a7A","-1","-1","1","0","[]","0","2","","","15775","127","6","4","lose","no-go","0"
"pit-trial","246","1797854","0.0-132.0","battery-v0.2","","""event"",""trial"",""time""
""fullscreenenter"",""1"",""2547""
","
","
","""event"",""trial"",""time""
""fullscreenenter"",""1"",""2547""
","
","","","774.6000000089407","","","12","15775","6250","r","elianto","#3366ff99","-1"," ","0","+10","[569.9000000059605,1625.4000000059605]","2","2","","","15775","128","8","2","win","no-go","1"
"pit-trial","247","1801758","0.0-133.0","battery-v0.2","","""event"",""trial"",""time""
""fullscreenenter"",""1"",""2547""
","
","
","""event"",""trial"",""time""
""fullscreenenter"",""1"",""2547""
","
","","","1051.9000000059605","","","12","15775","6250","m","elianto","#3366ff99","-1"," ","0","0","[1902.4000000059605,2366.0999999940395]","2","2","","","15775","129","9","2","win","no-go","0"
"pit-trial","248","1805886","0.0-134.0","battery-v0.2","","""event"",""trial"",""time""
""fullscreenenter"",""1"",""2547""
","
","
","""event"",""trial"",""time""
""fullscreenenter"",""1"",""2547""
","
","","","1274.2000000029802","","","12","15775","6250","y","elianto","#f73b6a7A"," "," ","1","-10","[2125.3999999910593]","1","2","","","15775","130","7","3","lose","go","1"
"pit-trial","249","1810740","0.0-135.0","battery-v0.2","","""event"",""trial"",""time""
""fullscreenenter"",""1"",""2547""
","
","
","""event"",""trial"",""time""
""fullscreenenter"",""1"",""2547""
","
","","","-1","","","12","15775","6250","h","elianto","#f73b6a7A","-1","-1","1","0","[]","0","2","","","15775","131","6","4","lose","no-go","0"
"pit-trial","250","1815471","0.0-136.0","battery-v0.2","","""event"",""trial"",""time""
""fullscreenenter"",""1"",""2547""
","
","
","""event"",""trial"",""time""
""fullscreenenter"",""1"",""2547""
","
","","","1878.4000000059605","","","12","15775","6250","r","elianto","#3366ff99","-1"," ","0","0","[2729.2000000029802]","1","2","","","15775","132","8","2","win","no-go","0"
"pit-trial","251","1819538","0.0-137.0","battery-v0.2","","""event"",""trial"",""time""
""fullscreenenter"",""1"",""2547""
","
","
","""event"",""trial"",""time""
""fullscreenenter"",""1"",""2547""
","
","","","1201","","","12","15775","6250","r","elianto","#3366ff99","-1"," ","0","0","[2052.7000000029802]","1","2","","","15775","133","8","2","win","no-go","0"
"pit-trial","252","1823071","0.0-138.0","battery-v0.2","","""event"",""trial"",""time""
""fullscreenenter"",""1"",""2547""
","
","
","""event"",""trial"",""time""
""fullscreenenter"",""1"",""2547""
","
","","","679.2999999970198","","","12","15775","6250","m","elianto","#3366ff99","-1"," ","0","0","[1529.4000000059605]","1","2","","","15775","134","9","2","win","no-go","0"
"pit-trial","253","1826823","0.0-139.0","battery-v0.2","","""event"",""trial"",""time""
""fullscreenenter"",""1"",""2547""
","
","
","""event"",""trial"",""time""
""fullscreenenter"",""1"",""2547""
","
","","","898.9000000059605","","","12","15775","6250","y","elianto","#f73b6a7A"," "," ","1","0","[1748.9000000059605,1972.7999999970198,2180.5,2468.9000000059605,2636.9000000059605,2860.7999999970198,3092.7999999970198,3316.7999999970198,3533]","9","2","","","15775","135","7","3","lose","go","0"
"pit-trial","254","1829735","0.0-140.0","battery-v0.2","","""event"",""trial"",""time""
""fullscreenenter"",""1"",""2547""
","
","
","""event"",""trial"",""time""
""fullscreenenter"",""1"",""2547""
","
","","","59.1000000089407","","","12","15775","6250","h","elianto","#f73b6a7A","-1"," ","0","0","[4.200000002980232,260.5,509,692.7000000029802,909.6000000089407,1132.9000000059605,1348.7999999970198,1556.7000000029802,1860.7999999970198,2309.2999999970198,2541.1000000089407,2756.2000000029802]","12","2","","","15775","136","6","4","lose","no-go","1"
"pit-trial","255","1834589","0.0-141.0","battery-v0.2","","""event"",""trial"",""time""
""fullscreenenter"",""1"",""2547""
","
","
","""event"",""trial"",""time""
""fullscreenenter"",""1"",""2547""
","
","","","-1","","","12","15775","6250","r","elianto","#3366ff99","-1","-1","1","+10","[700.0999999940395]","1","2","","","15775","137","8","2","win","no-go","0"
"pit-trial","256","1839444","0.0-142.0","battery-v0.2","","""event"",""trial"",""time""
""fullscreenenter"",""1"",""2547""
""blur"",""257"",""1844806""
""focus"",""257"",""1844811""
""fullscreenexit"",""257"",""1844815""
","""event"",""trial"",""time""
""blur"",""257"",""1844806""
","""event"",""trial"",""time""
""focus"",""257"",""1844811""
","""event"",""trial"",""time""
""fullscreenenter"",""1"",""2547""
","""event"",""trial"",""time""
""fullscreenexit"",""257"",""1844815""
","","","-1","","","12","15775","6250","y","elianto","#f73b6a7A"," ","-1","0","-10","[]","0","2","","","15775","138","7","3","lose","go","0"
"pit-trial","257","1846810","0.0-143.0","battery-v0.2","","""event"",""trial"",""time""
""fullscreenenter"",""1"",""2547""
""blur"",""257"",""1844806""
""focus"",""257"",""1844811""
""fullscreenexit"",""257"",""1844815""
","""event"",""trial"",""time""
""blur"",""257"",""1844806""
","""event"",""trial"",""time""
""focus"",""257"",""1844811""
","""event"",""trial"",""time""
""fullscreenenter"",""1"",""2547""
","""event"",""trial"",""time""
""fullscreenexit"",""257"",""1844815""
","","","-1","","","12","15775","6250","h","elianto","#f73b6a7A","-1","-1","1","0","[]","0","2","","","15775","139","6","4","lose","no-go","0"
"pit-trial","258","1850646","0.0-144.0","battery-v0.2","","""event"",""trial"",""time""
""fullscreenenter"",""1"",""2547""
""blur"",""257"",""1844806""
""focus"",""257"",""1844811""
""fullscreenexit"",""257"",""1844815""
","""event"",""trial"",""time""
""blur"",""257"",""1844806""
","""event"",""trial"",""time""
""focus"",""257"",""1844811""
","""event"",""trial"",""time""
""fullscreenenter"",""1"",""2547""
","""event"",""trial"",""time""
""fullscreenexit"",""257"",""1844815""
","","","983","","","12","15775","6250","m","elianto","#3366ff99","-1"," ","0","0","[1834]","1","2","","","15775","140","9","2","win","no-go","0"
"pit-instructions","259","2044262","0.0-145.0","battery-v0.2","","""event"",""trial"",""time""
""fullscreenenter"",""1"",""2547""
""blur"",""257"",""1844806""
""focus"",""257"",""1844811""
""fullscreenexit"",""257"",""1844815""
