"trial_type","trial_index","time_elapsed","internal_node_id","task_version","subject_id","interactions","blur_events","focus_events","fullscreenenter_events","fullscreenexit_events","success","view_history","rt","responses","num_errors","age","subject","participantId","rune","rune_set","hex","correct","choice","accuracy","outcome","keys","total_keys","block","practice","value","sub","trial","stimulus","robot","valence","action","sham"
"pavlovia","0","13","0.0-0.0","battery-v0.2","","""event"",""trial"",""time""
""fullscreenenter"",""1"",""2253""
","
","
","""event"",""trial"",""time""
""fullscreenenter"",""1"",""2253""
","
","","","","","","","","","","","","","","","","","","","","","","","","","","",""
"fullscreen","1","3167","0.0-1.0","battery-v0.2","","""event"",""trial"",""time""
""fullscreenenter"",""1"",""2253""
","
","
","""event"",""trial"",""time""
""fullscreenenter"",""1"",""2253""
","
","true","","","","","","","","","","","","","","","","","","","","","","","","","",""
"pit-instructions","2","7313","0.0-2.0-0.0","battery-v0.2","","""event"",""trial"",""time""
""fullscreenenter"",""1"",""2253""
","
","
","""event"",""trial"",""time""
""fullscreenenter"",""1"",""2253""
","
","","[{""page_index"":0,""viewing_time"":4137.700000047684}]","4138.900000095367","","","","","","","","","","","","","","","","","","","","","","","",""
"pit-comprehension","3","10983","0.0-2.0-1.0-0.0","battery-v0.2","","""event"",""trial"",""time""
""fullscreenenter"",""1"",""2253""
","
","
","""event"",""trial"",""time""
""fullscreenenter"",""1"",""2253""
","
","","","3659.7000000476837","[""shark""]","0","20","13490","5931","","","","","","","","","","","","","","","","","","",""
"pit-instructions","4","12799","0.0-2.0-1.0-1.0","battery-v0.2","","""event"",""trial"",""time""
""fullscreenenter"",""1"",""2253""
","
","
","""event"",""trial"",""time""
""fullscreenenter"",""1"",""2253""
","
","","[{""page_index"":0,""viewing_time"":1776.4000000953674}]","1777.4000000953674","","","","","","","","","","","","","","","","","","","","","","","",""
"pit-comprehension","5","15539","0.0-2.0-2.0-0.0","battery-v0.2","","""event"",""trial"",""time""
""fullscreenenter"",""1"",""2253""
","
","
","""event"",""trial"",""time""
""fullscreenenter"",""1"",""2253""
","
","","","2731.600000023842","[""tiger""]","0","20","13490","5931","","","","","","","","","","","","","","","","","","",""
"pit-instructions","6","16327","0.0-2.0-2.0-1.0","battery-v0.2","","""event"",""trial"",""time""
""fullscreenenter"",""1"",""2253""
","
","
","""event"",""trial"",""time""
""fullscreenenter"",""1"",""2253""
","
","","[{""page_index"":0,""viewing_time"":779.1000000238419}]","780","","","","","","","","","","","","","","","","","","","","","","","",""
"pit-instructions","7","117340","0.0-2.0-3.0","battery-v0.2","","""event"",""trial"",""time""
""fullscreenenter"",""1"",""2253""
","
","
","""event"",""trial"",""time""
""fullscreenenter"",""1"",""2253""
","
","","[{""page_index"":0,""viewing_time"":9128.899999976158},{""page_index"":1,""viewing_time"":7277.800000071526},{""page_index"":2,""viewing_time"":6557.799999952316},{""page_index"":3,""viewing_time"":5657.899999976158},{""page_index"":4,""viewing_time"":6261.300000071526},{""page_index"":5,""viewing_time"":5828.299999952316},{""page_index"":6,""viewing_time"":7360.200000047684},{""page_index"":7,""viewing_time"":7095.5},{""page_index"":8,""viewing_time"":7287.299999952316},{""page_index"":9,""viewing_time"":9183.399999976158},{""page_index"":10,""viewing_time"":7798.5},{""page_index"":11,""viewing_time"":7680.899999976158},{""page_index"":12,""viewing_time"":7378.300000071526},{""page_index"":13,""viewing_time"":6508.199999928474}]","101005.39999997616","","","","","","","","","","","","","","","","","","","","","","","",""
"pit-trial","8","120773","0.0-2.0-4.0-0.0","battery-v0.2","","""event"",""trial"",""time""
""fullscreenenter"",""1"",""2253""
","
","
","""event"",""trial"",""time""
""fullscreenenter"",""1"",""2253""
","
","","","570.1000000238419","","","20","13490","5931","&#9784;","elianto","#FFFFF080"," "," ","1","&#10004","[1422.3000000715256]","1","0","0","","","","","","","",""
"pit-trial","9","124193","0.0-2.0-4.1-0.1","battery-v0.2","","""event"",""trial"",""time""
""fullscreenenter"",""1"",""2253""
","
","
","""event"",""trial"",""time""
""fullscreenenter"",""1"",""2253""
","
","","","548.2999999523163","","","20","13490","5931","&#9784;","elianto","#FFFFF080"," "," ","1","&#10004","[1409.4000000953674]","1","0","0","","","","","","","",""
"pit-trial","10","127575","0.0-2.0-4.2-0.2","battery-v0.2","","""event"",""trial"",""time""
""fullscreenenter"",""1"",""2253""
","
","
","""event"",""trial"",""time""
""fullscreenenter"",""1"",""2253""
","
","","","516.7000000476837","","","20","13490","5931","&#9784;","elianto","#FFFFF080"," "," ","1","&#10004","[1370.2999999523163]","1","0","0","","","","","","","",""
"pit-trial","11","131014","0.0-2.0-4.3-0.3","battery-v0.2","","""event"",""trial"",""time""
""fullscreenenter"",""1"",""2253""
","
","
","""event"",""trial"",""time""
""fullscreenenter"",""1"",""2253""
","
","","","566.3999999761581","","","20","13490","5931","&#9784;","elianto","#FFFFF080"," "," ","1","&#10004","[1421]","1","0","0","","","","","","","",""
"pit-trial","12","134384","0.0-2.0-4.4-0.4","battery-v0.2","","""event"",""trial"",""time""
""fullscreenenter"",""1"",""2253""
","
","
","""event"",""trial"",""time""
""fullscreenenter"",""1"",""2253""
","
","","","509.7000000476837","","","20","13490","5931","&#9784;","elianto","#FFFFF080"," "," ","1","&#10004","[1361.3999999761581]","1","0","0","","","","","","","",""
"pit-instructions","13","155861","0.0-2.0-5.0","battery-v0.2","","""event"",""trial"",""time""
""fullscreenenter"",""1"",""2253""
","
","
","""event"",""trial"",""time""
""fullscreenenter"",""1"",""2253""
","
","","[{""page_index"":0,""viewing_time"":5063.699999928474},{""page_index"":1,""viewing_time"":5720.5},{""page_index"":2,""viewing_time"":5185.700000047684},{""page_index"":3,""viewing_time"":5502.100000023842}]","21473","","","","","","","","","","","","","","","","","","","","","","","",""
"pit-trial","14","160739","0.0-2.0-6.0-0.0","battery-v0.2","","""event"",""trial"",""time""
""fullscreenenter"",""1"",""2253""
","
","
","""event"",""trial"",""time""
""fullscreenenter"",""1"",""2253""
","
","","","-1","","","20","13490","5931","&#9854;","elianto","#FFFFF080","-1","-1","1","&#10004","[]","0","0","1","","","","","","","",""
"pit-trial","15","165621","0.0-2.0-6.1-0.1","battery-v0.2","","""event"",""trial"",""time""
""fullscreenenter"",""1"",""2253""
","
","
","""event"",""trial"",""time""
""fullscreenenter"",""1"",""2253""
","
","","","-1","","","20","13490","5931","&#9854;","elianto","#FFFFF080","-1","-1","1","&#10004","[]","0","0","1","","","","","","","",""
"pit-trial","16","170500","0.0-2.0-6.2-0.2","battery-v0.2","","""event"",""trial"",""time""
""fullscreenenter"",""1"",""2253""
","
","
","""event"",""trial"",""time""
""fullscreenenter"",""1"",""2253""
","
","","","-1","","","20","13490","5931","&#9854;","elianto","#FFFFF080","-1","-1","1","&#10004","[]","0","0","1","","","","","","","",""
"pit-trial","17","175360","0.0-2.0-6.3-0.3","battery-v0.2","","""event"",""trial"",""time""
""fullscreenenter"",""1"",""2253""
","
","
","""event"",""trial"",""time""
""fullscreenenter"",""1"",""2253""
","
","","","-1","","","20","13490","5931","&#9854;","elianto","#FFFFF080","-1","-1","1","&#10004","[]","0","0","1","","","","","","","",""
"pit-trial","18","180216","0.0-2.0-6.4-0.4","battery-v0.2","","""event"",""trial"",""time""
""fullscreenenter"",""1"",""2253""
","
","
","""event"",""trial"",""time""
""fullscreenenter"",""1"",""2253""
","
","","","-1","","","20","13490","5931","&#9854;","elianto","#FFFFF080","-1","-1","1","&#10004","[]","0","0","1","","","","","","","",""
"pit-instructions","19","304271","0.0-2.0-7.0","battery-v0.2","","""event"",""trial"",""time""
""fullscreenenter"",""1"",""2253""
","
","
","""event"",""trial"",""time""
""fullscreenenter"",""1"",""2253""
","
","","[{""page_index"":0,""viewing_time"":5667.699999928474},{""page_index"":1,""viewing_time"":6846.200000047684},{""page_index"":2,""viewing_time"":6726},{""page_index"":3,""viewing_time"":6730.5},{""page_index"":4,""viewing_time"":5763.799999952316},{""page_index"":5,""viewing_time"":5743.300000071526},{""page_index"":6,""viewing_time"":5772.5},{""page_index"":7,""viewing_time"":9405.699999928474},{""page_index"":8,""viewing_time"":7699.900000095367},{""page_index"":9,""viewing_time"":6839.899999976158},{""page_index"":10,""viewing_time"":7327.199999928474},{""page_index"":11,""viewing_time"":4805.400000095367},{""page_index"":12,""viewing_time"":7346.899999976158},{""page_index"":13,""viewing_time"":7183.600000023842},{""page_index"":14,""viewing_time"":7183},{""page_index"":15,""viewing_time"":7291.599999904633},{""page_index"":16,""viewing_time"":8279.800000071526},{""page_index"":17,""viewing_time"":7436.399999976158}]","124050.19999992847","","","","","","","","","","","","","","","","","","","","","","","",""
"pit-trial","20","307730","0.0-2.0-8.0-0.0","battery-v0.2","","""event"",""trial"",""time""
""fullscreenenter"",""1"",""2253""
","
","
","""event"",""trial"",""time""
""fullscreenenter"",""1"",""2253""
","
","","","586.7000000476837","","","20","13490","5931","&#9776;","elianto","#3366ff99"," "," ","1","+10","[1444]","1","0","1","","","","","","","",""
"pit-trial","21","310999","0.0-2.0-8.0-1.0","battery-v0.2","","""event"",""trial"",""time""
""fullscreenenter"",""1"",""2253""
","
","
","""event"",""trial"",""time""
""fullscreenenter"",""1"",""2253""
","
","","","402.5","","","20","13490","5931","&#9776;","elianto","#3366ff99"," "," ","1","+10","[1254.4000000953674]","1","0","1","","","","","","","",""
"pit-trial","22","314276","0.0-2.0-8.0-2.0","battery-v0.2","","""event"",""trial"",""time""
""fullscreenenter"",""1"",""2253""
","
","
","""event"",""trial"",""time""
""fullscreenenter"",""1"",""2253""
","
","","","412","","","20","13490","5931","&#9776;","elianto","#3366ff99"," "," ","1","+10","[1268.2999999523163]","1","0","1","","","","","","","",""
"pit-trial","23","317565","0.0-2.0-8.0-3.0","battery-v0.2","","""event"",""trial"",""time""
""fullscreenenter"",""1"",""2253""
","
","
","""event"",""trial"",""time""
""fullscreenenter"",""1"",""2253""
","
","","","426.5","","","20","13490","5931","&#9776;","elianto","#3366ff99"," "," ","1","0","[1282.5]","1","0","1","","","","","","","",""
"pit-trial","24","320833","0.0-2.0-8.0-4.0","battery-v0.2","","""event"",""trial"",""time""
""fullscreenenter"",""1"",""2253""
","
","
","""event"",""trial"",""time""
""fullscreenenter"",""1"",""2253""
","
","","","409.40000009536743","","","20","13490","5931","&#9776;","elianto","#3366ff99"," "," ","1","+10","[1259.7000000476837]","1","0","1","","","","","","","",""
"pit-trial","25","324119","0.0-2.0-8.1-0.1","battery-v0.2","","""event"",""trial"",""time""
""fullscreenenter"",""1"",""2253""
","
","
","""event"",""trial"",""time""
""fullscreenenter"",""1"",""2253""
","
","","","424.5","","","20","13490","5931","&#9776;","elianto","#3366ff99"," "," ","1","+10","[1277.1999999284744]","1","0","1","","","","","","","",""
"pit-trial","26","327466","0.0-2.0-8.1-1.1","battery-v0.2","","""event"",""trial"",""time""
""fullscreenenter"",""1"",""2253""
","
","
","""event"",""trial"",""time""
""fullscreenenter"",""1"",""2253""
","
","","","481","","","20","13490","5931","&#9776;","elianto","#3366ff99"," "," ","1","+10","[1336.7999999523163]","1","0","1","","","","","","","",""
"pit-trial","27","330968","0.0-2.0-8.1-2.1","battery-v0.2","","""event"",""trial"",""time""
""fullscreenenter"",""1"",""2253""
","
","
","""event"",""trial"",""time""
""fullscreenenter"",""1"",""2253""
","
","","","645.4000000953674","","","20","13490","5931","&#9776;","elianto","#3366ff99"," "," ","1","+10","[1498.5]","1","0","1","","","","","","","",""
"pit-trial","28","334419","0.0-2.0-8.1-3.1","battery-v0.2","","""event"",""trial"",""time""
""fullscreenenter"",""1"",""2253""
","
","
","""event"",""trial"",""time""
""fullscreenenter"",""1"",""2253""
","
","","","597.3999999761581","","","20","13490","5931","&#9776;","elianto","#3366ff99"," "," ","1","0","[1447.2999999523163]","1","0","1","","","","","","","",""
"pit-trial","29","337863","0.0-2.0-8.1-4.1","battery-v0.2","","""event"",""trial"",""time""
""fullscreenenter"",""1"",""2253""
","
","
","""event"",""trial"",""time""
""fullscreenenter"",""1"",""2253""
","
","","","588.3000000715256","","","20","13490","5931","&#9776;","elianto","#3366ff99"," "," ","1","+10","[1438.8999999761581]","1","0","1","","","","","","","",""
"pit-trial","30","341151","0.0-2.0-8.2-0.2","battery-v0.2","","""event"",""trial"",""time""
""fullscreenenter"",""1"",""2253""
","
","
","""event"",""trial"",""time""
""fullscreenenter"",""1"",""2253""
","
","","","432","","","20","13490","5931","&#9776;","elianto","#3366ff99"," "," ","1","+10","[1282.5]","1","0","1","","","","","","","",""
"pit-trial","31","344334","0.0-2.0-8.2-1.2","battery-v0.2","","""event"",""trial"",""time""
""fullscreenenter"",""1"",""2253""
","
","
","""event"",""trial"",""time""
""fullscreenenter"",""1"",""2253""
","
","","","328.6999999284744","","","20","13490","5931","&#9776;","elianto","#3366ff99"," "," ","1","+10","[1179]","1","0","1","","","","","","","",""
"pit-trial","32","347538","0.0-2.0-8.2-2.2","battery-v0.2","","""event"",""trial"",""time""
""fullscreenenter"",""1"",""2253""
","
","
","""event"",""trial"",""time""
""fullscreenenter"",""1"",""2253""
","
","","","350.10000002384186","","","20","13490","5931","&#9776;","elianto","#3366ff99"," "," ","1","+10","[1200.6999999284744]","1","0","1","","","","","","","",""
"pit-trial","33","350590","0.0-2.0-8.2-3.2","battery-v0.2","","""event"",""trial"",""time""
""fullscreenenter"",""1"",""2253""
","
","
","""event"",""trial"",""time""
""fullscreenenter"",""1"",""2253""
","
","","","198.59999990463257","","","20","13490","5931","&#9776;","elianto","#3366ff99"," "," ","1","0","[1048.6999999284744]","1","0","1","","","","","","","",""
"pit-trial","34","353672","0.0-2.0-8.2-4.2","battery-v0.2","","""event"",""trial"",""time""
""fullscreenenter"",""1"",""2253""
","
","
","""event"",""trial"",""time""
""fullscreenenter"",""1"",""2253""
","
","","","227.10000002384186","","","20","13490","5931","&#9776;","elianto","#3366ff99"," "," ","1","+10","[1077.7000000476837]","1","0","1","","","","","","","",""
"call-function","35","353675","0.0-2.0-9.0","battery-v0.2","","""event"",""trial"",""time""
""fullscreenenter"",""1"",""2253""
","
","
","""event"",""trial"",""time""
""fullscreenenter"",""1"",""2253""
","
","","","","","","","","","","","","","","","","","","","","","","","","","","",""
"pit-instructions","36","394725","0.0-2.0-10.0","battery-v0.2","","""event"",""trial"",""time""
""fullscreenenter"",""1"",""2253""
","
","
","""event"",""trial"",""time""
""fullscreenenter"",""1"",""2253""
","
","","[{""page_index"":0,""viewing_time"":6378.600000023842},{""page_index"":1,""viewing_time"":7620},{""page_index"":2,""viewing_time"":9627.199999928474},{""page_index"":3,""viewing_time"":9591.200000047684},{""page_index"":4,""viewing_time"":7830.100000023842}]","41048.299999952316","","","","","","","","","","","","","","","","","","","","","","","",""
"pit-trial","37","399593","0.0-2.0-11.0-0.0","battery-v0.2","","""event"",""trial"",""time""
""fullscreenenter"",""1"",""2253""
","
","
","""event"",""trial"",""time""
""fullscreenenter"",""1"",""2253""
","
","","","-1","","","20","13490","5931","&#9761;","elianto","#3366ff99","-1","-1","1","+10","[]","0","0","2","","","","","","","",""
"pit-trial","38","404464","0.0-2.0-11.0-1.0","battery-v0.2","","""event"",""trial"",""time""
""fullscreenenter"",""1"",""2253""
","
","
","""event"",""trial"",""time""
""fullscreenenter"",""1"",""2253""
","
","","","-1","","","20","13490","5931","&#9761;","elianto","#3366ff99","-1","-1","1","+10","[]","0","0","2","","","","","","","",""
"pit-trial","39","409337","0.0-2.0-11.0-2.0","battery-v0.2","","""event"",""trial"",""time""
""fullscreenenter"",""1"",""2253""
","
","
","""event"",""trial"",""time""
""fullscreenenter"",""1"",""2253""
","
","","","-1","","","20","13490","5931","&#9761;","elianto","#3366ff99","-1","-1","1","+10","[]","0","0","2","","","","","","","",""
"pit-trial","40","414212","0.0-2.0-11.0-3.0","battery-v0.2","","""event"",""trial"",""time""
""fullscreenenter"",""1"",""2253""
","
","
","""event"",""trial"",""time""
""fullscreenenter"",""1"",""2253""
","
","","","-1","","","20","13490","5931","&#9761;","elianto","#3366ff99","-1","-1","1","0","[]","0","0","2","","","","","","","",""
"pit-trial","41","419089","0.0-2.0-11.0-4.0","battery-v0.2","","""event"",""trial"",""time""
""fullscreenenter"",""1"",""2253""
","
","
","""event"",""trial"",""time""
""fullscreenenter"",""1"",""2253""
","
","","","-1","","","20","13490","5931","&#9761;","elianto","#3366ff99","-1","-1","1","+10","[]","0","0","2","","","","","","","",""
"pit-trial","42","423959","0.0-2.0-11.1-0.1","battery-v0.2","","""event"",""trial"",""time""
""fullscreenenter"",""1"",""2253""
","
","
","""event"",""trial"",""time""
""fullscreenenter"",""1"",""2253""
","
","","","-1","","","20","13490","5931","&#9761;","elianto","#3366ff99","-1","-1","1","+10","[]","0","0","2","","","","","","","",""
"pit-trial","43","428815","0.0-2.0-11.1-1.1","battery-v0.2","","""event"",""trial"",""time""
""fullscreenenter"",""1"",""2253""
","
","
","""event"",""trial"",""time""
""fullscreenenter"",""1"",""2253""
","
","","","-1","","","20","13490","5931","&#9761;","elianto","#3366ff99","-1","-1","1","+10","[]","0","0","2","","","","","","","",""
"pit-trial","44","433669","0.0-2.0-11.1-2.1","battery-v0.2","","""event"",""trial"",""time""
""fullscreenenter"",""1"",""2253""
","
","
","""event"",""trial"",""time""
""fullscreenenter"",""1"",""2253""
","
","","","-1","","","20","13490","5931","&#9761;","elianto","#3366ff99","-1","-1","1","+10","[]","0","0","2","","","","","","","",""
"pit-trial","45","438524","0.0-2.0-11.1-3.1","battery-v0.2","","""event"",""trial"",""time""
""fullscreenenter"",""1"",""2253""
","
","
","""event"",""trial"",""time""
""fullscreenenter"",""1"",""2253""
","
","","","-1","","","20","13490","5931","&#9761;","elianto","#3366ff99","-1","-1","1","0","[]","0","0","2","","","","","","","",""
"pit-trial","46","443379","0.0-2.0-11.1-4.1","battery-v0.2","","""event"",""trial"",""time""
""fullscreenenter"",""1"",""2253""
","
","
","""event"",""trial"",""time""
""fullscreenenter"",""1"",""2253""
","
","","","-1","","","20","13490","5931","&#9761;","elianto","#3366ff99","-1","-1","1","+10","[]","0","0","2","","","","","","","",""
"pit-trial","47","448235","0.0-2.0-11.2-0.2","battery-v0.2","","""event"",""trial"",""time""
""fullscreenenter"",""1"",""2253""
","
","
","""event"",""trial"",""time""
""fullscreenenter"",""1"",""2253""
","
","","","-1","","","20","13490","5931","&#9761;","elianto","#3366ff99","-1","-1","1","+10","[]","0","0","2","","","","","","","",""
"pit-trial","48","453089","0.0-2.0-11.2-1.2","battery-v0.2","","""event"",""trial"",""time""
""fullscreenenter"",""1"",""2253""
","
","
","""event"",""trial"",""time""
""fullscreenenter"",""1"",""2253""
","
","","","-1","","","20","13490","5931","&#9761;","elianto","#3366ff99","-1","-1","1","+10","[]","0","0","2","","","","","","","",""
"pit-trial","49","457943","0.0-2.0-11.2-2.2","battery-v0.2","","""event"",""trial"",""time""
""fullscreenenter"",""1"",""2253""
","
","
","""event"",""trial"",""time""
""fullscreenenter"",""1"",""2253""
","
","","","-1","","","20","13490","5931","&#9761;","elianto","#3366ff99","-1","-1","1","+10","[]","0","0","2","","","","","","","",""
"pit-trial","50","462799","0.0-2.0-11.2-3.2","battery-v0.2","","""event"",""trial"",""time""
""fullscreenenter"",""1"",""2253""
","
","
","""event"",""trial"",""time""
""fullscreenenter"",""1"",""2253""
","
","","","-1","","","20","13490","5931","&#9761;","elianto","#3366ff99","-1","-1","1","0","[]","0","0","2","","","","","","","",""
"pit-trial","51","467654","0.0-2.0-11.2-4.2","battery-v0.2","","""event"",""trial"",""time""
""fullscreenenter"",""1"",""2253""
","
","
","""event"",""trial"",""time""
""fullscreenenter"",""1"",""2253""
","
","","","-1","","","20","13490","5931","&#9761;","elianto","#3366ff99","-1","-1","1","+10","[]","0","0","2","","","","","","","",""
"pit-trial","52","472510","0.0-2.0-11.3-0.3","battery-v0.2","","""event"",""trial"",""time""
""fullscreenenter"",""1"",""2253""
","
","
","""event"",""trial"",""time""
""fullscreenenter"",""1"",""2253""
","
","","","-1","","","20","13490","5931","&#9761;","elianto","#3366ff99","-1","-1","1","+10","[]","0","0","2","","","","","","","",""
"pit-trial","53","477365","0.0-2.0-11.3-1.3","battery-v0.2","","""event"",""trial"",""time""
""fullscreenenter"",""1"",""2253""
","
","
","""event"",""trial"",""time""
""fullscreenenter"",""1"",""2253""
","
","","","-1","","","20","13490","5931","&#9761;","elianto","#3366ff99","-1","-1","1","+10","[]","0","0","2","","","","","","","",""
"pit-trial","54","482220","0.0-2.0-11.3-2.3","battery-v0.2","","""event"",""trial"",""time""
""fullscreenenter"",""1"",""2253""
","
","
","""event"",""trial"",""time""
""fullscreenenter"",""1"",""2253""
","
","","","-1","","","20","13490","5931","&#9761;","elianto","#3366ff99","-1","-1","1","+10","[]","0","0","2","","","","","","","",""
"pit-trial","55","487077","0.0-2.0-11.3-3.3","battery-v0.2","","""event"",""trial"",""time""
""fullscreenenter"",""1"",""2253""
","
","
","""event"",""trial"",""time""
""fullscreenenter"",""1"",""2253""
","
","","","-1","","","20","13490","5931","&#9761;","elianto","#3366ff99","-1","-1","1","0","[]","0","0","2","","","","","","","",""
"pit-trial","56","491932","0.0-2.0-11.3-4.3","battery-v0.2","","""event"",""trial"",""time""
""fullscreenenter"",""1"",""2253""
","
","
","""event"",""trial"",""time""
""fullscreenenter"",""1"",""2253""
","
","","","-1","","","20","13490","5931","&#9761;","elianto","#3366ff99","-1","-1","1","+10","[]","0","0","2","","","","","","","",""
"call-function","57","491935","0.0-2.0-12.0","battery-v0.2","","""event"",""trial"",""time""
""fullscreenenter"",""1"",""2253""
","
","
","""event"",""trial"",""time""
""fullscreenenter"",""1"",""2253""
","
","","","","","","","","","","","","","","","","","","","","","","","","","","",""
"pit-instructions","58","524062","0.0-2.0-13.0","battery-v0.2","","""event"",""trial"",""time""
""fullscreenenter"",""1"",""2253""
","
","
","""event"",""trial"",""time""
""fullscreenenter"",""1"",""2253""
","
","","[{""page_index"":0,""viewing_time"":5632.800000071526},{""page_index"":1,""viewing_time"":7481.399999976158},{""page_index"":2,""viewing_time"":3498.1999999284744},{""page_index"":3,""viewing_time"":10382.100000023842},{""page_index"":4,""viewing_time"":5130}]","32125.5","","","","","","","","","","","","","","","","","","","","","","","",""
"pit-trial","59","527357","0.0-2.0-14.0-0.0","battery-v0.2","","""event"",""trial"",""time""
""fullscreenenter"",""1"",""2253""
","
","
","""event"",""trial"",""time""
""fullscreenenter"",""1"",""2253""
","
","","","431.2000000476837","","","20","13490","5931","&#9826;","elianto","#f73b6a7A","-1"," ","0","-10","[1281.8999999761581]","1","0","3","","","","","","","",""
"pit-trial","60","532223","0.0-2.0-14.0-1.0","battery-v0.2","","""event"",""trial"",""time""
""fullscreenenter"",""1"",""2253""
","
","
","""event"",""trial"",""time""
""fullscreenenter"",""1"",""2253""
","
","","","-1","","","20","13490","5931","&#9826;","elianto","#f73b6a7A","-1","-1","1","0","[]","0","0","3","","","","","","","",""
"pit-trial","61","537078","0.0-2.0-14.0-2.0","battery-v0.2","","""event"",""trial"",""time""
""fullscreenenter"",""1"",""2253""
","
","
","""event"",""trial"",""time""
""fullscreenenter"",""1"",""2253""
","
","","","-1","","","20","13490","5931","&#9826;","elianto","#f73b6a7A","-1","-1","1","0","[]","0","0","3","","","","","","","",""
"pit-trial","62","541949","0.0-2.0-14.0-3.0","battery-v0.2","","""event"",""trial"",""time""
""fullscreenenter"",""1"",""2253""
","
","
","""event"",""trial"",""time""
""fullscreenenter"",""1"",""2253""
","
","","","-1","","","20","13490","5931","&#9826;","elianto","#f73b6a7A","-1","-1","1","-10","[]","0","0","3","","","","","","","",""
"pit-trial","63","546817","0.0-2.0-14.0-4.0","battery-v0.2","","""event"",""trial"",""time""
""fullscreenenter"",""1"",""2253""
","
","
","""event"",""trial"",""time""
""fullscreenenter"",""1"",""2253""
","
","","","-1","","","20","13490","5931","&#9826;","elianto","#f73b6a7A","-1","-1","1","0","[]","0","0","3","","","","","","","",""
"pit-trial","64","551696","0.0-2.0-14.1-0.1","battery-v0.2","","""event"",""trial"",""time""
""fullscreenenter"",""1"",""2253""
","
","
","""event"",""trial"",""time""
""fullscreenenter"",""1"",""2253""
","
","","","-1","","","20","13490","5931","&#9826;","elianto","#f73b6a7A","-1","-1","1","0","[]","0","0","3","","","","","","","",""
"pit-trial","65","556551","0.0-2.0-14.1-1.1","battery-v0.2","","""event"",""trial"",""time""
""fullscreenenter"",""1"",""2253""
","
","
","""event"",""trial"",""time""
""fullscreenenter"",""1"",""2253""
","
","","","-1","","","20","13490","5931","&#9826;","elianto","#f73b6a7A","-1","-1","1","0","[]","0","0","3","","","","","","","",""
"pit-trial","66","561406","0.0-2.0-14.1-2.1","battery-v0.2","","""event"",""trial"",""time""
""fullscreenenter"",""1"",""2253""
","
","
","""event"",""trial"",""time""
""fullscreenenter"",""1"",""2253""
","
","","","-1","","","20","13490","5931","&#9826;","elianto","#f73b6a7A","-1","-1","1","0","[]","0","0","3","","","","","","","",""
"pit-trial","67","566260","0.0-2.0-14.1-3.1","battery-v0.2","","""event"",""trial"",""time""
""fullscreenenter"",""1"",""2253""
","
","
","""event"",""trial"",""time""
""fullscreenenter"",""1"",""2253""
","
","","","-1","","","20","13490","5931","&#9826;","elianto","#f73b6a7A","-1","-1","1","-10","[]","0","0","3","","","","","","","",""
"pit-trial","68","571117","0.0-2.0-14.1-4.1","battery-v0.2","","""event"",""trial"",""time""
""fullscreenenter"",""1"",""2253""
","
","
","""event"",""trial"",""time""
""fullscreenenter"",""1"",""2253""
","
","","","-1","","","20","13490","5931","&#9826;","elianto","#f73b6a7A","-1","-1","1","0","[]","0","0","3","","","","","","","",""
"pit-trial","69","575972","0.0-2.0-14.2-0.2","battery-v0.2","","""event"",""trial"",""time""
""fullscreenenter"",""1"",""2253""
","
","
","""event"",""trial"",""time""
""fullscreenenter"",""1"",""2253""
","
","","","-1","","","20","13490","5931","&#9826;","elianto","#f73b6a7A","-1","-1","1","0","[]","0","0","3","","","","","","","",""
"pit-trial","70","580827","0.0-2.0-14.2-1.2","battery-v0.2","","""event"",""trial"",""time""
""fullscreenenter"",""1"",""2253""
","
","
","""event"",""trial"",""time""
""fullscreenenter"",""1"",""2253""
","
","","","-1","","","20","13490","5931","&#9826;","elianto","#f73b6a7A","-1","-1","1","0","[]","0","0","3","","","","","","","",""
"pit-trial","71","585682","0.0-2.0-14.2-2.2","battery-v0.2","","""event"",""trial"",""time""
""fullscreenenter"",""1"",""2253""
","
","
","""event"",""trial"",""time""
""fullscreenenter"",""1"",""2253""
","
","","","-1","","","20","13490","5931","&#9826;","elianto","#f73b6a7A","-1","-1","1","0","[]","0","0","3","","","","","","","",""
"pit-trial","72","590536","0.0-2.0-14.2-3.2","battery-v0.2","","""event"",""trial"",""time""
""fullscreenenter"",""1"",""2253""
","
","
","""event"",""trial"",""time""
""fullscreenenter"",""1"",""2253""
","
","","","-1","","","20","13490","5931","&#9826;","elianto","#f73b6a7A","-1","-1","1","-10","[]","0","0","3","","","","","","","",""
"pit-trial","73","595392","0.0-2.0-14.2-4.2","battery-v0.2","","""event"",""trial"",""time""
""fullscreenenter"",""1"",""2253""
","
","
","""event"",""trial"",""time""
""fullscreenenter"",""1"",""2253""
","
","","","-1","","","20","13490","5931","&#9826;","elianto","#f73b6a7A","-1","-1","1","0","[]","0","0","3","","","","","","","",""
"pit-trial","74","600248","0.0-2.0-14.3-0.3","battery-v0.2","","""event"",""trial"",""time""
""fullscreenenter"",""1"",""2253""
","
","
","""event"",""trial"",""time""
""fullscreenenter"",""1"",""2253""
","
","","","-1","","","20","13490","5931","&#9826;","elianto","#f73b6a7A","-1","-1","1","0","[]","0","0","3","","","","","","","",""
"pit-trial","75","605103","0.0-2.0-14.3-1.3","battery-v0.2","","""event"",""trial"",""time""
""fullscreenenter"",""1"",""2253""
","
","
","""event"",""trial"",""time""
""fullscreenenter"",""1"",""2253""
","
","","","-1","","","20","13490","5931","&#9826;","elianto","#f73b6a7A","-1","-1","1","0","[]","0","0","3","","","","","","","",""
"pit-trial","76","609957","0.0-2.0-14.3-2.3","battery-v0.2","","""event"",""trial"",""time""
""fullscreenenter"",""1"",""2253""
","
","
","""event"",""trial"",""time""
""fullscreenenter"",""1"",""2253""
","
","","","-1","","","20","13490","5931","&#9826;","elianto","#f73b6a7A","-1","-1","1","0","[]","0","0","3","","","","","","","",""
"pit-trial","77","614812","0.0-2.0-14.3-3.3","battery-v0.2","","""event"",""trial"",""time""
""fullscreenenter"",""1"",""2253""
","
","
","""event"",""trial"",""time""
""fullscreenenter"",""1"",""2253""
","
","","","-1","","","20","13490","5931","&#9826;","elianto","#f73b6a7A","-1","-1","1","-10","[]","0","0","3","","","","","","","",""
"pit-trial","78","619667","0.0-2.0-14.3-4.3","battery-v0.2","","""event"",""trial"",""time""
""fullscreenenter"",""1"",""2253""
","
","
","""event"",""trial"",""time""
""fullscreenenter"",""1"",""2253""
","
","","","-1","","","20","13490","5931","&#9826;","elianto","#f73b6a7A","-1","-1","1","0","[]","0","0","3","","","","","","","",""
"call-function","79","619671","0.0-2.0-15.0","battery-v0.2","","""event"",""trial"",""time""
""fullscreenenter"",""1"",""2253""
","
","
","""event"",""trial"",""time""
""fullscreenenter"",""1"",""2253""
","
","","","","","","","","","","","","","","","","","","","","","","","","","","",""
"pit-instructions","80","648612","0.0-2.0-16.0","battery-v0.2","","""event"",""trial"",""time""
""fullscreenenter"",""1"",""2253""
","
","
","""event"",""trial"",""time""
""fullscreenenter"",""1"",""2253""
","
","","[{""page_index"":0,""viewing_time"":8940.300000071526},{""page_index"":1,""viewing_time"":8580.799999952316},{""page_index"":2,""viewing_time"":5898},{""page_index"":3,""viewing_time"":5519.600000023842}]","28939.900000095367","","","","","","","","","","","","","","","","","","","","","","","",""
"pit-trial","81","651870","0.0-2.0-17.0-0.0","battery-v0.2","","""event"",""trial"",""time""
""fullscreenenter"",""1"",""2253""
","
","
","""event"",""trial"",""time""
""fullscreenenter"",""1"",""2253""
","
","","","390.7000000476837","","","20","13490","5931","&#9789;","elianto","#f73b6a7A"," "," ","1","0","[1241.5]","1","0","4","","","","","","","",""
"pit-trial","82","655131","0.0-2.0-17.0-1.0","battery-v0.2","","""event"",""trial"",""time""
""fullscreenenter"",""1"",""2253""
","
","
","""event"",""trial"",""time""
""fullscreenenter"",""1"",""2253""
","
","","","391.89999997615814","","","20","13490","5931","&#9789;","elianto","#f73b6a7A"," "," ","1","0","[1241.9000000953674]","1","0","4","","","","","","","",""
"pit-trial","83","658391","0.0-2.0-17.0-2.0","battery-v0.2","","""event"",""trial"",""time""
""fullscreenenter"",""1"",""2253""
","
","
","""event"",""trial"",""time""
""fullscreenenter"",""1"",""2253""
","
","","","391.89999997615814","","","20","13490","5931","&#9789;","elianto","#f73b6a7A"," "," ","1","0","[1244.8000000715256]","1","0","4","","","","","","","",""
"pit-trial","84","661989","0.0-2.0-17.0-3.0","battery-v0.2","","""event"",""trial"",""time""
""fullscreenenter"",""1"",""2253""
","
","
","""event"",""trial"",""time""
""fullscreenenter"",""1"",""2253""
","
","","","729.8999999761581","","","20","13490","5931","&#9789;","elianto","#f73b6a7A"," "," ","1","-10","[1581]","1","0","4","","","","","","","",""
"pit-trial","85","665282","0.0-2.0-17.0-4.0","battery-v0.2","","""event"",""trial"",""time""
""fullscreenenter"",""1"",""2253""
","
","
","""event"",""trial"",""time""
""fullscreenenter"",""1"",""2253""
","
","","","423.7999999523163","","","20","13490","5931","&#9789;","elianto","#f73b6a7A"," "," ","1","0","[1277.7000000476837]","1","0","4","","","","","","","",""
"pit-trial","86","668577","0.0-2.0-17.1-0.1","battery-v0.2","","""event"",""trial"",""time""
""fullscreenenter"",""1"",""2253""
","
","
","""event"",""trial"",""time""
""fullscreenenter"",""1"",""2253""
","
","","","426.6999999284744","","","20","13490","5931","&#9789;","elianto","#f73b6a7A"," "," ","1","0","[1282.3000000715256]","1","0","4","","","","","","","",""
"pit-trial","87","671785","0.0-2.0-17.1-1.1","battery-v0.2","","""event"",""trial"",""time""
""fullscreenenter"",""1"",""2253""
","
","
","""event"",""trial"",""time""
""fullscreenenter"",""1"",""2253""
","
","","","348.2000000476837","","","20","13490","5931","&#9789;","elianto","#f73b6a7A"," "," ","1","0","[1203.3000000715256]","1","0","4","","","","","","","",""
"pit-trial","88","674902","0.0-2.0-17.1-2.1","battery-v0.2","","""event"",""trial"",""time""
""fullscreenenter"",""1"",""2253""
","
","
","""event"",""trial"",""time""
""fullscreenenter"",""1"",""2253""
","
","","","246.80000007152557","","","20","13490","5931","&#9789;","elianto","#f73b6a7A"," "," ","1","0","[1098]","1","0","4","","","","","","","",""
"pit-trial","89","678086","0.0-2.0-17.1-3.1","battery-v0.2","","""event"",""trial"",""time""
""fullscreenenter"",""1"",""2253""
","
","
","""event"",""trial"",""time""
""fullscreenenter"",""1"",""2253""
","
","","","325.8000000715256","","","20","13490","5931","&#9789;","elianto","#f73b6a7A"," "," ","1","-10","[1180.3999999761581]","1","0","4","","","","","","","",""
"pit-trial","90","681104","0.0-2.0-17.1-4.1","battery-v0.2","","""event"",""trial"",""time""
""fullscreenenter"",""1"",""2253""
","
","
","""event"",""trial"",""time""
""fullscreenenter"",""1"",""2253""
","
","","","157.29999995231628","","","20","13490","5931","&#9789;","elianto","#f73b6a7A"," "," ","1","0","[1013.7999999523163]","1","0","4","","","","","","","",""
"pit-trial","91","684179","0.0-2.0-17.2-0.2","battery-v0.2","","""event"",""trial"",""time""
""fullscreenenter"",""1"",""2253""
","
","
","""event"",""trial"",""time""
""fullscreenenter"",""1"",""2253""
","
","","","203.89999997615814","","","20","13490","5931","&#9789;","elianto","#f73b6a7A"," "," ","1","0","[1054.1999999284744]","1","0","4","","","","","","","",""
"pit-trial","92","687477","0.0-2.0-17.2-1.2","battery-v0.2","","""event"",""trial"",""time""
""fullscreenenter"",""1"",""2253""
","
","
","""event"",""trial"",""time""
""fullscreenenter"",""1"",""2253""
","
","","","441.2000000476837","","","20","13490","5931","&#9789;","elianto","#f73b6a7A"," "," ","1","0","[1292.3999999761581]","1","0","4","","","","","","","",""
"pit-trial","93","690410","0.0-2.0-17.2-2.2","battery-v0.2","","""event"",""trial"",""time""
""fullscreenenter"",""1"",""2253""
","
","
","""event"",""trial"",""time""
""fullscreenenter"",""1"",""2253""
","
","","","78.39999997615814","","","20","13490","5931","&#9789;","elianto","#f73b6a7A"," "," ","1","0","[929.6000000238419]","1","0","4","","","","","","","",""
"pit-trial","94","693795","0.0-2.0-17.2-3.2","battery-v0.2","","""event"",""trial"",""time""
""fullscreenenter"",""1"",""2253""
","
","
","""event"",""trial"",""time""
""fullscreenenter"",""1"",""2253""
","
","","","529.6000000238419","","","20","13490","5931","&#9789;","elianto","#f73b6a7A"," "," ","1","-10","[1380]","1","0","4","","","","","","","",""
"pit-trial","95","697488","0.0-2.0-17.2-4.2","battery-v0.2","","""event"",""trial"",""time""
""fullscreenenter"",""1"",""2253""
","
","
","""event"",""trial"",""time""
""fullscreenenter"",""1"",""2253""
","
","","","837.7999999523163","","","20","13490","5931","&#9789;","elianto","#f73b6a7A"," "," ","1","0","[1689]","1","0","4","","","","","","","",""
"pit-trial","96","700824","0.0-2.0-17.3-0.3","battery-v0.2","","""event"",""trial"",""time""
""fullscreenenter"",""1"",""2253""
","
","
","""event"",""trial"",""time""
""fullscreenenter"",""1"",""2253""
","
","","","480.7999999523163","","","20","13490","5931","&#9789;","elianto","#f73b6a7A"," "," ","1","0","[1331.1999999284744]","1","0","4","","","","","","","",""
"pit-trial","97","704156","0.0-2.0-17.3-1.3","battery-v0.2","","""event"",""trial"",""time""
""fullscreenenter"",""1"",""2253""
","
","
","""event"",""trial"",""time""
""fullscreenenter"",""1"",""2253""
","
","","","476.8000000715256","","","20","13490","5931","&#9789;","elianto","#f73b6a7A"," "," ","1","0","[1327.5]","1","0","4","","","","","","","",""
"pit-trial","98","707386","0.0-2.0-17.3-2.3","battery-v0.2","","""event"",""trial"",""time""
""fullscreenenter"",""1"",""2253""
","
","
","""event"",""trial"",""time""
""fullscreenenter"",""1"",""2253""
","
","","","374.59999990463257","","","20","13490","5931","&#9789;","elianto","#f73b6a7A"," "," ","1","0","[1225.3000000715256]","1","0","4","","","","","","","",""
"pit-trial","99","710522","0.0-2.0-17.3-3.3","battery-v0.2","","""event"",""trial"",""time""
""fullscreenenter"",""1"",""2253""
","
","
","""event"",""trial"",""time""
""fullscreenenter"",""1"",""2253""
","
","","","279.8000000715256","","","20","13490","5931","&#9789;","elianto","#f73b6a7A"," "," ","1","-10","[1131.7000000476837]","1","0","4","","","","","","","",""
"pit-trial","100","713821","0.0-2.0-17.3-4.3","battery-v0.2","","""event"",""trial"",""time""
""fullscreenenter"",""1"",""2253""
","
","
","""event"",""trial"",""time""
""fullscreenenter"",""1"",""2253""
","
","","","444.7999999523163","","","20","13490","5931","&#9789;","elianto","#f73b6a7A"," "," ","1","0","[1295.1999999284744]","1","0","4","","","","","","","",""
"call-function","101","713824","0.0-2.0-18.0","battery-v0.2","","""event"",""trial"",""time""
""fullscreenenter"",""1"",""2253""
","
","
","""event"",""trial"",""time""
""fullscreenenter"",""1"",""2253""
","
","","","","","","","","","","","","","","","","","","","","","","","","","","",""
"pit-instructions","102","787188","0.0-2.0-19.0","battery-v0.2","","""event"",""trial"",""time""
""fullscreenenter"",""1"",""2253""
","
","
","""event"",""trial"",""time""
""fullscreenenter"",""1"",""2253""
","
","","[{""page_index"":0,""viewing_time"":6880.200000047684},{""page_index"":1,""viewing_time"":6600.799999952316},{""page_index"":2,""viewing_time"":13999.5},{""page_index"":3,""viewing_time"":8108},{""page_index"":4,""viewing_time"":9083.700000047684},{""page_index"":5,""viewing_time"":8988.5},{""page_index"":6,""viewing_time"":8738.399999976158},{""page_index"":7,""viewing_time"":6731.600000023842},{""page_index"":8,""viewing_time"":4231.199999928474}]","73362.80000007153","","","","","","","","","","","","","","","","","","","","","","","",""
"pit-comprehension","103","791604","0.0-2.0-20.0-0.0","battery-v0.2","","""event"",""trial"",""time""
""fullscreenenter"",""1"",""2253""
","
","
","""event"",""trial"",""time""
""fullscreenenter"",""1"",""2253""
","
","","","4406.699999928474","[""SPACE""]","0","20","13490","5931","","","","","","","","","","","","","","","","","","",""
"pit-instructions","104","794463","0.0-2.0-20.0-1.0","battery-v0.2","","""event"",""trial"",""time""
""fullscreenenter"",""1"",""2253""
","
","
","""event"",""trial"",""time""
""fullscreenenter"",""1"",""2253""
","
","","[{""page_index"":0,""viewing_time"":2723.100000023842}]","2723.899999976158","","","","","","","","","","","","","","","","","","","","","","","",""
"pit-comprehension","105","801009","0.0-2.0-21.0-0.0","battery-v0.2","","""event"",""trial"",""time""
""fullscreenenter"",""1"",""2253""
","
","
","""event"",""trial"",""time""
""fullscreenenter"",""1"",""2253""
","
","","","6536.899999976158","[""10""]","0","20","13490","5931","","","","","","","","","","","","","","","","","","",""
"pit-instructions","106","802722","0.0-2.0-21.0-1.0","battery-v0.2","","""event"",""trial"",""time""
""fullscreenenter"",""1"",""2253""
","
","
","""event"",""trial"",""time""
""fullscreenenter"",""1"",""2253""
","
","","[{""page_index"":0,""viewing_time"":1590.8999999761581}]","1591.8999999761581","","","","","","","","","","","","","","","","","","","","","","","",""
"pit-comprehension","107","809427","0.0-2.0-22.0-0.0","battery-v0.2","","""event"",""trial"",""time""
""fullscreenenter"",""1"",""2253""
","
","
","""event"",""trial"",""time""
""fullscreenenter"",""1"",""2253""
","
","","","6698","[""-10""]","1","20","13490","5931","","","","","","","","","","","","","","","","","","",""
"pit-instructions","108","814379","0.0-2.0-22.0-1.0","battery-v0.2","","""event"",""trial"",""time""
""fullscreenenter"",""1"",""2253""
","
","
","""event"",""trial"",""time""
""fullscreenenter"",""1"",""2253""
","
","","[{""page_index"":0,""viewing_time"":4821.700000047684}]","4822.5","","","","","","","","","","","","","","","","","","","","","","","",""
"pit-instructions","109","815293","0.0-2.0-22.0-2.0-0.0","battery-v0.2","","""event"",""trial"",""time""
""fullscreenenter"",""1"",""2253""
","
","
","""event"",""trial"",""time""
""fullscreenenter"",""1"",""2253""
","
","","[{""page_index"":0,""viewing_time"":907.7999999523163}]","908.8999999761581","","","","","","","","","","","","","","","","","","","","","","","",""
"pit-comprehension","110","822005","0.0-2.0-22.1-0.1","battery-v0.2","","""event"",""trial"",""time""
""fullscreenenter"",""1"",""2253""
","
","
","""event"",""trial"",""time""
""fullscreenenter"",""1"",""2253""
","
","","","6705.899999976158","[""0""]","0","20","13490","5931","","","","","","","","","","","","","","","","","","",""
"pit-instructions","111","823501","0.0-2.0-22.1-1.1","battery-v0.2","","""event"",""trial"",""time""
""fullscreenenter"",""1"",""2253""
","
","
","""event"",""trial"",""time""
""fullscreenenter"",""1"",""2253""
","
","","[{""page_index"":0,""viewing_time"":1378.7999999523163}]","1380.1000000238419","","","","","","","","","","","","","","","","","","","","","","","",""
"pit-comprehension","112","831904","0.0-2.0-23.0-0.0","battery-v0.2","","""event"",""trial"",""time""
""fullscreenenter"",""1"",""2253""
","
","
","""event"",""trial"",""time""
""fullscreenenter"",""1"",""2253""
","
","","","8395.799999952316","[""True""]","0","20","13490","5931","","","","","","","","","","","","","","","","","","",""
"pit-instructions","113","833608","0.0-2.0-23.0-1.0","battery-v0.2","","""event"",""trial"",""time""
""fullscreenenter"",""1"",""2253""
","
","
","""event"",""trial"",""time""
""fullscreenenter"",""1"",""2253""
","
","","[{""page_index"":0,""viewing_time"":1561.8999999761581}]","1562.6000000238419","","","","","","","","","","","","","","","","","","","","","","","",""
"pit-comprehension","114","840995","0.0-2.0-24.0-0.0","battery-v0.2","","""event"",""trial"",""time""
""fullscreenenter"",""1"",""2253""
","
","
","""event"",""trial"",""time""
""fullscreenenter"",""1"",""2253""
","
","","","7379.100000023842","[""True""]","0","20","13490","5931","","","","","","","","","","","","","","","","","","",""
"pit-instructions","115","842607","0.0-2.0-24.0-1.0","battery-v0.2","","""event"",""trial"",""time""
""fullscreenenter"",""1"",""2253""
","
","
","""event"",""trial"",""time""
""fullscreenenter"",""1"",""2253""
","
","","[{""page_index"":0,""viewing_time"":1491.2000000476837}]","1492","","","","","","","","","","","","","","","","","","","","","","","",""
"pit-comprehension","116","849005","0.0-2.0-25.0-0.0","battery-v0.2","","""event"",""trial"",""time""
""fullscreenenter"",""1"",""2253""
","
","
","""event"",""trial"",""time""
""fullscreenenter"",""1"",""2253""
","
","","","6389.799999952316","[""True""]","0","20","13490","5931","","","","","","","","","","","","","","","","","","",""
"pit-instructions","117","850730","0.0-2.0-25.0-1.0","battery-v0.2","","""event"",""trial"",""time""
""fullscreenenter"",""1"",""2253""
","
","
","""event"",""trial"",""time""
""fullscreenenter"",""1"",""2253""
","
","","[{""page_index"":0,""viewing_time"":1588.6999999284744}]","1589.5","","","","","","","","","","","","","","","","","","","","","","","",""
"pit-comprehension","118","855746","0.0-2.0-26.0-0.0","battery-v0.2","","""event"",""trial"",""time""
""fullscreenenter"",""1"",""2253""
","
","
","""event"",""trial"",""time""
""fullscreenenter"",""1"",""2253""
","
","","","5007.200000047684","[""False""]","0","20","13490","5931","","","","","","","","","","","","","","","","","","",""
"pit-instructions","119","859896","0.0-2.0-26.0-1.0","battery-v0.2","","""event"",""trial"",""time""
""fullscreenenter"",""1"",""2253""
","
","
","""event"",""trial"",""time""
""fullscreenenter"",""1"",""2253""
","
","","[{""page_index"":0,""viewing_time"":4029.399999976158}]","4030.2999999523163","","","","","","","","","","","","","","","","","","","","","","","",""
"pit-instructions","120","877042","0.0-3.0","battery-v0.2","","""event"",""trial"",""time""
""fullscreenenter"",""1"",""2253""
","
","
","""event"",""trial"",""time""
""fullscreenenter"",""1"",""2253""
","
","","[{""page_index"":0,""viewing_time"":4461.5},{""page_index"":1,""viewing_time"":5077},{""page_index"":2,""viewing_time"":7601.799999952316}]","17141.299999952316","","","","","","","","","","","","","","","","","","","","","","","",""
"pit-trial","121","880835","0.0-4.0","battery-v0.2","","""event"",""trial"",""time""
""fullscreenenter"",""1"",""2253""
","
","
","""event"",""trial"",""time""
""fullscreenenter"",""1"",""2253""
","
","","","923.1000000238419","","","20","13490","5931","&#9730;","elianto","#3366ff99"," "," ","1","+10","[1777.7000000476837]","1","1","","","13490","1","1","1","win","go","0"
"pit-trial","122","884369","0.0-5.0","battery-v0.2","","""event"",""trial"",""time""
""fullscreenenter"",""1"",""2253""
","
","
","""event"",""trial"",""time""
""fullscreenenter"",""1"",""2253""
","
","","","675.1000000238419","","","20","13490","5931","&#9733;","elianto","#3366ff99","-1"," ","0","0","[1525.2999999523163]","1","1","","","13490","2","2","2","win","no-go","0"
"pit-trial","123","888195","0.0-6.0","battery-v0.2","","""event"",""trial"",""time""
""fullscreenenter"",""1"",""2253""
","
","
","""event"",""trial"",""time""
""fullscreenenter"",""1"",""2253""
","
","","","954.3999999761581","","","20","13490","5931","&#9728;","elianto","#f73b6a7A","-1"," ","0","-10","[1813.7000000476837]","1","1","","","13490","3","0","4","lose","no-go","0"
"pit-trial","124","891820","0.0-7.0","battery-v0.2","","""event"",""trial"",""time""
""fullscreenenter"",""1"",""2253""
","
","
","""event"",""trial"",""time""
""fullscreenenter"",""1"",""2253""
","
","","","766","","","20","13490","5931","&#9752;","elianto","#f73b6a7A"," "," ","1","-10","[1616.1999999284744]","1","1","","","13490","4","3","3","lose","go","1"
"pit-trial","125","896687","0.0-8.0","battery-v0.2","","""event"",""trial"",""time""
""fullscreenenter"",""1"",""2253""
","
","
","""event"",""trial"",""time""
""fullscreenenter"",""1"",""2253""
","
","","","-1","","","20","13490","5931","&#9752;","elianto","#f73b6a7A"," ","-1","0","-10","[]","0","1","","","13490","5","3","3","lose","go","0"
"pit-trial","126","900780","0.0-9.0","battery-v0.2","","""event"",""trial"",""time""
""fullscreenenter"",""1"",""2253""
","
","
","""event"",""trial"",""time""
""fullscreenenter"",""1"",""2253""
","
","","","1226","","","20","13490","5931","&#9733;","elianto","#3366ff99","-1"," ","0","0","[2085.2000000476837]","1","1","","","13490","6","2","2","win","no-go","0"
"pit-trial","127","905646","0.0-10.0","battery-v0.2","","""event"",""trial"",""time""
""fullscreenenter"",""1"",""2253""
","
","
","""event"",""trial"",""time""
""fullscreenenter"",""1"",""2253""
","
","","","-1","","","20","13490","5931","&#9728;","elianto","#f73b6a7A","-1","-1","1","0","[]","0","1","","","13490","7","0","4","lose","no-go","0"
"pit-trial","128","909085","0.0-11.0","battery-v0.2","","""event"",""trial"",""time""
""fullscreenenter"",""1"",""2253""
","
","
","""event"",""trial"",""time""
""fullscreenenter"",""1"",""2253""
","
","","","580.7999999523163","","","20","13490","5931","&#9730;","elianto","#3366ff99"," "," ","1","0","[1436]","1","1","","","13490","8","1","1","win","go","1"
"pit-trial","129","912673","0.0-12.0","battery-v0.2","","""event"",""trial"",""time""
""fullscreenenter"",""1"",""2253""
","
","
","""event"",""trial"",""time""
""fullscreenenter"",""1"",""2253""
","
","","","731.8999999761581","","","20","13490","5931","&#9730;","elianto","#3366ff99"," "," ","1","+10","[1583]","1","1","","","13490","9","1","1","win","go","0"
"pit-trial","130","917527","0.0-13.0","battery-v0.2","","""event"",""trial"",""time""
""fullscreenenter"",""1"",""2253""
","
","
","""event"",""trial"",""time""
""fullscreenenter"",""1"",""2253""
","
","","","-1","","","20","13490","5931","&#9728;","elianto","#f73b6a7A","-1","-1","1","-10","[]","0","1","","","13490","10","0","4","lose","no-go","1"
"pit-trial","131","921416","0.0-14.0","battery-v0.2","","""event"",""trial"",""time""
""fullscreenenter"",""1"",""2253""
","
","
","""event"",""trial"",""time""
""fullscreenenter"",""1"",""2253""
","
","","","1034.8999999761581","","","20","13490","5931","&#9752;","elianto","#f73b6a7A"," "," ","1","0","[1885.1000000238419]","1","1","","","13490","11","3","3","lose","go","0"
"pit-trial","132","926272","0.0-15.0","battery-v0.2","","""event"",""trial"",""time""
""fullscreenenter"",""1"",""2253""
","
","
","""event"",""trial"",""time""
""fullscreenenter"",""1"",""2253""
","
","","","-1","","","20","13490","5931","&#9733;","elianto","#3366ff99","-1","-1","1","+10","[]","0","1","","","13490","12","2","2","win","no-go","0"
"pit-trial","133","929954","0.0-16.0","battery-v0.2","","""event"",""trial"",""time""
""fullscreenenter"",""1"",""2253""
","
","
","""event"",""trial"",""time""
""fullscreenenter"",""1"",""2253""
","
","","","825.5","","","20","13490","5931","&#9733;","elianto","#3366ff99","-1"," ","0","0","[1676.7000000476837]","1","1","","","13490","13","2","2","win","no-go","0"
"pit-trial","134","934808","0.0-17.0","battery-v0.2","","""event"",""trial"",""time""
""fullscreenenter"",""1"",""2253""
","
","
","""event"",""trial"",""time""
""fullscreenenter"",""1"",""2253""
","
","","","-1","","","20","13490","5931","&#9728;","elianto","#f73b6a7A","-1","-1","1","0","[]","0","1","","","13490","14","0","4","lose","no-go","0"
"pit-trial","135","938532","0.0-18.0","battery-v0.2","","""event"",""trial"",""time""
""fullscreenenter"",""1"",""2253""
","
","
","""event"",""trial"",""time""
""fullscreenenter"",""1"",""2253""
","
","","","868.2999999523163","","","20","13490","5931","&#9752;","elianto","#f73b6a7A"," "," ","1","0","[1719]","1","1","","","13490","15","3","3","lose","go","0"
"pit-trial","136","942079","0.0-19.0","battery-v0.2","","""event"",""trial"",""time""
""fullscreenenter"",""1"",""2253""
","
","
","""event"",""trial"",""time""
""fullscreenenter"",""1"",""2253""
","
","","","692.0999999046326","","","20","13490","5931","&#9730;","elianto","#3366ff99"," "," ","1","0","[1542.8000000715256]","1","1","","","13490","16","1","1","win","go","1"
"pit-trial","137","946935","0.0-20.0","battery-v0.2","","""event"",""trial"",""time""
""fullscreenenter"",""1"",""2253""
","
","
","""event"",""trial"",""time""
""fullscreenenter"",""1"",""2253""
","
","","","-1","","","20","13490","5931","&#9730;","elianto","#3366ff99"," ","-1","0","0","[]","0","1","","","13490","17","1","1","win","go","0"
"pit-trial","138","951790","0.0-21.0","battery-v0.2","","""event"",""trial"",""time""
""fullscreenenter"",""1"",""2253""
","
","
","""event"",""trial"",""time""
""fullscreenenter"",""1"",""2253""
","
","","","-1","","","20","13490","5931","&#9733;","elianto","#3366ff99","-1","-1","1","+10","[]","0","1","","","13490","18","2","2","win","no-go","0"
"pit-trial","139","956646","0.0-22.0","battery-v0.2","","""event"",""trial"",""time""
""fullscreenenter"",""1"",""2253""
","
","
","""event"",""trial"",""time""
""fullscreenenter"",""1"",""2253""
","
","","","-1","","","20","13490","5931","&#9728;","elianto","#f73b6a7A","-1","-1","1","0","[]","0","1","","","13490","19","0","4","lose","no-go","0"
"pit-trial","140","960167","0.0-23.0","battery-v0.2","","""event"",""trial"",""time""
""fullscreenenter"",""1"",""2253""
","
","
","""event"",""trial"",""time""
""fullscreenenter"",""1"",""2253""
","
","","","666.2000000476837","","","20","13490","5931","&#9752;","elianto","#f73b6a7A"," "," ","1","0","[1516.7000000476837]","1","1","","","13490","20","3","3","lose","go","0"
"pit-instructions","141","973682","0.0-24.0","battery-v0.2","","""event"",""trial"",""time""
""fullscreenenter"",""1"",""2253""
","
","
","""event"",""trial"",""time""
""fullscreenenter"",""1"",""2253""
","
","","[{""page_index"":0,""viewing_time"":6664.800000071526},{""page_index"":1,""viewing_time"":6846.199999928474}]","13511.900000095367","","","","","","","","","","","","","","","","","","","","","","","",""
"pit-trial","142","977526","0.0-25.0","battery-v0.2","","""event"",""trial"",""time""
""fullscreenenter"",""1"",""2253""
","
","
","""event"",""trial"",""time""
""fullscreenenter"",""1"",""2253""
","
","","","970","","","20","13490","5931","f","elianto","#3366ff99"," "," ","1","+10","[1821.5]","1","2","","","13490","21","1","1","win","go","0"
"pit-trial","143","981340","0.0-26.0","battery-v0.2","","""event"",""trial"",""time""
""fullscreenenter"",""1"",""2253""
","
","
","""event"",""trial"",""time""
""fullscreenenter"",""1"",""2253""
","
","","","948.1000000238419","","","20","13490","5931","t","elianto","#f73b6a7A","-1"," ","0","-10","[1802.7000000476837]","1","2","","","13490","22","2","4","lose","no-go","0"
"pit-trial","144","985724","0.0-27.0","battery-v0.2","","""event"",""trial"",""time""
""fullscreenenter"",""1"",""2253""
","
","
","""event"",""trial"",""time""
""fullscreenenter"",""1"",""2253""
","
","","","1513.5","","","20","13490","5931","b","elianto","#f73b6a7A"," "," ","1","0","[2368.6999999284744]","1","2","","","13490","23","3","3","lose","go","0"
"pit-trial","145","989742","0.0-28.0","battery-v0.2","","""event"",""trial"",""time""
""fullscreenenter"",""1"",""2253""
","
","
","""event"",""trial"",""time""
""fullscreenenter"",""1"",""2253""
","
","","","1153.3000000715256","","","20","13490","5931","n","elianto","#f73b6a7A","-1"," ","0","-10","[2004]","1","2","","","13490","24","0","4","lose","no-go","0"
"pit-trial","146","993242","0.0-29.0","battery-v0.2","","""event"",""trial"",""time""
""fullscreenenter"",""1"",""2253""
","
","
","""event"",""trial"",""time""
""fullscreenenter"",""1"",""2253""
","
","","","634.3999999761581","","","20","13490","5931","f","elianto","#3366ff99"," "," ","1","+10","[1485.2999999523163]","1","2","","","13490","25","1","1","win","go","0"
"pit-trial","147","998126","0.0-30.0","battery-v0.2","","""event"",""trial"",""time""
""fullscreenenter"",""1"",""2253""
","
","
","""event"",""trial"",""time""
""fullscreenenter"",""1"",""2253""
","
","","","-1","","","20","13490","5931","n","elianto","#f73b6a7A","-1","-1","1","0","[]","0","2","","","13490","26","0","4","lose","no-go","0"
"pit-trial","148","1003011","0.0-31.0","battery-v0.2","","""event"",""trial"",""time""
""fullscreenenter"",""1"",""2253""
","
","
","""event"",""trial"",""time""
""fullscreenenter"",""1"",""2253""
","
","","","-1","","","20","13490","5931","t","elianto","#f73b6a7A","-1","-1","1","0","[]","0","2","","","13490","27","2","4","lose","no-go","0"
"pit-trial","149","1007144","0.0-32.0","battery-v0.2","","""event"",""trial"",""time""
""fullscreenenter"",""1"",""2253""
","
","
","""event"",""trial"",""time""
""fullscreenenter"",""1"",""2253""
","
","","","1278","","","20","13490","5931","b","elianto","#f73b6a7A"," "," ","1","0","[2128.899999976158]","1","2","","","13490","28","3","3","lose","go","0"
"pit-trial","150","1010987","0.0-33.0","battery-v0.2","","""event"",""trial"",""time""
""fullscreenenter"",""1"",""2253""
","
","
","""event"",""trial"",""time""
""fullscreenenter"",""1"",""2253""
","
","","","987.8000000715256","","","20","13490","5931","b","elianto","#f73b6a7A"," "," ","1","-10","[1838.9000000953674]","1","2","","","13490","29","3","3","lose","go","1"
"pit-trial","151","1014490","0.0-34.0","battery-v0.2","","""event"",""trial"",""time""
""fullscreenenter"",""1"",""2253""
","
","
","""event"",""trial"",""time""
""fullscreenenter"",""1"",""2253""
","
","","","648.1999999284744","","","20","13490","5931","f","elianto","#3366ff99"," "," ","1","+10","[1498.7999999523163]","1","2","","","13490","30","1","1","win","go","0"
"pit-trial","152","1019343","0.0-35.0","battery-v0.2","","""event"",""trial"",""time""
""fullscreenenter"",""1"",""2253""
","
","
","""event"",""trial"",""time""
""fullscreenenter"",""1"",""2253""
","
","","","-1","","","20","13490","5931","n","elianto","#f73b6a7A","-1","-1","1","0","[]","0","2","","","13490","31","0","4","lose","no-go","0"
"pit-trial","153","1024198","0.0-36.0","battery-v0.2","","""event"",""trial"",""time""
""fullscreenenter"",""1"",""2253""
","
","
","""event"",""trial"",""time""
""fullscreenenter"",""1"",""2253""
","
","","","-1","","","20","13490","5931","t","elianto","#f73b6a7A","-1","-1","1","0","[]","0","2","","","13490","32","2","4","lose","no-go","0"
"pit-trial","154","1027989","0.0-37.0","battery-v0.2","","""event"",""trial"",""time""
""fullscreenenter"",""1"",""2253""
","
","
","""event"",""trial"",""time""
""fullscreenenter"",""1"",""2253""
","
","","","934.5","","","20","13490","5931","f","elianto","#3366ff99"," "," ","1","+10","[1786.8999999761581]","1","2","","","13490","33","1","1","win","go","0"
"pit-trial","155","1032857","0.0-38.0","battery-v0.2","","""event"",""trial"",""time""
""fullscreenenter"",""1"",""2253""
","
","
","""event"",""trial"",""time""
""fullscreenenter"",""1"",""2253""
","
","","","-1","","","20","13490","5931","t","elianto","#f73b6a7A","-1","-1","1","-10","[]","0","2","","","13490","34","2","4","lose","no-go","1"
"pit-trial","156","1037712","0.0-39.0","battery-v0.2","","""event"",""trial"",""time""
""fullscreenenter"",""1"",""2253""
","
","
","""event"",""trial"",""time""
""fullscreenenter"",""1"",""2253""
","
","","","-1","","","20","13490","5931","n","elianto","#f73b6a7A","-1","-1","1","0","[]","0","2","","","13490","35","0","4","lose","no-go","0"
"pit-trial","157","1041262","0.0-40.0","battery-v0.2","","""event"",""trial"",""time""
""fullscreenenter"",""1"",""2253""
","
","
","""event"",""trial"",""time""
""fullscreenenter"",""1"",""2253""
","
","","","695.3999999761581","","","20","13490","5931","b","elianto","#f73b6a7A"," "," ","1","0","[1545.6000000238419]","1","2","","","13490","36","3","3","lose","go","0"
"pit-trial","158","1045154","0.0-41.0","battery-v0.2","","""event"",""trial"",""time""
""fullscreenenter"",""1"",""2253""
","
","
","""event"",""trial"",""time""
""fullscreenenter"",""1"",""2253""
","
","","","1037.7000000476837","","","20","13490","5931","f","elianto","#3366ff99"," "," ","1","+10","[1888.2999999523163]","1","2","","","13490","37","1","1","win","go","0"
"pit-trial","159","1050009","0.0-42.0","battery-v0.2","","""event"",""trial"",""time""
""fullscreenenter"",""1"",""2253""
","
","
","""event"",""trial"",""time""
""fullscreenenter"",""1"",""2253""
","
","","","-1","","","20","13490","5931","n","elianto","#f73b6a7A","-1","-1","1","0","[]","0","2","","","13490","38","0","4","lose","no-go","0"
"pit-trial","160","1054866","0.0-43.0","battery-v0.2","","""event"",""trial"",""time""
""fullscreenenter"",""1"",""2253""
","
","
","""event"",""trial"",""time""
""fullscreenenter"",""1"",""2253""
","
","","","-1","","","20","13490","5931","t","elianto","#f73b6a7A","-1","-1","1","0","[]","0","2","","","13490","39","2","4","lose","no-go","0"
"pit-trial","161","1058560","0.0-44.0","battery-v0.2","","""event"",""trial"",""time""
""fullscreenenter"",""1"",""2253""
","
","
","""event"",""trial"",""time""
""fullscreenenter"",""1"",""2253""
","
","","","839.6999999284744","","","20","13490","5931","b","elianto","#f73b6a7A"," "," ","1","0","[1690]","1","2","","","13490","40","3","3","lose","go","0"
"pit-trial","162","1063420","0.0-45.0","battery-v0.2","","""event"",""trial"",""time""
""fullscreenenter"",""1"",""2253""
","
","
","""event"",""trial"",""time""
""fullscreenenter"",""1"",""2253""
","
","","","-1","","","20","13490","5931","n","elianto","#f73b6a7A","-1","-1","1","0","[]","0","2","","","13490","41","0","4","lose","no-go","0"
"pit-trial","163","1067392","0.0-46.0","battery-v0.2","","""event"",""trial"",""time""
""fullscreenenter"",""1"",""2253""
","
","
","""event"",""trial"",""time""
""fullscreenenter"",""1"",""2253""
","
","","","1115.1999999284744","","","20","13490","5931","b","elianto","#f73b6a7A"," "," ","1","0","[1966.3000000715256]","1","2","","","13490","42","3","3","lose","go","0"
"pit-trial","164","1071099","0.0-47.0","battery-v0.2","","""event"",""trial"",""time""
""fullscreenenter"",""1"",""2253""
","
","
","""event"",""trial"",""time""
""fullscreenenter"",""1"",""2253""
","
","","","852.1999999284744","","","20","13490","5931","f","elianto","#3366ff99"," "," ","1","0","[1702.3999999761581]","1","2","","","13490","43","1","1","win","go","1"
"pit-trial","165","1075954","0.0-48.0","battery-v0.2","","""event"",""trial"",""time""
""fullscreenenter"",""1"",""2253""
","
","
","""event"",""trial"",""time""
""fullscreenenter"",""1"",""2253""
","
","","","-1","","","20","13490","5931","t","elianto","#f73b6a7A","-1","-1","1","0","[]","0","2","","","13490","44","2","4","lose","no-go","0"
"pit-trial","166","1080809","0.0-49.0","battery-v0.2","","""event"",""trial"",""time""
""fullscreenenter"",""1"",""2253""
","
","
","""event"",""trial"",""time""
""fullscreenenter"",""1"",""2253""
","
","","","-1","","","20","13490","5931","n","elianto","#f73b6a7A","-1","-1","1","0","[]","0","2","","","13490","45","0","4","lose","no-go","0"
"pit-trial","167","1084632","0.0-50.0","battery-v0.2","","""event"",""trial"",""time""
""fullscreenenter"",""1"",""2253""
","
","
","""event"",""trial"",""time""
""fullscreenenter"",""1"",""2253""
","
","","","965.7000000476837","","","20","13490","5931","c","elianto","#3366ff99","-1"," ","0","0","[1818.3999999761581]","1","2","","","13490","46","4","2","win","no-go","0"
"pit-trial","168","1088581","0.0-51.0","battery-v0.2","","""event"",""trial"",""time""
""fullscreenenter"",""1"",""2253""
","
","
","""event"",""trial"",""time""
""fullscreenenter"",""1"",""2253""
","
","","","1093.8999999761581","","","20","13490","5931","t","elianto","#f73b6a7A","-1"," ","0","-10","[1944.2999999523163]","1","2","","","13490","47","2","4","lose","no-go","0"
"pit-trial","169","1092022","0.0-52.0","battery-v0.2","","""event"",""trial"",""time""
""fullscreenenter"",""1"",""2253""
","
","
","""event"",""trial"",""time""
""fullscreenenter"",""1"",""2253""
","
","","","586.8000000715256","","","20","13490","5931","b","elianto","#f73b6a7A"," "," ","1","0","[1436.9000000953674]","1","2","","","13490","48","3","3","lose","go","0"
"pit-trial","170","1095662","0.0-53.0","battery-v0.2","","""event"",""trial"",""time""
""fullscreenenter"",""1"",""2253""
","
","
","""event"",""trial"",""time""
""fullscreenenter"",""1"",""2253""
","
","","","784.4000000953674","","","20","13490","5931","f","elianto","#3366ff99"," "," ","1","+10","[1634.9000000953674]","1","2","","","13490","49","1","1","win","go","0"
"pit-trial","171","1100517","0.0-54.0","battery-v0.2","","""event"",""trial"",""time""
""fullscreenenter"",""1"",""2253""
","
","
","""event"",""trial"",""time""
""fullscreenenter"",""1"",""2253""
","
","","","-1","","","20","13490","5931","n","elianto","#f73b6a7A","-1","-1","1","0","[]","0","2","","","13490","50","0","4","lose","no-go","0"
"pit-trial","172","1105371","0.0-55.0","battery-v0.2","","""event"",""trial"",""time""
""fullscreenenter"",""1"",""2253""
","
","
","""event"",""trial"",""time""
""fullscreenenter"",""1"",""2253""
","
","","","-1","","","20","13490","5931","c","elianto","#3366ff99","-1","-1","1","+10","[]","0","2","","","13490","51","4","2","win","no-go","0"
"pit-trial","173","1109027","0.0-56.0","battery-v0.2","","""event"",""trial"",""time""
""fullscreenenter"",""1"",""2253""
","
","
","""event"",""trial"",""time""
""fullscreenenter"",""1"",""2253""
","
","","","801","","","20","13490","5931","b","elianto","#f73b6a7A"," "," ","1","0","[1651.3000000715256]","1","2","","","13490","52","3","3","lose","go","0"
"pit-trial","174","1113882","0.0-57.0","battery-v0.2","","""event"",""trial"",""time""
""fullscreenenter"",""1"",""2253""
","
","
","""event"",""trial"",""time""
""fullscreenenter"",""1"",""2253""
","
","","","-1","","","20","13490","5931","t","elianto","#f73b6a7A","-1","-1","1","0","[]","0","2","","","13490","53","2","4","lose","no-go","0"
"pit-trial","175","1117382","0.0-58.0","battery-v0.2","","""event"",""trial"",""time""
""fullscreenenter"",""1"",""2253""
","
","
","""event"",""trial"",""time""
""fullscreenenter"",""1"",""2253""
","
","","","644.5","","","20","13490","5931","f","elianto","#3366ff99"," "," ","1","+10","[1495.1000000238419]","1","2","","","13490","54","1","1","win","go","0"
"pit-trial","176","1122238","0.0-59.0","battery-v0.2","","""event"",""trial"",""time""
""fullscreenenter"",""1"",""2253""
","
","
","""event"",""trial"",""time""
""fullscreenenter"",""1"",""2253""
","
","","","-1","","","20","13490","5931","n","elianto","#f73b6a7A","-1","-1","1","0","[]","0","2","","","13490","55","0","4","lose","no-go","0"
"pit-trial","177","1127092","0.0-60.0","battery-v0.2","","""event"",""trial"",""time""
""fullscreenenter"",""1"",""2253""
","
","
","""event"",""trial"",""time""
""fullscreenenter"",""1"",""2253""
","
","","","-1","","","20","13490","5931","c","elianto","#3366ff99","-1","-1","1","+10","[]","0","2","","","13490","56","4","2","win","no-go","0"
"pit-trial","178","1130812","0.0-61.0","battery-v0.2","","""event"",""trial"",""time""
""fullscreenenter"",""1"",""2253""
","
","
","""event"",""trial"",""time""
""fullscreenenter"",""1"",""2253""
","
","","","864.3000000715256","","","20","13490","5931","f","elianto","#3366ff99"," "," ","1","+10","[1715.1000000238419]","1","2","","","13490","57","1","1","win","go","0"
"pit-trial","179","1134600","0.0-62.0","battery-v0.2","","""event"",""trial"",""time""
""fullscreenenter"",""1"",""2253""
","
","
","""event"",""trial"",""time""
""fullscreenenter"",""1"",""2253""
","
","","","932.5","","","20","13490","5931","b","elianto","#f73b6a7A"," "," ","1","0","[1782.6000000238419]","1","2","","","13490","58","3","3","lose","go","0"
"pit-trial","180","1139456","0.0-63.0","battery-v0.2","","""event"",""trial"",""time""
""fullscreenenter"",""1"",""2253""
","
","
","""event"",""trial"",""time""
""fullscreenenter"",""1"",""2253""
","
","","","-1","","","20","13490","5931","c","elianto","#3366ff99","-1","-1","1","0","[]","0","2","","","13490","59","4","2","win","no-go","1"
"pit-trial","181","1144311","0.0-64.0","battery-v0.2","","""event"",""trial"",""time""
""fullscreenenter"",""1"",""2253""
","
","
","""event"",""trial"",""time""
""fullscreenenter"",""1"",""2253""
","
","","","-1","","","20","13490","5931","n","elianto","#f73b6a7A","-1","-1","1","0","[]","0","2","","","13490","60","0","4","lose","no-go","0"
"pit-trial","182","1149167","0.0-65.0","battery-v0.2","","""event"",""trial"",""time""
""fullscreenenter"",""1"",""2253""
","
","
","""event"",""trial"",""time""
""fullscreenenter"",""1"",""2253""
","
","","","-1","","","20","13490","5931","t","elianto","#f73b6a7A","-1","-1","1","0","[]","0","2","","","13490","61","2","4","lose","no-go","0"
"pit-trial","183","1152987","0.0-66.0","battery-v0.2","","""event"",""trial"",""time""
""fullscreenenter"",""1"",""2253""
","
","
","""event"",""trial"",""time""
""fullscreenenter"",""1"",""2253""
","
","","","964.3999999761581","","","20","13490","5931","b","elianto","#f73b6a7A"," "," ","1","-10","[1815.2999999523163]","1","2","","","13490","62","3","3","lose","go","1"
"pit-trial","184","1157850","0.0-67.0","battery-v0.2","","""event"",""trial"",""time""
""fullscreenenter"",""1"",""2253""
","
","
","""event"",""trial"",""time""
""fullscreenenter"",""1"",""2253""
","
","","","-1","","","20","13490","5931","c","elianto","#3366ff99","-1","-1","1","+10","[]","0","2","","","13490","63","4","2","win","no-go","0"
"pit-trial","185","1161457","0.0-68.0","battery-v0.2","","""event"",""trial"",""time""
""fullscreenenter"",""1"",""2253""
","
","
","""event"",""trial"",""time""
""fullscreenenter"",""1"",""2253""
","
","","","753.4000000953674","","","20","13490","5931","f","elianto","#3366ff99"," "," ","1","0","[1603.8000000715256]","1","2","","","13490","64","1","1","win","go","1"
"pit-trial","186","1165187","0.0-69.0","battery-v0.2","","""event"",""trial"",""time""
""fullscreenenter"",""1"",""2253""
","
","
","""event"",""trial"",""time""
""fullscreenenter"",""1"",""2253""
","
","","","876","","","20","13490","5931","f","elianto","#3366ff99"," "," ","1","0","[1726.1000000238419]","1","2","","","13490","65","1","1","win","go","1"
"pit-trial","187","1170043","0.0-70.0","battery-v0.2","","""event"",""trial"",""time""
""fullscreenenter"",""1"",""2253""
","
","
","""event"",""trial"",""time""
""fullscreenenter"",""1"",""2253""
","
","","","-1","","","20","13490","5931","c","elianto","#3366ff99","-1","-1","1","+10","[]","0","2","","","13490","66","4","2","win","no-go","0"
"pit-trial","188","1174899","0.0-71.0","battery-v0.2","","""event"",""trial"",""time""
""fullscreenenter"",""1"",""2253""
","
","
","""event"",""trial"",""time""
""fullscreenenter"",""1"",""2253""
","
","","","-1","","","20","13490","5931","t","elianto","#f73b6a7A","-1","-1","1","0","[]","0","2","","","13490","67","2","4","lose","no-go","0"
"pit-trial","189","1178622","0.0-72.0","battery-v0.2","","""event"",""trial"",""time""
""fullscreenenter"",""1"",""2253""
","
","
","""event"",""trial"",""time""
""fullscreenenter"",""1"",""2253""
","
","","","867.8999999761581","","","20","13490","5931","b","elianto","#f73b6a7A"," "," ","1","-10","[1718.3999999761581]","1","2","","","13490","68","3","3","lose","go","1"
"pit-trial","190","1182914","0.0-73.0","battery-v0.2","","""event"",""trial"",""time""
""fullscreenenter"",""1"",""2253""
","
","
","""event"",""trial"",""time""
""fullscreenenter"",""1"",""2253""
","
","","","1437.2999999523163","","","20","13490","5931","z","elianto","#3366ff99"," "," ","1","+10","[2287.9000000953674]","1","2","","","13490","69","5","1","win","go","0"
"pit-trial","191","1186500","0.0-74.0","battery-v0.2","","""event"",""trial"",""time""
""fullscreenenter"",""1"",""2253""
","
","
","""event"",""trial"",""time""
""fullscreenenter"",""1"",""2253""
","
","","","725.3000000715256","","","20","13490","5931","f","elianto","#3366ff99"," "," ","1","+10","[1581.5]","1","2","","","13490","70","1","1","win","go","0"
"pit-trial","192","1191355","0.0-75.0","battery-v0.2","","""event"",""trial"",""time""
""fullscreenenter"",""1"",""2253""
","
","
","""event"",""trial"",""time""
""fullscreenenter"",""1"",""2253""
","
","","","-1","","","20","13490","5931","c","elianto","#3366ff99","-1","-1","1","+10","[]","0","2","","","13490","71","4","2","win","no-go","0"
"pit-trial","193","1195110","0.0-76.0","battery-v0.2","","""event"",""trial"",""time""
""fullscreenenter"",""1"",""2253""
","
","
","""event"",""trial"",""time""
""fullscreenenter"",""1"",""2253""
","
","","","894.5","","","20","13490","5931","b","elianto","#f73b6a7A"," "," ","1","0","[1751.1999999284744]","1","2","","","13490","72","3","3","lose","go","0"
"pit-trial","194","1198728","0.0-77.0","battery-v0.2","","""event"",""trial"",""time""
""fullscreenenter"",""1"",""2253""
","
","
","""event"",""trial"",""time""
""fullscreenenter"",""1"",""2253""
","
","","","762","","","20","13490","5931","f","elianto","#3366ff99"," "," ","1","+10","[1613.3000000715256]","1","2","","","13490","73","1","1","win","go","0"
"pit-trial","195","1202168","0.0-78.0","battery-v0.2","","""event"",""trial"",""time""
""fullscreenenter"",""1"",""2253""
","
","
","""event"",""trial"",""time""
""fullscreenenter"",""1"",""2253""
","
","","","584.8999999761581","","","20","13490","5931","b","elianto","#f73b6a7A"," "," ","1","0","[1436]","1","2","","","13490","74","3","3","lose","go","0"
"pit-trial","196","1205796","0.0-79.0","battery-v0.2","","""event"",""trial"",""time""
""fullscreenenter"",""1"",""2253""
","
","
","""event"",""trial"",""time""
""fullscreenenter"",""1"",""2253""
","
","","","770.7000000476837","","","20","13490","5931","z","elianto","#3366ff99"," "," ","1","+10","[1621.5999999046326]","1","2","","","13490","75","5","1","win","go","0"
"pit-trial","197","1210650","0.0-80.0","battery-v0.2","","""event"",""trial"",""time""
""fullscreenenter"",""1"",""2253""
","
","
","""event"",""trial"",""time""
""fullscreenenter"",""1"",""2253""
","
","","","-1","","","20","13490","5931","c","elianto","#3366ff99","-1","-1","1","+10","[]","0","2","","","13490","76","4","2","win","no-go","0"
"pit-trial","198","1214461","0.0-81.0","battery-v0.2","","""event"",""trial"",""time""
""fullscreenenter"",""1"",""2253""
","
","
","""event"",""trial"",""time""
""fullscreenenter"",""1"",""2253""
","
","","","955.1999999284744","","","20","13490","5931","b","elianto","#f73b6a7A"," "," ","1","-10","[1805.7999999523163]","1","2","","","13490","77","3","3","lose","go","1"
"pit-trial","199","1218105","0.0-82.0","battery-v0.2","","""event"",""trial"",""time""
""fullscreenenter"",""1"",""2253""
","
","
","""event"",""trial"",""time""
""fullscreenenter"",""1"",""2253""
","
","","","788.8000000715256","","","20","13490","5931","z","elianto","#3366ff99"," "," ","1","+10","[1639.7000000476837]","1","2","","","13490","78","5","1","win","go","0"
"pit-trial","200","1222833","0.0-83.0","battery-v0.2","","""event"",""trial"",""time""
""fullscreenenter"",""1"",""2253""
","
","
","""event"",""trial"",""time""
""fullscreenenter"",""1"",""2253""
","
","","","1873.1000000238419","","","20","13490","5931","h","elianto","#f73b6a7A","-1"," ","0","-10","[2723.2999999523163]","1","2","","","13490","79","6","4","lose","no-go","0"
"pit-trial","201","1227688","0.0-84.0","battery-v0.2","","""event"",""trial"",""time""
""fullscreenenter"",""1"",""2253""
","
","
","""event"",""trial"",""time""
""fullscreenenter"",""1"",""2253""
","
","","","-1","","","20","13490","5931","c","elianto","#3366ff99","-1","-1","1","+10","[]","0","2","","","13490","80","4","2","win","no-go","0"
"pit-trial","202","1231474","0.0-85.0","battery-v0.2","","""event"",""trial"",""time""
""fullscreenenter"",""1"",""2253""
","
","
","""event"",""trial"",""time""
""fullscreenenter"",""1"",""2253""
","
","","","930.7000000476837","","","20","13490","5931","z","elianto","#3366ff99"," "," ","1","0","[1781.4000000953674]","1","2","","","13490","81","5","1","win","go","1"
"pit-trial","203","1236330","0.0-86.0","battery-v0.2","","""event"",""trial"",""time""
""fullscreenenter"",""1"",""2253""
","
","
","""event"",""trial"",""time""
""fullscreenenter"",""1"",""2253""
","
","","","-1","","","20","13490","5931","c","elianto","#3366ff99","-1","-1","1","+10","[]","0","2","","","13490","82","4","2","win","no-go","0"
"pit-trial","204","1240216","0.0-87.0","battery-v0.2","","""event"",""trial"",""time""
""fullscreenenter"",""1"",""2253""
","
","
","""event"",""trial"",""time""
""fullscreenenter"",""1"",""2253""
","
","","","1030.2999999523163","","","20","13490","5931","y","elianto","#f73b6a7A"," "," ","1","0","[1881.6999999284744]","1","2","","","13490","83","7","3","lose","go","0"
"pit-trial","205","1245071","0.0-88.0","battery-v0.2","","""event"",""trial"",""time""
""fullscreenenter"",""1"",""2253""
","
","
","""event"",""trial"",""time""
""fullscreenenter"",""1"",""2253""
","
","","","-1","","","20","13490","5931","h","elianto","#f73b6a7A","-1","-1","1","-10","[]","0","2","","","13490","84","6","4","lose","no-go","1"
"pit-trial","206","1249926","0.0-89.0","battery-v0.2","","""event"",""trial"",""time""
""fullscreenenter"",""1"",""2253""
","
","
","""event"",""trial"",""time""
""fullscreenenter"",""1"",""2253""
","
","","","-1","","","20","13490","5931","c","elianto","#3366ff99","-1","-1","1","+10","[]","0","2","","","13490","85","4","2","win","no-go","0"
"pit-trial","207","1253475","0.0-90.0","battery-v0.2","","""event"",""trial"",""time""
""fullscreenenter"",""1"",""2253""
","
","
","""event"",""trial"",""time""
""fullscreenenter"",""1"",""2253""
","
","","","694.7000000476837","","","20","13490","5931","z","elianto","#3366ff99"," "," ","1","+10","[1544.9000000953674]","1","2","","","13490","86","5","1","win","go","0"
"pit-trial","208","1258330","0.0-91.0","battery-v0.2","","""event"",""trial"",""time""
""fullscreenenter"",""1"",""2253""
","
","
","""event"",""trial"",""time""
""fullscreenenter"",""1"",""2253""
","
","","","-1","","","20","13490","5931","h","elianto","#f73b6a7A","-1","-1","1","0","[]","0","2","","","13490","87","6","4","lose","no-go","0"
"pit-trial","209","1262239","0.0-92.0","battery-v0.2","","""event"",""trial"",""time""
""fullscreenenter"",""1"",""2253""
","
","
","""event"",""trial"",""time""
""fullscreenenter"",""1"",""2253""
","
","","","1053.6999999284744","","","20","13490","5931","y","elianto","#f73b6a7A"," "," ","1","0","[1904.6999999284744]","1","2","","","13490","88","7","3","lose","go","0"
"pit-trial","210","1266155","0.0-93.0","battery-v0.2","","""event"",""trial"",""time""
""fullscreenenter"",""1"",""2253""
","
","
","""event"",""trial"",""time""
""fullscreenenter"",""1"",""2253""
","
","","","1061.2000000476837","","","20","13490","5931","y","elianto","#f73b6a7A"," "," ","1","0","[1912.1000000238419]","1","2","","","13490","89","7","3","lose","go","0"
"pit-trial","211","1271012","0.0-94.0","battery-v0.2","","""event"",""trial"",""time""
""fullscreenenter"",""1"",""2253""
","
","
","""event"",""trial"",""time""
""fullscreenenter"",""1"",""2253""
","
","","","-1","","","20","13490","5931","h","elianto","#f73b6a7A","-1","-1","1","0","[]","0","2","","","13490","90","6","4","lose","no-go","0"
"pit-trial","212","1275867","0.0-95.0","battery-v0.2","","""event"",""trial"",""time""
""fullscreenenter"",""1"",""2253""
","
","
","""event"",""trial"",""time""
""fullscreenenter"",""1"",""2253""
","
","","","-1","","","20","13490","5931","c","elianto","#3366ff99","-1","-1","1","+10","[]","0","2","","","13490","91","4","2","win","no-go","0"
"pit-trial","213","1279613","0.0-96.0","battery-v0.2","","""event"",""trial"",""time""
""fullscreenenter"",""1"",""2253""
","
","
","""event"",""trial"",""time""
""fullscreenenter"",""1"",""2253""
","
","","","890.0999999046326","","","20","13490","5931","z","elianto","#3366ff99"," "," ","1","0","[1741.2000000476837]","1","2","","","13490","92","5","1","win","go","1"
"pit-trial","214","1283736","0.0-97.0","battery-v0.2","","""event"",""trial"",""time""
""fullscreenenter"",""1"",""2253""
","
","
","""event"",""trial"",""time""
""fullscreenenter"",""1"",""2253""
","
","","","1268","","","20","13490","5931","r","elianto","#3366ff99","-1"," ","0","0","[2119.2000000476837]","1","2","","","13490","93","8","2","win","no-go","0"
"pit-trial","215","1287530","0.0-98.0","battery-v0.2","","""event"",""trial"",""time""
""fullscreenenter"",""1"",""2253""
","
","
","""event"",""trial"",""time""
""fullscreenenter"",""1"",""2253""
","
","","","939.1999999284744","","","20","13490","5931","z","elianto","#3366ff99"," "," ","1","+10","[1790.1000000238419]","1","2","","","13490","94","5","1","win","go","0"
"pit-trial","216","1291204","0.0-99.0","battery-v0.2","","""event"",""trial"",""time""
""fullscreenenter"",""1"",""2253""
","
","
","""event"",""trial"",""time""
""fullscreenenter"",""1"",""2253""
","
","","","817.2999999523163","","","20","13490","5931","y","elianto","#f73b6a7A"," "," ","1","0","[1668.7999999523163]","1","2","","","13490","95","7","3","lose","go","0"
"pit-trial","217","1296058","0.0-100.0","battery-v0.2","","""event"",""trial"",""time""
""fullscreenenter"",""1"",""2253""
","
","
","""event"",""trial"",""time""
""fullscreenenter"",""1"",""2253""
","
","","","-1","","","20","13490","5931","h","elianto","#f73b6a7A","-1","-1","1","0","[]","0","2","","","13490","96","6","4","lose","no-go","0"
"pit-trial","218","1299775","0.0-101.0","battery-v0.2","","""event"",""trial"",""time""
""fullscreenenter"",""1"",""2253""
","
","
","""event"",""trial"",""time""
""fullscreenenter"",""1"",""2253""
","
","","","861.7999999523163","","","20","13490","5931","y","elianto","#f73b6a7A"," "," ","1","0","[1712.0999999046326]","1","2","","","13490","97","7","3","lose","go","0"
"pit-trial","219","1304629","0.0-102.0","battery-v0.2","","""event"",""trial"",""time""
""fullscreenenter"",""1"",""2253""
","
","
","""event"",""trial"",""time""
""fullscreenenter"",""1"",""2253""
","
","","","-1","","","20","13490","5931","r","elianto","#3366ff99","-1","-1","1","0","[]","0","2","","","13490","98","8","2","win","no-go","1"
"pit-trial","220","1308299","0.0-103.0","battery-v0.2","","""event"",""trial"",""time""
""fullscreenenter"",""1"",""2253""
","
","
","""event"",""trial"",""time""
""fullscreenenter"",""1"",""2253""
","
","","","814.2000000476837","","","20","13490","5931","z","elianto","#3366ff99"," "," ","1","+10","[1665.6000000238419]","1","2","","","13490","99","5","1","win","go","0"
"pit-trial","221","1313156","0.0-104.0","battery-v0.2","","""event"",""trial"",""time""
""fullscreenenter"",""1"",""2253""
","
","
","""event"",""trial"",""time""
""fullscreenenter"",""1"",""2253""
","
","","","-1","","","20","13490","5931","h","elianto","#f73b6a7A","-1","-1","1","-10","[]","0","2","","","13490","100","6","4","lose","no-go","1"
"pit-trial","222","1317291","0.0-105.0","battery-v0.2","","""event"",""trial"",""time""
""fullscreenenter"",""1"",""2253""
","
","
","""event"",""trial"",""time""
""fullscreenenter"",""1"",""2253""
","
","","","1281.2000000476837","","","20","13490","5931","m","elianto","#3366ff99","-1"," ","0","0","[2131.7000000476837]","1","2","","","13490","101","9","2","win","no-go","0"
"pit-trial","223","1321576","0.0-106.0","battery-v0.2","","""event"",""trial"",""time""
""fullscreenenter"",""1"",""2253""
","
","
","""event"",""trial"",""time""
""fullscreenenter"",""1"",""2253""
","
","","","1430.1000000238419","","","20","13490","5931","r","elianto","#3366ff99","-1"," ","0","0","[2280.9000000953674]","1","2","","","13490","102","8","2","win","no-go","0"
"pit-trial","224","1325603","0.0-107.0","battery-v0.2","","""event"",""trial"",""time""
""fullscreenenter"",""1"",""2253""
","
","
","""event"",""trial"",""time""
""fullscreenenter"",""1"",""2253""
","
","","","1173.2999999523163","","","20","13490","5931","z","elianto","#3366ff99"," "," ","1","+10","[2023.5999999046326]","1","2","","","13490","103","5","1","win","go","0"
"pit-trial","225","1330458","0.0-108.0","battery-v0.2","","""event"",""trial"",""time""
""fullscreenenter"",""1"",""2253""
","
","
","""event"",""trial"",""time""
""fullscreenenter"",""1"",""2253""
","
","","","-1","","","20","13490","5931","h","elianto","#f73b6a7A","-1","-1","1","0","[]","0","2","","","13490","104","6","4","lose","no-go","0"
"pit-trial","226","1335312","0.0-109.0","battery-v0.2","","""event"",""trial"",""time""
""fullscreenenter"",""1"",""2253""
","
","
","""event"",""trial"",""time""
""fullscreenenter"",""1"",""2253""
","
","","","-1","","","20","13490","5931","m","elianto","#3366ff99","-1","-1","1","+10","[]","0","2","","","13490","105","9","2","win","no-go","0"
"pit-trial","227","1340168","0.0-110.0","battery-v0.2","","""event"",""trial"",""time""
""fullscreenenter"",""1"",""2253""
","
","
","""event"",""trial"",""time""
""fullscreenenter"",""1"",""2253""
","
","","","-1","","","20","13490","5931","h","elianto","#f73b6a7A","-1","-1","1","0","[]","0","2","","","13490","106","6","4","lose","no-go","0"
"pit-trial","228","1345024","0.0-111.0","battery-v0.2","","""event"",""trial"",""time""
""fullscreenenter"",""1"",""2253""
","
","
","""event"",""trial"",""time""
""fullscreenenter"",""1"",""2253""
","
","","","-1","","","20","13490","5931","r","elianto","#3366ff99","-1","-1","1","0","[]","0","2","","","13490","107","8","2","win","no-go","1"
"pit-trial","229","1348620","0.0-112.0","battery-v0.2","","""event"",""trial"",""time""
""fullscreenenter"",""1"",""2253""
","
","
","""event"",""trial"",""time""
""fullscreenenter"",""1"",""2253""
","
","","","741.5","","","20","13490","5931","z","elianto","#3366ff99"," "," ","1","+10","[1591.6000000238419]","1","2","","","13490","108","5","1","win","go","0"
"pit-trial","230","1352943","0.0-113.0","battery-v0.2","","""event"",""trial"",""time""
""fullscreenenter"",""1"",""2253""
","
","
","""event"",""trial"",""time""
""fullscreenenter"",""1"",""2253""
","
","","","1463.5","","","20","13490","5931","z","elianto","#3366ff99"," "," ","1","+10","[2314.5]","1","2","","","13490","109","5","1","win","go","0"
"pit-trial","231","1357798","0.0-114.0","battery-v0.2","","""event"",""trial"",""time""
""fullscreenenter"",""1"",""2253""
","
","
","""event"",""trial"",""time""
""fullscreenenter"",""1"",""2253""
","
","","","-1","","","20","13490","5931","m","elianto","#3366ff99","-1","-1","1","+10","[]","0","2","","","13490","110","9","2","win","no-go","0"
"pit-trial","232","1362653","0.0-115.0","battery-v0.2","","""event"",""trial"",""time""
""fullscreenenter"",""1"",""2253""
","
","
","""event"",""trial"",""time""
""fullscreenenter"",""1"",""2253""
","
","","","-1","","","20","13490","5931","h","elianto","#f73b6a7A","-1","-1","1","0","[]","0","2","","","13490","111","6","4","lose","no-go","0"
"pit-trial","233","1367508","0.0-116.0","battery-v0.2","","""event"",""trial"",""time""
""fullscreenenter"",""1"",""2253""
","
","
","""event"",""trial"",""time""
""fullscreenenter"",""1"",""2253""
","
","","","-1","","","20","13490","5931","r","elianto","#3366ff99","-1","-1","1","0","[]","0","2","","","13490","112","8","2","win","no-go","1"
"pit-trial","234","1372364","0.0-117.0","battery-v0.2","","""event"",""trial"",""time""
""fullscreenenter"",""1"",""2253""
","
","
","""event"",""trial"",""time""
""fullscreenenter"",""1"",""2253""
","
","","","-1","","","20","13490","5931","m","elianto","#3366ff99","-1","-1","1","0","[]","0","2","","","13490","113","9","2","win","no-go","1"
"pit-trial","235","1375827","0.0-118.0","battery-v0.2","","""event"",""trial"",""time""
""fullscreenenter"",""1"",""2253""
","
","
","""event"",""trial"",""time""
""fullscreenenter"",""1"",""2253""
","
","","","607","","","20","13490","5931","z","elianto","#3366ff99"," "," ","1","+10","[1457.3999999761581]","1","2","","","13490","114","5","1","win","go","0"
"pit-trial","236","1379490","0.0-119.0","battery-v0.2","","""event"",""trial"",""time""
""fullscreenenter"",""1"",""2253""
","
","
","""event"",""trial"",""time""
""fullscreenenter"",""1"",""2253""
","
","","","808.1999999284744","","","20","13490","5931","y","elianto","#f73b6a7A"," "," ","1","0","[1659]","1","2","","","13490","115","7","3","lose","go","0"
"pit-trial","237","1384347","0.0-120.0","battery-v0.2","","""event"",""trial"",""time""
""fullscreenenter"",""1"",""2253""
","
","
","""event"",""trial"",""time""
""fullscreenenter"",""1"",""2253""
","
","","","-1","","","20","13490","5931","r","elianto","#3366ff99","-1","-1","1","+10","[]","0","2","","","13490","116","8","2","win","no-go","0"
"pit-trial","238","1389201","0.0-121.0","battery-v0.2","","""event"",""trial"",""time""
""fullscreenenter"",""1"",""2253""
","
","
","""event"",""trial"",""time""
""fullscreenenter"",""1"",""2253""
","
","","","-1","","","20","13490","5931","r","elianto","#3366ff99","-1","-1","1","+10","[]","0","2","","","13490","117","8","2","win","no-go","0"
"pit-trial","239","1392743","0.0-122.0","battery-v0.2","","""event"",""trial"",""time""
""fullscreenenter"",""1"",""2253""
","
","
","""event"",""trial"",""time""
""fullscreenenter"",""1"",""2253""
","
","","","686.7000000476837","","","20","13490","5931","z","elianto","#3366ff99"," "," ","1","+10","[1537.1000000238419]","1","2","","","13490","118","5","1","win","go","0"
"pit-trial","240","1397599","0.0-123.0","battery-v0.2","","""event"",""trial"",""time""
""fullscreenenter"",""1"",""2253""
","
","
","""event"",""trial"",""time""
""fullscreenenter"",""1"",""2253""
","
","","","-1","","","20","13490","5931","m","elianto","#3366ff99","-1","-1","1","0","[]","0","2","","","13490","119","9","2","win","no-go","1"
"pit-trial","241","1401640","0.0-124.0","battery-v0.2","","""event"",""trial"",""time""
""fullscreenenter"",""1"",""2253""
","
","
","""event"",""trial"",""time""
""fullscreenenter"",""1"",""2253""
","
","","","1185.5","","","20","13490","5931","h","elianto","#f73b6a7A","-1"," ","0","0","[2037.3000000715256]","1","2","","","13490","120","6","4","lose","no-go","1"
"pit-trial","242","1406495","0.0-125.0","battery-v0.2","","""event"",""trial"",""time""
""fullscreenenter"",""1"",""2253""
","
","
","""event"",""trial"",""time""
""fullscreenenter"",""1"",""2253""
","
","","","-1","","","20","13490","5931","m","elianto","#3366ff99","-1","-1","1","0","[]","0","2","","","13490","121","9","2","win","no-go","1"
"pit-trial","243","1410019","0.0-126.0","battery-v0.2","","""event"",""trial"",""time""
""fullscreenenter"",""1"",""2253""
","
","
","""event"",""trial"",""time""
""fullscreenenter"",""1"",""2253""
","
","","","668.3000000715256","","","20","13490","5931","z","elianto","#3366ff99"," "," ","1","0","[1519.7000000476837]","1","2","","","13490","122","5","1","win","go","1"
"pit-trial","244","1413862","0.0-127.0","battery-v0.2","","""event"",""trial"",""time""
""fullscreenenter"",""1"",""2253""
","
","
","""event"",""trial"",""time""
""fullscreenenter"",""1"",""2253""
","
","","","987","","","20","13490","5931","y","elianto","#f73b6a7A"," "," ","1","0","[1838.5999999046326]","1","2","","","13490","123","7","3","lose","go","0"
"pit-trial","245","1418717","0.0-128.0","battery-v0.2","","""event"",""trial"",""time""
""fullscreenenter"",""1"",""2253""
","
","
","""event"",""trial"",""time""
""fullscreenenter"",""1"",""2253""
","
","","","-1","","","20","13490","5931","r","elianto","#3366ff99","-1","-1","1","+10","[]","0","2","","","13490","124","8","2","win","no-go","0"
"pit-trial","246","1422332","0.0-129.0","battery-v0.2","","""event"",""trial"",""time""
""fullscreenenter"",""1"",""2253""
","
","
","""event"",""trial"",""time""
""fullscreenenter"",""1"",""2253""
","
","","","749.8000000715256","","","20","13490","5931","y","elianto","#f73b6a7A"," "," ","1","0","[1599.8999999761581]","1","2","","","13490","125","7","3","lose","go","0"
"pit-trial","247","1427188","0.0-130.0","battery-v0.2","","""event"",""trial"",""time""
""fullscreenenter"",""1"",""2253""
","
","
","""event"",""trial"",""time""
""fullscreenenter"",""1"",""2253""
","
","","","-1","","","20","13490","5931","m","elianto","#3366ff99","-1","-1","1","+10","[]","0","2","","","13490","126","9","2","win","no-go","0"
"pit-trial","248","1431393","0.0-131.0","battery-v0.2","","""event"",""trial"",""time""
""fullscreenenter"",""1"",""2253""
","
","
","""event"",""trial"",""time""
""fullscreenenter"",""1"",""2253""
","
","","","1350","","","20","13490","5931","h","elianto","#f73b6a7A","-1"," ","0","-10","[2201.100000023842]","1","2","","","13490","127","6","4","lose","no-go","0"
"pit-trial","249","1436251","0.0-132.0","battery-v0.2","","""event"",""trial"",""time""
""fullscreenenter"",""1"",""2253""
","
","
","""event"",""trial"",""time""
""fullscreenenter"",""1"",""2253""
","
","","","-1","","","20","13490","5931","r","elianto","#3366ff99","-1","-1","1","+10","[]","0","2","","","13490","128","8","2","win","no-go","0"
"pit-trial","250","1439894","0.0-133.0","battery-v0.2","","""event"",""trial"",""time""
""fullscreenenter"",""1"",""2253""
","
","
","""event"",""trial"",""time""
""fullscreenenter"",""1"",""2253""
","
","","","786.7999999523163","","","20","13490","5931","y","elianto","#f73b6a7A"," "," ","1","0","[1637.3000000715256]","1","2","","","13490","129","7","3","lose","go","0"
"pit-trial","251","1444748","0.0-134.0","battery-v0.2","","""event"",""trial"",""time""
""fullscreenenter"",""1"",""2253""
","
","
","""event"",""trial"",""time""
""fullscreenenter"",""1"",""2253""
","
","","","-1","","","20","13490","5931","m","elianto","#3366ff99","-1","-1","1","+10","[]","0","2","","","13490","130","9","2","win","no-go","0"
"pit-trial","252","1448468","0.0-135.0","battery-v0.2","","""event"",""trial"",""time""
""fullscreenenter"",""1"",""2253""
","
","
","""event"",""trial"",""time""
""fullscreenenter"",""1"",""2253""
","
","","","866.3000000715256","","","20","13490","5931","h","elianto","#f73b6a7A","-1"," ","0","-10","[1716.7000000476837]","1","2","","","13490","131","6","4","lose","no-go","0"
"pit-trial","253","1453323","0.0-136.0","battery-v0.2","","""event"",""trial"",""time""
""fullscreenenter"",""1"",""2253""
","
","
","""event"",""trial"",""time""
""fullscreenenter"",""1"",""2253""
","
","","","-1","","","20","13490","5931","r","elianto","#3366ff99","-1","-1","1","+10","[]","0","2","","","13490","132","8","2","win","no-go","0"
"pit-trial","254","1458177","0.0-137.0","battery-v0.2","","""event"",""trial"",""time""
""fullscreenenter"",""1"",""2253""
","
","
","""event"",""trial"",""time""
""fullscreenenter"",""1"",""2253""
","
","","","-1","","","20","13490","5931","r","elianto","#3366ff99","-1","-1","1","0","[]","0","2","","","13490","133","8","2","win","no-go","1"
"pit-trial","255","1462080","0.0-138.0","battery-v0.2","","""event"",""trial"",""time""
""fullscreenenter"",""1"",""2253""
","
","
","""event"",""trial"",""time""
""fullscreenenter"",""1"",""2253""
","
","","","1047.4000000953674","","","20","13490","5931","h","elianto","#f73b6a7A","-1"," ","0","-10","[1898.3000000715256]","1","2","","","13490","134","6","4","lose","no-go","0"
"pit-trial","256","1466189","0.0-139.0","battery-v0.2","","""event"",""trial"",""time""
""fullscreenenter"",""1"",""2253""
","
","
","""event"",""trial"",""time""
""fullscreenenter"",""1"",""2253""
","
","","","1254.8999999761581","","","20","13490","5931","y","elianto","#f73b6a7A"," "," ","1","0","[2105.100000023842]","1","2","","","13490","135","7","3","lose","go","0"
"pit-trial","257","1471045","0.0-140.0","battery-v0.2","","""event"",""trial"",""time""
""fullscreenenter"",""1"",""2253""
","
","
","""event"",""trial"",""time""
""fullscreenenter"",""1"",""2253""
","
","","","-1","","","20","13490","5931","m","elianto","#3366ff99","-1","-1","1","+10","[]","0","2","","","13490","136","9","2","win","no-go","0"
"pit-trial","258","1474773","0.0-141.0","battery-v0.2","","""event"",""trial"",""time""
""fullscreenenter"",""1"",""2253""
","
","
","""event"",""trial"",""time""
""fullscreenenter"",""1"",""2253""
","
","","","872.5999999046326","","","20","13490","5931","h","elianto","#f73b6a7A","-1"," ","0","-10","[1723.4000000953674]","1","2","","","13490","137","6","4","lose","no-go","0"
"pit-trial","259","1478587","0.0-142.0","battery-v0.2","","""event"",""trial"",""time""
""fullscreenenter"",""1"",""2253""
","
","
","""event"",""trial"",""time""
""fullscreenenter"",""1"",""2253""
","
","","","959.7999999523163","","","20","13490","5931","y","elianto","#f73b6a7A"," "," ","1","0","[1810]","1","2","","","13490","138","7","3","lose","go","0"
"pit-trial","260","1483443","0.0-143.0","battery-v0.2","","""event"",""trial"",""time""
""fullscreenenter"",""1"",""2253""
","
","
","""event"",""trial"",""time""
""fullscreenenter"",""1"",""2253""
","
","","","-1","","","20","13490","5931","r","elianto","#3366ff99","-1","-1","1","+10","[]","0","2","","","13490","139","8","2","win","no-go","0"
"pit-trial","261","1488298","0.0-144.0","battery-v0.2","","""event"",""trial"",""time""
""fullscreenenter"",""1"",""2253""
","
","
","""event"",""trial"",""time""
""fullscreenenter"",""1"",""2253""
","
","","","-1","","","20","13490","5931","m","elianto","#3366ff99","-1","-1","1","+10","[]","0","2","","","13490","140","9","2","win","no-go","0"
"pit-instructions","262","1505361","0.0-145.0","battery-v0.2","","""event"",""trial"",""time""
""fullscreenenter"",""1"",""2253""
","
","
","""event"",""trial"",""time""
""fullscreenenter"",""1"",""2253""
","
","","[{""page_index"":0,""viewing_time"":6569.799999952316},{""page_index"":1,""viewing_time"":10487.5}]","17058.5","","","","","","","","","","","","","","","","","","","","","","","",""
"pit-trial","263","1509041","0.0-146.0","battery-v0.2","","""event"",""trial"",""time""
""fullscreenenter"",""1"",""2253""
","
","
","""event"",""trial"",""time""
""fullscreenenter"",""1"",""2253""
","
","","","805","","","20","13490","5931","u","elianto","#f73b6a7A"," "," ","1","0","[1657]","1","3","","","13490","141","0","3","lose","go","0"
"pit-trial","264","1512929","0.0-147.0","battery-v0.2","","""event"",""trial"",""time""
""fullscreenenter"",""1"",""2253""
","
","
","""event"",""trial"",""time""
""fullscreenenter"",""1"",""2253""
","
","","","1016.5","","","20","13490","5931","a","elianto","#f73b6a7A"," "," ","1","-10","[1869.2999999523163]","1","3","","","13490","142","2","3","lose","go","1"
"pit-trial","265","1516363","0.0-148.0","battery-v0.2","","""event"",""trial"",""time""
""fullscreenenter"",""1"",""2253""
","
","
","""event"",""trial"",""time""
""fullscreenenter"",""1"",""2253""
","
","","","565.5","","","20","13490","5931","l","elianto","#3366ff99","-1"," ","0","0","[1417.6999999284744]","1","3","","","13490","143","1","2","win","no-go","0"
"pit-trial","266","1519955","0.0-149.0","battery-v0.2","","""event"",""trial"",""time""
""fullscreenenter"",""1"",""2253""
","
","
","""event"",""trial"",""time""
""fullscreenenter"",""1"",""2253""
","
","","","731.3999999761581","","","20","13490","5931","g","elianto","#f73b6a7A","-1"," ","0","-10","[1584.2999999523163]","1","3","","","13490","144","3","4","lose","no-go","0"
"pit-trial","267","1524826","0.0-150.0","battery-v0.2","","""event"",""trial"",""time""
""fullscreenenter"",""1"",""2253""
","
","
","""event"",""trial"",""time""
