"trial_type","trial_index","time_elapsed","internal_node_id","task_version","subject_id","interactions","blur_events","focus_events","fullscreenenter_events","fullscreenexit_events","success","view_history","rt","responses","num_errors","age","subject","participantId","rune","rune_set","hex","correct","choice","accuracy","outcome","keys","total_keys","block","practice","value","sub","trial","stimulus","robot","valence","action","sham"
"pavlovia","0","12","0.0-0.0","battery-v0.2","","""event"",""trial"",""time""
""fullscreenenter"",""1"",""1741""
","
","
","""event"",""trial"",""time""
""fullscreenenter"",""1"",""1741""
","
","","","","","","","","","","","","","","","","","","","","","","","","","","",""
"fullscreen","1","2738","0.0-1.0","battery-v0.2","","""event"",""trial"",""time""
""fullscreenenter"",""1"",""1741""
","
","
","""event"",""trial"",""time""
""fullscreenenter"",""1"",""1741""
","
","true","","","","","","","","","","","","","","","","","","","","","","","","","",""
"pit-instructions","2","9381","0.0-2.0-0.0","battery-v0.2","","""event"",""trial"",""time""
""fullscreenenter"",""1"",""1741""
","
","
","""event"",""trial"",""time""
""fullscreenenter"",""1"",""1741""
","
","","[{""page_index"":0,""viewing_time"":6636.800000011921}]","6637.699999988079","","","","","","","","","","","","","","","","","","","","","","","",""
"pit-comprehension","3","11699","0.0-2.0-1.0-0.0","battery-v0.2","","""event"",""trial"",""time""
""fullscreenenter"",""1"",""1741""
","
","
","""event"",""trial"",""time""
""fullscreenenter"",""1"",""1741""
","
","","","2311.399999976158","[""shark""]","0","20","8994","3978","","","","","","","","","","","","","","","","","","",""
"pit-instructions","4","13114","0.0-2.0-1.0-1.0","battery-v0.2","","""event"",""trial"",""time""
""fullscreenenter"",""1"",""1741""
","
","
","""event"",""trial"",""time""
""fullscreenenter"",""1"",""1741""
","
","","[{""page_index"":0,""viewing_time"":1405.6000000238419}]","1406.199999988079","","","","","","","","","","","","","","","","","","","","","","","",""
"pit-comprehension","5","14948","0.0-2.0-2.0-0.0","battery-v0.2","","""event"",""trial"",""time""
""fullscreenenter"",""1"",""1741""
","
","
","""event"",""trial"",""time""
""fullscreenenter"",""1"",""1741""
","
","","","1829.5","[""tiger""]","0","20","8994","3978","","","","","","","","","","","","","","","","","","",""
"pit-instructions","6","15814","0.0-2.0-2.0-1.0","battery-v0.2","","""event"",""trial"",""time""
""fullscreenenter"",""1"",""1741""
","
","
","""event"",""trial"",""time""
""fullscreenenter"",""1"",""1741""
","
","","[{""page_index"":0,""viewing_time"":861.1999999880791}]","862","","","","","","","","","","","","","","","","","","","","","","","",""
"pit-instructions","7","104531","0.0-2.0-3.0","battery-v0.2","","""event"",""trial"",""time""
""fullscreenenter"",""1"",""1741""
","
","
","""event"",""trial"",""time""
""fullscreenenter"",""1"",""1741""
","
","","[{""page_index"":0,""viewing_time"":7794.800000011921},{""page_index"":1,""viewing_time"":5916.899999976158},{""page_index"":2,""viewing_time"":6233.699999988079},{""page_index"":3,""viewing_time"":5049.800000011921},{""page_index"":4,""viewing_time"":5433.5},{""page_index"":5,""viewing_time"":5634.600000023842},{""page_index"":6,""viewing_time"":6714.899999976158},{""page_index"":7,""viewing_time"":6434.100000023842},{""page_index"":8,""viewing_time"":6032.899999976158},{""page_index"":9,""viewing_time"":7483.199999988079},{""page_index"":10,""viewing_time"":7500.800000011921},{""page_index"":11,""viewing_time"":6949.900000035763},{""page_index"":12,""viewing_time"":6732.299999952316},{""page_index"":13,""viewing_time"":4801.600000023842}]","88713.80000001192","","","","","","","","","","","","","","","","","","","","","","","",""
"pit-trial","8","107845","0.0-2.0-4.0-0.0","battery-v0.2","","""event"",""trial"",""time""
""fullscreenenter"",""1"",""1741""
","
","
","""event"",""trial"",""time""
""fullscreenenter"",""1"",""1741""
","
","","","448.69999998807907","","","20","8994","3978","&#9784;","elianto","#FFFFF080"," "," ","1","&#10004","[1302.1000000238419]","1","0","0","","","","","","","",""
"pit-trial","9","111181","0.0-2.0-4.1-0.1","battery-v0.2","","""event"",""trial"",""time""
""fullscreenenter"",""1"",""1741""
","
","
","""event"",""trial"",""time""
""fullscreenenter"",""1"",""1741""
","
","","","465.9000000357628","","","20","8994","3978","&#9784;","elianto","#FFFFF080"," "," ","1","&#10004","[1323.5]","1","0","0","","","","","","","",""
"pit-trial","10","114473","0.0-2.0-4.2-0.2","battery-v0.2","","""event"",""trial"",""time""
""fullscreenenter"",""1"",""1741""
","
","
","""event"",""trial"",""time""
""fullscreenenter"",""1"",""1741""
","
","","","425.60000002384186","","","20","8994","3978","&#9784;","elianto","#FFFFF080"," "," ","1","&#10004","[1281.5999999642372]","1","0","0","","","","","","","",""
"pit-trial","11","117745","0.0-2.0-4.3-0.3","battery-v0.2","","""event"",""trial"",""time""
""fullscreenenter"",""1"",""1741""
","
","
","""event"",""trial"",""time""
""fullscreenenter"",""1"",""1741""
","
","","","407.5","","","20","8994","3978","&#9784;","elianto","#FFFFF080"," "," ","1","&#10004","[1257.5]","1","0","0","","","","","","","",""
"pit-trial","12","120993","0.0-2.0-4.4-0.4","battery-v0.2","","""event"",""trial"",""time""
""fullscreenenter"",""1"",""1741""
","
","
","""event"",""trial"",""time""
""fullscreenenter"",""1"",""1741""
","
","","","375.5","","","20","8994","3978","&#9784;","elianto","#FFFFF080"," "," ","1","&#10004","[1234.5]","1","0","0","","","","","","","",""
"pit-instructions","13","141464","0.0-2.0-5.0","battery-v0.2","","""event"",""trial"",""time""
""fullscreenenter"",""1"",""1741""
","
","
","""event"",""trial"",""time""
""fullscreenenter"",""1"",""1741""
","
","","[{""page_index"":0,""viewing_time"":4799.5},{""page_index"":1,""viewing_time"":5282.900000035763},{""page_index"":2,""viewing_time"":4550},{""page_index"":3,""viewing_time"":5833.5}]","20466.600000023842","","","","","","","","","","","","","","","","","","","","","","","",""
"pit-trial","14","146336","0.0-2.0-6.0-0.0","battery-v0.2","","""event"",""trial"",""time""
""fullscreenenter"",""1"",""1741""
","
","
","""event"",""trial"",""time""
""fullscreenenter"",""1"",""1741""
","
","","","-1","","","20","8994","3978","&#9854;","elianto","#FFFFF080","-1","-1","1","&#10004","[]","0","0","1","","","","","","","",""
"pit-trial","15","151208","0.0-2.0-6.1-0.1","battery-v0.2","","""event"",""trial"",""time""
""fullscreenenter"",""1"",""1741""
","
","
","""event"",""trial"",""time""
""fullscreenenter"",""1"",""1741""
","
","","","-1","","","20","8994","3978","&#9854;","elianto","#FFFFF080","-1","-1","1","&#10004","[]","0","0","1","","","","","","","",""
"pit-trial","16","156075","0.0-2.0-6.2-0.2","battery-v0.2","","""event"",""trial"",""time""
""fullscreenenter"",""1"",""1741""
","
","
","""event"",""trial"",""time""
""fullscreenenter"",""1"",""1741""
","
","","","-1","","","20","8994","3978","&#9854;","elianto","#FFFFF080","-1","-1","1","&#10004","[]","0","0","1","","","","","","","",""
"pit-trial","17","160944","0.0-2.0-6.3-0.3","battery-v0.2","","""event"",""trial"",""time""
""fullscreenenter"",""1"",""1741""
","
","
","""event"",""trial"",""time""
""fullscreenenter"",""1"",""1741""
","
","","","-1","","","20","8994","3978","&#9854;","elianto","#FFFFF080","-1","-1","1","&#10004","[]","0","0","1","","","","","","","",""
"pit-trial","18","165816","0.0-2.0-6.4-0.4","battery-v0.2","","""event"",""trial"",""time""
""fullscreenenter"",""1"",""1741""
","
","
","""event"",""trial"",""time""
""fullscreenenter"",""1"",""1741""
","
","","","-1","","","20","8994","3978","&#9854;","elianto","#FFFFF080","-1","-1","1","&#10004","[]","0","0","1","","","","","","","",""
"pit-instructions","19","275780","0.0-2.0-7.0","battery-v0.2","","""event"",""trial"",""time""
""fullscreenenter"",""1"",""1741""
","
","
","""event"",""trial"",""time""
""fullscreenenter"",""1"",""1741""
","
","","[{""page_index"":0,""viewing_time"":5509.5},{""page_index"":1,""viewing_time"":6366.100000023842},{""page_index"":2,""viewing_time"":5499.699999988079},{""page_index"":3,""viewing_time"":6017.100000023842},{""page_index"":4,""viewing_time"":5183.5},{""page_index"":5,""viewing_time"":6050},{""page_index"":6,""viewing_time"":4116.799999952316},{""page_index"":7,""viewing_time"":7300},{""page_index"":8,""viewing_time"":6266.700000047684},{""page_index"":9,""viewing_time"":5850.199999988079},{""page_index"":10,""viewing_time"":7149.699999988079},{""page_index"":11,""viewing_time"":4083.300000011921},{""page_index"":12,""viewing_time"":6767.199999988079},{""page_index"":13,""viewing_time"":7049.5},{""page_index"":14,""viewing_time"":7550.399999976158},{""page_index"":15,""viewing_time"":6399.800000011921},{""page_index"":16,""viewing_time"":6017.5},{""page_index"":17,""viewing_time"":6782.900000035763}]","109960.60000002384","","","","","","","","","","","","","","","","","","","","","","","",""
"pit-trial","20","279013","0.0-2.0-8.0-0.0","battery-v0.2","","""event"",""trial"",""time""
""fullscreenenter"",""1"",""1741""
","
","
","""event"",""trial"",""time""
""fullscreenenter"",""1"",""1741""
","
","","","370.5","","","20","8994","3978","&#9776;","elianto","#3366ff99"," "," ","1","+10","[1226.199999988079]","1","0","1","","","","","","","",""
"pit-trial","21","282255","0.0-2.0-8.0-1.0","battery-v0.2","","""event"",""trial"",""time""
""fullscreenenter"",""1"",""1741""
","
","
","""event"",""trial"",""time""
""fullscreenenter"",""1"",""1741""
","
","","","375.19999998807907","","","20","8994","3978","&#9776;","elianto","#3366ff99"," "," ","1","+10","[1230.4000000357628]","1","0","1","","","","","","","",""
"pit-trial","22","285459","0.0-2.0-8.0-2.0","battery-v0.2","","""event"",""trial"",""time""
""fullscreenenter"",""1"",""1741""
","
","
","""event"",""trial"",""time""
""fullscreenenter"",""1"",""1741""
","
","","","344.89999997615814","","","20","8994","3978","&#9776;","elianto","#3366ff99"," "," ","1","+10","[1194.9000000357628]","1","0","1","","","","","","","",""
"pit-trial","23","288679","0.0-2.0-8.0-3.0","battery-v0.2","","""event"",""trial"",""time""
""fullscreenenter"",""1"",""1741""
","
","
","""event"",""trial"",""time""
""fullscreenenter"",""1"",""1741""
","
","","","352.9000000357628","","","20","8994","3978","&#9776;","elianto","#3366ff99"," "," ","1","0","[1206.3999999761581]","1","0","1","","","","","","","",""
"pit-trial","24","291823","0.0-2.0-8.0-4.0","battery-v0.2","","""event"",""trial"",""time""
""fullscreenenter"",""1"",""1741""
","
","
","""event"",""trial"",""time""
""fullscreenenter"",""1"",""1741""
","
","","","273.19999998807907","","","20","8994","3978","&#9776;","elianto","#3366ff99"," "," ","1","+10","[1131.800000011921]","1","0","1","","","","","","","",""
"pit-trial","25","294911","0.0-2.0-8.1-0.1","battery-v0.2","","""event"",""trial"",""time""
""fullscreenenter"",""1"",""1741""
","
","
","""event"",""trial"",""time""
""fullscreenenter"",""1"",""1741""
","
","","","222.79999995231628","","","20","8994","3978","&#9776;","elianto","#3366ff99"," "," ","1","+10","[1072.9000000357628]","1","0","1","","","","","","","",""
"pit-trial","26","297983","0.0-2.0-8.1-1.1","battery-v0.2","","""event"",""trial"",""time""
""fullscreenenter"",""1"",""1741""
","
","
","""event"",""trial"",""time""
""fullscreenenter"",""1"",""1741""
","
","","","195.80000001192093","","","20","8994","3978","&#9776;","elianto","#3366ff99"," "," ","1","+10","[1056.3999999761581]","1","0","1","","","","","","","",""
"pit-trial","27","301191","0.0-2.0-8.1-2.1","battery-v0.2","","""event"",""trial"",""time""
""fullscreenenter"",""1"",""1741""
","
","
","""event"",""trial"",""time""
""fullscreenenter"",""1"",""1741""
","
","","","339.5","","","20","8994","3978","&#9776;","elianto","#3366ff99"," "," ","1","+10","[1196.199999988079]","1","0","1","","","","","","","",""
"pit-trial","28","304334","0.0-2.0-8.1-3.1","battery-v0.2","","""event"",""trial"",""time""
""fullscreenenter"",""1"",""1741""
","
","
","""event"",""trial"",""time""
""fullscreenenter"",""1"",""1741""
","
","","","277","","","20","8994","3978","&#9776;","elianto","#3366ff99"," "," ","1","0","[1128]","1","0","1","","","","","","","",""
"pit-trial","29","307350","0.0-2.0-8.1-4.1","battery-v0.2","","""event"",""trial"",""time""
""fullscreenenter"",""1"",""1741""
","
","
","""event"",""trial"",""time""
""fullscreenenter"",""1"",""1741""
","
","","","151","","","20","8994","3978","&#9776;","elianto","#3366ff99"," "," ","1","+10","[1007.2000000476837]","1","0","1","","","","","","","",""
"pit-trial","30","310454","0.0-2.0-8.2-0.2","battery-v0.2","","""event"",""trial"",""time""
""fullscreenenter"",""1"",""1741""
","
","
","""event"",""trial"",""time""
""fullscreenenter"",""1"",""1741""
","
","","","239.5","","","20","8994","3978","&#9776;","elianto","#3366ff99"," "," ","1","+10","[1094.8999999761581]","1","0","1","","","","","","","",""
"pit-trial","31","313451","0.0-2.0-8.2-1.2","battery-v0.2","","""event"",""trial"",""time""
""fullscreenenter"",""1"",""1741""
","
","
","""event"",""trial"",""time""
""fullscreenenter"",""1"",""1741""
","
","","","132.5","","","20","8994","3978","&#9776;","elianto","#3366ff99"," "," ","1","+10","[985.8999999761581]","1","0","1","","","","","","","",""
"pit-trial","32","316492","0.0-2.0-8.2-2.2","battery-v0.2","","""event"",""trial"",""time""
""fullscreenenter"",""1"",""1741""
","
","
","""event"",""trial"",""time""
""fullscreenenter"",""1"",""1741""
","
","","","181.39999997615814","","","20","8994","3978","&#9776;","elianto","#3366ff99"," "," ","1","+10","[1036.6000000238419]","1","0","1","","","","","","","",""
"pit-trial","33","319563","0.0-2.0-8.2-3.2","battery-v0.2","","""event"",""trial"",""time""
""fullscreenenter"",""1"",""1741""
","
","
","""event"",""trial"",""time""
""fullscreenenter"",""1"",""1741""
","
","","","208.39999997615814","","","20","8994","3978","&#9776;","elianto","#3366ff99"," "," ","1","0","[1063]","1","0","1","","","","","","","",""
"pit-trial","34","322566","0.0-2.0-8.2-4.2","battery-v0.2","","""event"",""trial"",""time""
""fullscreenenter"",""1"",""1741""
","
","
","""event"",""trial"",""time""
""fullscreenenter"",""1"",""1741""
","
","","","131.5999999642372","","","20","8994","3978","&#9776;","elianto","#3366ff99"," "," ","1","+10","[987.3999999761581]","1","0","1","","","","","","","",""
"call-function","35","322569","0.0-2.0-9.0","battery-v0.2","","""event"",""trial"",""time""
""fullscreenenter"",""1"",""1741""
","
","
","""event"",""trial"",""time""
""fullscreenenter"",""1"",""1741""
","
","","","","","","","","","","","","","","","","","","","","","","","","","","",""
"pit-instructions","36","360896","0.0-2.0-10.0","battery-v0.2","","""event"",""trial"",""time""
""fullscreenenter"",""1"",""1741""
","
","
","""event"",""trial"",""time""
""fullscreenenter"",""1"",""1741""
","
","","[{""page_index"":0,""viewing_time"":5792.600000023842},{""page_index"":1,""viewing_time"":6683.100000023842},{""page_index"":2,""viewing_time"":9667.399999976158},{""page_index"":3,""viewing_time"":8982.899999976158},{""page_index"":4,""viewing_time"":7199.300000011921}]","38325.80000001192","","","","","","","","","","","","","","","","","","","","","","","",""
"pit-trial","37","365766","0.0-2.0-11.0-0.0","battery-v0.2","","""event"",""trial"",""time""
""fullscreenenter"",""1"",""1741""
","
","
","""event"",""trial"",""time""
""fullscreenenter"",""1"",""1741""
","
","","","-1","","","20","8994","3978","&#9761;","elianto","#3366ff99","-1","-1","1","+10","[]","0","0","2","","","","","","","",""
"pit-trial","38","370636","0.0-2.0-11.0-1.0","battery-v0.2","","""event"",""trial"",""time""
""fullscreenenter"",""1"",""1741""
","
","
","""event"",""trial"",""time""
""fullscreenenter"",""1"",""1741""
","
","","","-1","","","20","8994","3978","&#9761;","elianto","#3366ff99","-1","-1","1","+10","[]","0","0","2","","","","","","","",""
"pit-trial","39","375506","0.0-2.0-11.0-2.0","battery-v0.2","","""event"",""trial"",""time""
""fullscreenenter"",""1"",""1741""
","
","
","""event"",""trial"",""time""
""fullscreenenter"",""1"",""1741""
","
","","","-1","","","20","8994","3978","&#9761;","elianto","#3366ff99","-1","-1","1","+10","[]","0","0","2","","","","","","","",""
"pit-trial","40","380374","0.0-2.0-11.0-3.0","battery-v0.2","","""event"",""trial"",""time""
""fullscreenenter"",""1"",""1741""
","
","
","""event"",""trial"",""time""
""fullscreenenter"",""1"",""1741""
","
","","","-1","","","20","8994","3978","&#9761;","elianto","#3366ff99","-1","-1","1","0","[]","0","0","2","","","","","","","",""
"pit-trial","41","385243","0.0-2.0-11.0-4.0","battery-v0.2","","""event"",""trial"",""time""
""fullscreenenter"",""1"",""1741""
","
","
","""event"",""trial"",""time""
""fullscreenenter"",""1"",""1741""
","
","","","-1","","","20","8994","3978","&#9761;","elianto","#3366ff99","-1","-1","1","+10","[]","0","0","2","","","","","","","",""
"pit-trial","42","390110","0.0-2.0-11.1-0.1","battery-v0.2","","""event"",""trial"",""time""
""fullscreenenter"",""1"",""1741""
","
","
","""event"",""trial"",""time""
""fullscreenenter"",""1"",""1741""
","
","","","-1","","","20","8994","3978","&#9761;","elianto","#3366ff99","-1","-1","1","+10","[]","0","0","2","","","","","","","",""
"pit-trial","43","394981","0.0-2.0-11.1-1.1","battery-v0.2","","""event"",""trial"",""time""
""fullscreenenter"",""1"",""1741""
","
","
","""event"",""trial"",""time""
""fullscreenenter"",""1"",""1741""
","
","","","-1","","","20","8994","3978","&#9761;","elianto","#3366ff99","-1","-1","1","+10","[]","0","0","2","","","","","","","",""
"pit-trial","44","399850","0.0-2.0-11.1-2.1","battery-v0.2","","""event"",""trial"",""time""
""fullscreenenter"",""1"",""1741""
","
","
","""event"",""trial"",""time""
""fullscreenenter"",""1"",""1741""
","
","","","-1","","","20","8994","3978","&#9761;","elianto","#3366ff99","-1","-1","1","+10","[]","0","0","2","","","","","","","",""
"pit-trial","45","404714","0.0-2.0-11.1-3.1","battery-v0.2","","""event"",""trial"",""time""
""fullscreenenter"",""1"",""1741""
","
","
","""event"",""trial"",""time""
""fullscreenenter"",""1"",""1741""
","
","","","-1","","","20","8994","3978","&#9761;","elianto","#3366ff99","-1","-1","1","0","[]","0","0","2","","","","","","","",""
"pit-trial","46","409578","0.0-2.0-11.1-4.1","battery-v0.2","","""event"",""trial"",""time""
""fullscreenenter"",""1"",""1741""
","
","
","""event"",""trial"",""time""
""fullscreenenter"",""1"",""1741""
","
","","","-1","","","20","8994","3978","&#9761;","elianto","#3366ff99","-1","-1","1","+10","[]","0","0","2","","","","","","","",""
"pit-trial","47","414442","0.0-2.0-11.2-0.2","battery-v0.2","","""event"",""trial"",""time""
""fullscreenenter"",""1"",""1741""
","
","
","""event"",""trial"",""time""
""fullscreenenter"",""1"",""1741""
","
","","","-1","","","20","8994","3978","&#9761;","elianto","#3366ff99","-1","-1","1","+10","[]","0","0","2","","","","","","","",""
"pit-trial","48","419306","0.0-2.0-11.2-1.2","battery-v0.2","","""event"",""trial"",""time""
""fullscreenenter"",""1"",""1741""
","
","
","""event"",""trial"",""time""
""fullscreenenter"",""1"",""1741""
","
","","","-1","","","20","8994","3978","&#9761;","elianto","#3366ff99","-1","-1","1","+10","[]","0","0","2","","","","","","","",""
"pit-trial","49","424170","0.0-2.0-11.2-2.2","battery-v0.2","","""event"",""trial"",""time""
""fullscreenenter"",""1"",""1741""
","
","
","""event"",""trial"",""time""
""fullscreenenter"",""1"",""1741""
","
","","","-1","","","20","8994","3978","&#9761;","elianto","#3366ff99","-1","-1","1","+10","[]","0","0","2","","","","","","","",""
"pit-trial","50","429034","0.0-2.0-11.2-3.2","battery-v0.2","","""event"",""trial"",""time""
""fullscreenenter"",""1"",""1741""
","
","
","""event"",""trial"",""time""
""fullscreenenter"",""1"",""1741""
","
","","","-1","","","20","8994","3978","&#9761;","elianto","#3366ff99","-1","-1","1","0","[]","0","0","2","","","","","","","",""
"pit-trial","51","433898","0.0-2.0-11.2-4.2","battery-v0.2","","""event"",""trial"",""time""
""fullscreenenter"",""1"",""1741""
","
","
","""event"",""trial"",""time""
""fullscreenenter"",""1"",""1741""
","
","","","-1","","","20","8994","3978","&#9761;","elianto","#3366ff99","-1","-1","1","+10","[]","0","0","2","","","","","","","",""
"pit-trial","52","438761","0.0-2.0-11.3-0.3","battery-v0.2","","""event"",""trial"",""time""
""fullscreenenter"",""1"",""1741""
","
","
","""event"",""trial"",""time""
""fullscreenenter"",""1"",""1741""
","
","","","-1","","","20","8994","3978","&#9761;","elianto","#3366ff99","-1","-1","1","+10","[]","0","0","2","","","","","","","",""
"pit-trial","53","443626","0.0-2.0-11.3-1.3","battery-v0.2","","""event"",""trial"",""time""
""fullscreenenter"",""1"",""1741""
","
","
","""event"",""trial"",""time""
""fullscreenenter"",""1"",""1741""
","
","","","-1","","","20","8994","3978","&#9761;","elianto","#3366ff99","-1","-1","1","+10","[]","0","0","2","","","","","","","",""
"pit-trial","54","448490","0.0-2.0-11.3-2.3","battery-v0.2","","""event"",""trial"",""time""
""fullscreenenter"",""1"",""1741""
","
","
","""event"",""trial"",""time""
""fullscreenenter"",""1"",""1741""
","
","","","-1","","","20","8994","3978","&#9761;","elianto","#3366ff99","-1","-1","1","+10","[]","0","0","2","","","","","","","",""
"pit-trial","55","453354","0.0-2.0-11.3-3.3","battery-v0.2","","""event"",""trial"",""time""
""fullscreenenter"",""1"",""1741""
","
","
","""event"",""trial"",""time""
""fullscreenenter"",""1"",""1741""
","
","","","-1","","","20","8994","3978","&#9761;","elianto","#3366ff99","-1","-1","1","0","[]","0","0","2","","","","","","","",""
"pit-trial","56","458218","0.0-2.0-11.3-4.3","battery-v0.2","","""event"",""trial"",""time""
""fullscreenenter"",""1"",""1741""
","
","
","""event"",""trial"",""time""
""fullscreenenter"",""1"",""1741""
","
","","","-1","","","20","8994","3978","&#9761;","elianto","#3366ff99","-1","-1","1","+10","[]","0","0","2","","","","","","","",""
"call-function","57","458220","0.0-2.0-12.0","battery-v0.2","","""event"",""trial"",""time""
""fullscreenenter"",""1"",""1741""
","
","
","""event"",""trial"",""time""
""fullscreenenter"",""1"",""1741""
","
","","","","","","","","","","","","","","","","","","","","","","","","","","",""
"pit-instructions","58","488996","0.0-2.0-13.0","battery-v0.2","","""event"",""trial"",""time""
""fullscreenenter"",""1"",""1741""
","
","
","""event"",""trial"",""time""
""fullscreenenter"",""1"",""1741""
","
","","[{""page_index"":0,""viewing_time"":4842},{""page_index"":1,""viewing_time"":6916.300000011921},{""page_index"":2,""viewing_time"":4016.699999988079},{""page_index"":3,""viewing_time"":10083.899999976158},{""page_index"":4,""viewing_time"":4916}]","30775.600000023842","","","","","","","","","","","","","","","","","","","","","","","",""
"pit-trial","59","492194","0.0-2.0-14.0-0.0","battery-v0.2","","""event"",""trial"",""time""
""fullscreenenter"",""1"",""1741""
","
","
","""event"",""trial"",""time""
""fullscreenenter"",""1"",""1741""
","
","","","329.80000001192093","","","20","8994","3978","&#9826;","elianto","#f73b6a7A","-1"," ","0","-10","[1188.6000000238419]","1","0","3","","","","","","","",""
"pit-trial","60","497061","0.0-2.0-14.0-1.0","battery-v0.2","","""event"",""trial"",""time""
""fullscreenenter"",""1"",""1741""
","
","
","""event"",""trial"",""time""
""fullscreenenter"",""1"",""1741""
","
","","","-1","","","20","8994","3978","&#9826;","elianto","#f73b6a7A","-1","-1","1","0","[]","0","0","3","","","","","","","",""
"pit-trial","61","501929","0.0-2.0-14.0-2.0","battery-v0.2","","""event"",""trial"",""time""
""fullscreenenter"",""1"",""1741""
","
","
","""event"",""trial"",""time""
""fullscreenenter"",""1"",""1741""
","
","","","-1","","","20","8994","3978","&#9826;","elianto","#f73b6a7A","-1","-1","1","0","[]","0","0","3","","","","","","","",""
"pit-trial","62","506793","0.0-2.0-14.0-3.0","battery-v0.2","","""event"",""trial"",""time""
""fullscreenenter"",""1"",""1741""
","
","
","""event"",""trial"",""time""
""fullscreenenter"",""1"",""1741""
","
","","","-1","","","20","8994","3978","&#9826;","elianto","#f73b6a7A","-1","-1","1","-10","[]","0","0","3","","","","","","","",""
"pit-trial","63","511661","0.0-2.0-14.0-4.0","battery-v0.2","","""event"",""trial"",""time""
""fullscreenenter"",""1"",""1741""
","
","
","""event"",""trial"",""time""
""fullscreenenter"",""1"",""1741""
","
","","","-1","","","20","8994","3978","&#9826;","elianto","#f73b6a7A","-1","-1","1","0","[]","0","0","3","","","","","","","",""
"pit-trial","64","516533","0.0-2.0-14.1-0.1","battery-v0.2","","""event"",""trial"",""time""
""fullscreenenter"",""1"",""1741""
","
","
","""event"",""trial"",""time""
""fullscreenenter"",""1"",""1741""
","
","","","-1","","","20","8994","3978","&#9826;","elianto","#f73b6a7A","-1","-1","1","0","[]","0","0","3","","","","","","","",""
"pit-trial","65","521400","0.0-2.0-14.1-1.1","battery-v0.2","","""event"",""trial"",""time""
""fullscreenenter"",""1"",""1741""
","
","
","""event"",""trial"",""time""
""fullscreenenter"",""1"",""1741""
","
","","","-1","","","20","8994","3978","&#9826;","elianto","#f73b6a7A","-1","-1","1","0","[]","0","0","3","","","","","","","",""
"pit-trial","66","526264","0.0-2.0-14.1-2.1","battery-v0.2","","""event"",""trial"",""time""
""fullscreenenter"",""1"",""1741""
","
","
","""event"",""trial"",""time""
""fullscreenenter"",""1"",""1741""
","
","","","-1","","","20","8994","3978","&#9826;","elianto","#f73b6a7A","-1","-1","1","0","[]","0","0","3","","","","","","","",""
"pit-trial","67","531128","0.0-2.0-14.1-3.1","battery-v0.2","","""event"",""trial"",""time""
""fullscreenenter"",""1"",""1741""
","
","
","""event"",""trial"",""time""
""fullscreenenter"",""1"",""1741""
","
","","","-1","","","20","8994","3978","&#9826;","elianto","#f73b6a7A","-1","-1","1","-10","[]","0","0","3","","","","","","","",""
"pit-trial","68","535992","0.0-2.0-14.1-4.1","battery-v0.2","","""event"",""trial"",""time""
""fullscreenenter"",""1"",""1741""
","
","
","""event"",""trial"",""time""
""fullscreenenter"",""1"",""1741""
","
","","","-1","","","20","8994","3978","&#9826;","elianto","#f73b6a7A","-1","-1","1","0","[]","0","0","3","","","","","","","",""
"pit-trial","69","540856","0.0-2.0-14.2-0.2","battery-v0.2","","""event"",""trial"",""time""
""fullscreenenter"",""1"",""1741""
","
","
","""event"",""trial"",""time""
""fullscreenenter"",""1"",""1741""
","
","","","-1","","","20","8994","3978","&#9826;","elianto","#f73b6a7A","-1","-1","1","0","[]","0","0","3","","","","","","","",""
"pit-trial","70","545720","0.0-2.0-14.2-1.2","battery-v0.2","","""event"",""trial"",""time""
""fullscreenenter"",""1"",""1741""
","
","
","""event"",""trial"",""time""
""fullscreenenter"",""1"",""1741""
","
","","","-1","","","20","8994","3978","&#9826;","elianto","#f73b6a7A","-1","-1","1","0","[]","0","0","3","","","","","","","",""
"pit-trial","71","550584","0.0-2.0-14.2-2.2","battery-v0.2","","""event"",""trial"",""time""
""fullscreenenter"",""1"",""1741""
","
","
","""event"",""trial"",""time""
""fullscreenenter"",""1"",""1741""
","
","","","-1","","","20","8994","3978","&#9826;","elianto","#f73b6a7A","-1","-1","1","0","[]","0","0","3","","","","","","","",""
"pit-trial","72","555448","0.0-2.0-14.2-3.2","battery-v0.2","","""event"",""trial"",""time""
""fullscreenenter"",""1"",""1741""
","
","
","""event"",""trial"",""time""
""fullscreenenter"",""1"",""1741""
","
","","","-1","","","20","8994","3978","&#9826;","elianto","#f73b6a7A","-1","-1","1","-10","[]","0","0","3","","","","","","","",""
"pit-trial","73","560312","0.0-2.0-14.2-4.2","battery-v0.2","","""event"",""trial"",""time""
""fullscreenenter"",""1"",""1741""
","
","
","""event"",""trial"",""time""
""fullscreenenter"",""1"",""1741""
","
","","","-1","","","20","8994","3978","&#9826;","elianto","#f73b6a7A","-1","-1","1","0","[]","0","0","3","","","","","","","",""
"pit-trial","74","565176","0.0-2.0-14.3-0.3","battery-v0.2","","""event"",""trial"",""time""
""fullscreenenter"",""1"",""1741""
","
","
","""event"",""trial"",""time""
""fullscreenenter"",""1"",""1741""
","
","","","-1","","","20","8994","3978","&#9826;","elianto","#f73b6a7A","-1","-1","1","0","[]","0","0","3","","","","","","","",""
"pit-trial","75","570044","0.0-2.0-14.3-1.3","battery-v0.2","","""event"",""trial"",""time""
""fullscreenenter"",""1"",""1741""
","
","
","""event"",""trial"",""time""
""fullscreenenter"",""1"",""1741""
","
","","","-1","","","20","8994","3978","&#9826;","elianto","#f73b6a7A","-1","-1","1","0","[]","0","0","3","","","","","","","",""
"pit-trial","76","574914","0.0-2.0-14.3-2.3","battery-v0.2","","""event"",""trial"",""time""
""fullscreenenter"",""1"",""1741""
","
","
","""event"",""trial"",""time""
""fullscreenenter"",""1"",""1741""
","
","","","-1","","","20","8994","3978","&#9826;","elianto","#f73b6a7A","-1","-1","1","0","[]","0","0","3","","","","","","","",""
"pit-trial","77","579784","0.0-2.0-14.3-3.3","battery-v0.2","","""event"",""trial"",""time""
""fullscreenenter"",""1"",""1741""
","
","
","""event"",""trial"",""time""
""fullscreenenter"",""1"",""1741""
","
","","","-1","","","20","8994","3978","&#9826;","elianto","#f73b6a7A","-1","-1","1","-10","[]","0","0","3","","","","","","","",""
"pit-trial","78","584648","0.0-2.0-14.3-4.3","battery-v0.2","","""event"",""trial"",""time""
""fullscreenenter"",""1"",""1741""
","
","
","""event"",""trial"",""time""
""fullscreenenter"",""1"",""1741""
","
","","","-1","","","20","8994","3978","&#9826;","elianto","#f73b6a7A","-1","-1","1","0","[]","0","0","3","","","","","","","",""
"call-function","79","584651","0.0-2.0-15.0","battery-v0.2","","""event"",""trial"",""time""
""fullscreenenter"",""1"",""1741""
","
","
","""event"",""trial"",""time""
""fullscreenenter"",""1"",""1741""
","
","","","","","","","","","","","","","","","","","","","","","","","","","","",""
"pit-instructions","80","608530","0.0-2.0-16.0","battery-v0.2","","""event"",""trial"",""time""
""fullscreenenter"",""1"",""1741""
","
","
","""event"",""trial"",""time""
""fullscreenenter"",""1"",""1741""
","
","","[{""page_index"":0,""viewing_time"":6461.5},{""page_index"":1,""viewing_time"":8600},{""page_index"":2,""viewing_time"":4149.800000011921},{""page_index"":3,""viewing_time"":4666.800000011921}]","23878.69999998808","","","","","","","","","","","","","","","","","","","","","","","",""
"pit-trial","81","611778","0.0-2.0-17.0-0.0","battery-v0.2","","""event"",""trial"",""time""
""fullscreenenter"",""1"",""1741""
","
","
","""event"",""trial"",""time""
""fullscreenenter"",""1"",""1741""
","
","","","380.9000000357628","","","20","8994","3978","&#9789;","elianto","#f73b6a7A"," "," ","1","0","[1239]","1","0","4","","","","","","","",""
"pit-trial","82","614884","0.0-2.0-17.0-1.0","battery-v0.2","","""event"",""trial"",""time""
""fullscreenenter"",""1"",""1741""
","
","
","""event"",""trial"",""time""
""fullscreenenter"",""1"",""1741""
","
","","","235.60000002384186","","","20","8994","3978","&#9789;","elianto","#f73b6a7A"," "," ","1","0","[1095.9000000357628]","1","0","4","","","","","","","",""
"pit-trial","83","618051","0.0-2.0-17.0-2.0","battery-v0.2","","""event"",""trial"",""time""
""fullscreenenter"",""1"",""1741""
","
","
","""event"",""trial"",""time""
""fullscreenenter"",""1"",""1741""
","
","","","296.7999999523163","","","20","8994","3978","&#9789;","elianto","#f73b6a7A"," "," ","1","0","[1152.699999988079]","1","0","4","","","","","","","",""
"pit-trial","84","621127","0.0-2.0-17.0-3.0","battery-v0.2","","""event"",""trial"",""time""
""fullscreenenter"",""1"",""1741""
","
","
","""event"",""trial"",""time""
""fullscreenenter"",""1"",""1741""
","
","","","215.70000004768372","","","20","8994","3978","&#9789;","elianto","#f73b6a7A"," "," ","1","-10","[1071.3999999761581]","1","0","4","","","","","","","",""
"pit-trial","85","624123","0.0-2.0-17.0-4.0","battery-v0.2","","""event"",""trial"",""time""
""fullscreenenter"",""1"",""1741""
","
","
","""event"",""trial"",""time""
""fullscreenenter"",""1"",""1741""
","
","","","130","","","20","8994","3978","&#9789;","elianto","#f73b6a7A"," "," ","1","0","[983.8000000119209]","1","0","4","","","","","","","",""
"pit-trial","86","627186","0.0-2.0-17.1-0.1","battery-v0.2","","""event"",""trial"",""time""
""fullscreenenter"",""1"",""1741""
","
","
","""event"",""trial"",""time""
""fullscreenenter"",""1"",""1741""
","
","","","198.19999998807907","","","20","8994","3978","&#9789;","elianto","#f73b6a7A"," "," ","1","0","[1048.699999988079]","1","0","4","","","","","","","",""
"pit-trial","87","630331","0.0-2.0-17.1-1.1","battery-v0.2","","""event"",""trial"",""time""
""fullscreenenter"",""1"",""1741""
","
","
","""event"",""trial"",""time""
""fullscreenenter"",""1"",""1741""
","
","","","278.5999999642372","","","20","8994","3978","&#9789;","elianto","#f73b6a7A"," "," ","1","0","[1132]","1","0","4","","","","","","","",""
"pit-trial","88","633575","0.0-2.0-17.1-2.1","battery-v0.2","","""event"",""trial"",""time""
""fullscreenenter"",""1"",""1741""
","
","
","""event"",""trial"",""time""
""fullscreenenter"",""1"",""1741""
","
","","","377.19999998807907","","","20","8994","3978","&#9789;","elianto","#f73b6a7A"," "," ","1","0","[1233.699999988079]","1","0","4","","","","","","","",""
"pit-trial","89","636707","0.0-2.0-17.1-3.1","battery-v0.2","","""event"",""trial"",""time""
""fullscreenenter"",""1"",""1741""
","
","
","""event"",""trial"",""time""
""fullscreenenter"",""1"",""1741""
","
","","","271.2999999523163","","","20","8994","3978","&#9789;","elianto","#f73b6a7A"," "," ","1","-10","[1122.5]","1","0","4","","","","","","","",""
"pit-trial","90","639771","0.0-2.0-17.1-4.1","battery-v0.2","","""event"",""trial"",""time""
""fullscreenenter"",""1"",""1741""
","
","
","""event"",""trial"",""time""
""fullscreenenter"",""1"",""1741""
","
","","","201.0999999642372","","","20","8994","3978","&#9789;","elianto","#f73b6a7A"," "," ","1","0","[1052]","1","0","4","","","","","","","",""
"pit-trial","91","642880","0.0-2.0-17.2-0.2","battery-v0.2","","""event"",""trial"",""time""
""fullscreenenter"",""1"",""1741""
","
","
","""event"",""trial"",""time""
""fullscreenenter"",""1"",""1741""
","
","","","248.69999998807907","","","20","8994","3978","&#9789;","elianto","#f73b6a7A"," "," ","1","0","[1102.0999999642372]","1","0","4","","","","","","","",""
"pit-trial","92","646010","0.0-2.0-17.2-1.2","battery-v0.2","","""event"",""trial"",""time""
""fullscreenenter"",""1"",""1741""
","
","
","""event"",""trial"",""time""
""fullscreenenter"",""1"",""1741""
","
","","","265.30000001192093","","","20","8994","3978","&#9789;","elianto","#f73b6a7A"," "," ","1","0","[1120.9000000357628]","1","0","4","","","","","","","",""
"pit-trial","93","649072","0.0-2.0-17.2-2.2","battery-v0.2","","""event"",""trial"",""time""
""fullscreenenter"",""1"",""1741""
","
","
","""event"",""trial"",""time""
""fullscreenenter"",""1"",""1741""
","
","","","190.0999999642372","","","20","8994","3978","&#9789;","elianto","#f73b6a7A"," "," ","1","0","[1051.1000000238419]","1","0","4","","","","","","","",""
"pit-trial","94","652192","0.0-2.0-17.2-3.2","battery-v0.2","","""event"",""trial"",""time""
""fullscreenenter"",""1"",""1741""
","
","
","""event"",""trial"",""time""
""fullscreenenter"",""1"",""1741""
","
","","","262.80000001192093","","","20","8994","3978","&#9789;","elianto","#f73b6a7A"," "," ","1","-10","[1113.3999999761581]","1","0","4","","","","","","","",""
"pit-trial","95","655296","0.0-2.0-17.2-4.2","battery-v0.2","","""event"",""trial"",""time""
""fullscreenenter"",""1"",""1741""
","
","
","""event"",""trial"",""time""
""fullscreenenter"",""1"",""1741""
","
","","","238.89999997615814","","","20","8994","3978","&#9789;","elianto","#f73b6a7A"," "," ","1","0","[1094.3999999761581]","1","0","4","","","","","","","",""
"pit-trial","96","658399","0.0-2.0-17.3-0.3","battery-v0.2","","""event"",""trial"",""time""
""fullscreenenter"",""1"",""1741""
","
","
","""event"",""trial"",""time""
""fullscreenenter"",""1"",""1741""
","
","","","240","","","20","8994","3978","&#9789;","elianto","#f73b6a7A"," "," ","1","0","[1094.9000000357628]","1","0","4","","","","","","","",""
"pit-trial","97","661520","0.0-2.0-17.3-1.3","battery-v0.2","","""event"",""trial"",""time""
""fullscreenenter"",""1"",""1741""
","
","
","""event"",""trial"",""time""
""fullscreenenter"",""1"",""1741""
","
","","","259.80000001192093","","","20","8994","3978","&#9789;","elianto","#f73b6a7A"," "," ","1","0","[1115.5]","1","0","4","","","","","","","",""
"pit-trial","98","664672","0.0-2.0-17.3-2.3","battery-v0.2","","""event"",""trial"",""time""
""fullscreenenter"",""1"",""1741""
","
","
","""event"",""trial"",""time""
""fullscreenenter"",""1"",""1741""
","
","","","286.60000002384186","","","20","8994","3978","&#9789;","elianto","#f73b6a7A"," "," ","1","0","[1141.6000000238419]","1","0","4","","","","","","","",""
"pit-trial","99","667850","0.0-2.0-17.3-3.3","battery-v0.2","","""event"",""trial"",""time""
""fullscreenenter"",""1"",""1741""
","
","
","""event"",""trial"",""time""
""fullscreenenter"",""1"",""1741""
","
","","","315.5","","","20","8994","3978","&#9789;","elianto","#f73b6a7A"," "," ","1","-10","[1167.699999988079]","1","0","4","","","","","","","",""
"pit-trial","100","670986","0.0-2.0-17.3-4.3","battery-v0.2","","""event"",""trial"",""time""
""fullscreenenter"",""1"",""1741""
","
","
","""event"",""trial"",""time""
""fullscreenenter"",""1"",""1741""
","
","","","270.80000001192093","","","20","8994","3978","&#9789;","elianto","#f73b6a7A"," "," ","1","0","[1126.2000000476837]","1","0","4","","","","","","","",""
"call-function","101","670989","0.0-2.0-18.0","battery-v0.2","","""event"",""trial"",""time""
""fullscreenenter"",""1"",""1741""
","
","
","""event"",""trial"",""time""
""fullscreenenter"",""1"",""1741""
","
","","","","","","","","","","","","","","","","","","","","","","","","","","",""
"pit-instructions","102","745464","0.0-2.0-19.0","battery-v0.2","","""event"",""trial"",""time""
""fullscreenenter"",""1"",""1741""
","
","
","""event"",""trial"",""time""
""fullscreenenter"",""1"",""1741""
","
","","[{""page_index"":0,""viewing_time"":6405.399999976158},{""page_index"":1,""viewing_time"":5617.199999988079},{""page_index"":2,""viewing_time"":13166.800000011921},{""page_index"":3,""viewing_time"":7217.100000023842},{""page_index"":4,""viewing_time"":8049.599999964237},{""page_index"":5,""viewing_time"":9750.200000047684},{""page_index"":6,""viewing_time"":8183.399999976158},{""page_index"":7,""viewing_time"":3450.199999988079},{""page_index"":6,""viewing_time"":800.1000000238419},{""page_index"":7,""viewing_time"":7916.399999976158},{""page_index"":8,""viewing_time"":3916.900000035763}]","74474.09999996424","","","","","","","","","","","","","","","","","","","","","","","",""
"pit-comprehension","103","749581","0.0-2.0-20.0-0.0","battery-v0.2","","""event"",""trial"",""time""
""fullscreenenter"",""1"",""1741""
","
","
","""event"",""trial"",""time""
""fullscreenenter"",""1"",""1741""
","
","","","4112","[""SPACE""]","0","20","8994","3978","","","","","","","","","","","","","","","","","","",""
"pit-instructions","104","752114","0.0-2.0-20.0-1.0","battery-v0.2","","""event"",""trial"",""time""
""fullscreenenter"",""1"",""1741""
","
","
","""event"",""trial"",""time""
""fullscreenenter"",""1"",""1741""
","
","","[{""page_index"":0,""viewing_time"":2500.599999964237}]","2501.399999976158","","","","","","","","","","","","","","","","","","","","","","","",""
"pit-comprehension","105","756864","0.0-2.0-21.0-0.0","battery-v0.2","","""event"",""trial"",""time""
""fullscreenenter"",""1"",""1741""
","
","
","""event"",""trial"",""time""
""fullscreenenter"",""1"",""1741""
","
","","","4745.100000023842","[""10""]","0","20","8994","3978","","","","","","","","","","","","","","","","","","",""
"pit-instructions","106","758364","0.0-2.0-21.0-1.0","battery-v0.2","","""event"",""trial"",""time""
""fullscreenenter"",""1"",""1741""
","
","
","""event"",""trial"",""time""
""fullscreenenter"",""1"",""1741""
","
","","[{""page_index"":0,""viewing_time"":1473.5}]","1474.0999999642372","","","","","","","","","","","","","","","","","","","","","","","",""
"pit-comprehension","107","764714","0.0-2.0-22.0-0.0","battery-v0.2","","""event"",""trial"",""time""
""fullscreenenter"",""1"",""1741""
","
","
","""event"",""trial"",""time""
""fullscreenenter"",""1"",""1741""
","
","","","6345.699999988079","[""0""]","0","20","8994","3978","","","","","","","","","","","","","","","","","","",""
"pit-instructions","108","766213","0.0-2.0-22.0-1.0","battery-v0.2","","""event"",""trial"",""time""
""fullscreenenter"",""1"",""1741""
","
","
","""event"",""trial"",""time""
""fullscreenenter"",""1"",""1741""
","
","","[{""page_index"":0,""viewing_time"":1473.300000011921}]","1473.9000000357628","","","","","","","","","","","","","","","","","","","","","","","",""
"pit-comprehension","109","774298","0.0-2.0-23.0-0.0","battery-v0.2","","""event"",""trial"",""time""
""fullscreenenter"",""1"",""1741""
","
","
","""event"",""trial"",""time""
""fullscreenenter"",""1"",""1741""
","
","","","8079.5","[""True""]","0","20","8994","3978","","","","","","","","","","","","","","","","","","",""
"pit-instructions","110","775730","0.0-2.0-23.0-1.0","battery-v0.2","","""event"",""trial"",""time""
""fullscreenenter"",""1"",""1741""
","
","
","""event"",""trial"",""time""
""fullscreenenter"",""1"",""1741""
","
","","[{""page_index"":0,""viewing_time"":1404.300000011921}]","1404.9000000357628","","","","","","","","","","","","","","","","","","","","","","","",""
"pit-comprehension","111","782848","0.0-2.0-24.0-0.0","battery-v0.2","","""event"",""trial"",""time""
""fullscreenenter"",""1"",""1741""
","
","
","""event"",""trial"",""time""
""fullscreenenter"",""1"",""1741""
","
","","","7112.599999964237","[""True""]","0","20","8994","3978","","","","","","","","","","","","","","","","","","",""
"pit-instructions","112","784497","0.0-2.0-24.0-1.0","battery-v0.2","","""event"",""trial"",""time""
""fullscreenenter"",""1"",""1741""
","
","
","""event"",""trial"",""time""
""fullscreenenter"",""1"",""1741""
","
","","[{""page_index"":0,""viewing_time"":1619.8999999761581}]","1620.5","","","","","","","","","","","","","","","","","","","","","","","",""
"pit-comprehension","113","790781","0.0-2.0-25.0-0.0","battery-v0.2","","""event"",""trial"",""time""
""fullscreenenter"",""1"",""1741""
","
","
","""event"",""trial"",""time""
""fullscreenenter"",""1"",""1741""
","
","","","6279.399999976158","[""True""]","0","20","8994","3978","","","","","","","","","","","","","","","","","","",""
"pit-instructions","114","792197","0.0-2.0-25.0-1.0","battery-v0.2","","""event"",""trial"",""time""
""fullscreenenter"",""1"",""1741""
","
","
","""event"",""trial"",""time""
""fullscreenenter"",""1"",""1741""
","
","","[{""page_index"":0,""viewing_time"":1382.5}]","1383.199999988079","","","","","","","","","","","","","","","","","","","","","","","",""
"pit-comprehension","115","796665","0.0-2.0-26.0-0.0","battery-v0.2","","""event"",""trial"",""time""
""fullscreenenter"",""1"",""1741""
","
","
","""event"",""trial"",""time""
""fullscreenenter"",""1"",""1741""
","
","","","4463","[""False""]","0","20","8994","3978","","","","","","","","","","","","","","","","","","",""
"pit-instructions","116","798363","0.0-2.0-26.0-1.0","battery-v0.2","","""event"",""trial"",""time""
""fullscreenenter"",""1"",""1741""
","
","
","""event"",""trial"",""time""
""fullscreenenter"",""1"",""1741""
","
","","[{""page_index"":0,""viewing_time"":1671.199999988079}]","1671.800000011921","","","","","","","","","","","","","","","","","","","","","","","",""
"pit-instructions","117","814880","0.0-3.0","battery-v0.2","","""event"",""trial"",""time""
""fullscreenenter"",""1"",""1741""
","
","
","""event"",""trial"",""time""
""fullscreenenter"",""1"",""1741""
","
","","[{""page_index"":0,""viewing_time"":3546.899999976158},{""page_index"":1,""viewing_time"":5766},{""page_index"":2,""viewing_time"":7200.600000023842}]","16514.099999964237","","","","","","","","","","","","","","","","","","","","","","","",""
"pit-trial","118","818198","0.0-4.0","battery-v0.2","","""event"",""trial"",""time""
""fullscreenenter"",""1"",""1741""
","
","
","""event"",""trial"",""time""
""fullscreenenter"",""1"",""1741""
","
","","","453.10000002384186","","","20","8994","3978","&#9730;","elianto","#3366ff99"," "," ","1","+10","[1307.3999999761581]","1","1","","","8994","1","1","1","win","go","0"
"pit-trial","119","821534","0.0-5.0","battery-v0.2","","""event"",""trial"",""time""
""fullscreenenter"",""1"",""1741""
","
","
","""event"",""trial"",""time""
""fullscreenenter"",""1"",""1741""
","
","","","474.30000001192093","","","20","8994","3978","&#9733;","elianto","#3366ff99","-1"," ","0","0","[1330.5999999642372]","1","1","","","8994","2","2","2","win","no-go","0"
"pit-trial","120","824981","0.0-6.0","battery-v0.2","","""event"",""trial"",""time""
""fullscreenenter"",""1"",""1741""
","
","
","""event"",""trial"",""time""
""fullscreenenter"",""1"",""1741""
","
","","","588.1000000238419","","","20","8994","3978","&#9728;","elianto","#f73b6a7A","-1"," ","0","-10","[1441.699999988079]","1","1","","","8994","3","0","4","lose","no-go","0"
"pit-trial","121","828505","0.0-7.0","battery-v0.2","","""event"",""trial"",""time""
""fullscreenenter"",""1"",""1741""
","
","
","""event"",""trial"",""time""
""fullscreenenter"",""1"",""1741""
","
","","","651.8999999761581","","","20","8994","3978","&#9752;","elianto","#f73b6a7A"," "," ","1","-10","[1508]","1","1","","","8994","4","3","3","lose","go","1"
"pit-trial","122","832193","0.0-8.0","battery-v0.2","","""event"",""trial"",""time""
""fullscreenenter"",""1"",""1741""
","
","
","""event"",""trial"",""time""
""fullscreenenter"",""1"",""1741""
","
","","","824.6000000238419","","","20","8994","3978","&#9728;","elianto","#f73b6a7A","-1"," ","0","-10","[1676.800000011921]","1","1","","","8994","5","0","4","lose","no-go","0"
"pit-trial","123","835538","0.0-9.0","battery-v0.2","","""event"",""trial"",""time""
""fullscreenenter"",""1"",""1741""
","
","
","""event"",""trial"",""time""
""fullscreenenter"",""1"",""1741""
","
","","","473.39999997615814","","","20","8994","3978","&#9730;","elianto","#3366ff99"," "," ","1","+10","[1333.5]","1","1","","","8994","6","1","1","win","go","0"
"pit-trial","124","840405","0.0-10.0","battery-v0.2","","""event"",""trial"",""time""
""fullscreenenter"",""1"",""1741""
","
","
","""event"",""trial"",""time""
""fullscreenenter"",""1"",""1741""
","
","","","-1","","","20","8994","3978","&#9752;","elianto","#f73b6a7A"," ","-1","0","-10","[]","0","1","","","8994","7","3","3","lose","go","0"
"pit-trial","125","843758","0.0-11.0","battery-v0.2","","""event"",""trial"",""time""
""fullscreenenter"",""1"",""1741""
","
","
","""event"",""trial"",""time""
""fullscreenenter"",""1"",""1741""
","
","","","488.80000001192093","","","20","8994","3978","&#9733;","elianto","#3366ff99","-1"," ","0","0","[1340]","1","1","","","8994","8","2","2","win","no-go","0"
"pit-trial","126","847175","0.0-12.0","battery-v0.2","","""event"",""trial"",""time""
""fullscreenenter"",""1"",""1741""
","
","
","""event"",""trial"",""time""
""fullscreenenter"",""1"",""1741""
","
","","","553.1000000238419","","","20","8994","3978","&#9733;","elianto","#3366ff99","-1"," ","0","0","[1403.199999988079]","1","1","","","8994","9","2","2","win","no-go","0"
"pit-trial","127","850743","0.0-13.0","battery-v0.2","","""event"",""trial"",""time""
""fullscreenenter"",""1"",""1741""
","
","
","""event"",""trial"",""time""
""fullscreenenter"",""1"",""1741""
","
","","","706.2000000476837","","","20","8994","3978","&#9730;","elianto","#3366ff99"," "," ","1","+10","[1560.2000000476837]","1","1","","","8994","10","1","1","win","go","0"
"pit-trial","128","854407","0.0-14.0","battery-v0.2","","""event"",""trial"",""time""
""fullscreenenter"",""1"",""1741""
","
","
","""event"",""trial"",""time""
""fullscreenenter"",""1"",""1741""
","
","","","802.2999999523163","","","20","8994","3978","&#9752;","elianto","#f73b6a7A"," "," ","1","0","[1654.7999999523163]","1","1","","","8994","11","3","3","lose","go","0"
"pit-trial","129","859281","0.0-15.0","battery-v0.2","","""event"",""trial"",""time""
""fullscreenenter"",""1"",""1741""
","
","
","""event"",""trial"",""time""
""fullscreenenter"",""1"",""1741""
","
","","","-1","","","20","8994","3978","&#9728;","elianto","#f73b6a7A","-1","-1","1","0","[]","0","1","","","8994","12","0","4","lose","no-go","0"
"pit-trial","130","863127","0.0-16.0","battery-v0.2","","""event"",""trial"",""time""
""fullscreenenter"",""1"",""1741""
","
","
","""event"",""trial"",""time""
""fullscreenenter"",""1"",""1741""
","
","","","979.1000000238419","","","20","8994","3978","&#9752;","elianto","#f73b6a7A"," "," ","1","0","[1835.3999999761581]","1","1","","","8994","13","3","3","lose","go","0"
"pit-trial","131","868001","0.0-17.0","battery-v0.2","","""event"",""trial"",""time""
""fullscreenenter"",""1"",""1741""
","
","
","""event"",""trial"",""time""
""fullscreenenter"",""1"",""1741""
","
","","","-1","","","20","8994","3978","&#9728;","elianto","#f73b6a7A","-1","-1","1","0","[]","0","1","","","8994","14","0","4","lose","no-go","0"
"pit-trial","132","871303","0.0-18.0","battery-v0.2","","""event"",""trial"",""time""
""fullscreenenter"",""1"",""1741""
","
","
","""event"",""trial"",""time""
""fullscreenenter"",""1"",""1741""
","
","","","437.5999999642372","","","20","8994","3978","&#9730;","elianto","#3366ff99"," "," ","1","+10","[1294]","1","1","","","8994","15","1","1","win","go","0"
"pit-trial","133","876177","0.0-19.0","battery-v0.2","","""event"",""trial"",""time""
""fullscreenenter"",""1"",""1741""
","
","
","""event"",""trial"",""time""
""fullscreenenter"",""1"",""1741""
","
","","","-1","","","20","8994","3978","&#9733;","elianto","#3366ff99","-1","-1","1","0","[]","0","1","","","8994","16","2","2","win","no-go","1"
"pit-trial","134","879713","0.0-20.0","battery-v0.2","","""event"",""trial"",""time""
""fullscreenenter"",""1"",""1741""
","
","
","""event"",""trial"",""time""
""fullscreenenter"",""1"",""1741""
","
","","","669.1999999880791","","","20","8994","3978","&#9752;","elianto","#f73b6a7A"," "," ","1","0","[1526.8999999761581]","1","1","","","8994","17","3","3","lose","go","0"
"pit-trial","135","883383","0.0-21.0","battery-v0.2","","""event"",""trial"",""time""
""fullscreenenter"",""1"",""1741""
","
","
","""event"",""trial"",""time""
""fullscreenenter"",""1"",""1741""
","
","","","798.4000000357628","","","20","8994","3978","&#9728;","elianto","#f73b6a7A","-1"," ","0","-10","[1656.699999988079]","1","1","","","8994","18","0","4","lose","no-go","0"
"pit-trial","136","888247","0.0-22.0","battery-v0.2","","""event"",""trial"",""time""
""fullscreenenter"",""1"",""1741""
","
","
","""event"",""trial"",""time""
""fullscreenenter"",""1"",""1741""
","
","","","-1","","","20","8994","3978","&#9733;","elianto","#3366ff99","-1","-1","1","+10","[]","0","1","","","8994","19","2","2","win","no-go","0"
"pit-trial","137","891569","0.0-23.0","battery-v0.2","","""event"",""trial"",""time""
""fullscreenenter"",""1"",""1741""
","
","
","""event"",""trial"",""time""
""fullscreenenter"",""1"",""1741""
","
","","","454.19999998807907","","","20","8994","3978","&#9730;","elianto","#3366ff99"," "," ","1","+10","[1313.0999999642372]","1","1","","","8994","20","1","1","win","go","0"
"pit-instructions","138","905214","0.0-24.0","battery-v0.2","","""event"",""trial"",""time""
""fullscreenenter"",""1"",""1741""
","
","
","""event"",""trial"",""time""
""fullscreenenter"",""1"",""1741""
","
","","[{""page_index"":0,""viewing_time"":6107.299999952316},{""page_index"":1,""viewing_time"":7534.5}]","13642.399999976158","","","","","","","","","","","","","","","","","","","","","","","",""
"pit-trial","139","910085","0.0-25.0","battery-v0.2","","""event"",""trial"",""time""
""fullscreenenter"",""1"",""1741""
","
","
","""event"",""trial"",""time""
""fullscreenenter"",""1"",""1741""
","
","","","-1","","","20","8994","3978","h","elianto","#f73b6a7A","-1","-1","1","0","[]","0","2","","","8994","21","3","4","lose","no-go","0"
"pit-trial","140","914953","0.0-26.0","battery-v0.2","","""event"",""trial"",""time""
""fullscreenenter"",""1"",""1741""
","
","
","""event"",""trial"",""time""
""fullscreenenter"",""1"",""1741""
","
","","","-1","","","20","8994","3978","m","elianto","#f73b6a7A"," ","-1","0","-10","[]","0","2","","","8994","22","0","3","lose","go","0"
"pit-trial","141","918710","0.0-27.0","battery-v0.2","","""event"",""trial"",""time""
""fullscreenenter"",""1"",""1741""
","
","
","""event"",""trial"",""time""
""fullscreenenter"",""1"",""1741""
","
","","","895.4000000357628","","","20","8994","3978","y","elianto","#f73b6a7A"," "," ","1","0","[1749.1000000238419]","1","2","","","8994","23","2","3","lose","go","0"
"pit-trial","142","922281","0.0-28.0","battery-v0.2","","""event"",""trial"",""time""
""fullscreenenter"",""1"",""1741""
","
","
","""event"",""trial"",""time""
""fullscreenenter"",""1"",""1741""
","
","","","706.8000000119209","","","20","8994","3978","r","elianto","#3366ff99","-1"," ","0","0","[1558.800000011921]","1","2","","","8994","24","1","2","win","no-go","0"
"pit-trial","143","927149","0.0-29.0","battery-v0.2","","""event"",""trial"",""time""
""fullscreenenter"",""1"",""1741""
","
","
","""event"",""trial"",""time""
""fullscreenenter"",""1"",""1741""
","
","","","-1","","","20","8994","3978","m","elianto","#f73b6a7A"," ","-1","0","-10","[3640.399999976158]","1","2","","","8994","25","0","3","lose","go","0"
"pit-trial","144","930892","0.0-30.0","battery-v0.2","","""event"",""trial"",""time""
""fullscreenenter"",""1"",""1741""
","
","
","""event"",""trial"",""time""
""fullscreenenter"",""1"",""1741""
","
","","","883.8000000119209","","","20","8994","3978","y","elianto","#f73b6a7A"," "," ","1","0","[1736.6000000238419]","1","2","","","8994","26","2","3","lose","go","0"
"pit-trial","145","934272","0.0-31.0","battery-v0.2","","""event"",""trial"",""time""
""fullscreenenter"",""1"",""1741""
","
","
","""event"",""trial"",""time""
""fullscreenenter"",""1"",""1741""
","
","","","511.5999999642372","","","20","8994","3978","r","elianto","#3366ff99","-1"," ","0","0","[1364.199999988079]","1","2","","","8994","27","1","2","win","no-go","0"
"pit-trial","146","938232","0.0-32.0","battery-v0.2","","""event"",""trial"",""time""
""fullscreenenter"",""1"",""1741""
","
","
","""event"",""trial"",""time""
""fullscreenenter"",""1"",""1741""
","
","","","1099.2999999523163","","","20","8994","3978","h","elianto","#f73b6a7A","-1"," ","0","-10","[1949.800000011921]","1","2","","","8994","28","3","4","lose","no-go","0"
"pit-trial","147","942040","0.0-33.0","battery-v0.2","","""event"",""trial"",""time""
""fullscreenenter"",""1"",""1741""
","
","
","""event"",""trial"",""time""
""fullscreenenter"",""1"",""1741""
","
","","","936.1000000238419","","","20","8994","3978","r","elianto","#3366ff99","-1"," ","0","0","[1793.699999988079]","1","2","","","8994","29","1","2","win","no-go","0"
"pit-trial","148","946310","0.0-34.0","battery-v0.2","","""event"",""trial"",""time""
""fullscreenenter"",""1"",""1741""
","
","
","""event"",""trial"",""time""
""fullscreenenter"",""1"",""1741""
","
","","","1413.5","","","20","8994","3978","m","elianto","#f73b6a7A"," "," ","1","0","[2263.800000011921]","1","2","","","8994","30","0","3","lose","go","0"
"pit-trial","149","950456","0.0-35.0","battery-v0.2","","""event"",""trial"",""time""
""fullscreenenter"",""1"",""1741""
","
","
","""event"",""trial"",""time""
""fullscreenenter"",""1"",""1741""
","
","","","1270.2999999523163","","","20","8994","3978","y","elianto","#f73b6a7A"," "," ","1","0","[2132.2999999523163]","1","2","","","8994","31","2","3","lose","go","0"
"pit-trial","150","955325","0.0-36.0","battery-v0.2","","""event"",""trial"",""time""
""fullscreenenter"",""1"",""1741""
","
","
","""event"",""trial"",""time""
""fullscreenenter"",""1"",""1741""
","
","","","-1","","","20","8994","3978","h","elianto","#f73b6a7A","-1","-1","1","0","[]","0","2","","","8994","32","3","4","lose","no-go","0"
"pit-trial","151","958685","0.0-37.0","battery-v0.2","","""event"",""trial"",""time""
""fullscreenenter"",""1"",""1741""
","
","
","""event"",""trial"",""time""
""fullscreenenter"",""1"",""1741""
","
","","","491.60000002384186","","","20","8994","3978","r","elianto","#3366ff99","-1"," ","0","0","[1346.8999999761581]","1","2","","","8994","33","1","2","win","no-go","0"
"pit-trial","152","962791","0.0-38.0","battery-v0.2","","""event"",""trial"",""time""
""fullscreenenter"",""1"",""1741""
","
","
","""event"",""trial"",""time""
""fullscreenenter"",""1"",""1741""
","
","","","1241.6000000238419","","","20","8994","3978","m","elianto","#f73b6a7A"," "," ","1","0","[2095.399999976158]","1","2","","","8994","34","0","3","lose","go","0"
"pit-trial","153","966887","0.0-39.0","battery-v0.2","","""event"",""trial"",""time""
""fullscreenenter"",""1"",""1741""
","
","
","""event"",""trial"",""time""
""fullscreenenter"",""1"",""1741""
","
","","","1224.5","","","20","8994","3978","y","elianto","#f73b6a7A"," "," ","1","0","[2084.7999999523163]","1","2","","","8994","35","2","3","lose","go","0"
"pit-trial","154","970813","0.0-40.0","battery-v0.2","","""event"",""trial"",""time""
""fullscreenenter"",""1"",""1741""
","
","
","""event"",""trial"",""time""
""fullscreenenter"",""1"",""1741""
","
","","","1065.5","","","20","8994","3978","h","elianto","#f73b6a7A","-1"," ","0","-10","[1916.3999999761581]","1","2","","","8994","36","3","4","lose","no-go","0"
"pit-trial","155","975431","0.0-41.0","battery-v0.2","","""event"",""trial"",""time""
""fullscreenenter"",""1"",""1741""
","
","
","""event"",""trial"",""time""
""fullscreenenter"",""1"",""1741""
","
","","","1752.199999988079","","","20","8994","3978","y","elianto","#f73b6a7A"," "," ","1","-10","[2605.800000011921]","1","2","","","8994","37","2","3","lose","go","1"
"pit-trial","156","980301","0.0-42.0","battery-v0.2","","""event"",""trial"",""time""
""fullscreenenter"",""1"",""1741""
","
","
","""event"",""trial"",""time""
""fullscreenenter"",""1"",""1741""
","
","","","-1","","","20","8994","3978","h","elianto","#f73b6a7A","-1","-1","1","-10","[]","0","2","","","8994","38","3","4","lose","no-go","1"
"pit-trial","157","984525","0.0-43.0","battery-v0.2","","""event"",""trial"",""time""
""fullscreenenter"",""1"",""1741""
","
","
","""event"",""trial"",""time""
""fullscreenenter"",""1"",""1741""
","
","","","1360.699999988079","","","20","8994","3978","m","elianto","#f73b6a7A"," "," ","1","-10","[2213]","1","2","","","8994","39","0","3","lose","go","1"
"pit-trial","158","988045","0.0-44.0","battery-v0.2","","""event"",""trial"",""time""
""fullscreenenter"",""1"",""1741""
","
","
","""event"",""trial"",""time""
""fullscreenenter"",""1"",""1741""
","
","","","653.2999999523163","","","20","8994","3978","r","elianto","#3366ff99","-1"," ","0","0","[1508.5999999642372]","1","2","","","8994","40","1","2","win","no-go","0"
"pit-trial","159","992909","0.0-45.0","battery-v0.2","","""event"",""trial"",""time""
""fullscreenenter"",""1"",""1741""
","
","
","""event"",""trial"",""time""
""fullscreenenter"",""1"",""1741""
","
","","","-1","","","20","8994","3978","m","elianto","#f73b6a7A"," ","-1","0","-10","[]","0","2","","","8994","41","0","3","lose","go","0"
"pit-trial","160","997772","0.0-46.0","battery-v0.2","","""event"",""trial"",""time""
""fullscreenenter"",""1"",""1741""
","
","
","""event"",""trial"",""time""
""fullscreenenter"",""1"",""1741""
","
","","","-1","","","20","8994","3978","r","elianto","#3366ff99","-1","-1","1","+10","[]","0","2","","","8994","42","1","2","win","no-go","0"
"pit-trial","161","1002636","0.0-47.0","battery-v0.2","","""event"",""trial"",""time""
""fullscreenenter"",""1"",""1741""
","
","
","""event"",""trial"",""time""
""fullscreenenter"",""1"",""1741""
","
","","","-1","","","20","8994","3978","h","elianto","#f73b6a7A","-1","-1","1","0","[]","0","2","","","8994","43","3","4","lose","no-go","0"
"pit-trial","162","1006028","0.0-48.0","battery-v0.2","","""event"",""trial"",""time""
""fullscreenenter"",""1"",""1741""
","
","
","""event"",""trial"",""time""
""fullscreenenter"",""1"",""1741""
","
","","","524.7999999523163","","","20","8994","3978","y","elianto","#f73b6a7A"," "," ","1","-10","[1378.699999988079]","1","2","","","8994","44","2","3","lose","go","1"
"pit-trial","163","1009980","0.0-49.0","battery-v0.2","","""event"",""trial"",""time""
""fullscreenenter"",""1"",""1741""
","
","
","""event"",""trial"",""time""
""fullscreenenter"",""1"",""1741""
","
","","","1088.3999999761581","","","20","8994","3978","m","elianto","#f73b6a7A"," "," ","1","0","[1943.5]","1","2","","","8994","45","0","3","lose","go","0"
"pit-trial","164","1014844","0.0-50.0","battery-v0.2","","""event"",""trial"",""time""
""fullscreenenter"",""1"",""1741""
","
","
","""event"",""trial"",""time""
""fullscreenenter"",""1"",""1741""
","
","","","-1","","","20","8994","3978","y","elianto","#f73b6a7A"," ","-1","0","0","[]","0","2","","","8994","46","2","3","lose","go","1"
"pit-trial","165","1018519","0.0-51.0","battery-v0.2","","""event"",""trial"",""time""
""fullscreenenter"",""1"",""1741""
","
","
","""event"",""trial"",""time""
""fullscreenenter"",""1"",""1741""
","
","","","804","","","20","8994","3978","r","elianto","#3366ff99","-1"," ","0","0","[1660]","1","2","","","8994","47","1","2","win","no-go","0"
"pit-trial","166","1023388","0.0-52.0","battery-v0.2","","""event"",""trial"",""time""
""fullscreenenter"",""1"",""1741""
","
","
","""event"",""trial"",""time""
""fullscreenenter"",""1"",""1741""
","
","","","-1","","","20","8994","3978","h","elianto","#f73b6a7A","-1","-1","1","0","[]","0","2","","","8994","48","3","4","lose","no-go","0"
"pit-trial","167","1027143","0.0-53.0","battery-v0.2","","""event"",""trial"",""time""
""fullscreenenter"",""1"",""1741""
","
","
","""event"",""trial"",""time""
""fullscreenenter"",""1"",""1741""
","
","","","887.8999999761581","","","20","8994","3978","y","elianto","#f73b6a7A"," "," ","1","-10","[1740.199999988079]","1","2","","","8994","49","2","3","lose","go","1"
"pit-trial","168","1031196","0.0-54.0","battery-v0.2","","""event"",""trial"",""time""
""fullscreenenter"",""1"",""1741""
","
","
","""event"",""trial"",""time""
""fullscreenenter"",""1"",""1741""
","
","","","1185.300000011921","","","20","8994","3978","m","elianto","#f73b6a7A"," "," ","1","0","[2043.6000000238419]","1","2","","","8994","50","0","3","lose","go","0"
"pit-trial","169","1036060","0.0-55.0","battery-v0.2","","""event"",""trial"",""time""
""fullscreenenter"",""1"",""1741""
","
","
","""event"",""trial"",""time""
""fullscreenenter"",""1"",""1741""
","
","","","-1","","","20","8994","3978","h","elianto","#f73b6a7A","-1","-1","1","0","[]","0","2","","","8994","51","3","4","lose","no-go","0"
"pit-trial","170","1040924","0.0-56.0","battery-v0.2","","""event"",""trial"",""time""
""fullscreenenter"",""1"",""1741""
","
","
","""event"",""trial"",""time""
""fullscreenenter"",""1"",""1741""
","
","","","-1","","","20","8994","3978","r","elianto","#3366ff99","-1","-1","1","+10","[]","0","2","","","8994","52","1","2","win","no-go","0"
"pit-trial","171","1045788","0.0-57.0","battery-v0.2","","""event"",""trial"",""time""
""fullscreenenter"",""1"",""1741""
","
","
","""event"",""trial"",""time""
""fullscreenenter"",""1"",""1741""
","
","","","-1","","","20","8994","3978","h","elianto","#f73b6a7A","-1","-1","1","0","[]","0","2","","","8994","53","3","4","lose","no-go","0"
"pit-trial","172","1049943","0.0-58.0","battery-v0.2","","""event"",""trial"",""time""
""fullscreenenter"",""1"",""1741""
","
","
","""event"",""trial"",""time""
""fullscreenenter"",""1"",""1741""
","
","","","1290.699999988079","","","20","8994","3978","m","elianto","#f73b6a7A"," "," ","1","-10","[2142.900000035763]","1","2","","","8994","54","0","3","lose","go","1"
"pit-trial","173","1054812","0.0-59.0","battery-v0.2","","""event"",""trial"",""time""
""fullscreenenter"",""1"",""1741""
","
","
","""event"",""trial"",""time""
""fullscreenenter"",""1"",""1741""
","
","","","-1","","","20","8994","3978","y","elianto","#f73b6a7A"," ","-1","0","0","[]","0","2","","","8994","55","2","3","lose","go","1"
"pit-trial","174","1059676","0.0-60.0","battery-v0.2","","""event"",""trial"",""time""
""fullscreenenter"",""1"",""1741""
","
","
","""event"",""trial"",""time""
""fullscreenenter"",""1"",""1741""
","
","","","-1","","","20","8994","3978","r","elianto","#3366ff99","-1","-1","1","+10","[]","0","2","","","8994","56","1","2","win","no-go","0"
"pit-trial","175","1063606","0.0-61.0","battery-v0.2","","""event"",""trial"",""time""
""fullscreenenter"",""1"",""1741""
","
","
","""event"",""trial"",""time""
""fullscreenenter"",""1"",""1741""
","
","","","1071.300000011921","","","20","8994","3978","z","elianto","#3366ff99"," "," ","1","+10","[1921.6000000238419]","1","2","","","8994","57","4","1","win","go","0"
"pit-trial","176","1067996","0.0-62.0","battery-v0.2","","""event"",""trial"",""time""
""fullscreenenter"",""1"",""1741""
","
","
","""event"",""trial"",""time""
""fullscreenenter"",""1"",""1741""
","
","","","1529.6000000238419","","","20","8994","3978","m","elianto","#f73b6a7A"," "," ","1","0","[2379.900000035763]","1","2","","","8994","58","0","3","lose","go","0"
"pit-trial","177","1072860","0.0-63.0","battery-v0.2","","""event"",""trial"",""time""
""fullscreenenter"",""1"",""1741""
","
","
","""event"",""trial"",""time""
""fullscreenenter"",""1"",""1741""
","
","","","-1","","","20","8994","3978","h","elianto","#f73b6a7A","-1","-1","1","0","[]","0","2","","","8994","59","3","4","lose","no-go","0"
"pit-trial","178","1077724","0.0-64.0","battery-v0.2","","""event"",""trial"",""time""
""fullscreenenter"",""1"",""1741""
","
","
","""event"",""trial"",""time""
""fullscreenenter"",""1"",""1741""
","
","","","-1","","","20","8994","3978","y","elianto","#f73b6a7A"," ","-1","0","-10","[]","0","2","","","8994","60","2","3","lose","go","0"
"pit-trial","179","1081687","0.0-65.0","battery-v0.2","","""event"",""trial"",""time""
""fullscreenenter"",""1"",""1741""
","
","
","""event"",""trial"",""time""
""fullscreenenter"",""1"",""1741""
","
","","","1101.7000000476837","","","20","8994","3978","y","elianto","#f73b6a7A"," "," ","1","0","[1951.699999988079]","1","2","","","8994","61","2","3","lose","go","0"
"pit-trial","180","1085404","0.0-66.0","battery-v0.2","","""event"",""trial"",""time""
""fullscreenenter"",""1"",""1741""
","
","
","""event"",""trial"",""time""
""fullscreenenter"",""1"",""1741""
","
","","","858.7999999523163","","","20","8994","3978","z","elianto","#3366ff99"," "," ","1","0","[1709.300000011921]","1","2","","","8994","62","4","1","win","go","1"
"pit-trial","181","1090268","0.0-67.0","battery-v0.2","","""event"",""trial"",""time""
""fullscreenenter"",""1"",""1741""
","
","
","""event"",""trial"",""time""
""fullscreenenter"",""1"",""1741""
","
","","","-1","","","20","8994","3978","h","elianto","#f73b6a7A","-1","-1","1","0","[]","0","2","","","8994","63","3","4","lose","no-go","0"
"pit-trial","182","1094214","0.0-68.0","battery-v0.2","","""event"",""trial"",""time""
""fullscreenenter"",""1"",""1741""
","
","
","""event"",""trial"",""time""
""fullscreenenter"",""1"",""1741""
","
","","","1082.1000000238419","","","20","8994","3978","r","elianto","#3366ff99","-1"," ","0","0","[1934.6000000238419]","1","2","","","8994","64","1","2","win","no-go","0"
"pit-trial","183","1097862","0.0-69.0","battery-v0.2","","""event"",""trial"",""time""
""fullscreenenter"",""1"",""1741""
","
","
","""event"",""trial"",""time""
""fullscreenenter"",""1"",""1741""
","
","","","774.4000000357628","","","20","8994","3978","c","elianto","#3366ff99","-1"," ","0","0","[1633.300000011921]","1","2","","","8994","65","5","2","win","no-go","0"
"pit-trial","184","1102731","0.0-70.0","battery-v0.2","","""event"",""trial"",""time""
""fullscreenenter"",""1"",""1741""
","
","
","""event"",""trial"",""time""
""fullscreenenter"",""1"",""1741""
","
","","","-1","","","20","8994","3978","r","elianto","#3366ff99","-1","-1","1","+10","[]","0","2","","","8994","66","1","2","win","no-go","0"
"pit-trial","185","1107595","0.0-71.0","battery-v0.2","","""event"",""trial"",""time""
""fullscreenenter"",""1"",""1741""
","
","
","""event"",""trial"",""time""
""fullscreenenter"",""1"",""1741""
","
","","","-1","","","20","8994","3978","h","elianto","#f73b6a7A","-1","-1","1","0","[]","0","2","","","8994","67","3","4","lose","no-go","0"
"pit-trial","186","1111462","0.0-72.0","battery-v0.2","","""event"",""trial"",""time""
""fullscreenenter"",""1"",""1741""
","
","
","""event"",""trial"",""time""
""fullscreenenter"",""1"",""1741""
","
","","","1002.5","","","20","8994","3978","z","elianto","#3366ff99"," "," ","1","+10","[1857.699999988079]","1","2","","","8994","68","4","1","win","go","0"
"pit-trial","187","1115387","0.0-73.0","battery-v0.2","","""event"",""trial"",""time""
""fullscreenenter"",""1"",""1741""
","
","
","""event"",""trial"",""time""
""fullscreenenter"",""1"",""1741""
","
","","","1059.4000000357628","","","20","8994","3978","c","elianto","#3366ff99","-1"," ","0","0","[1918.1000000238419]","1","2","","","8994","69","5","2","win","no-go","0"
"pit-trial","188","1119115","0.0-74.0","battery-v0.2","","""event"",""trial"",""time""
""fullscreenenter"",""1"",""1741""
","
","
","""event"",""trial"",""time""
""fullscreenenter"",""1"",""1741""
","
","","","868.8999999761581","","","20","8994","3978","z","elianto","#3366ff99"," "," ","1","+10","[1724.5]","1","2","","","8994","70","4","1","win","go","0"
"pit-trial","189","1123979","0.0-75.0","battery-v0.2","","""event"",""trial"",""time""
""fullscreenenter"",""1"",""1741""
","
","
","""event"",""trial"",""time""
""fullscreenenter"",""1"",""1741""
","
","","","-1","","","20","8994","3978","y","elianto","#f73b6a7A"," ","-1","0","-10","[]","0","2","","","8994","71","2","3","lose","go","0"
"pit-trial","190","1128843","0.0-76.0","battery-v0.2","","""event"",""trial"",""time""
""fullscreenenter"",""1"",""1741""
","
","
","""event"",""trial"",""time""
""fullscreenenter"",""1"",""1741""
","
","","","-1","","","20","8994","3978","r","elianto","#3366ff99","-1","-1","1","+10","[]","0","2","","","8994","72","1","2","win","no-go","0"
"pit-trial","191","1133706","0.0-77.0","battery-v0.2","","""event"",""trial"",""time""
""fullscreenenter"",""1"",""1741""
","
","
","""event"",""trial"",""time""
""fullscreenenter"",""1"",""1741""
","
","","","-1","","","20","8994","3978","c","elianto","#3366ff99","-1","-1","1","0","[3438.400000035763]","1","2","","","8994","73","5","2","win","no-go","1"
"pit-trial","192","1137126","0.0-78.0","battery-v0.2","","""event"",""trial"",""time""
""fullscreenenter"",""1"",""1741""
","
","
","""event"",""trial"",""time""
""fullscreenenter"",""1"",""1741""
","
","","","558.4000000357628","","","20","8994","3978","z","elianto","#3366ff99"," "," ","1","+10","[1409]","1","2","","","8994","74","4","1","win","go","0"
"pit-trial","193","1141995","0.0-79.0","battery-v0.2","","""event"",""trial"",""time""
""fullscreenenter"",""1"",""1741""
","
","
","""event"",""trial"",""time""
""fullscreenenter"",""1"",""1741""
","
","","","-1","","","20","8994","3978","r","elianto","#3366ff99","-1","-1","1","+10","[]","0","2","","","8994","75","1","2","win","no-go","0"
"pit-trial","194","1146859","0.0-80.0","battery-v0.2","","""event"",""trial"",""time""
""fullscreenenter"",""1"",""1741""
","
","
","""event"",""trial"",""time""
""fullscreenenter"",""1"",""1741""
","
","","","-1","","","20","8994","3978","h","elianto","#f73b6a7A","-1","-1","1","0","[]","0","2","","","8994","76","3","4","lose","no-go","0"
"pit-trial","195","1150443","0.0-81.0","battery-v0.2","","""event"",""trial"",""time""
""fullscreenenter"",""1"",""1741""
","
","
","""event"",""trial"",""time""
""fullscreenenter"",""1"",""1741""
","
","","","719.5999999642372","","","20","8994","3978","z","elianto","#3366ff99"," "," ","1","+10","[1574.800000011921]","1","2","","","8994","77","4","1","win","go","0"
"pit-trial","196","1155307","0.0-82.0","battery-v0.2","","""event"",""trial"",""time""
""fullscreenenter"",""1"",""1741""
","
","
","""event"",""trial"",""time""
""fullscreenenter"",""1"",""1741""
","
","","","-1","","","20","8994","3978","c","elianto","#3366ff99","-1","-1","1","+10","[]","0","2","","","8994","78","5","2","win","no-go","0"
"pit-trial","197","1158918","0.0-83.0","battery-v0.2","","""event"",""trial"",""time""
""fullscreenenter"",""1"",""1741""
","
","
","""event"",""trial"",""time""
""fullscreenenter"",""1"",""1741""
","
","","","752","","","20","8994","3978","z","elianto","#3366ff99"," "," ","1","0","[1602.199999988079]","1","2","","","8994","79","4","1","win","go","1"
"pit-trial","198","1163787","0.0-84.0","battery-v0.2","","""event"",""trial"",""time""
""fullscreenenter"",""1"",""1741""
","
","
","""event"",""trial"",""time""
""fullscreenenter"",""1"",""1741""
","
","","","-1","","","20","8994","3978","h","elianto","#f73b6a7A","-1","-1","1","0","[]","0","2","","","8994","80","3","4","lose","no-go","0"
"pit-trial","199","1167253","0.0-85.0","battery-v0.2","","""event"",""trial"",""time""
""fullscreenenter"",""1"",""1741""
","
","
","""event"",""trial"",""time""
""fullscreenenter"",""1"",""1741""
","
","","","597.8999999761581","","","20","8994","3978","z","elianto","#3366ff99"," "," ","1","0","[1450.800000011921]","1","2","","","8994","81","4","1","win","go","1"
"pit-trial","200","1171237","0.0-86.0","battery-v0.2","","""event"",""trial"",""time""
""fullscreenenter"",""1"",""1741""
","
","
","""event"",""trial"",""time""
""fullscreenenter"",""1"",""1741""
","
","","","1123.5999999642372","","","20","8994","3978","t","elianto","#f73b6a7A","-1"," ","0","-10","[1974.5]","1","2","","","8994","82","7","4","lose","no-go","0"
"pit-trial","201","1176107","0.0-87.0","battery-v0.2","","""event"",""trial"",""time""
""fullscreenenter"",""1"",""1741""
","
","
","""event"",""trial"",""time""
""fullscreenenter"",""1"",""1741""
","
","","","-1","","","20","8994","3978","h","elianto","#f73b6a7A","-1","-1","1","-10","[]","0","2","","","8994","83","3","4","lose","no-go","1"
"pit-trial","202","1180971","0.0-88.0","battery-v0.2","","""event"",""trial"",""time""
""fullscreenenter"",""1"",""1741""
","
","
","""event"",""trial"",""time""
""fullscreenenter"",""1"",""1741""
","
","","","-1","","","20","8994","3978","c","elianto","#3366ff99","-1","-1","1","+10","[]","0","2","","","8994","84","5","2","win","no-go","0"
"pit-trial","203","1185835","0.0-89.0","battery-v0.2","","""event"",""trial"",""time""
""fullscreenenter"",""1"",""1741""
","
","
","""event"",""trial"",""time""
""fullscreenenter"",""1"",""1741""
","
","","","-1","","","20","8994","3978","b","elianto","#f73b6a7A"," ","-1","0","0","[]","0","2","","","8994","85","6","3","lose","go","1"
"pit-trial","204","1190699","0.0-90.0","battery-v0.2","","""event"",""trial"",""time""
""fullscreenenter"",""1"",""1741""
","
","
","""event"",""trial"",""time""
""fullscreenenter"",""1"",""1741""
","
","","","-1","","","20","8994","3978","c","elianto","#3366ff99","-1","-1","1","+10","[]","0","2","","","8994","86","5","2","win","no-go","0"
"pit-trial","205","1194229","0.0-91.0","battery-v0.2","","""event"",""trial"",""time""
""fullscreenenter"",""1"",""1741""
","
","
","""event"",""trial"",""time""
""fullscreenenter"",""1"",""1741""
","
","","","665.8000000119209","","","20","8994","3978","z","elianto","#3366ff99"," "," ","1","0","[1521.2000000476837]","1","2","","","8994","87","4","1","win","go","1"
"pit-trial","206","1199099","0.0-92.0","battery-v0.2","","""event"",""trial"",""time""
""fullscreenenter"",""1"",""1741""
","
","
","""event"",""trial"",""time""
""fullscreenenter"",""1"",""1741""
","
","","","-1","","","20","8994","3978","t","elianto","#f73b6a7A","-1","-1","1","0","[]","0","2","","","8994","88","7","4","lose","no-go","0"
"pit-trial","207","1203962","0.0-93.0","battery-v0.2","","""event"",""trial"",""time""
""fullscreenenter"",""1"",""1741""
","
","
","""event"",""trial"",""time""
""fullscreenenter"",""1"",""1741""
","
","","","-1","","","20","8994","3978","c","elianto","#3366ff99","-1","-1","1","+10","[]","0","2","","","8994","89","5","2","win","no-go","0"
"pit-trial","208","1208826","0.0-94.0","battery-v0.2","","""event"",""trial"",""time""
""fullscreenenter"",""1"",""1741""
","
","
","""event"",""trial"",""time""
""fullscreenenter"",""1"",""1741""
","
","","","-1","","","20","8994","3978","t","elianto","#f73b6a7A","-1","-1","1","0","[]","0","2","","","8994","90","7","4","lose","no-go","0"
"pit-trial","209","1213690","0.0-95.0","battery-v0.2","","""event"",""trial"",""time""
""fullscreenenter"",""1"",""1741""
","
","
","""event"",""trial"",""time""
""fullscreenenter"",""1"",""1741""
","
","","","-1","","","20","8994","3978","b","elianto","#f73b6a7A"," ","-1","0","-10","[3601.800000011921]","1","2","","","8994","91","6","3","lose","go","0"
"pit-trial","210","1217402","0.0-96.0","battery-v0.2","","""event"",""trial"",""time""
""fullscreenenter"",""1"",""1741""
","
","
","""event"",""trial"",""time""
""fullscreenenter"",""1"",""1741""
","
","","","850.6000000238419","","","20","8994","3978","z","elianto","#3366ff99"," "," ","1","0","[1705.300000011921]","1","2","","","8994","92","4","1","win","go","1"
"pit-trial","211","1222266","0.0-97.0","battery-v0.2","","""event"",""trial"",""time""
""fullscreenenter"",""1"",""1741""
","
","
","""event"",""trial"",""time""
""fullscreenenter"",""1"",""1741""
","
","","","-1","","","20","8994","3978","t","elianto","#f73b6a7A","-1","-1","1","-10","[]","0","2","","","8994","93","7","4","lose","no-go","1"
"pit-trial","212","1227130","0.0-98.0","battery-v0.2","","""event"",""trial"",""time""
""fullscreenenter"",""1"",""1741""
","
","
","""event"",""trial"",""time""
""fullscreenenter"",""1"",""1741""
","
","","","-1","","","20","8994","3978","c","elianto","#3366ff99","-1","-1","1","+10","[]","0","2","","","8994","94","5","2","win","no-go","0"
"pit-trial","213","1230837","0.0-99.0","battery-v0.2","","""event"",""trial"",""time""
""fullscreenenter"",""1"",""1741""
","
","
","""event"",""trial"",""time""
""fullscreenenter"",""1"",""1741""
","
","","","841.6999999880791","","","20","8994","3978","f","elianto","#3366ff99"," "," ","1","+10","[1696.7000000476837]","1","2","","","8994","95","8","1","win","go","0"
"pit-trial","214","1235706","0.0-100.0","battery-v0.2","","""event"",""trial"",""time""
""fullscreenenter"",""1"",""1741""
","
","
","""event"",""trial"",""time""
""fullscreenenter"",""1"",""1741""
","
","","","-1","","","20","8994","3978","b","elianto","#f73b6a7A"," ","-1","0","-10","[3450.5]","1","2","","","8994","96","6","3","lose","go","0"
"pit-trial","215","1240570","0.0-101.0","battery-v0.2","","""event"",""trial"",""time""
""fullscreenenter"",""1"",""1741""
","
","
","""event"",""trial"",""time""
""fullscreenenter"",""1"",""1741""
","
","","","-1","","","20","8994","3978","t","elianto","#f73b6a7A","-1","-1","1","0","[]","0","2","","","8994","97","7","4","lose","no-go","0"
"pit-trial","216","1244538","0.0-102.0","battery-v0.2","","""event"",""trial"",""time""
""fullscreenenter"",""1"",""1741""
","
","
","""event"",""trial"",""time""
""fullscreenenter"",""1"",""1741""
","
","","","1108.199999988079","","","20","8994","3978","b","elianto","#f73b6a7A"," "," ","1","0","[1961.4000000357628]","1","2","","","8994","98","6","3","lose","go","0"
"pit-trial","217","1249402","0.0-103.0","battery-v0.2","","""event"",""trial"",""time""
""fullscreenenter"",""1"",""1741""
","
","
","""event"",""trial"",""time""
""fullscreenenter"",""1"",""1741""
","
","","","-1","","","20","8994","3978","c","elianto","#3366ff99","-1","-1","1","+10","[]","0","2","","","8994","99","5","2","win","no-go","0"
"pit-trial","218","1253578","0.0-104.0","battery-v0.2","","""event"",""trial"",""time""
""fullscreenenter"",""1"",""1741""
","
","
","""event"",""trial"",""time""
""fullscreenenter"",""1"",""1741""
","
","","","1312.9000000357628","","","20","8994","3978","f","elianto","#3366ff99"," "," ","1","0","[2166.600000023842]","1","2","","","8994","100","8","1","win","go","1"
"pit-trial","219","1257338","0.0-105.0","battery-v0.2","","""event"",""trial"",""time""
""fullscreenenter"",""1"",""1741""
","
","
","""event"",""trial"",""time""
""fullscreenenter"",""1"",""1741""
","
","","","899","","","20","8994","3978","n","elianto","#3366ff99"," "," ","1","+10","[1754]","1","2","","","8994","101","9","1","win","go","0"
"pit-trial","220","1262202","0.0-106.0","battery-v0.2","","""event"",""trial"",""time""
""fullscreenenter"",""1"",""1741""
","
","
","""event"",""trial"",""time""
""fullscreenenter"",""1"",""1741""
","
","","","-1","","","20","8994","3978","f","elianto","#3366ff99"," ","-1","0","+10","[]","0","2","","","8994","102","8","1","win","go","1"
"pit-trial","221","1267066","0.0-107.0","battery-v0.2","","""event"",""trial"",""time""
""fullscreenenter"",""1"",""1741""
","
","
","""event"",""trial"",""time""
""fullscreenenter"",""1"",""1741""
","
","","","-1","","","20","8994","3978","c","elianto","#3366ff99","-1","-1","1","+10","[]","0","2","","","8994","103","5","2","win","no-go","0"
"pit-trial","222","1271930","0.0-108.0","battery-v0.2","","""event"",""trial"",""time""
""fullscreenenter"",""1"",""1741""
","
","
","""event"",""trial"",""time""
""fullscreenenter"",""1"",""1741""
","
","","","-1","","","20","8994","3978","t","elianto","#f73b6a7A","-1","-1","1","0","[]","0","2","","","8994","104","7","4","lose","no-go","0"
"pit-trial","223","1275994","0.0-109.0","battery-v0.2","","""event"",""trial"",""time""
""fullscreenenter"",""1"",""1741""
","
","
","""event"",""trial"",""time""
""fullscreenenter"",""1"",""1741""
","
","","","1202.300000011921","","","20","8994","3978","n","elianto","#3366ff99"," "," ","1","0","[2057.400000035763]","1","2","","","8994","105","9","1","win","go","1"
"pit-trial","224","1280857","0.0-110.0","battery-v0.2","","""event"",""trial"",""time""
""fullscreenenter"",""1"",""1741""
","
","
","""event"",""trial"",""time""
""fullscreenenter"",""1"",""1741""
","
","","","-1","","","20","8994","3978","f","elianto","#3366ff99"," ","-1","0","+10","[]","0","2","","","8994","106","8","1","win","go","1"
"pit-trial","225","1284837","0.0-111.0","battery-v0.2","","""event"",""trial"",""time""
""fullscreenenter"",""1"",""1741""
","
","
","""event"",""trial"",""time""
""fullscreenenter"",""1"",""1741""
","
","","","1119","","","20","8994","3978","b","elianto","#f73b6a7A"," "," ","1","0","[1974.699999988079]","1","2","","","8994","107","6","3","lose","go","0"
"pit-trial","226","1288708","0.0-112.0","battery-v0.2","","""event"",""trial"",""time""
""fullscreenenter"",""1"",""1741""
","
","
","""event"",""trial"",""time""
""fullscreenenter"",""1"",""1741""
","
","","","1005.2999999523163","","","20","8994","3978","z","elianto","#3366ff99"," "," ","1","+10","[1856.0999999642372]","1","2","","","8994","108","4","1","win","go","0"
"pit-trial","227","1292836","0.0-113.0","battery-v0.2","","""event"",""trial"",""time""
""fullscreenenter"",""1"",""1741""
","
","
","""event"",""trial"",""time""
""fullscreenenter"",""1"",""1741""
","
","","","1253.6000000238419","","","20","8994","3978","n","elianto","#3366ff99"," "," ","1","+10","[2113.899999976158]","1","2","","","8994","109","9","1","win","go","0"
"pit-trial","228","1297706","0.0-114.0","battery-v0.2","","""event"",""trial"",""time""
""fullscreenenter"",""1"",""1741""
","
","
","""event"",""trial"",""time""
""fullscreenenter"",""1"",""1741""
","
","","","-1","","","20","8994","3978","f","elianto","#3366ff99"," ","-1","0","0","[]","0","2","","","8994","110","8","1","win","go","0"
"pit-trial","229","1301716","0.0-115.0","battery-v0.2","","""event"",""trial"",""time""
""fullscreenenter"",""1"",""1741""
","
","
","""event"",""trial"",""time""
""fullscreenenter"",""1"",""1741""
","
","","","1150","","","20","8994","3978","b","elianto","#f73b6a7A"," "," ","1","-10","[2000.300000011921]","1","2","","","8994","111","6","3","lose","go","1"
"pit-trial","230","1306585","0.0-116.0","battery-v0.2","","""event"",""trial"",""time""
""fullscreenenter"",""1"",""1741""
","
","
","""event"",""trial"",""time""
""fullscreenenter"",""1"",""1741""
","
","","","-1","","","20","8994","3978","c","elianto","#3366ff99","-1","-1","1","+10","[]","0","2","","","8994","112","5","2","win","no-go","0"
"pit-trial","231","1310473","0.0-117.0","battery-v0.2","","""event"",""trial"",""time""
""fullscreenenter"",""1"",""1741""
","
","
","""event"",""trial"",""time""
""fullscreenenter"",""1"",""1741""
","
","","","1021.3000000119209","","","20","8994","3978","b","elianto","#f73b6a7A"," "," ","1","0","[1875.9000000357628]","1","2","","","8994","113","6","3","lose","go","0"
"pit-trial","232","1315337","0.0-118.0","battery-v0.2","","""event"",""trial"",""time""
""fullscreenenter"",""1"",""1741""
","
","
","""event"",""trial"",""time""
""fullscreenenter"",""1"",""1741""
","
","","","-1","","","20","8994","3978","f","elianto","#3366ff99"," ","-1","0","0","[3658.399999976158]","1","2","","","8994","114","8","1","win","go","0"
"pit-trial","233","1320201","0.0-119.0","battery-v0.2","","""event"",""trial"",""time""
""fullscreenenter"",""1"",""1741""
","
","
","""event"",""trial"",""time""
""fullscreenenter"",""1"",""1741""
","
","","","-1","","","20","8994","3978","n","elianto","#3366ff99"," ","-1","0","0","[3464.399999976158]","1","2","","","8994","115","9","1","win","go","0"
"pit-trial","234","1325065","0.0-120.0","battery-v0.2","","""event"",""trial"",""time""
""fullscreenenter"",""1"",""1741""
","
","
","""event"",""trial"",""time""
""fullscreenenter"",""1"",""1741""
","
","","","-1","","","20","8994","3978","c","elianto","#3366ff99","-1","-1","1","+10","[]","0","2","","","8994","116","5","2","win","no-go","0"
"pit-trial","235","1329204","0.0-121.0","battery-v0.2","","""event"",""trial"",""time""
""fullscreenenter"",""1"",""1741""
","
","
","""event"",""trial"",""time""
""fullscreenenter"",""1"",""1741""
","
","","","1268.5","","","20","8994","3978","n","elianto","#3366ff99"," "," ","1","+10","[2123.699999988079]","1","2","","","8994","117","9","1","win","go","0"
"pit-trial","236","1334072","0.0-122.0","battery-v0.2","","""event"",""trial"",""time""
""fullscreenenter"",""1"",""1741""
","
","
","""event"",""trial"",""time""
""fullscreenenter"",""1"",""1741""
","
","","","-1","","","20","8994","3978","c","elianto","#3366ff99","-1","-1","1","+10","[]","0","2","","","8994","118","5","2","win","no-go","0"
"pit-trial","237","1338164","0.0-123.0","battery-v0.2","","""event"",""trial"",""time""
""fullscreenenter"",""1"",""1741""
","
","
","""event"",""trial"",""time""
""fullscreenenter"",""1"",""1741""
","
","","","1229.5","","","20","8994","3978","b","elianto","#f73b6a7A"," "," ","1","0","[2080.5]","1","2","","","8994","119","6","3","lose","go","0"
"pit-trial","238","1343033","0.0-124.0","battery-v0.2","","""event"",""trial"",""time""
""fullscreenenter"",""1"",""1741""
","
","
","""event"",""trial"",""time""
""fullscreenenter"",""1"",""1741""
","
","","","-1","","","20","8994","3978","f","elianto","#3366ff99"," ","-1","0","+10","[]","0","2","","","8994","120","8","1","win","go","1"
"pit-trial","239","1347284","0.0-125.0","battery-v0.2","","""event"",""trial"",""time""
""fullscreenenter"",""1"",""1741""
","
","
","""event"",""trial"",""time""
""fullscreenenter"",""1"",""1741""
","
","","","1381","","","20","8994","3978","n","elianto","#3366ff99"," "," ","1","+10","[2235.399999976158]","1","2","","","8994","121","9","1","win","go","0"
"pit-trial","240","1351033","0.0-126.0","battery-v0.2","","""event"",""trial"",""time""
""fullscreenenter"",""1"",""1741""
","
","
","""event"",""trial"",""time""
""fullscreenenter"",""1"",""1741""
","
","","","880.4000000357628","","","20","8994","3978","b","elianto","#f73b6a7A"," "," ","1","-10","[1736.6000000238419]","1","2","","","8994","122","6","3","lose","go","1"
"pit-trial","241","1355897","0.0-127.0","battery-v0.2","","""event"",""trial"",""time""
""fullscreenenter"",""1"",""1741""
","
","
","""event"",""trial"",""time""
""fullscreenenter"",""1"",""1741""
","
","","","-1","","","20","8994","3978","f","elianto","#3366ff99"," ","-1","0","0","[]","0","2","","","8994","123","8","1","win","go","0"
"pit-trial","242","1360761","0.0-128.0","battery-v0.2","","""event"",""trial"",""time""
""fullscreenenter"",""1"",""1741""
","
","
","""event"",""trial"",""time""
""fullscreenenter"",""1"",""1741""
","
","","","-1","","","20","8994","3978","t","elianto","#f73b6a7A","-1","-1","1","0","[]","0","2","","","8994","124","7","4","lose","no-go","0"
"pit-trial","243","1365625","0.0-129.0","battery-v0.2","","""event"",""trial"",""time""
""fullscreenenter"",""1"",""1741""
","
","
","""event"",""trial"",""time""
""fullscreenenter"",""1"",""1741""
","
","","","-1","","","20","8994","3978","t","elianto","#f73b6a7A","-1","-1","1","0","[]","0","2","","","8994","125","7","4","lose","no-go","0"
"pit-trial","244","1369268","0.0-130.0","battery-v0.2","","""event"",""trial"",""time""
""fullscreenenter"",""1"",""1741""
","
","
","""event"",""trial"",""time""
""fullscreenenter"",""1"",""1741""
","
","","","780.5","","","20","8994","3978","n","elianto","#3366ff99"," "," ","1","+10","[1631.7999999523163]","1","2","","","8994","126","9","1","win","go","0"
"pit-trial","245","1374137","0.0-131.0","battery-v0.2","","""event"",""trial"",""time""
""fullscreenenter"",""1"",""1741""
","
","
","""event"",""trial"",""time""
""fullscreenenter"",""1"",""1741""
","
","","","-1","","","20","8994","3978","f","elianto","#3366ff99"," ","-1","0","0","[]","0","2","","","8994","127","8","1","win","go","0"
"pit-trial","246","1377843","0.0-132.0","battery-v0.2","","""event"",""trial"",""time""
""fullscreenenter"",""1"",""1741""
","
","
","""event"",""trial"",""time""
""fullscreenenter"",""1"",""1741""
","
","","","842.5","","","20","8994","3978","b","elianto","#f73b6a7A"," "," ","1","0","[1694.699999988079]","1","2","","","8994","128","6","3","lose","go","0"
"pit-trial","247","1381475","0.0-133.0","battery-v0.2","","""event"",""trial"",""time""
""fullscreenenter"",""1"",""1741""
","
","
","""event"",""trial"",""time""
""fullscreenenter"",""1"",""1741""
","
","","","758.5","","","20","8994","3978","b","elianto","#f73b6a7A"," "," ","1","0","[1618.8999999761581]","1","2","","","8994","129","6","3","lose","go","0"
"pit-trial","248","1386345","0.0-134.0","battery-v0.2","","""event"",""trial"",""time""
""fullscreenenter"",""1"",""1741""
","
","
","""event"",""trial"",""time""
""fullscreenenter"",""1"",""1741""
","
","","","-1","","","20","8994","3978","t","elianto","#f73b6a7A","-1","-1","1","0","[]","0","2","","","8994","130","7","4","lose","no-go","0"
"pit-trial","249","1390232","0.0-135.0","battery-v0.2","","""event"",""trial"",""time""
""fullscreenenter"",""1"",""1741""
","
","
","""event"",""trial"",""time""
""fullscreenenter"",""1"",""1741""
","
","","","1019.8000000119209","","","20","8994","3978","f","elianto","#3366ff99"," "," ","1","+10","[1875]","1","2","","","8994","131","8","1","win","go","0"
"pit-trial","250","1393912","0.0-136.0","battery-v0.2","","""event"",""trial"",""time""
""fullscreenenter"",""1"",""1741""
","
","
","""event"",""trial"",""time""
""fullscreenenter"",""1"",""1741""
","
","","","813.6000000238419","","","20","8994","3978","n","elianto","#3366ff99"," "," ","1","+10","[1668.3999999761581]","1","2","","","8994","132","9","1","win","go","0"
"pit-trial","251","1397544","0.0-137.0","battery-v0.2","","""event"",""trial"",""time""
""fullscreenenter"",""1"",""1741""
","
","
","""event"",""trial"",""time""
""fullscreenenter"",""1"",""1741""
","
","","","770.1000000238419","","","20","8994","3978","n","elianto","#3366ff99"," "," ","1","+10","[1626.0999999642372]","1","2","","","8994","133","9","1","win","go","0"
"pit-trial","252","1402408","0.0-138.0","battery-v0.2","","""event"",""trial"",""time""
""fullscreenenter"",""1"",""1741""
","
","
","""event"",""trial"",""time""
""fullscreenenter"",""1"",""1741""
","
","","","-1","","","20","8994","3978","t","elianto","#f73b6a7A","-1","-1","1","0","[]","0","2","","","8994","134","7","4","lose","no-go","0"
"pit-trial","253","1407272","0.0-139.0","battery-v0.2","","""event"",""trial"",""time""
""fullscreenenter"",""1"",""1741""
","
","
","""event"",""trial"",""time""
""fullscreenenter"",""1"",""1741""
","
","","","-1","","","20","8994","3978","f","elianto","#3366ff99"," ","-1","0","0","[3344]","1","2","","","8994","135","8","1","win","go","0"
"pit-trial","254","1411011","0.0-140.0","battery-v0.2","","""event"",""trial"",""time""
""fullscreenenter"",""1"",""1741""
","
","
","""event"",""trial"",""time""
""fullscreenenter"",""1"",""1741""
","
","","","871.9000000357628","","","20","8994","3978","b","elianto","#f73b6a7A"," "," ","1","0","[1722.8999999761581]","1","2","","","8994","136","6","3","lose","go","0"
"pit-trial","255","1414451","0.0-141.0","battery-v0.2","","""event"",""trial"",""time""
""fullscreenenter"",""1"",""1741""
","
","
","""event"",""trial"",""time""
""fullscreenenter"",""1"",""1741""
","
","","","570.1000000238419","","","20","8994","3978","b","elianto","#f73b6a7A"," "," ","1","0","[1429.5]","1","2","","","8994","137","6","3","lose","go","0"
"pit-trial","256","1419320","0.0-142.0","battery-v0.2","","""event"",""trial"",""time""
""fullscreenenter"",""1"",""1741""
","
","
","""event"",""trial"",""time""
""fullscreenenter"",""1"",""1741""
","
","","","-1","","","20","8994","3978","t","elianto","#f73b6a7A","-1","-1","1","0","[]","0","2","","","8994","138","7","4","lose","no-go","0"
"pit-trial","257","1422963","0.0-143.0","battery-v0.2","","""event"",""trial"",""time""
""fullscreenenter"",""1"",""1741""
","
","
","""event"",""trial"",""time""
""fullscreenenter"",""1"",""1741""
","
","","","775.5999999642372","","","20","8994","3978","f","elianto","#3366ff99"," "," ","1","+10","[1629]","1","2","","","8994","139","8","1","win","go","0"
"pit-trial","258","1426419","0.0-144.0","battery-v0.2","","""event"",""trial"",""time""
""fullscreenenter"",""1"",""1741""
","
","
","""event"",""trial"",""time""
""fullscreenenter"",""1"",""1741""
","
","","","581.8000000119209","","","20","8994","3978","n","elianto","#3366ff99"," "," ","1","+10","[1442]","1","2","","","8994","140","9","1","win","go","0"
"pit-instructions","259","1441329","0.0-145.0","battery-v0.2","","""event"",""trial"",""time""
""fullscreenenter"",""1"",""1741""
","
","
","""event"",""trial"",""time""
""fullscreenenter"",""1"",""1741""
","
","","[{""page_index"":0,""viewing_time"":5573.799999952316},{""page_index"":1,""viewing_time"":9333.100000023842}]","14907.599999964237","","","","","","","","","","","","","","","","","","","","","","","",""
"pit-trial","260","1444798","0.0-146.0","battery-v0.2","","""event"",""trial"",""time""
""fullscreenenter"",""1"",""1741""
","
","
","""event"",""trial"",""time""
""fullscreenenter"",""1"",""1741""
","
","","","603.1000000238419","","","20","8994","3978","l","elianto","#3366ff99"," "," ","1","+10","[1459.5]","1","3","","","8994","141","1","1","win","go","0"
"pit-trial","261","1449667","0.0-147.0","battery-v0.2","","""event"",""trial"",""time""
""fullscreenenter"",""1"",""1741""
","
","
","""event"",""trial"",""time""
""fullscreenenter"",""1"",""1741""
","
","","","-1","","","20","8994","3978","g","elianto","#f73b6a7A"," ","-1","0","0","[]","0","3","","","8994","142","3","3","lose","go","1"
"pit-trial","262","1453443","0.0-148.0","battery-v0.2","","""event"",""trial"",""time""
""fullscreenenter"",""1"",""1741""
","
","
","""event"",""trial"",""time""
""fullscreenenter"",""1"",""1741""
","
","","","909.2999999523163","","","20","8994","3978","a","elianto","#f73b6a7A","-1"," ","0","-10","[1764]","1","3","","","8994","143","2","4","lose","no-go","0"
"pit-trial","263","1457295","0.0-149.0","battery-v0.2","","""event"",""trial"",""time""
""fullscreenenter"",""1"",""1741""
","
","
","""event"",""trial"",""time""
""fullscreenenter"",""1"",""1741""
","
","","","980.6000000238419","","","20","8994","3978","u","elianto","#f73b6a7A","-1"," ","0","0","[1840.8999999761581]","1","3","","","8994","144","0","4","lose","no-go","1"
"pit-trial","264","1460891","0.0-150.0","battery-v0.2","","""event"",""trial"",""time""
""fullscreenenter"",""1"",""1741""
","
","
","""event"",""trial"",""time""
""fullscreenenter"",""1"",""1741""
","
","","","732.8000000119209","","","20","8994","3978","l","elianto","#3366ff99"," "," ","1","+10","[1586.1000000238419]","1","3","","","8994","145","1","1","win","go","0"
"pit-trial","265","1465763","0.0-151.0","battery-v0.2","","""event"",""trial"",""time""
""fullscreenenter"",""1"",""1741""
","
","
","""event"",""trial"",""time""
""fullscreenenter"",""1"",""1741""
","
","","","-1","","","20","8994","3978","a","elianto","#f73b6a7A","-1","-1","1","0","[]","0","3","","","8994","146","2","4","lose","no-go","0"
"pit-trial","266","1470635","0.0-152.0","battery-v0.2","","""event"",""trial"",""time""
""fullscreenenter"",""1"",""1741""
","
","
","""event"",""trial"",""time""
""fullscreenenter"",""1"",""1741""
","
","","","-1","","","20","8994","3978","g","elianto","#f73b6a7A"," ","-1","0","-10","[3280.300000011921]","1","3","","","8994","147","3","3","lose","go","0"
"pit-trial","267","1474567","0.0-153.0","battery-v0.2","","""event"",""trial"",""time""
""fullscreenenter"",""1"",""1741""
","
","
","""event"",""trial"",""time""
""fullscreenenter"",""1"",""1741""
","
","","","1068.1000000238419","","","20","8994","3978","u","elianto","#f73b6a7A","-1"," ","0","-10","[1923.4000000357628]","1","3","","","8994","148","0","4","lose","no-go","0"
"pit-trial","268","1477959","0.0-154.0","battery-v0.2","","""event"",""trial"",""time""
""fullscreenenter"",""1"",""1741""
","
","
