"trial_type","trial_index","time_elapsed","internal_node_id","task_version","subject_id","interactions","blur_events","focus_events","fullscreenenter_events","fullscreenexit_events","success","view_history","rt","responses","num_errors","age","subject","participantId","rune","rune_set","hex","correct","choice","accuracy","outcome","keys","total_keys","block","practice","value","sub","trial","stimulus","robot","valence","action","sham"
"pavlovia","0","13","0.0-0.0","battery-v0.2","","""event"",""trial"",""time""
""fullscreenenter"",""1"",""3284""
","
","
","""event"",""trial"",""time""
""fullscreenenter"",""1"",""3284""
","
","","","","","","","","","","","","","","","","","","","","","","","","","","",""
"fullscreen","1","4242","0.0-1.0","battery-v0.2","","""event"",""trial"",""time""
""fullscreenenter"",""1"",""3284""
","
","
","""event"",""trial"",""time""
""fullscreenenter"",""1"",""3284""
","
","true","","","","","","","","","","","","","","","","","","","","","","","","","",""
"pit-instructions","2","10713","0.0-2.0-0.0","battery-v0.2","","""event"",""trial"",""time""
""fullscreenenter"",""1"",""3284""
","
","
","""event"",""trial"",""time""
""fullscreenenter"",""1"",""3284""
","
","","[{""page_index"":0,""viewing_time"":6466.899999976158}]","6467.200000047684","","","","","","","","","","","","","","","","","","","","","","","",""
"pit-comprehension","3","15097","0.0-2.0-1.0-0.0","battery-v0.2","","""event"",""trial"",""time""
""fullscreenenter"",""1"",""3284""
","
","
","""event"",""trial"",""time""
""fullscreenenter"",""1"",""3284""
","
","","","4381.299999952316","[""shark""]","0","14","18665","6904","","","","","","","","","","","","","","","","","","",""
"pit-instructions","4","16168","0.0-2.0-1.0-1.0","battery-v0.2","","""event"",""trial"",""time""
""fullscreenenter"",""1"",""3284""
","
","
","""event"",""trial"",""time""
""fullscreenenter"",""1"",""3284""
","
","","[{""page_index"":0,""viewing_time"":1061.2999999523163}]","1061.6000000238419","","","","","","","","","","","","","","","","","","","","","","","",""
"pit-comprehension","5","18617","0.0-2.0-2.0-0.0","battery-v0.2","","""event"",""trial"",""time""
""fullscreenenter"",""1"",""3284""
","
","
","""event"",""trial"",""time""
""fullscreenenter"",""1"",""3284""
","
","","","2446.1999999284744","[""tiger""]","0","14","18665","6904","","","","","","","","","","","","","","","","","","",""
"pit-instructions","6","19176","0.0-2.0-2.0-1.0","battery-v0.2","","""event"",""trial"",""time""
""fullscreenenter"",""1"",""3284""
","
","
","""event"",""trial"",""time""
""fullscreenenter"",""1"",""3284""
","
","","[{""page_index"":0,""viewing_time"":556.8999999761581}]","557.1999999284744","","","","","","","","","","","","","","","","","","","","","","","",""
"pit-instructions","7","131496","0.0-2.0-3.0","battery-v0.2","","""event"",""trial"",""time""
""fullscreenenter"",""1"",""3284""
","
","
","""event"",""trial"",""time""
""fullscreenenter"",""1"",""3284""
","
","","[{""page_index"":0,""viewing_time"":8949.699999928474},{""page_index"":1,""viewing_time"":6735.800000071526},{""page_index"":2,""viewing_time"":6584.199999928474},{""page_index"":3,""viewing_time"":5224},{""page_index"":4,""viewing_time"":10999.800000071526},{""page_index"":5,""viewing_time"":5695.899999976158},{""page_index"":6,""viewing_time"":6632},{""page_index"":7,""viewing_time"":6648.5},{""page_index"":8,""viewing_time"":17103.799999952316},{""page_index"":9,""viewing_time"":9895.700000047684},{""page_index"":10,""viewing_time"":7552.299999952316},{""page_index"":11,""viewing_time"":8655.700000047684},{""page_index"":12,""viewing_time"":6839.799999952316},{""page_index"":13,""viewing_time"":4800.800000071526}]","112318.29999995232","","","","","","","","","","","","","","","","","","","","","","","",""
"pit-trial","8","135020","0.0-2.0-4.0-0.0","battery-v0.2","","""event"",""trial"",""time""
""fullscreenenter"",""1"",""3284""
","
","
","""event"",""trial"",""time""
""fullscreenenter"",""1"",""3284""
","
","","","656.0999999046326","","","14","18665","6904","&#9784;","elianto","#FFFFF080"," "," ","1","&#10004","[1511.6000000238419]","1","0","0","","","","","","","",""
"pit-trial","9","138715","0.0-2.0-4.1-0.1","battery-v0.2","","""event"",""trial"",""time""
""fullscreenenter"",""1"",""3284""
","
","
","""event"",""trial"",""time""
""fullscreenenter"",""1"",""3284""
","
","","","838.7999999523163","","","14","18665","6904","&#9784;","elianto","#FFFFF080"," "," ","1","&#10004","[1691.2999999523163]","1","0","0","","","","","","","",""
"pit-trial","10","141987","0.0-2.0-4.2-0.2","battery-v0.2","","""event"",""trial"",""time""
""fullscreenenter"",""1"",""3284""
","
","
","""event"",""trial"",""time""
""fullscreenenter"",""1"",""3284""
","
","","","412.7000000476837","","","14","18665","6904","&#9784;","elianto","#FFFFF080"," "," ","1","&#10004","[1265.6000000238419]","1","0","0","","","","","","","",""
"pit-trial","11","145299","0.0-2.0-4.3-0.3","battery-v0.2","","""event"",""trial"",""time""
""fullscreenenter"",""1"",""3284""
","
","
","""event"",""trial"",""time""
""fullscreenenter"",""1"",""3284""
","
","","","439.2999999523163","","","14","18665","6904","&#9784;","elianto","#FFFFF080"," "," ","1","&#10004","[1297.3999999761581]","1","0","0","","","","","","","",""
"pit-trial","12","148645","0.0-2.0-4.4-0.4","battery-v0.2","","""event"",""trial"",""time""
""fullscreenenter"",""1"",""3284""
","
","
","""event"",""trial"",""time""
""fullscreenenter"",""1"",""3284""
","
","","","471","","","14","18665","6904","&#9784;","elianto","#FFFFF080"," "," ","1","&#10004","[1331.3999999761581]","1","0","0","","","","","","","",""
"pit-instructions","13","171880","0.0-2.0-5.0","battery-v0.2","","""event"",""trial"",""time""
""fullscreenenter"",""1"",""3284""
","
","
","""event"",""trial"",""time""
""fullscreenenter"",""1"",""3284""
","
","","[{""page_index"":0,""viewing_time"":5337.5},{""page_index"":1,""viewing_time"":7287.699999928474},{""page_index"":2,""viewing_time"":4919.200000047684},{""page_index"":3,""viewing_time"":5688.100000023842}]","23232.899999976158","","","","","","","","","","","","","","","","","","","","","","","",""
"pit-trial","14","176753","0.0-2.0-6.0-0.0","battery-v0.2","","""event"",""trial"",""time""
""fullscreenenter"",""1"",""3284""
","
","
","""event"",""trial"",""time""
""fullscreenenter"",""1"",""3284""
","
","","","-1","","","14","18665","6904","&#9854;","elianto","#FFFFF080","-1","-1","1","&#10004","[]","0","0","1","","","","","","","",""
"pit-trial","15","181615","0.0-2.0-6.1-0.1","battery-v0.2","","""event"",""trial"",""time""
""fullscreenenter"",""1"",""3284""
","
","
","""event"",""trial"",""time""
""fullscreenenter"",""1"",""3284""
","
","","","-1","","","14","18665","6904","&#9854;","elianto","#FFFFF080","-1","-1","1","&#10004","[]","0","0","1","","","","","","","",""
"pit-trial","16","186481","0.0-2.0-6.2-0.2","battery-v0.2","","""event"",""trial"",""time""
""fullscreenenter"",""1"",""3284""
","
","
","""event"",""trial"",""time""
""fullscreenenter"",""1"",""3284""
","
","","","-1","","","14","18665","6904","&#9854;","elianto","#FFFFF080","-1","-1","1","&#10004","[]","0","0","1","","","","","","","",""
"pit-trial","17","191351","0.0-2.0-6.3-0.3","battery-v0.2","","""event"",""trial"",""time""
""fullscreenenter"",""1"",""3284""
","
","
","""event"",""trial"",""time""
""fullscreenenter"",""1"",""3284""
","
","","","-1","","","14","18665","6904","&#9854;","elianto","#FFFFF080","-1","-1","1","&#10004","[]","0","0","1","","","","","","","",""
"pit-trial","18","196213","0.0-2.0-6.4-0.4","battery-v0.2","","""event"",""trial"",""time""
""fullscreenenter"",""1"",""3284""
","
","
","""event"",""trial"",""time""
""fullscreenenter"",""1"",""3284""
","
","","","-1","","","14","18665","6904","&#9854;","elianto","#FFFFF080","-1","-1","1","&#10004","[]","0","0","1","","","","","","","",""
"pit-instructions","19","313911","0.0-2.0-7.0","battery-v0.2","","""event"",""trial"",""time""
""fullscreenenter"",""1"",""3284""
","
","
","""event"",""trial"",""time""
""fullscreenenter"",""1"",""3284""
","
","","[{""page_index"":0,""viewing_time"":7433.399999976158},{""page_index"":1,""viewing_time"":7239.700000047684},{""page_index"":2,""viewing_time"":5838.799999952316},{""page_index"":3,""viewing_time"":7776},{""page_index"":4,""viewing_time"":6255.900000095367},{""page_index"":5,""viewing_time"":5696.299999952316},{""page_index"":6,""viewing_time"":4719.700000047684},{""page_index"":7,""viewing_time"":8552.099999904633},{""page_index"":8,""viewing_time"":6808},{""page_index"":9,""viewing_time"":6080.300000071526},{""page_index"":10,""viewing_time"":6352},{""page_index"":11,""viewing_time"":4063.5},{""page_index"":12,""viewing_time"":6736.399999976158},{""page_index"":13,""viewing_time"":7271.700000047684},{""page_index"":14,""viewing_time"":6927.799999952316},{""page_index"":15,""viewing_time"":6264.100000023842},{""page_index"":16,""viewing_time"":6536},{""page_index"":17,""viewing_time"":7144.100000023842}]","117696","","","","","","","","","","","","","","","","","","","","","","","",""
"pit-trial","20","317333","0.0-2.0-8.0-0.0","battery-v0.2","","""event"",""trial"",""time""
""fullscreenenter"",""1"",""3284""
","
","
","""event"",""trial"",""time""
""fullscreenenter"",""1"",""3284""
","
","","","553.8999999761581","","","14","18665","6904","&#9776;","elianto","#3366ff99"," "," ","1","+10","[1413]","1","0","1","","","","","","","",""
"pit-trial","21","320660","0.0-2.0-8.0-1.0","battery-v0.2","","""event"",""trial"",""time""
""fullscreenenter"",""1"",""3284""
","
","
","""event"",""trial"",""time""
""fullscreenenter"",""1"",""3284""
","
","","","456.2999999523163","","","14","18665","6904","&#9776;","elianto","#3366ff99"," "," ","1","+10","[1319.6000000238419]","1","0","1","","","","","","","",""
"pit-trial","22","323963","0.0-2.0-8.0-2.0","battery-v0.2","","""event"",""trial"",""time""
""fullscreenenter"",""1"",""3284""
","
","
","""event"",""trial"",""time""
""fullscreenenter"",""1"",""3284""
","
","","","438.60000002384186","","","14","18665","6904","&#9776;","elianto","#3366ff99"," "," ","1","+10","[1288.6999999284744]","1","0","1","","","","","","","",""
"pit-trial","23","327290","0.0-2.0-8.0-3.0","battery-v0.2","","""event"",""trial"",""time""
""fullscreenenter"",""1"",""3284""
","
","
","""event"",""trial"",""time""
""fullscreenenter"",""1"",""3284""
","
","","","457.89999997615814","","","14","18665","6904","&#9776;","elianto","#3366ff99"," "," ","1","0","[1315.7999999523163]","1","0","1","","","","","","","",""
"pit-trial","24","330648","0.0-2.0-8.0-4.0","battery-v0.2","","""event"",""trial"",""time""
""fullscreenenter"",""1"",""3284""
","
","
","""event"",""trial"",""time""
""fullscreenenter"",""1"",""3284""
","
","","","494","","","14","18665","6904","&#9776;","elianto","#3366ff99"," "," ","1","+10","[1349.3999999761581]","1","0","1","","","","","","","",""
"pit-trial","25","334059","0.0-2.0-8.1-0.1","battery-v0.2","","""event"",""trial"",""time""
""fullscreenenter"",""1"",""3284""
","
","
","""event"",""trial"",""time""
""fullscreenenter"",""1"",""3284""
","
","","","548.1000000238419","","","14","18665","6904","&#9776;","elianto","#3366ff99"," "," ","1","+10","[1399.1999999284744]","1","0","1","","","","","","","",""
"pit-trial","26","337449","0.0-2.0-8.1-1.1","battery-v0.2","","""event"",""trial"",""time""
""fullscreenenter"",""1"",""3284""
","
","
","""event"",""trial"",""time""
""fullscreenenter"",""1"",""3284""
","
","","","527","","","14","18665","6904","&#9776;","elianto","#3366ff99"," "," ","1","+10","[1377.8000000715256]","1","0","1","","","","","","","",""
"pit-trial","27","340858","0.0-2.0-8.1-2.1","battery-v0.2","","""event"",""trial"",""time""
""fullscreenenter"",""1"",""3284""
","
","
","""event"",""trial"",""time""
""fullscreenenter"",""1"",""3284""
","
","","","550.2000000476837","","","14","18665","6904","&#9776;","elianto","#3366ff99"," "," ","1","+10","[1406.7000000476837]","1","0","1","","","","","","","",""
"pit-trial","28","344311","0.0-2.0-8.1-3.1","battery-v0.2","","""event"",""trial"",""time""
""fullscreenenter"",""1"",""3284""
","
","
","""event"",""trial"",""time""
""fullscreenenter"",""1"",""3284""
","
","","","592.6000000238419","","","14","18665","6904","&#9776;","elianto","#3366ff99"," "," ","1","0","[1450.5]","1","0","1","","","","","","","",""
"pit-trial","29","347721","0.0-2.0-8.1-4.1","battery-v0.2","","""event"",""trial"",""time""
""fullscreenenter"",""1"",""3284""
","
","
","""event"",""trial"",""time""
""fullscreenenter"",""1"",""3284""
","
","","","558.1000000238419","","","14","18665","6904","&#9776;","elianto","#3366ff99"," "," ","1","+10","[1409.2000000476837]","1","0","1","","","","","","","",""
"pit-trial","30","351248","0.0-2.0-8.2-0.2","battery-v0.2","","""event"",""trial"",""time""
""fullscreenenter"",""1"",""3284""
","
","
","""event"",""trial"",""time""
""fullscreenenter"",""1"",""3284""
","
","","","674.1999999284744","","","14","18665","6904","&#9776;","elianto","#3366ff99"," "," ","1","+10","[1524.8999999761581]","1","0","1","","","","","","","",""
"pit-trial","31","354569","0.0-2.0-8.2-1.2","battery-v0.2","","""event"",""trial"",""time""
""fullscreenenter"",""1"",""3284""
","
","
","""event"",""trial"",""time""
""fullscreenenter"",""1"",""3284""
","
","","","469.6999999284744","","","14","18665","6904","&#9776;","elianto","#3366ff99"," "," ","1","+10","[1320]","1","0","1","","","","","","","",""
"pit-trial","32","358196","0.0-2.0-8.2-2.2","battery-v0.2","","""event"",""trial"",""time""
""fullscreenenter"",""1"",""3284""
","
","
","""event"",""trial"",""time""
""fullscreenenter"",""1"",""3284""
","
","","","774.6000000238419","","","14","18665","6904","&#9776;","elianto","#3366ff99"," "," ","1","+10","[1625]","1","0","1","","","","","","","",""
"pit-trial","33","361548","0.0-2.0-8.2-3.2","battery-v0.2","","""event"",""trial"",""time""
""fullscreenenter"",""1"",""3284""
","
","
","""event"",""trial"",""time""
""fullscreenenter"",""1"",""3284""
","
","","","500","","","14","18665","6904","&#9776;","elianto","#3366ff99"," "," ","1","0","[1350.2000000476837]","1","0","1","","","","","","","",""
"pit-trial","34","364886","0.0-2.0-8.2-4.2","battery-v0.2","","""event"",""trial"",""time""
""fullscreenenter"",""1"",""3284""
","
","
","""event"",""trial"",""time""
""fullscreenenter"",""1"",""3284""
","
","","","485.8000000715256","","","14","18665","6904","&#9776;","elianto","#3366ff99"," "," ","1","+10","[1336.8999999761581]","1","0","1","","","","","","","",""
"call-function","35","364888","0.0-2.0-9.0","battery-v0.2","","""event"",""trial"",""time""
""fullscreenenter"",""1"",""3284""
","
","
","""event"",""trial"",""time""
""fullscreenenter"",""1"",""3284""
","
","","","","","","","","","","","","","","","","","","","","","","","","","","",""
"pit-instructions","36","411791","0.0-2.0-10.0","battery-v0.2","","""event"",""trial"",""time""
""fullscreenenter"",""1"",""3284""
","
","
","""event"",""trial"",""time""
""fullscreenenter"",""1"",""3284""
","
","","[{""page_index"":0,""viewing_time"":9942.200000047684},{""page_index"":1,""viewing_time"":7975.799999952316},{""page_index"":2,""viewing_time"":12223.899999976158},{""page_index"":3,""viewing_time"":9680.100000023842},{""page_index"":4,""viewing_time"":7079.799999952316}]","46902.10000002384","","","","","","","","","","","","","","","","","","","","","","","",""
"pit-trial","37","415146","0.0-2.0-11.0-0.0","battery-v0.2","","""event"",""trial"",""time""
""fullscreenenter"",""1"",""3284""
","
","
","""event"",""trial"",""time""
""fullscreenenter"",""1"",""3284""
","
","","","489.89999997615814","","","14","18665","6904","&#9761;","elianto","#3366ff99","-1"," ","0","0","[1347.3999999761581]","1","0","2","","","","","","","",""
"pit-trial","38","420011","0.0-2.0-11.0-1.0","battery-v0.2","","""event"",""trial"",""time""
""fullscreenenter"",""1"",""3284""
","
","
","""event"",""trial"",""time""
""fullscreenenter"",""1"",""3284""
","
","","","-1","","","14","18665","6904","&#9761;","elianto","#3366ff99","-1","-1","1","+10","[]","0","0","2","","","","","","","",""
"pit-trial","39","424877","0.0-2.0-11.0-2.0","battery-v0.2","","""event"",""trial"",""time""
""fullscreenenter"",""1"",""3284""
","
","
","""event"",""trial"",""time""
""fullscreenenter"",""1"",""3284""
","
","","","-1","","","14","18665","6904","&#9761;","elianto","#3366ff99","-1","-1","1","+10","[]","0","0","2","","","","","","","",""
"pit-trial","40","429739","0.0-2.0-11.0-3.0","battery-v0.2","","""event"",""trial"",""time""
""fullscreenenter"",""1"",""3284""
","
","
","""event"",""trial"",""time""
""fullscreenenter"",""1"",""3284""
","
","","","-1","","","14","18665","6904","&#9761;","elianto","#3366ff99","-1","-1","1","0","[]","0","0","2","","","","","","","",""
"pit-trial","41","434613","0.0-2.0-11.0-4.0","battery-v0.2","","""event"",""trial"",""time""
""fullscreenenter"",""1"",""3284""
","
","
","""event"",""trial"",""time""
""fullscreenenter"",""1"",""3284""
","
","","","-1","","","14","18665","6904","&#9761;","elianto","#3366ff99","-1","-1","1","+10","[]","0","0","2","","","","","","","",""
"pit-trial","42","439474","0.0-2.0-11.1-0.1","battery-v0.2","","""event"",""trial"",""time""
""fullscreenenter"",""1"",""3284""
","
","
","""event"",""trial"",""time""
""fullscreenenter"",""1"",""3284""
","
","","","-1","","","14","18665","6904","&#9761;","elianto","#3366ff99","-1","-1","1","+10","[]","0","0","2","","","","","","","",""
"pit-trial","43","444328","0.0-2.0-11.1-1.1","battery-v0.2","","""event"",""trial"",""time""
""fullscreenenter"",""1"",""3284""
","
","
","""event"",""trial"",""time""
""fullscreenenter"",""1"",""3284""
","
","","","-1","","","14","18665","6904","&#9761;","elianto","#3366ff99","-1","-1","1","+10","[]","0","0","2","","","","","","","",""
"pit-trial","44","449180","0.0-2.0-11.1-2.1","battery-v0.2","","""event"",""trial"",""time""
""fullscreenenter"",""1"",""3284""
","
","
","""event"",""trial"",""time""
""fullscreenenter"",""1"",""3284""
","
","","","-1","","","14","18665","6904","&#9761;","elianto","#3366ff99","-1","-1","1","+10","[]","0","0","2","","","","","","","",""
"pit-trial","45","454038","0.0-2.0-11.1-3.1","battery-v0.2","","""event"",""trial"",""time""
""fullscreenenter"",""1"",""3284""
","
","
","""event"",""trial"",""time""
""fullscreenenter"",""1"",""3284""
","
","","","-1","","","14","18665","6904","&#9761;","elianto","#3366ff99","-1","-1","1","0","[]","0","0","2","","","","","","","",""
"pit-trial","46","458892","0.0-2.0-11.1-4.1","battery-v0.2","","""event"",""trial"",""time""
""fullscreenenter"",""1"",""3284""
","
","
","""event"",""trial"",""time""
""fullscreenenter"",""1"",""3284""
","
","","","-1","","","14","18665","6904","&#9761;","elianto","#3366ff99","-1","-1","1","+10","[]","0","0","2","","","","","","","",""
"pit-trial","47","463746","0.0-2.0-11.2-0.2","battery-v0.2","","""event"",""trial"",""time""
""fullscreenenter"",""1"",""3284""
","
","
","""event"",""trial"",""time""
""fullscreenenter"",""1"",""3284""
","
","","","-1","","","14","18665","6904","&#9761;","elianto","#3366ff99","-1","-1","1","+10","[]","0","0","2","","","","","","","",""
"pit-trial","48","468599","0.0-2.0-11.2-1.2","battery-v0.2","","""event"",""trial"",""time""
""fullscreenenter"",""1"",""3284""
","
","
","""event"",""trial"",""time""
""fullscreenenter"",""1"",""3284""
","
","","","-1","","","14","18665","6904","&#9761;","elianto","#3366ff99","-1","-1","1","+10","[]","0","0","2","","","","","","","",""
"pit-trial","49","473452","0.0-2.0-11.2-2.2","battery-v0.2","","""event"",""trial"",""time""
""fullscreenenter"",""1"",""3284""
","
","
","""event"",""trial"",""time""
""fullscreenenter"",""1"",""3284""
","
","","","-1","","","14","18665","6904","&#9761;","elianto","#3366ff99","-1","-1","1","+10","[]","0","0","2","","","","","","","",""
"pit-trial","50","478304","0.0-2.0-11.2-3.2","battery-v0.2","","""event"",""trial"",""time""
""fullscreenenter"",""1"",""3284""
","
","
","""event"",""trial"",""time""
""fullscreenenter"",""1"",""3284""
","
","","","-1","","","14","18665","6904","&#9761;","elianto","#3366ff99","-1","-1","1","0","[]","0","0","2","","","","","","","",""
"pit-trial","51","483158","0.0-2.0-11.2-4.2","battery-v0.2","","""event"",""trial"",""time""
""fullscreenenter"",""1"",""3284""
","
","
","""event"",""trial"",""time""
""fullscreenenter"",""1"",""3284""
","
","","","-1","","","14","18665","6904","&#9761;","elianto","#3366ff99","-1","-1","1","+10","[]","0","0","2","","","","","","","",""
"pit-trial","52","488024","0.0-2.0-11.3-0.3","battery-v0.2","","""event"",""trial"",""time""
""fullscreenenter"",""1"",""3284""
","
","
","""event"",""trial"",""time""
""fullscreenenter"",""1"",""3284""
","
","","","-1","","","14","18665","6904","&#9761;","elianto","#3366ff99","-1","-1","1","+10","[]","0","0","2","","","","","","","",""
"pit-trial","53","492879","0.0-2.0-11.3-1.3","battery-v0.2","","""event"",""trial"",""time""
""fullscreenenter"",""1"",""3284""
","
","
","""event"",""trial"",""time""
""fullscreenenter"",""1"",""3284""
","
","","","-1","","","14","18665","6904","&#9761;","elianto","#3366ff99","-1","-1","1","+10","[]","0","0","2","","","","","","","",""
"pit-trial","54","497732","0.0-2.0-11.3-2.3","battery-v0.2","","""event"",""trial"",""time""
""fullscreenenter"",""1"",""3284""
","
","
","""event"",""trial"",""time""
""fullscreenenter"",""1"",""3284""
","
","","","-1","","","14","18665","6904","&#9761;","elianto","#3366ff99","-1","-1","1","+10","[]","0","0","2","","","","","","","",""
"pit-trial","55","502588","0.0-2.0-11.3-3.3","battery-v0.2","","""event"",""trial"",""time""
""fullscreenenter"",""1"",""3284""
","
","
","""event"",""trial"",""time""
""fullscreenenter"",""1"",""3284""
","
","","","-1","","","14","18665","6904","&#9761;","elianto","#3366ff99","-1","-1","1","0","[]","0","0","2","","","","","","","",""
"pit-trial","56","507440","0.0-2.0-11.3-4.3","battery-v0.2","","""event"",""trial"",""time""
""fullscreenenter"",""1"",""3284""
","
","
","""event"",""trial"",""time""
""fullscreenenter"",""1"",""3284""
","
","","","-1","","","14","18665","6904","&#9761;","elianto","#3366ff99","-1","-1","1","+10","[]","0","0","2","","","","","","","",""
"call-function","57","507441","0.0-2.0-12.0","battery-v0.2","","""event"",""trial"",""time""
""fullscreenenter"",""1"",""3284""
","
","
","""event"",""trial"",""time""
""fullscreenenter"",""1"",""3284""
","
","","","","","","","","","","","","","","","","","","","","","","","","","","",""
"pit-instructions","58","546079","0.0-2.0-13.0","battery-v0.2","","""event"",""trial"",""time""
""fullscreenenter"",""1"",""3284""
","
","
","""event"",""trial"",""time""
""fullscreenenter"",""1"",""3284""
","
","","[{""page_index"":0,""viewing_time"":10133.400000095367},{""page_index"":1,""viewing_time"":8967.5},{""page_index"":2,""viewing_time"":4224},{""page_index"":3,""viewing_time"":10200.199999928474},{""page_index"":4,""viewing_time"":5111.899999976158}]","38637.300000071526","","","","","","","","","","","","","","","","","","","","","","","",""
"pit-trial","59","549615","0.0-2.0-14.0-0.0","battery-v0.2","","""event"",""trial"",""time""
""fullscreenenter"",""1"",""3284""
","
","
","""event"",""trial"",""time""
""fullscreenenter"",""1"",""3284""
","
","","","671.3999999761581","","","14","18665","6904","&#9826;","elianto","#f73b6a7A","-1"," ","0","-10","[1525.7999999523163]","1","0","3","","","","","","","",""
"pit-trial","60","554478","0.0-2.0-14.0-1.0","battery-v0.2","","""event"",""trial"",""time""
""fullscreenenter"",""1"",""3284""
","
","
","""event"",""trial"",""time""
""fullscreenenter"",""1"",""3284""
","
","","","-1","","","14","18665","6904","&#9826;","elianto","#f73b6a7A","-1","-1","1","0","[]","0","0","3","","","","","","","",""
"pit-trial","61","559349","0.0-2.0-14.0-2.0","battery-v0.2","","""event"",""trial"",""time""
""fullscreenenter"",""1"",""3284""
","
","
","""event"",""trial"",""time""
""fullscreenenter"",""1"",""3284""
","
","","","-1","","","14","18665","6904","&#9826;","elianto","#f73b6a7A","-1","-1","1","0","[]","0","0","3","","","","","","","",""
"pit-trial","62","564219","0.0-2.0-14.0-3.0","battery-v0.2","","""event"",""trial"",""time""
""fullscreenenter"",""1"",""3284""
","
","
","""event"",""trial"",""time""
""fullscreenenter"",""1"",""3284""
","
","","","-1","","","14","18665","6904","&#9826;","elianto","#f73b6a7A","-1","-1","1","-10","[]","0","0","3","","","","","","","",""
"pit-trial","63","569085","0.0-2.0-14.0-4.0","battery-v0.2","","""event"",""trial"",""time""
""fullscreenenter"",""1"",""3284""
","
","
","""event"",""trial"",""time""
""fullscreenenter"",""1"",""3284""
","
","","","-1","","","14","18665","6904","&#9826;","elianto","#f73b6a7A","-1","-1","1","0","[]","0","0","3","","","","","","","",""
"pit-trial","64","573959","0.0-2.0-14.1-0.1","battery-v0.2","","""event"",""trial"",""time""
""fullscreenenter"",""1"",""3284""
","
","
","""event"",""trial"",""time""
""fullscreenenter"",""1"",""3284""
","
","","","-1","","","14","18665","6904","&#9826;","elianto","#f73b6a7A","-1","-1","1","0","[]","0","0","3","","","","","","","",""
"pit-trial","65","578812","0.0-2.0-14.1-1.1","battery-v0.2","","""event"",""trial"",""time""
""fullscreenenter"",""1"",""3284""
","
","
","""event"",""trial"",""time""
""fullscreenenter"",""1"",""3284""
","
","","","-1","","","14","18665","6904","&#9826;","elianto","#f73b6a7A","-1","-1","1","0","[]","0","0","3","","","","","","","",""
"pit-trial","66","583665","0.0-2.0-14.1-2.1","battery-v0.2","","""event"",""trial"",""time""
""fullscreenenter"",""1"",""3284""
","
","
","""event"",""trial"",""time""
""fullscreenenter"",""1"",""3284""
","
","","","-1","","","14","18665","6904","&#9826;","elianto","#f73b6a7A","-1","-1","1","0","[]","0","0","3","","","","","","","",""
"pit-trial","67","588518","0.0-2.0-14.1-3.1","battery-v0.2","","""event"",""trial"",""time""
""fullscreenenter"",""1"",""3284""
","
","
","""event"",""trial"",""time""
""fullscreenenter"",""1"",""3284""
","
","","","-1","","","14","18665","6904","&#9826;","elianto","#f73b6a7A","-1","-1","1","-10","[]","0","0","3","","","","","","","",""
"pit-trial","68","593383","0.0-2.0-14.1-4.1","battery-v0.2","","""event"",""trial"",""time""
""fullscreenenter"",""1"",""3284""
","
","
","""event"",""trial"",""time""
""fullscreenenter"",""1"",""3284""
","
","","","-1","","","14","18665","6904","&#9826;","elianto","#f73b6a7A","-1","-1","1","0","[]","0","0","3","","","","","","","",""
"pit-trial","69","598238","0.0-2.0-14.2-0.2","battery-v0.2","","""event"",""trial"",""time""
""fullscreenenter"",""1"",""3284""
","
","
","""event"",""trial"",""time""
""fullscreenenter"",""1"",""3284""
","
","","","-1","","","14","18665","6904","&#9826;","elianto","#f73b6a7A","-1","-1","1","0","[]","0","0","3","","","","","","","",""
"pit-trial","70","603092","0.0-2.0-14.2-1.2","battery-v0.2","","""event"",""trial"",""time""
""fullscreenenter"",""1"",""3284""
","
","
","""event"",""trial"",""time""
""fullscreenenter"",""1"",""3284""
","
","","","-1","","","14","18665","6904","&#9826;","elianto","#f73b6a7A","-1","-1","1","0","[]","0","0","3","","","","","","","",""
"pit-trial","71","607945","0.0-2.0-14.2-2.2","battery-v0.2","","""event"",""trial"",""time""
""fullscreenenter"",""1"",""3284""
","
","
","""event"",""trial"",""time""
""fullscreenenter"",""1"",""3284""
","
","","","-1","","","14","18665","6904","&#9826;","elianto","#f73b6a7A","-1","-1","1","0","[]","0","0","3","","","","","","","",""
"pit-trial","72","612797","0.0-2.0-14.2-3.2","battery-v0.2","","""event"",""trial"",""time""
""fullscreenenter"",""1"",""3284""
","
","
","""event"",""trial"",""time""
""fullscreenenter"",""1"",""3284""
","
","","","-1","","","14","18665","6904","&#9826;","elianto","#f73b6a7A","-1","-1","1","-10","[]","0","0","3","","","","","","","",""
"pit-trial","73","617650","0.0-2.0-14.2-4.2","battery-v0.2","","""event"",""trial"",""time""
""fullscreenenter"",""1"",""3284""
","
","
","""event"",""trial"",""time""
""fullscreenenter"",""1"",""3284""
","
","","","-1","","","14","18665","6904","&#9826;","elianto","#f73b6a7A","-1","-1","1","0","[]","0","0","3","","","","","","","",""
"pit-trial","74","622504","0.0-2.0-14.3-0.3","battery-v0.2","","""event"",""trial"",""time""
""fullscreenenter"",""1"",""3284""
","
","
","""event"",""trial"",""time""
""fullscreenenter"",""1"",""3284""
","
","","","-1","","","14","18665","6904","&#9826;","elianto","#f73b6a7A","-1","-1","1","0","[]","0","0","3","","","","","","","",""
"pit-trial","75","627356","0.0-2.0-14.3-1.3","battery-v0.2","","""event"",""trial"",""time""
""fullscreenenter"",""1"",""3284""
","
","
","""event"",""trial"",""time""
""fullscreenenter"",""1"",""3284""
","
","","","-1","","","14","18665","6904","&#9826;","elianto","#f73b6a7A","-1","-1","1","0","[]","0","0","3","","","","","","","",""
"pit-trial","76","632211","0.0-2.0-14.3-2.3","battery-v0.2","","""event"",""trial"",""time""
""fullscreenenter"",""1"",""3284""
","
","
","""event"",""trial"",""time""
""fullscreenenter"",""1"",""3284""
","
","","","-1","","","14","18665","6904","&#9826;","elianto","#f73b6a7A","-1","-1","1","0","[]","0","0","3","","","","","","","",""
"pit-trial","77","637075","0.0-2.0-14.3-3.3","battery-v0.2","","""event"",""trial"",""time""
""fullscreenenter"",""1"",""3284""
","
","
","""event"",""trial"",""time""
""fullscreenenter"",""1"",""3284""
","
","","","-1","","","14","18665","6904","&#9826;","elianto","#f73b6a7A","-1","-1","1","-10","[]","0","0","3","","","","","","","",""
"pit-trial","78","641931","0.0-2.0-14.3-4.3","battery-v0.2","","""event"",""trial"",""time""
""fullscreenenter"",""1"",""3284""
","
","
","""event"",""trial"",""time""
""fullscreenenter"",""1"",""3284""
","
","","","-1","","","14","18665","6904","&#9826;","elianto","#f73b6a7A","-1","-1","1","0","[]","0","0","3","","","","","","","",""
"call-function","79","641932","0.0-2.0-15.0","battery-v0.2","","""event"",""trial"",""time""
""fullscreenenter"",""1"",""3284""
","
","
","""event"",""trial"",""time""
""fullscreenenter"",""1"",""3284""
","
","","","","","","","","","","","","","","","","","","","","","","","","","","",""
"pit-instructions","80","666654","0.0-2.0-16.0","battery-v0.2","","""event"",""trial"",""time""
""fullscreenenter"",""1"",""3284""
","
","
","""event"",""trial"",""time""
""fullscreenenter"",""1"",""3284""
","
","","[{""page_index"":0,""viewing_time"":6530},{""page_index"":1,""viewing_time"":9182.899999976158},{""page_index"":2,""viewing_time"":4960.600000023842},{""page_index"":3,""viewing_time"":4047.5}]","24721.299999952316","","","","","","","","","","","","","","","","","","","","","","","",""
"pit-trial","81","669976","0.0-2.0-17.0-0.0","battery-v0.2","","""event"",""trial"",""time""
""fullscreenenter"",""1"",""3284""
","
","
","""event"",""trial"",""time""
""fullscreenenter"",""1"",""3284""
","
","","","450.1999999284744","","","14","18665","6904","&#9789;","elianto","#f73b6a7A"," "," ","1","0","[1313.6999999284744]","1","0","4","","","","","","","",""
"pit-trial","82","673013","0.0-2.0-17.0-1.0","battery-v0.2","","""event"",""trial"",""time""
""fullscreenenter"",""1"",""3284""
","
","
","""event"",""trial"",""time""
""fullscreenenter"",""1"",""3284""
","
","","","162.80000007152557","","","14","18665","6904","&#9789;","elianto","#f73b6a7A"," "," ","1","0","[1020.8000000715256]","1","0","4","","","","","","","",""
"pit-trial","83","676301","0.0-2.0-17.0-2.0","battery-v0.2","","""event"",""trial"",""time""
""fullscreenenter"",""1"",""3284""
","
","
","""event"",""trial"",""time""
""fullscreenenter"",""1"",""3284""
","
","","","414.89999997615814","","","14","18665","6904","&#9789;","elianto","#f73b6a7A"," "," ","1","0","[1277.8999999761581]","1","0","4","","","","","","","",""
"pit-trial","84","679631","0.0-2.0-17.0-3.0","battery-v0.2","","""event"",""trial"",""time""
""fullscreenenter"",""1"",""3284""
","
","
","""event"",""trial"",""time""
""fullscreenenter"",""1"",""3284""
","
","","","472.40000009536743","","","14","18665","6904","&#9789;","elianto","#f73b6a7A"," "," ","1","-10","[1327.1000000238419]","1","0","4","","","","","","","",""
"pit-trial","85","682949","0.0-2.0-17.0-4.0","battery-v0.2","","""event"",""trial"",""time""
""fullscreenenter"",""1"",""3284""
","
","
","""event"",""trial"",""time""
""fullscreenenter"",""1"",""3284""
","
","","","454.5","","","14","18665","6904","&#9789;","elianto","#f73b6a7A"," "," ","1","0","[1313.3999999761581]","1","0","4","","","","","","","",""
"pit-trial","86","686316","0.0-2.0-17.1-0.1","battery-v0.2","","""event"",""trial"",""time""
""fullscreenenter"",""1"",""3284""
","
","
","""event"",""trial"",""time""
""fullscreenenter"",""1"",""3284""
","
","","","510.60000002384186","","","14","18665","6904","&#9789;","elianto","#f73b6a7A"," "," ","1","0","[1362.2999999523163]","1","0","4","","","","","","","",""
"pit-trial","87","689646","0.0-2.0-17.1-1.1","battery-v0.2","","""event"",""trial"",""time""
""fullscreenenter"",""1"",""3284""
","
","
","""event"",""trial"",""time""
""fullscreenenter"",""1"",""3284""
","
","","","451.7000000476837","","","14","18665","6904","&#9789;","elianto","#f73b6a7A"," "," ","1","0","[1315.8000000715256]","1","0","4","","","","","","","",""
"pit-trial","88","692973","0.0-2.0-17.1-2.1","battery-v0.2","","""event"",""trial"",""time""
""fullscreenenter"",""1"",""3284""
","
","
","""event"",""trial"",""time""
""fullscreenenter"",""1"",""3284""
","
","","","469.39999997615814","","","14","18665","6904","&#9789;","elianto","#f73b6a7A"," "," ","1","0","[1321.3999999761581]","1","0","4","","","","","","","",""
"pit-trial","89","696080","0.0-2.0-17.1-3.1","battery-v0.2","","""event"",""trial"",""time""
""fullscreenenter"",""1"",""3284""
","
","
","""event"",""trial"",""time""
""fullscreenenter"",""1"",""3284""
","
","","","239.70000004768372","","","14","18665","6904","&#9789;","elianto","#f73b6a7A"," "," ","1","-10","[1095.7999999523163]","1","0","4","","","","","","","",""
"pit-trial","90","699425","0.0-2.0-17.1-4.1","battery-v0.2","","""event"",""trial"",""time""
""fullscreenenter"",""1"",""3284""
","
","
","""event"",""trial"",""time""
""fullscreenenter"",""1"",""3284""
","
","","","492.6999999284744","","","14","18665","6904","&#9789;","elianto","#f73b6a7A"," "," ","1","0","[1343]","1","0","4","","","","","","","",""
"pit-trial","91","702724","0.0-2.0-17.2-0.2","battery-v0.2","","""event"",""trial"",""time""
""fullscreenenter"",""1"",""3284""
","
","
","""event"",""trial"",""time""
""fullscreenenter"",""1"",""3284""
","
","","","446.60000002384186","","","14","18665","6904","&#9789;","elianto","#f73b6a7A"," "," ","1","0","[1296.7999999523163]","1","0","4","","","","","","","",""
"pit-trial","92","706452","0.0-2.0-17.2-1.2","battery-v0.2","","""event"",""trial"",""time""
""fullscreenenter"",""1"",""3284""
","
","
","""event"",""trial"",""time""
""fullscreenenter"",""1"",""3284""
","
","","","875.1000000238419","","","14","18665","6904","&#9789;","elianto","#f73b6a7A"," "," ","1","0","[1725.7000000476837]","1","0","4","","","","","","","",""
"pit-trial","93","709989","0.0-2.0-17.2-2.2","battery-v0.2","","""event"",""trial"",""time""
""fullscreenenter"",""1"",""3284""
","
","
","""event"",""trial"",""time""
""fullscreenenter"",""1"",""3284""
","
","","","681.6000000238419","","","14","18665","6904","&#9789;","elianto","#f73b6a7A"," "," ","1","0","[1533.7000000476837]","1","0","4","","","","","","","",""
"pit-trial","94","713355","0.0-2.0-17.2-3.2","battery-v0.2","","""event"",""trial"",""time""
""fullscreenenter"",""1"",""3284""
","
","
","""event"",""trial"",""time""
""fullscreenenter"",""1"",""3284""
","
","","","513.1000000238419","","","14","18665","6904","&#9789;","elianto","#f73b6a7A"," "," ","1","-10","[1364.0999999046326]","1","0","4","","","","","","","",""
"pit-trial","95","716735","0.0-2.0-17.2-4.2","battery-v0.2","","""event"",""trial"",""time""
""fullscreenenter"",""1"",""3284""
","
","
","""event"",""trial"",""time""
""fullscreenenter"",""1"",""3284""
","
","","","527.6000000238419","","","14","18665","6904","&#9789;","elianto","#f73b6a7A"," "," ","1","0","[1377.6000000238419]","1","0","4","","","","","","","",""
"pit-trial","96","720205","0.0-2.0-17.3-0.3","battery-v0.2","","""event"",""trial"",""time""
""fullscreenenter"",""1"",""3284""
","
","
","""event"",""trial"",""time""
""fullscreenenter"",""1"",""3284""
","
","","","615.9000000953674","","","14","18665","6904","&#9789;","elianto","#f73b6a7A"," "," ","1","0","[1466.7000000476837]","1","0","4","","","","","","","",""
"pit-trial","97","723580","0.0-2.0-17.3-1.3","battery-v0.2","","""event"",""trial"",""time""
""fullscreenenter"",""1"",""3284""
","
","
","""event"",""trial"",""time""
""fullscreenenter"",""1"",""3284""
","
","","","523.1000000238419","","","14","18665","6904","&#9789;","elianto","#f73b6a7A"," "," ","1","0","[1373.5]","1","0","4","","","","","","","",""
"pit-trial","98","726988","0.0-2.0-17.3-2.3","battery-v0.2","","""event"",""trial"",""time""
""fullscreenenter"",""1"",""3284""
","
","
","""event"",""trial"",""time""
""fullscreenenter"",""1"",""3284""
","
","","","552.6000000238419","","","14","18665","6904","&#9789;","elianto","#f73b6a7A"," "," ","1","0","[1404.6000000238419]","1","0","4","","","","","","","",""
"pit-trial","99","730910","0.0-2.0-17.3-3.3","battery-v0.2","","""event"",""trial"",""time""
""fullscreenenter"",""1"",""3284""
","
","
","""event"",""trial"",""time""
""fullscreenenter"",""1"",""3284""
","
","","","1068.5","","","14","18665","6904","&#9789;","elianto","#f73b6a7A"," "," ","1","-10","[1919.3999999761581]","1","0","4","","","","","","","",""
"pit-trial","100","734304","0.0-2.0-17.3-4.3","battery-v0.2","","""event"",""trial"",""time""
""fullscreenenter"",""1"",""3284""
","
","
","""event"",""trial"",""time""
""fullscreenenter"",""1"",""3284""
","
","","","541.2000000476837","","","14","18665","6904","&#9789;","elianto","#f73b6a7A"," "," ","1","0","[1392.7000000476837]","1","0","4","","","","","","","",""
"call-function","101","734305","0.0-2.0-18.0","battery-v0.2","","""event"",""trial"",""time""
""fullscreenenter"",""1"",""3284""
","
","
","""event"",""trial"",""time""
""fullscreenenter"",""1"",""3284""
","
","","","","","","","","","","","","","","","","","","","","","","","","","","",""
"pit-instructions","102","796358","0.0-2.0-19.0","battery-v0.2","","""event"",""trial"",""time""
""fullscreenenter"",""1"",""3284""
","
","
","""event"",""trial"",""time""
""fullscreenenter"",""1"",""3284""
","
","","[{""page_index"":0,""viewing_time"":6420.199999928474},{""page_index"":1,""viewing_time"":6071.800000071526},{""page_index"":2,""viewing_time"":13144.199999928474},{""page_index"":3,""viewing_time"":4232},{""page_index"":4,""viewing_time"":6040.300000071526},{""page_index"":5,""viewing_time"":8839.799999952316},{""page_index"":6,""viewing_time"":8103.700000047684},{""page_index"":7,""viewing_time"":5880},{""page_index"":8,""viewing_time"":3320.5}]","62052.799999952316","","","","","","","","","","","","","","","","","","","","","","","",""
"pit-comprehension","103","801158","0.0-2.0-20.0-0.0","battery-v0.2","","""event"",""trial"",""time""
""fullscreenenter"",""1"",""3284""
","
","
","""event"",""trial"",""time""
""fullscreenenter"",""1"",""3284""
","
","","","4797","[""SPACE""]","0","14","18665","6904","","","","","","","","","","","","","","","","","","",""
"pit-instructions","104","804982","0.0-2.0-20.0-1.0","battery-v0.2","","""event"",""trial"",""time""
""fullscreenenter"",""1"",""3284""
","
","
","""event"",""trial"",""time""
""fullscreenenter"",""1"",""3284""
","
","","[{""page_index"":0,""viewing_time"":3791.899999976158}]","3792.3000000715256","","","","","","","","","","","","","","","","","","","","","","","",""
"pit-comprehension","105","811198","0.0-2.0-21.0-0.0","battery-v0.2","","""event"",""trial"",""time""
""fullscreenenter"",""1"",""3284""
","
","
","""event"",""trial"",""time""
""fullscreenenter"",""1"",""3284""
","
","","","6212.899999976158","[""10""]","0","14","18665","6904","","","","","","","","","","","","","","","","","","",""
"pit-instructions","106","814582","0.0-2.0-21.0-1.0","battery-v0.2","","""event"",""trial"",""time""
""fullscreenenter"",""1"",""3284""
","
","
","""event"",""trial"",""time""
""fullscreenenter"",""1"",""3284""
","
","","[{""page_index"":0,""viewing_time"":3345.7000000476837}]","3345.899999976158","","","","","","","","","","","","","","","","","","","","","","","",""
"pit-comprehension","107","821710","0.0-2.0-22.0-0.0","battery-v0.2","","""event"",""trial"",""time""
""fullscreenenter"",""1"",""3284""
","
","
","""event"",""trial"",""time""
""fullscreenenter"",""1"",""3284""
","
","","","7126.400000095367","[""0""]","0","14","18665","6904","","","","","","","","","","","","","","","","","","",""
"pit-instructions","108","826845","0.0-2.0-22.0-1.0","battery-v0.2","","""event"",""trial"",""time""
""fullscreenenter"",""1"",""3284""
","
","
","""event"",""trial"",""time""
""fullscreenenter"",""1"",""3284""
","
","","[{""page_index"":0,""viewing_time"":5102.799999952316}]","5103.099999904633","","","","","","","","","","","","","","","","","","","","","","","",""
"pit-comprehension","109","835382","0.0-2.0-23.0-0.0","battery-v0.2","","""event"",""trial"",""time""
""fullscreenenter"",""1"",""3284""
","
","
","""event"",""trial"",""time""
""fullscreenenter"",""1"",""3284""
","
","","","8534","[""True""]","0","14","18665","6904","","","","","","","","","","","","","","","","","","",""
"pit-instructions","110","839117","0.0-2.0-23.0-1.0","battery-v0.2","","""event"",""trial"",""time""
""fullscreenenter"",""1"",""3284""
","
","
","""event"",""trial"",""time""
""fullscreenenter"",""1"",""3284""
","
","","[{""page_index"":0,""viewing_time"":3704.100000023842}]","3704.3000000715256","","","","","","","","","","","","","","","","","","","","","","","",""
"pit-comprehension","111","850566","0.0-2.0-24.0-0.0","battery-v0.2","","""event"",""trial"",""time""
""fullscreenenter"",""1"",""3284""
","
","
","""event"",""trial"",""time""
""fullscreenenter"",""1"",""3284""
","
","","","11446.399999976158","[""True""]","0","14","18665","6904","","","","","","","","","","","","","","","","","","",""
"pit-instructions","112","854061","0.0-2.0-24.0-1.0","battery-v0.2","","""event"",""trial"",""time""
""fullscreenenter"",""1"",""3284""
","
","
","""event"",""trial"",""time""
""fullscreenenter"",""1"",""3284""
","
","","[{""page_index"":0,""viewing_time"":3457.5}]","3457.6999999284744","","","","","","","","","","","","","","","","","","","","","","","",""
"pit-comprehension","113","860990","0.0-2.0-25.0-0.0","battery-v0.2","","""event"",""trial"",""time""
""fullscreenenter"",""1"",""3284""
","
","
","""event"",""trial"",""time""
""fullscreenenter"",""1"",""3284""
","
","","","6926","[""True""]","0","14","18665","6904","","","","","","","","","","","","","","","","","","",""
"pit-instructions","114","865014","0.0-2.0-25.0-1.0","battery-v0.2","","""event"",""trial"",""time""
""fullscreenenter"",""1"",""3284""
","
","
","""event"",""trial"",""time""
""fullscreenenter"",""1"",""3284""
","
","","[{""page_index"":0,""viewing_time"":3993.399999976158}]","3993.5","","","","","","","","","","","","","","","","","","","","","","","",""
"pit-comprehension","115","870782","0.0-2.0-26.0-0.0","battery-v0.2","","""event"",""trial"",""time""
""fullscreenenter"",""1"",""3284""
","
","
","""event"",""trial"",""time""
""fullscreenenter"",""1"",""3284""
","
","","","5765.5","[""False""]","0","14","18665","6904","","","","","","","","","","","","","","","","","","",""
"pit-instructions","116","873862","0.0-2.0-26.0-1.0","battery-v0.2","","""event"",""trial"",""time""
""fullscreenenter"",""1"",""3284""
","
","
","""event"",""trial"",""time""
""fullscreenenter"",""1"",""3284""
","
","","[{""page_index"":0,""viewing_time"":3041.5}]","3041.8000000715256","","","","","","","","","","","","","","","","","","","","","","","",""
"pit-instructions","117","895893","0.0-3.0","battery-v0.2","","""event"",""trial"",""time""
""fullscreenenter"",""1"",""3284""
","
","
","""event"",""trial"",""time""
""fullscreenenter"",""1"",""3284""
","
","","[{""page_index"":0,""viewing_time"":8614.5},{""page_index"":1,""viewing_time"":5631.399999976158},{""page_index"":2,""viewing_time"":7783.899999976158}]","22030","","","","","","","","","","","","","","","","","","","","","","","",""
"pit-trial","118","899913","0.0-4.0","battery-v0.2","","""event"",""trial"",""time""
""fullscreenenter"",""1"",""3284""
","
","
","""event"",""trial"",""time""
""fullscreenenter"",""1"",""3284""
","
","","","1147.2000000476837","","","14","18665","6904","&#9733;","elianto","#3366ff99","-1"," ","0","+10","[2004.6000000238419]","1","1","","","18665","1","2","2","win","no-go","1"
"pit-trial","119","903511","0.0-5.0","battery-v0.2","","""event"",""trial"",""time""
""fullscreenenter"",""1"",""3284""
","
","
","""event"",""trial"",""time""
""fullscreenenter"",""1"",""3284""
","
","","","739.1999999284744","","","14","18665","6904","&#9730;","elianto","#3366ff99"," "," ","1","+10","[1593.1999999284744]","1","1","","","18665","2","1","1","win","go","0"
"pit-trial","120","907175","0.0-6.0","battery-v0.2","","""event"",""trial"",""time""
""fullscreenenter"",""1"",""3284""
","
","
","""event"",""trial"",""time""
""fullscreenenter"",""1"",""3284""
","
","","","800.7000000476837","","","14","18665","6904","&#9752;","elianto","#f73b6a7A"," "," ","1","0","[1652.5]","1","1","","","18665","3","3","3","lose","go","0"
"pit-trial","121","910691","0.0-7.0","battery-v0.2","","""event"",""trial"",""time""
""fullscreenenter"",""1"",""3284""
","
","
","""event"",""trial"",""time""
""fullscreenenter"",""1"",""3284""
","
","","","647.6999999284744","","","14","18665","6904","&#9728;","elianto","#f73b6a7A","-1"," ","0","0","[1500.8999999761581]","1","1","","","18665","4","0","4","lose","no-go","1"
"pit-trial","122","914160","0.0-8.0","battery-v0.2","","""event"",""trial"",""time""
""fullscreenenter"",""1"",""3284""
","
","
","""event"",""trial"",""time""
""fullscreenenter"",""1"",""3284""
","
","","","597.3000000715256","","","14","18665","6904","&#9752;","elianto","#f73b6a7A"," "," ","1","0","[1454.3999999761581]","1","1","","","18665","5","3","3","lose","go","0"
"pit-trial","123","917634","0.0-9.0","battery-v0.2","","""event"",""trial"",""time""
""fullscreenenter"",""1"",""3284""
","
","
","""event"",""trial"",""time""
""fullscreenenter"",""1"",""3284""
","
","","","610","","","14","18665","6904","&#9733;","elianto","#3366ff99","-1"," ","0","0","[1463.4000000953674]","1","1","","","18665","6","2","2","win","no-go","0"
"pit-trial","124","922508","0.0-10.0","battery-v0.2","","""event"",""trial"",""time""
""fullscreenenter"",""1"",""3284""
","
","
","""event"",""trial"",""time""
""fullscreenenter"",""1"",""3284""
","
","","","-1","","","14","18665","6904","&#9730;","elianto","#3366ff99"," ","-1","0","0","[]","0","1","","","18665","7","1","1","win","go","0"
"pit-trial","125","926145","0.0-11.0","battery-v0.2","","""event"",""trial"",""time""
""fullscreenenter"",""1"",""3284""
","
","
","""event"",""trial"",""time""
""fullscreenenter"",""1"",""3284""
","
","","","784.7000000476837","","","14","18665","6904","&#9728;","elianto","#f73b6a7A","-1"," ","0","-10","[1635.1000000238419]","1","1","","","18665","8","0","4","lose","no-go","0"
"pit-trial","126","930999","0.0-12.0","battery-v0.2","","""event"",""trial"",""time""
""fullscreenenter"",""1"",""3284""
","
","
","""event"",""trial"",""time""
""fullscreenenter"",""1"",""3284""
","
","","","-1","","","14","18665","6904","&#9728;","elianto","#f73b6a7A","-1","-1","1","0","[]","0","1","","","18665","9","0","4","lose","no-go","0"
"pit-trial","127","934735","0.0-13.0","battery-v0.2","","""event"",""trial"",""time""
""fullscreenenter"",""1"",""3284""
","
","
","""event"",""trial"",""time""
""fullscreenenter"",""1"",""3284""
","
","","","883.2000000476837","","","14","18665","6904","&#9733;","elianto","#3366ff99","-1"," ","0","0","[1733.4000000953674]","1","1","","","18665","10","2","2","win","no-go","0"
"pit-trial","128","939173","0.0-14.0","battery-v0.2","","""event"",""trial"",""time""
""fullscreenenter"",""1"",""3284""
","
","
","""event"",""trial"",""time""
""fullscreenenter"",""1"",""3284""
","
","","","1584.7999999523163","","","14","18665","6904","&#9752;","elianto","#f73b6a7A"," "," ","1","0","[2435.7999999523163]","1","1","","","18665","11","3","3","lose","go","0"
"pit-trial","129","943041","0.0-15.0","battery-v0.2","","""event"",""trial"",""time""
""fullscreenenter"",""1"",""3284""
","
","
","""event"",""trial"",""time""
""fullscreenenter"",""1"",""3284""
","
","","","1015.7000000476837","","","14","18665","6904","&#9730;","elianto","#3366ff99"," "," ","1","+10","[1865.7000000476837]","1","1","","","18665","12","1","1","win","go","0"
"pit-trial","130","947392","0.0-16.0","battery-v0.2","","""event"",""trial"",""time""
""fullscreenenter"",""1"",""3284""
","
","
","""event"",""trial"",""time""
""fullscreenenter"",""1"",""3284""
","
","","","1493.5","","","14","18665","6904","&#9752;","elianto","#f73b6a7A"," "," ","1","-10","[2348.5]","1","1","","","18665","13","3","3","lose","go","1"
"pit-trial","131","951039","0.0-17.0","battery-v0.2","","""event"",""trial"",""time""
""fullscreenenter"",""1"",""3284""
","
","
","""event"",""trial"",""time""
""fullscreenenter"",""1"",""3284""
","
","","","794.8999999761581","","","14","18665","6904","&#9728;","elianto","#f73b6a7A","-1"," ","0","0","[1645.3999999761581]","1","1","","","18665","14","0","4","lose","no-go","1"
"pit-trial","132","954676","0.0-18.0","battery-v0.2","","""event"",""trial"",""time""
""fullscreenenter"",""1"",""3284""
","
","
","""event"",""trial"",""time""
""fullscreenenter"",""1"",""3284""
","
","","","784.5","","","14","18665","6904","&#9733;","elianto","#3366ff99","-1"," ","0","0","[1634.6000000238419]","1","1","","","18665","15","2","2","win","no-go","0"
"pit-trial","133","958169","0.0-19.0","battery-v0.2","","""event"",""trial"",""time""
""fullscreenenter"",""1"",""3284""
","
","
","""event"",""trial"",""time""
""fullscreenenter"",""1"",""3284""
","
","","","640.2999999523163","","","14","18665","6904","&#9730;","elianto","#3366ff99"," "," ","1","+10","[1491]","1","1","","","18665","16","1","1","win","go","0"
"pit-trial","134","963022","0.0-20.0","battery-v0.2","","""event"",""trial"",""time""
""fullscreenenter"",""1"",""3284""
","
","
","""event"",""trial"",""time""
""fullscreenenter"",""1"",""3284""
","
","","","-1","","","14","18665","6904","&#9752;","elianto","#f73b6a7A"," ","-1","0","-10","[]","0","1","","","18665","17","3","3","lose","go","0"
"pit-trial","135","966432","0.0-21.0","battery-v0.2","","""event"",""trial"",""time""
""fullscreenenter"",""1"",""3284""
","
","
","""event"",""trial"",""time""
""fullscreenenter"",""1"",""3284""
","
","","","557.7000000476837","","","14","18665","6904","&#9728;","elianto","#f73b6a7A","-1"," ","0","-10","[1408.1000000238419]","1","1","","","18665","18","0","4","lose","no-go","0"
"pit-trial","136","970074","0.0-22.0","battery-v0.2","","""event"",""trial"",""time""
""fullscreenenter"",""1"",""3284""
","
","
","""event"",""trial"",""time""
""fullscreenenter"",""1"",""3284""
","
","","","787.8999999761581","","","14","18665","6904","&#9730;","elianto","#3366ff99"," "," ","1","0","[1639.2000000476837]","1","1","","","18665","19","1","1","win","go","1"
"pit-trial","137","973571","0.0-23.0","battery-v0.2","","""event"",""trial"",""time""
""fullscreenenter"",""1"",""3284""
","
","
","""event"",""trial"",""time""
""fullscreenenter"",""1"",""3284""
","
","","","640.7000000476837","","","14","18665","6904","&#9733;","elianto","#3366ff99","-1"," ","0","0","[1491]","1","1","","","18665","20","2","2","win","no-go","0"
"pit-instructions","138","985573","0.0-24.0","battery-v0.2","","""event"",""trial"",""time""
""fullscreenenter"",""1"",""3284""
","
","
","""event"",""trial"",""time""
""fullscreenenter"",""1"",""3284""
","
","","[{""page_index"":0,""viewing_time"":5449.5},{""page_index"":1,""viewing_time"":6551.399999976158}]","12001.199999928474","","","","","","","","","","","","","","","","","","","","","","","",""
"pit-trial","139","989335","0.0-25.0","battery-v0.2","","""event"",""trial"",""time""
""fullscreenenter"",""1"",""3284""
","
","
","""event"",""trial"",""time""
""fullscreenenter"",""1"",""3284""
","
","","","898.6000000238419","","","14","18665","6904","j","elianto","#f73b6a7A"," "," ","1","0","[1754.1000000238419]","1","2","","","18665","21","0","3","lose","go","0"
"pit-trial","140","992904","0.0-26.0","battery-v0.2","","""event"",""trial"",""time""
""fullscreenenter"",""1"",""3284""
","
","
","""event"",""trial"",""time""
""fullscreenenter"",""1"",""3284""
","
","","","705.3999999761581","","","14","18665","6904","w","elianto","#f73b6a7A","-1"," ","0","-10","[1559.1999999284744]","1","2","","","18665","22","3","4","lose","no-go","0"
"pit-trial","141","996433","0.0-27.0","battery-v0.2","","""event"",""trial"",""time""
""fullscreenenter"",""1"",""3284""
","
","
","""event"",""trial"",""time""
""fullscreenenter"",""1"",""3284""
","
","","","674.1999999284744","","","14","18665","6904","d","elianto","#3366ff99","-1"," ","0","0","[1526]","1","2","","","18665","23","1","2","win","no-go","0"
"pit-trial","142","1000223","0.0-28.0","battery-v0.2","","""event"",""trial"",""time""
""fullscreenenter"",""1"",""3284""
","
","
","""event"",""trial"",""time""
""fullscreenenter"",""1"",""3284""
","
","","","938.3000000715256","","","14","18665","6904","e","elianto","#f73b6a7A"," "," ","1","0","[1788.7000000476837]","1","2","","","18665","24","2","3","lose","go","0"
"pit-trial","143","1003967","0.0-29.0","battery-v0.2","","""event"",""trial"",""time""
""fullscreenenter"",""1"",""3284""
","
","
","""event"",""trial"",""time""
""fullscreenenter"",""1"",""3284""
","
","","","876.3999999761581","","","14","18665","6904","e","elianto","#f73b6a7A"," "," ","1","0","[1728.7999999523163]","1","2","","","18665","25","2","3","lose","go","0"
"pit-trial","144","1007771","0.0-30.0","battery-v0.2","","""event"",""trial"",""time""
""fullscreenenter"",""1"",""3284""
","
","
","""event"",""trial"",""time""
""fullscreenenter"",""1"",""3284""
","
","","","940.9000000953674","","","14","18665","6904","j","elianto","#f73b6a7A"," "," ","1","0","[1797.1000000238419]","1","2","","","18665","26","0","3","lose","go","0"
"pit-trial","145","1012634","0.0-31.0","battery-v0.2","","""event"",""trial"",""time""
""fullscreenenter"",""1"",""3284""
","
","
","""event"",""trial"",""time""
""fullscreenenter"",""1"",""3284""
","
","","","-1","","","14","18665","6904","w","elianto","#f73b6a7A","-1","-1","1","0","[]","0","2","","","18665","27","3","4","lose","no-go","0"
"pit-trial","146","1016087","0.0-32.0","battery-v0.2","","""event"",""trial"",""time""
""fullscreenenter"",""1"",""3284""
","
","
","""event"",""trial"",""time""
""fullscreenenter"",""1"",""3284""
","
","","","591.2000000476837","","","14","18665","6904","d","elianto","#3366ff99","-1"," ","0","0","[1445.8000000715256]","1","2","","","18665","28","1","2","win","no-go","0"
"pit-trial","147","1020940","0.0-33.0","battery-v0.2","","""event"",""trial"",""time""
""fullscreenenter"",""1"",""3284""
","
","
","""event"",""trial"",""time""
""fullscreenenter"",""1"",""3284""
","
","","","-1","","","14","18665","6904","j","elianto","#f73b6a7A"," ","-1","0","-10","[]","0","2","","","18665","29","0","3","lose","go","0"
"pit-trial","148","1024475","0.0-34.0","battery-v0.2","","""event"",""trial"",""time""
""fullscreenenter"",""1"",""3284""
","
","
","""event"",""trial"",""time""
""fullscreenenter"",""1"",""3284""
","
","","","680.6999999284744","","","14","18665","6904","e","elianto","#f73b6a7A"," "," ","1","0","[1532.1000000238419]","1","2","","","18665","30","2","3","lose","go","0"
"pit-trial","149","1028066","0.0-35.0","battery-v0.2","","""event"",""trial"",""time""
""fullscreenenter"",""1"",""3284""
","
","
","""event"",""trial"",""time""
""fullscreenenter"",""1"",""3284""
","
","","","736.5999999046326","","","14","18665","6904","d","elianto","#3366ff99","-1"," ","0","0","[1588.9000000953674]","1","2","","","18665","31","1","2","win","no-go","0"
"pit-trial","150","1031644","0.0-36.0","battery-v0.2","","""event"",""trial"",""time""
""fullscreenenter"",""1"",""3284""
","
","
","""event"",""trial"",""time""
""fullscreenenter"",""1"",""3284""
","
","","","710.2000000476837","","","14","18665","6904","w","elianto","#f73b6a7A","-1"," ","0","-10","[1561]","1","2","","","18665","32","3","4","lose","no-go","0"
"pit-trial","151","1036498","0.0-37.0","battery-v0.2","","""event"",""trial"",""time""
""fullscreenenter"",""1"",""3284""
","
","
","""event"",""trial"",""time""
""fullscreenenter"",""1"",""3284""
","
","","","-1","","","14","18665","6904","w","elianto","#f73b6a7A","-1","-1","1","0","[]","0","2","","","18665","33","3","4","lose","no-go","0"
"pit-trial","152","1039915","0.0-38.0","battery-v0.2","","""event"",""trial"",""time""
""fullscreenenter"",""1"",""3284""
","
","
","""event"",""trial"",""time""
""fullscreenenter"",""1"",""3284""
","
","","","564.3999999761581","","","14","18665","6904","e","elianto","#f73b6a7A"," "," ","1","0","[1415.1000000238419]","1","2","","","18665","34","2","3","lose","go","0"
"pit-trial","153","1043411","0.0-39.0","battery-v0.2","","""event"",""trial"",""time""
""fullscreenenter"",""1"",""3284""
","
","
","""event"",""trial"",""time""
""fullscreenenter"",""1"",""3284""
","
","","","637.3000000715256","","","14","18665","6904","d","elianto","#3366ff99","-1"," ","0","0","[1487.8999999761581]","1","2","","","18665","35","1","2","win","no-go","0"
"pit-trial","154","1047342","0.0-40.0","battery-v0.2","","""event"",""trial"",""time""
""fullscreenenter"",""1"",""3284""
","
","
","""event"",""trial"",""time""
""fullscreenenter"",""1"",""3284""
","
","","","1078.3999999761581","","","14","18665","6904","j","elianto","#f73b6a7A"," "," ","1","0","[1928.5]","1","2","","","18665","36","0","3","lose","go","0"
"pit-trial","155","1051171","0.0-41.0","battery-v0.2","","""event"",""trial"",""time""
""fullscreenenter"",""1"",""3284""
","
","
","""event"",""trial"",""time""
""fullscreenenter"",""1"",""3284""
","
","","","977","","","14","18665","6904","j","elianto","#f73b6a7A"," "," ","1","0","[1827.1999999284744]","1","2","","","18665","37","0","3","lose","go","0"
"pit-trial","156","1054918","0.0-42.0","battery-v0.2","","""event"",""trial"",""time""
""fullscreenenter"",""1"",""3284""
","
","
","""event"",""trial"",""time""
""fullscreenenter"",""1"",""3284""
","
","","","892.8999999761581","","","14","18665","6904","e","elianto","#f73b6a7A"," "," ","1","0","[1744.3999999761581]","1","2","","","18665","38","2","3","lose","go","0"
"pit-trial","157","1059019","0.0-43.0","battery-v0.2","","""event"",""trial"",""time""
""fullscreenenter"",""1"",""3284""
","
","
","""event"",""trial"",""time""
""fullscreenenter"",""1"",""3284""
","
","","","1248.6000000238419","","","14","18665","6904","w","elianto","#f73b6a7A","-1"," ","0","-10","[2099.100000023842]","1","2","","","18665","39","3","4","lose","no-go","0"
"pit-trial","158","1062453","0.0-44.0","battery-v0.2","","""event"",""trial"",""time""
""fullscreenenter"",""1"",""3284""
","
","
","""event"",""trial"",""time""
""fullscreenenter"",""1"",""3284""
","
","","","581","","","14","18665","6904","d","elianto","#3366ff99","-1"," ","0","0","[1432.2000000476837]","1","2","","","18665","40","1","2","win","no-go","0"
"pit-trial","159","1065833","0.0-45.0","battery-v0.2","","""event"",""trial"",""time""
""fullscreenenter"",""1"",""3284""
","
","
","""event"",""trial"",""time""
""fullscreenenter"",""1"",""3284""
","
","","","527.7999999523163","","","14","18665","6904","e","elianto","#f73b6a7A"," "," ","1","-10","[1377.7999999523163]","1","2","","","18665","41","2","3","lose","go","1"
"pit-trial","160","1069291","0.0-46.0","battery-v0.2","","""event"",""trial"",""time""
""fullscreenenter"",""1"",""3284""
","
","
","""event"",""trial"",""time""
""fullscreenenter"",""1"",""3284""
","
","","","606","","","14","18665","6904","w","elianto","#f73b6a7A","-1"," ","0","-10","[1456.1000000238419]","1","2","","","18665","42","3","4","lose","no-go","0"
"pit-trial","161","1072953","0.0-47.0","battery-v0.2","","""event"",""trial"",""time""
""fullscreenenter"",""1"",""3284""
","
","
","""event"",""trial"",""time""
""fullscreenenter"",""1"",""3284""
","
","","","809.8000000715256","","","14","18665","6904","j","elianto","#f73b6a7A"," "," ","1","0","[1660.3999999761581]","1","2","","","18665","43","0","3","lose","go","0"
"pit-trial","162","1076379","0.0-48.0","battery-v0.2","","""event"",""trial"",""time""
""fullscreenenter"",""1"",""3284""
","
","
","""event"",""trial"",""time""
""fullscreenenter"",""1"",""3284""
","
","","","572.2999999523163","","","14","18665","6904","d","elianto","#3366ff99","-1"," ","0","0","[1423.1000000238419]","1","2","","","18665","44","1","2","win","no-go","0"
"pit-trial","163","1081232","0.0-49.0","battery-v0.2","","""event"",""trial"",""time""
""fullscreenenter"",""1"",""3284""
","
","
","""event"",""trial"",""time""
""fullscreenenter"",""1"",""3284""
","
","","","-1","","","14","18665","6904","w","elianto","#f73b6a7A","-1","-1","1","-10","[]","0","2","","","18665","45","3","4","lose","no-go","1"
"pit-trial","164","1084803","0.0-50.0","battery-v0.2","","""event"",""trial"",""time""
""fullscreenenter"",""1"",""3284""
","
","
","""event"",""trial"",""time""
""fullscreenenter"",""1"",""3284""
","
","","","703.9000000953674","","","14","18665","6904","j","elianto","#f73b6a7A"," "," ","1","0","[1554.5]","1","2","","","18665","46","0","3","lose","go","0"
"pit-trial","165","1088951","0.0-51.0","battery-v0.2","","""event"",""trial"",""time""
""fullscreenenter"",""1"",""3284""
","
","
","""event"",""trial"",""time""
""fullscreenenter"",""1"",""3284""
","
","","","1293.7000000476837","","","14","18665","6904","e","elianto","#f73b6a7A"," "," ","1","0","[2145.600000023842]","1","2","","","18665","47","2","3","lose","go","0"
"pit-trial","166","1093805","0.0-52.0","battery-v0.2","","""event"",""trial"",""time""
""fullscreenenter"",""1"",""3284""
","
","
","""event"",""trial"",""time""
""fullscreenenter"",""1"",""3284""
","
","","","-1","","","14","18665","6904","d","elianto","#3366ff99","-1","-1","1","+10","[]","0","2","","","18665","48","1","2","win","no-go","0"
"pit-trial","167","1098659","0.0-53.0","battery-v0.2","","""event"",""trial"",""time""
""fullscreenenter"",""1"",""3284""
","
","
","""event"",""trial"",""time""
""fullscreenenter"",""1"",""3284""
","
","","","-1","","","14","18665","6904","d","elianto","#3366ff99","-1","-1","1","+10","[]","0","2","","","18665","49","1","2","win","no-go","0"
"pit-trial","168","1102252","0.0-54.0","battery-v0.2","","""event"",""trial"",""time""
""fullscreenenter"",""1"",""3284""
","
","
","""event"",""trial"",""time""
""fullscreenenter"",""1"",""3284""
","
","","","740.7999999523163","","","14","18665","6904","e","elianto","#f73b6a7A"," "," ","1","0","[1590.7999999523163]","1","2","","","18665","50","2","3","lose","go","0"
"pit-trial","169","1107111","0.0-55.0","battery-v0.2","","""event"",""trial"",""time""
""fullscreenenter"",""1"",""3284""
","
","
","""event"",""trial"",""time""
""fullscreenenter"",""1"",""3284""
","
","","","-1","","","14","18665","6904","w","elianto","#f73b6a7A","-1","-1","1","0","[]","0","2","","","18665","51","3","4","lose","no-go","0"
"pit-trial","170","1110687","0.0-56.0","battery-v0.2","","""event"",""trial"",""time""
""fullscreenenter"",""1"",""3284""
","
","
","""event"",""trial"",""time""
""fullscreenenter"",""1"",""3284""
","
","","","723.5999999046326","","","14","18665","6904","j","elianto","#f73b6a7A"," "," ","1","-10","[1574.3999999761581]","1","2","","","18665","52","0","3","lose","go","1"
"pit-trial","171","1115546","0.0-57.0","battery-v0.2","","""event"",""trial"",""time""
""fullscreenenter"",""1"",""3284""
","
","
","""event"",""trial"",""time""
""fullscreenenter"",""1"",""3284""
","
","","","-1","","","14","18665","6904","d","elianto","#3366ff99","-1","-1","1","+10","[]","0","2","","","18665","53","1","2","win","no-go","0"
"pit-trial","172","1119072","0.0-58.0","battery-v0.2","","""event"",""trial"",""time""
""fullscreenenter"",""1"",""3284""
","
","
","""event"",""trial"",""time""
""fullscreenenter"",""1"",""3284""
","
","","","673.3000000715256","","","14","18665","6904","e","elianto","#f73b6a7A"," "," ","1","-10","[1523.8000000715256]","1","2","","","18665","54","2","3","lose","go","1"
"pit-trial","173","1123924","0.0-59.0","battery-v0.2","","""event"",""trial"",""time""
""fullscreenenter"",""1"",""3284""
","
","
","""event"",""trial"",""time""
""fullscreenenter"",""1"",""3284""
","
","","","-1","","","14","18665","6904","w","elianto","#f73b6a7A","-1","-1","1","0","[]","0","2","","","18665","55","3","4","lose","no-go","0"
"pit-trial","174","1127683","0.0-60.0","battery-v0.2","","""event"",""trial"",""time""
""fullscreenenter"",""1"",""3284""
","
","
","""event"",""trial"",""time""
""fullscreenenter"",""1"",""3284""
","
","","","892.7999999523163","","","14","18665","6904","j","elianto","#f73b6a7A"," "," ","1","0","[1743.2999999523163]","1","2","","","18665","56","0","3","lose","go","0"
"pit-trial","175","1131291","0.0-61.0","battery-v0.2","","""event"",""trial"",""time""
""fullscreenenter"",""1"",""3284""
","
","
","""event"",""trial"",""time""
""fullscreenenter"",""1"",""3284""
","
","","","755.1000000238419","","","14","18665","6904","e","elianto","#f73b6a7A"," "," ","1","0","[1605.8999999761581]","1","2","","","18665","57","2","3","lose","go","0"
"pit-trial","176","1135276","0.0-62.0","battery-v0.2","","""event"",""trial"",""time""
""fullscreenenter"",""1"",""3284""
","
","
","""event"",""trial"",""time""
""fullscreenenter"",""1"",""3284""
","
","","","1132.2999999523163","","","14","18665","6904","j","elianto","#f73b6a7A"," "," ","1","0","[1982.5]","1","2","","","18665","58","0","3","lose","go","0"
"pit-trial","177","1140129","0.0-63.0","battery-v0.2","","""event"",""trial"",""time""
""fullscreenenter"",""1"",""3284""
","
","
","""event"",""trial"",""time""
""fullscreenenter"",""1"",""3284""
","
","","","-1","","","14","18665","6904","w","elianto","#f73b6a7A","-1","-1","1","0","[]","0","2","","","18665","59","3","4","lose","no-go","0"
"pit-trial","178","1143811","0.0-64.0","battery-v0.2","","""event"",""trial"",""time""
""fullscreenenter"",""1"",""3284""
","
","
","""event"",""trial"",""time""
""fullscreenenter"",""1"",""3284""
","
","","","815.4000000953674","","","14","18665","6904","s","elianto","#3366ff99"," "," ","1","0","[1666.1000000238419]","1","2","","","18665","60","4","1","win","go","1"
"pit-trial","179","1147756","0.0-65.0","battery-v0.2","","""event"",""trial"",""time""
""fullscreenenter"",""1"",""3284""
","
","
","""event"",""trial"",""time""
""fullscreenenter"",""1"",""3284""
","
","","","1092.8999999761581","","","14","18665","6904","e","elianto","#f73b6a7A"," "," ","1","0","[1943.3000000715256]","1","2","","","18665","61","2","3","lose","go","0"
"pit-trial","180","1152609","0.0-66.0","battery-v0.2","","""event"",""trial"",""time""
""fullscreenenter"",""1"",""3284""
","
","
","""event"",""trial"",""time""
""fullscreenenter"",""1"",""3284""
","
","","","-1","","","14","18665","6904","w","elianto","#f73b6a7A","-1","-1","1","0","[]","0","2","","","18665","62","3","4","lose","no-go","0"
"pit-trial","181","1156871","0.0-67.0","battery-v0.2","","""event"",""trial"",""time""
""fullscreenenter"",""1"",""3284""
","
","
","""event"",""trial"",""time""
""fullscreenenter"",""1"",""3284""
","
","","","1409.6999999284744","","","14","18665","6904","s","elianto","#3366ff99"," "," ","1","+10","[2260.1999999284744]","1","2","","","18665","63","4","1","win","go","0"
"pit-trial","182","1160494","0.0-68.0","battery-v0.2","","""event"",""trial"",""time""
""fullscreenenter"",""1"",""3284""
","
","
","""event"",""trial"",""time""
""fullscreenenter"",""1"",""3284""
","
","","","760.8999999761581","","","14","18665","6904","d","elianto","#3366ff99","-1"," ","0","0","[1612.2999999523163]","1","2","","","18665","64","1","2","win","no-go","0"
"pit-trial","183","1164111","0.0-69.0","battery-v0.2","","""event"",""trial"",""time""
""fullscreenenter"",""1"",""3284""
","
","
","""event"",""trial"",""time""
""fullscreenenter"",""1"",""3284""
","
","","","763.1000000238419","","","14","18665","6904","p","elianto","#3366ff99","-1"," ","0","0","[1614.2000000476837]","1","2","","","18665","65","5","2","win","no-go","0"
"pit-trial","184","1168964","0.0-70.0","battery-v0.2","","""event"",""trial"",""time""
""fullscreenenter"",""1"",""3284""
","
","
","""event"",""trial"",""time""
""fullscreenenter"",""1"",""3284""
","
","","","-1","","","14","18665","6904","d","elianto","#3366ff99","-1","-1","1","+10","[]","0","2","","","18665","66","1","2","win","no-go","0"
"pit-trial","185","1173817","0.0-71.0","battery-v0.2","","""event"",""trial"",""time""
""fullscreenenter"",""1"",""3284""
","
","
","""event"",""trial"",""time""
""fullscreenenter"",""1"",""3284""
","
","","","-1","","","14","18665","6904","w","elianto","#f73b6a7A","-1","-1","1","0","[]","0","2","","","18665","67","3","4","lose","no-go","0"
"pit-trial","186","1177920","0.0-72.0","battery-v0.2","","""event"",""trial"",""time""
""fullscreenenter"",""1"",""3284""
","
","
","""event"",""trial"",""time""
""fullscreenenter"",""1"",""3284""
","
","","","1250.6999999284744","","","14","18665","6904","s","elianto","#3366ff99"," "," ","1","+10","[2102.1999999284744]","1","2","","","18665","68","4","1","win","go","0"
"pit-trial","187","1181544","0.0-73.0","battery-v0.2","","""event"",""trial"",""time""
""fullscreenenter"",""1"",""3284""
","
","
","""event"",""trial"",""time""
""fullscreenenter"",""1"",""3284""
","
","","","766.5","","","14","18665","6904","s","elianto","#3366ff99"," "," ","1","0","[1621.3999999761581]","1","2","","","18665","69","4","1","win","go","1"
"pit-trial","188","1186396","0.0-74.0","battery-v0.2","","""event"",""trial"",""time""
""fullscreenenter"",""1"",""3284""
","
","
","""event"",""trial"",""time""
""fullscreenenter"",""1"",""3284""
","
","","","-1","","","14","18665","6904","d","elianto","#3366ff99","-1","-1","1","+10","[]","0","2","","","18665","70","1","2","win","no-go","0"
"pit-trial","189","1190349","0.0-75.0","battery-v0.2","","""event"",""trial"",""time""
""fullscreenenter"",""1"",""3284""
","
","
","""event"",""trial"",""time""
""fullscreenenter"",""1"",""3284""
","
","","","1086.8999999761581","","","14","18665","6904","e","elianto","#f73b6a7A"," "," ","1","0","[1937.2000000476837]","1","2","","","18665","71","2","3","lose","go","0"
"pit-trial","190","1193847","0.0-76.0","battery-v0.2","","""event"",""trial"",""time""
""fullscreenenter"",""1"",""3284""
","
","
","""event"",""trial"",""time""
""fullscreenenter"",""1"",""3284""
","
","","","644.6000000238419","","","14","18665","6904","p","elianto","#3366ff99","-1"," ","0","0","[1495.3999999761581]","1","2","","","18665","72","5","2","win","no-go","0"
"pit-trial","191","1198700","0.0-77.0","battery-v0.2","","""event"",""trial"",""time""
""fullscreenenter"",""1"",""3284""
","
","
","""event"",""trial"",""time""
""fullscreenenter"",""1"",""3284""
","
","","","-1","","","14","18665","6904","w","elianto","#f73b6a7A","-1","-1","1","0","[]","0","2","","","18665","73","3","4","lose","no-go","0"
"pit-trial","192","1202389","0.0-78.0","battery-v0.2","","""event"",""trial"",""time""
""fullscreenenter"",""1"",""3284""
","
","
","""event"",""trial"",""time""
""fullscreenenter"",""1"",""3284""
","
","","","830.7000000476837","","","14","18665","6904","s","elianto","#3366ff99"," "," ","1","+10","[1682.2000000476837]","1","2","","","18665","74","4","1","win","go","0"
"pit-trial","193","1206758","0.0-79.0","battery-v0.2","","""event"",""trial"",""time""
""fullscreenenter"",""1"",""3284""
","
","
","""event"",""trial"",""time""
""fullscreenenter"",""1"",""3284""
","
","","","1515.9000000953674","","","14","18665","6904","p","elianto","#3366ff99","-1"," ","0","0","[2367.3000000715256]","1","2","","","18665","75","5","2","win","no-go","0"
"pit-trial","194","1211611","0.0-80.0","battery-v0.2","","""event"",""trial"",""time""
""fullscreenenter"",""1"",""3284""
","
","
","""event"",""trial"",""time""
""fullscreenenter"",""1"",""3284""
","
","","","-1","","","14","18665","6904","d","elianto","#3366ff99","-1","-1","1","0","[]","0","2","","","18665","76","1","2","win","no-go","1"
"pit-trial","195","1215306","0.0-81.0","battery-v0.2","","""event"",""trial"",""time""
""fullscreenenter"",""1"",""3284""
","
","
","""event"",""trial"",""time""
""fullscreenenter"",""1"",""3284""
","
","","","842.5","","","14","18665","6904","s","elianto","#3366ff99"," "," ","1","+10","[1693]","1","2","","","18665","77","4","1","win","go","0"
"pit-trial","196","1218842","0.0-82.0","battery-v0.2","","""event"",""trial"",""time""
""fullscreenenter"",""1"",""3284""
","
","
","""event"",""trial"",""time""
""fullscreenenter"",""1"",""3284""
","
","","","683.8000000715256","","","14","18665","6904","s","elianto","#3366ff99"," "," ","1","+10","[1534.3999999761581]","1","2","","","18665","78","4","1","win","go","0"
"pit-trial","197","1223696","0.0-83.0","battery-v0.2","","""event"",""trial"",""time""
""fullscreenenter"",""1"",""3284""
","
","
","""event"",""trial"",""time""
""fullscreenenter"",""1"",""3284""
","
","","","-1","","","14","18665","6904","w","elianto","#f73b6a7A","-1","-1","1","0","[]","0","2","","","18665","79","3","4","lose","no-go","0"
"pit-trial","198","1228549","0.0-84.0","battery-v0.2","","""event"",""trial"",""time""
""fullscreenenter"",""1"",""3284""
","
","
","""event"",""trial"",""time""
""fullscreenenter"",""1"",""3284""
","
","","","-1","","","14","18665","6904","p","elianto","#3366ff99","-1","-1","1","0","[]","0","2","","","18665","80","5","2","win","no-go","1"
"pit-trial","199","1233416","0.0-85.0","battery-v0.2","","""event"",""trial"",""time""
""fullscreenenter"",""1"",""3284""
","
","
","""event"",""trial"",""time""
""fullscreenenter"",""1"",""3284""
","
","","","-1","","","14","18665","6904","a","elianto","#f73b6a7A","-1","-1","1","0","[]","0","2","","","18665","81","7","4","lose","no-go","0"
"pit-trial","200","1237698","0.0-86.0","battery-v0.2","","""event"",""trial"",""time""
""fullscreenenter"",""1"",""3284""
","
","
","""event"",""trial"",""time""
""fullscreenenter"",""1"",""3284""
","
","","","1428.8999999761581","","","14","18665","6904","s","elianto","#3366ff99"," "," ","1","+10","[2280.399999976158]","1","2","","","18665","82","4","1","win","go","0"
"pit-trial","201","1242551","0.0-87.0","battery-v0.2","","""event"",""trial"",""time""
""fullscreenenter"",""1"",""3284""
","
","
","""event"",""trial"",""time""
""fullscreenenter"",""1"",""3284""
","
","","","-1","","","14","18665","6904","w","elianto","#f73b6a7A","-1","-1","1","0","[]","0","2","","","18665","83","3","4","lose","no-go","0"
"pit-trial","202","1246108","0.0-88.0","battery-v0.2","","""event"",""trial"",""time""
""fullscreenenter"",""1"",""3284""
","
","
","""event"",""trial"",""time""
""fullscreenenter"",""1"",""3284""
","
","","","704.3000000715256","","","14","18665","6904","p","elianto","#3366ff99","-1"," ","0","+10","[1555]","1","2","","","18665","84","5","2","win","no-go","1"
"pit-trial","203","1250107","0.0-89.0","battery-v0.2","","""event"",""trial"",""time""
""fullscreenenter"",""1"",""3284""
","
","
","""event"",""trial"",""time""
""fullscreenenter"",""1"",""3284""
","
","","","1147","","","14","18665","6904","a","elianto","#f73b6a7A","-1"," ","0","0","[1997.5]","1","2","","","18665","85","7","4","lose","no-go","1"
"pit-trial","204","1253935","0.0-90.0","battery-v0.2","","""event"",""trial"",""time""
""fullscreenenter"",""1"",""3284""
","
","
","""event"",""trial"",""time""
""fullscreenenter"",""1"",""3284""
","
","","","975","","","14","18665","6904","s","elianto","#3366ff99"," "," ","1","+10","[1825.7000000476837]","1","2","","","18665","86","4","1","win","go","0"
"pit-trial","205","1258789","0.0-91.0","battery-v0.2","","""event"",""trial"",""time""
""fullscreenenter"",""1"",""3284""
","
","
","""event"",""trial"",""time""
""fullscreenenter"",""1"",""3284""
","
","","","-1","","","14","18665","6904","p","elianto","#3366ff99","-1","-1","1","+10","[]","0","2","","","18665","87","5","2","win","no-go","0"
"pit-trial","206","1263643","0.0-92.0","battery-v0.2","","""event"",""trial"",""time""
""fullscreenenter"",""1"",""3284""
","
","
","""event"",""trial"",""time""
""fullscreenenter"",""1"",""3284""
","
","","","-1","","","14","18665","6904","g","elianto","#f73b6a7A"," ","-1","0","-10","[]","0","2","","","18665","88","6","3","lose","go","0"
"pit-trial","207","1267719","0.0-93.0","battery-v0.2","","""event"",""trial"",""time""
""fullscreenenter"",""1"",""3284""
","
","
","""event"",""trial"",""time""
""fullscreenenter"",""1"",""3284""
","
","","","1223.6000000238419","","","14","18665","6904","s","elianto","#3366ff99"," "," ","1","+10","[2074.3000000715256]","1","2","","","18665","89","4","1","win","go","0"
"pit-trial","208","1272571","0.0-94.0","battery-v0.2","","""event"",""trial"",""time""
""fullscreenenter"",""1"",""3284""
","
","
","""event"",""trial"",""time""
""fullscreenenter"",""1"",""3284""
","
","","","-1","","","14","18665","6904","p","elianto","#3366ff99","-1","-1","1","+10","[]","0","2","","","18665","90","5","2","win","no-go","0"
"pit-trial","209","1277425","0.0-95.0","battery-v0.2","","""event"",""trial"",""time""
""fullscreenenter"",""1"",""3284""
","
","
","""event"",""trial"",""time""
""fullscreenenter"",""1"",""3284""
","
","","","-1","","","14","18665","6904","g","elianto","#f73b6a7A"," ","-1","0","-10","[]","0","2","","","18665","91","6","3","lose","go","0"
"pit-trial","210","1282279","0.0-96.0","battery-v0.2","","""event"",""trial"",""time""
""fullscreenenter"",""1"",""3284""
","
","
","""event"",""trial"",""time""
""fullscreenenter"",""1"",""3284""
","
","","","-1","","","14","18665","6904","a","elianto","#f73b6a7A","-1","-1","1","0","[]","0","2","","","18665","92","7","4","lose","no-go","0"
"pit-trial","211","1285725","0.0-97.0","battery-v0.2","","""event"",""trial"",""time""
""fullscreenenter"",""1"",""3284""
","
","
","""event"",""trial"",""time""
""fullscreenenter"",""1"",""3284""
","
","","","594.1000000238419","","","14","18665","6904","g","elianto","#f73b6a7A"," "," ","1","-10","[1444.8000000715256]","1","2","","","18665","93","6","3","lose","go","1"
"pit-trial","212","1290579","0.0-98.0","battery-v0.2","","""event"",""trial"",""time""
""fullscreenenter"",""1"",""3284""
","
","
","""event"",""trial"",""time""
""fullscreenenter"",""1"",""3284""
","
","","","-1","","","14","18665","6904","p","elianto","#3366ff99","-1","-1","1","+10","[]","0","2","","","18665","94","5","2","win","no-go","0"
"pit-trial","213","1295432","0.0-99.0","battery-v0.2","","""event"",""trial"",""time""
""fullscreenenter"",""1"",""3284""
","
","
","""event"",""trial"",""time""
""fullscreenenter"",""1"",""3284""
","
","","","-1","","","14","18665","6904","a","elianto","#f73b6a7A","-1","-1","1","0","[]","0","2","","","18665","95","7","4","lose","no-go","0"
"pit-trial","214","1299411","0.0-100.0","battery-v0.2","","""event"",""trial"",""time""
""fullscreenenter"",""1"",""3284""
","
","
","""event"",""trial"",""time""
""fullscreenenter"",""1"",""3284""
","
","","","1127","","","14","18665","6904","l","elianto","#3366ff99"," "," ","1","+10","[1977.5]","1","2","","","18665","96","8","1","win","go","0"
"pit-trial","215","1304264","0.0-101.0","battery-v0.2","","""event"",""trial"",""time""
""fullscreenenter"",""1"",""3284""
","
","
","""event"",""trial"",""time""
""fullscreenenter"",""1"",""3284""
","
","","","-1","","","14","18665","6904","a","elianto","#f73b6a7A","-1","-1","1","0","[]","0","2","","","18665","97","7","4","lose","no-go","0"
"pit-trial","216","1308316","0.0-102.0","battery-v0.2","","""event"",""trial"",""time""
""fullscreenenter"",""1"",""3284""
","
","
","""event"",""trial"",""time""
""fullscreenenter"",""1"",""3284""
","
","","","1199.8999999761581","","","14","18665","6904","l","elianto","#3366ff99"," "," ","1","+10","[2050.7000000476837]","1","2","","","18665","98","8","1","win","go","0"
"pit-trial","217","1312013","0.0-103.0","battery-v0.2","","""event"",""trial"",""time""
""fullscreenenter"",""1"",""3284""
","
","
","""event"",""trial"",""time""
""fullscreenenter"",""1"",""3284""
","
","","","844.3000000715256","","","14","18665","6904","g","elianto","#f73b6a7A"," "," ","1","-10","[1694.5]","1","2","","","18665","99","6","3","lose","go","1"
"pit-trial","218","1316867","0.0-104.0","battery-v0.2","","""event"",""trial"",""time""
""fullscreenenter"",""1"",""3284""
","
","
","""event"",""trial"",""time""
""fullscreenenter"",""1"",""3284""
","
","","","-1","","","14","18665","6904","p","elianto","#3366ff99","-1","-1","1","+10","[]","0","2","","","18665","100","5","2","win","no-go","0"
"pit-trial","219","1320610","0.0-105.0","battery-v0.2","","""event"",""trial"",""time""
""fullscreenenter"",""1"",""3284""
","
","
","""event"",""trial"",""time""
""fullscreenenter"",""1"",""3284""
","
","","","890.8999999761581","","","14","18665","6904","u","elianto","#3366ff99"," "," ","1","0","[1742]","1","2","","","18665","101","9","1","win","go","1"
"pit-trial","220","1325462","0.0-106.0","battery-v0.2","","""event"",""trial"",""time""
""fullscreenenter"",""1"",""3284""
","
","
","""event"",""trial"",""time""
""fullscreenenter"",""1"",""3284""
","
","","","-1","","","14","18665","6904","p","elianto","#3366ff99","-1","-1","1","0","[]","0","2","","","18665","102","5","2","win","no-go","1"
"pit-trial","221","1329237","0.0-107.0","battery-v0.2","","""event"",""trial"",""time""
""fullscreenenter"",""1"",""3284""
","
","
","""event"",""trial"",""time""
""fullscreenenter"",""1"",""3284""
","
","","","920.6999999284744","","","14","18665","6904","l","elianto","#3366ff99"," "," ","1","+10","[1771.7999999523163]","1","2","","","18665","103","8","1","win","go","0"
"pit-trial","222","1334089","0.0-108.0","battery-v0.2","","""event"",""trial"",""time""
""fullscreenenter"",""1"",""3284""
","
","
","""event"",""trial"",""time""
""fullscreenenter"",""1"",""3284""
","
","","","-1","","","14","18665","6904","a","elianto","#f73b6a7A","-1","-1","1","-10","[]","0","2","","","18665","104","7","4","lose","no-go","1"
"pit-trial","223","1337822","0.0-109.0","battery-v0.2","","""event"",""trial"",""time""
""fullscreenenter"",""1"",""3284""
","
","
","""event"",""trial"",""time""
""fullscreenenter"",""1"",""3284""
","
","","","879.3000000715256","","","14","18665","6904","l","elianto","#3366ff99"," "," ","1","+10","[1731]","1","2","","","18665","105","8","1","win","go","0"
"pit-trial","224","1341529","0.0-110.0","battery-v0.2","","""event"",""trial"",""time""
""fullscreenenter"",""1"",""3284""
","
","
","""event"",""trial"",""time""
""fullscreenenter"",""1"",""3284""
","
","","","854.3999999761581","","","14","18665","6904","u","elianto","#3366ff99"," "," ","1","+10","[1704.5]","1","2","","","18665","106","9","1","win","go","0"
"pit-trial","225","1345815","0.0-111.0","battery-v0.2","","""event"",""trial"",""time""
""fullscreenenter"",""1"",""3284""
","
","
","""event"",""trial"",""time""
""fullscreenenter"",""1"",""3284""
","
","","","1434.2999999523163","","","14","18665","6904","s","elianto","#3366ff99"," "," ","1","+10","[2284.399999976158]","1","2","","","18665","107","4","1","win","go","0"
"pit-trial","226","1349659","0.0-112.0","battery-v0.2","","""event"",""trial"",""time""
""fullscreenenter"",""1"",""3284""
","
","
","""event"",""trial"",""time""
""fullscreenenter"",""1"",""3284""
","
","","","990.7999999523163","","","14","18665","6904","g","elianto","#f73b6a7A"," "," ","1","0","[1841.6999999284744]","1","2","","","18665","108","6","3","lose","go","0"
"pit-trial","227","1353236","0.0-113.0","battery-v0.2","","""event"",""trial"",""time""
""fullscreenenter"",""1"",""3284""
","
","
","""event"",""trial"",""time""
""fullscreenenter"",""1"",""3284""
","
","","","725.7000000476837","","","14","18665","6904","l","elianto","#3366ff99"," "," ","1","0","[1576]","1","2","","","18665","109","8","1","win","go","1"
"pit-trial","228","1358089","0.0-114.0","battery-v0.2","","""event"",""trial"",""time""
""fullscreenenter"",""1"",""3284""
","
","
","""event"",""trial"",""time""
""fullscreenenter"",""1"",""3284""
","
","","","-1","","","14","18665","6904","p","elianto","#3366ff99","-1","-1","1","+10","[]","0","2","","","18665","110","5","2","win","no-go","0"
"pit-trial","229","1361775","0.0-115.0","battery-v0.2","","""event"",""trial"",""time""
""fullscreenenter"",""1"",""3284""
","
","
","""event"",""trial"",""time""
""fullscreenenter"",""1"",""3284""
","
","","","833.1000000238419","","","14","18665","6904","u","elianto","#3366ff99"," "," ","1","+10","[1684]","1","2","","","18665","111","9","1","win","go","0"
"pit-trial","230","1366629","0.0-116.0","battery-v0.2","","""event"",""trial"",""time""
""fullscreenenter"",""1"",""3284""
","
","
","""event"",""trial"",""time""
""fullscreenenter"",""1"",""3284""
","
","","","-1","","","14","18665","6904","g","elianto","#f73b6a7A"," ","-1","0","-10","[]","0","2","","","18665","112","6","3","lose","go","0"
"pit-trial","231","1370474","0.0-117.0","battery-v0.2","","""event"",""trial"",""time""
""fullscreenenter"",""1"",""3284""
","
","
","""event"",""trial"",""time""
""fullscreenenter"",""1"",""3284""
","
","","","989.2000000476837","","","14","18665","6904","u","elianto","#3366ff99"," "," ","1","0","[1842.7000000476837]","1","2","","","18665","113","9","1","win","go","1"
"pit-trial","232","1374077","0.0-118.0","battery-v0.2","","""event"",""trial"",""time""
""fullscreenenter"",""1"",""3284""
","
","
","""event"",""trial"",""time""
""fullscreenenter"",""1"",""3284""
","
","","","750.0999999046326","","","14","18665","6904","g","elianto","#f73b6a7A"," "," ","1","0","[1601.0999999046326]","1","2","","","18665","114","6","3","lose","go","0"
"pit-trial","233","1377614","0.0-119.0","battery-v0.2","","""event"",""trial"",""time""
""fullscreenenter"",""1"",""3284""
","
","
","""event"",""trial"",""time""
""fullscreenenter"",""1"",""3284""
","
","","","683.3999999761581","","","14","18665","6904","l","elianto","#3366ff99"," "," ","1","+10","[1534.6000000238419]","1","2","","","18665","115","8","1","win","go","0"
"pit-trial","234","1382468","0.0-120.0","battery-v0.2","","""event"",""trial"",""time""
""fullscreenenter"",""1"",""3284""
","
","
","""event"",""trial"",""time""
""fullscreenenter"",""1"",""3284""
","
","","","-1","","","14","18665","6904","p","elianto","#3366ff99","-1","-1","1","+10","[]","0","2","","","18665","116","5","2","win","no-go","0"
"pit-trial","235","1386216","0.0-121.0","battery-v0.2","","""event"",""trial"",""time""
""fullscreenenter"",""1"",""3284""
","
","
","""event"",""trial"",""time""
""fullscreenenter"",""1"",""3284""
","
","","","894.5","","","14","18665","6904","u","elianto","#3366ff99"," "," ","1","+10","[1744.6000000238419]","1","2","","","18665","117","9","1","win","go","0"
"pit-trial","236","1389854","0.0-122.0","battery-v0.2","","""event"",""trial"",""time""
""fullscreenenter"",""1"",""3284""
","
","
","""event"",""trial"",""time""
""fullscreenenter"",""1"",""3284""
","
","","","786.3999999761581","","","14","18665","6904","p","elianto","#3366ff99","-1"," ","0","+10","[1636.6999999284744]","1","2","","","18665","118","5","2","win","no-go","1"
"pit-trial","237","1393444","0.0-123.0","battery-v0.2","","""event"",""trial"",""time""
""fullscreenenter"",""1"",""3284""
","
","
","""event"",""trial"",""time""
""fullscreenenter"",""1"",""3284""
","
","","","737","","","14","18665","6904","l","elianto","#3366ff99"," "," ","1","+10","[1588.2000000476837]","1","2","","","18665","119","8","1","win","go","0"
"pit-trial","238","1397101","0.0-124.0","battery-v0.2","","""event"",""trial"",""time""
""fullscreenenter"",""1"",""3284""
","
","
","""event"",""trial"",""time""
""fullscreenenter"",""1"",""3284""
","
","","","803.8000000715256","","","14","18665","6904","g","elianto","#f73b6a7A"," "," ","1","0","[1655]","1","2","","","18665","120","6","3","lose","go","0"
"pit-trial","239","1400865","0.0-125.0","battery-v0.2","","""event"",""trial"",""time""
""fullscreenenter"",""1"",""3284""
","
","
","""event"",""trial"",""time""
""fullscreenenter"",""1"",""3284""
","
","","","910.9000000953674","","","14","18665","6904","u","elianto","#3366ff99"," "," ","1","0","[1761.6000000238419]","1","2","","","18665","121","9","1","win","go","1"
"pit-trial","240","1404478","0.0-126.0","battery-v0.2","","""event"",""trial"",""time""
""fullscreenenter"",""1"",""3284""
","
","
","""event"",""trial"",""time""
""fullscreenenter"",""1"",""3284""
","
","","","759.3000000715256","","","14","18665","6904","l","elianto","#3366ff99"," "," ","1","+10","[1610.1000000238419,2728]","2","2","","","18665","122","8","1","win","go","0"
"pit-trial","241","1408552","0.0-127.0","battery-v0.2","","""event"",""trial"",""time""
""fullscreenenter"",""1"",""3284""
","
","
","""event"",""trial"",""time""
""fullscreenenter"",""1"",""3284""
","
","","","1221.1000000238419","","","14","18665","6904","g","elianto","#f73b6a7A"," "," ","1","0","[2072.1999999284744]","1","2","","","18665","123","6","3","lose","go","0"
"pit-trial","242","1413406","0.0-128.0","battery-v0.2","","""event"",""trial"",""time""
""fullscreenenter"",""1"",""3284""
","
","
","""event"",""trial"",""time""
""fullscreenenter"",""1"",""3284""
","
","","","-1","","","14","18665","6904","a","elianto","#f73b6a7A","-1","-1","1","-10","[]","0","2","","","18665","124","7","4","lose","no-go","1"
"pit-trial","243","1417300","0.0-129.0","battery-v0.2","","""event"",""trial"",""time""
""fullscreenenter"",""1"",""3284""
","
","
","""event"",""trial"",""time""
""fullscreenenter"",""1"",""3284""
","
","","","1042","","","14","18665","6904","a","elianto","#f73b6a7A","-1"," ","0","-10","[1892.3000000715256]","1","2","","","18665","125","7","4","lose","no-go","0"
"pit-trial","244","1421107","0.0-130.0","battery-v0.2","","""event"",""trial"",""time""
""fullscreenenter"",""1"",""3284""
","
","
","""event"",""trial"",""time""
""fullscreenenter"",""1"",""3284""
","
","","","953.1000000238419","","","14","18665","6904","u","elianto","#3366ff99"," "," ","1","+10","[1804.2000000476837,1963.8999999761581]","2","2","","","18665","126","9","1","win","go","0"
"pit-trial","245","1424753","0.0-131.0","battery-v0.2","","""event"",""trial"",""time""
""fullscreenenter"",""1"",""3284""
","
","
","""event"",""trial"",""time""
""fullscreenenter"",""1"",""3284""
","
","","","790.5","","","14","18665","6904","l","elianto","#3366ff99"," "," ","1","+10","[1641]","1","2","","","18665","127","8","1","win","go","0"
"pit-trial","246","1429607","0.0-132.0","battery-v0.2","","""event"",""trial"",""time""
""fullscreenenter"",""1"",""3284""
","
","
","""event"",""trial"",""time""
""fullscreenenter"",""1"",""3284""
","
","","","-1","","","14","18665","6904","g","elianto","#f73b6a7A"," ","-1","0","-10","[]","0","2","","","18665","128","6","3","lose","go","0"
"pit-trial","247","1433824","0.0-133.0","battery-v0.2","","""event"",""trial"",""time""
""fullscreenenter"",""1"",""3284""
","
","
","""event"",""trial"",""time""
""fullscreenenter"",""1"",""3284""
","
","","","1364","","","14","18665","6904","g","elianto","#f73b6a7A"," "," ","1","0","[2214.2999999523163]","1","2","","","18665","129","6","3","lose","go","0"
"pit-trial","248","1437534","0.0-134.0","battery-v0.2","","""event"",""trial"",""time""
""fullscreenenter"",""1"",""3284""
","
","
","""event"",""trial"",""time""
""fullscreenenter"",""1"",""3284""
","
","","","857.3000000715256","","","14","18665","6904","u","elianto","#3366ff99"," "," ","1","+10","[1707.6000000238419]","1","2","","","18665","130","9","1","win","go","0"
"pit-trial","249","1441334","0.0-135.0","battery-v0.2","","""event"",""trial"",""time""
""fullscreenenter"",""1"",""3284""
","
","
","""event"",""trial"",""time""
""fullscreenenter"",""1"",""3284""
","
","","","946.8999999761581","","","14","18665","6904","l","elianto","#3366ff99"," "," ","1","+10","[1797.3999999761581]","1","2","","","18665","131","8","1","win","go","0"
"pit-trial","250","1445125","0.0-136.0","battery-v0.2","","""event"",""trial"",""time""
""fullscreenenter"",""1"",""3284""
","
","
","""event"",""trial"",""time""
""fullscreenenter"",""1"",""3284""
","
","","","937.6000000238419","","","14","18665","6904","a","elianto","#f73b6a7A","-1"," ","0","-10","[1789.3000000715256]","1","2","","","18665","132","7","4","lose","no-go","0"
"pit-trial","251","1448783","0.0-137.0","battery-v0.2","","""event"",""trial"",""time""
""fullscreenenter"",""1"",""3284""
","
","
","""event"",""trial"",""time""
""fullscreenenter"",""1"",""3284""
","
","","","804.1000000238419","","","14","18665","6904","u","elianto","#3366ff99"," "," ","1","+10","[1655.7999999523163]","1","2","","","18665","133","9","1","win","go","0"
"pit-trial","252","1452618","0.0-138.0","battery-v0.2","","""event"",""trial"",""time""
""fullscreenenter"",""1"",""3284""
","
","
","""event"",""trial"",""time""
""fullscreenenter"",""1"",""3284""
","
","","","982.5","","","14","18665","6904","l","elianto","#3366ff99"," "," ","1","+10","[1833.3999999761581]","1","2","","","18665","134","8","1","win","go","0"
"pit-trial","253","1457471","0.0-139.0","battery-v0.2","","""event"",""trial"",""time""
""fullscreenenter"",""1"",""3284""
","
","
","""event"",""trial"",""time""
""fullscreenenter"",""1"",""3284""
","
","","","-1","","","14","18665","6904","g","elianto","#f73b6a7A"," ","-1","0","-10","[4572.600000023842]","1","2","","","18665","135","6","3","lose","go","0"
"pit-trial","254","1461815","0.0-140.0","battery-v0.2","","""event"",""trial"",""time""
""fullscreenenter"",""1"",""3284""
","
","
","""event"",""trial"",""time""
""fullscreenenter"",""1"",""3284""
","
","","","1489.3999999761581","","","14","18665","6904","a","elianto","#f73b6a7A","-1"," ","0","-10","[2340.6999999284744]","1","2","","","18665","136","7","4","lose","no-go","0"
"pit-trial","255","1465271","0.0-141.0","battery-v0.2","","""event"",""trial"",""time""
""fullscreenenter"",""1"",""3284""
","
","
","""event"",""trial"",""time""
""fullscreenenter"",""1"",""3284""
","
","","","603.7999999523163","","","14","18665","6904","g","elianto","#f73b6a7A"," "," ","1","0","[1454.1999999284744]","1","2","","","18665","137","6","3","lose","go","0"
"pit-trial","256","1469414","0.0-142.0","battery-v0.2","","""event"",""trial"",""time""
""fullscreenenter"",""1"",""3284""
","
","
","""event"",""trial"",""time""
""fullscreenenter"",""1"",""3284""
","
","","","1290.5","","","14","18665","6904","u","elianto","#3366ff99"," "," ","1","+10","[2141]","1","2","","","18665","138","9","1","win","go","0"
"pit-trial","257","1472995","0.0-143.0","battery-v0.2","","""event"",""trial"",""time""
""fullscreenenter"",""1"",""3284""
","
","
","""event"",""trial"",""time""
""fullscreenenter"",""1"",""3284""
","
","","","727.8999999761581","","","14","18665","6904","l","elianto","#3366ff99"," "," ","1","+10","[1578.8999999761581]","1","2","","","18665","139","8","1","win","go","0"
"pit-trial","258","1477848","0.0-144.0","battery-v0.2","","""event"",""trial"",""time""
""fullscreenenter"",""1"",""3284""
","
","
","""event"",""trial"",""time""
""fullscreenenter"",""1"",""3284""
","
","","","-1","","","14","18665","6904","a","elianto","#f73b6a7A","-1","-1","1","-10","[]","0","2","","","18665","140","7","4","lose","no-go","1"
"pit-instructions","259","1539971","0.0-145.0","battery-v0.2","","""event"",""trial"",""time""
""fullscreenenter"",""1"",""3284""
","
","
","""event"",""trial"",""time""
""fullscreenenter"",""1"",""3284""
","
","","[{""page_index"":0,""viewing_time"":53594.800000071526},{""page_index"":1,""viewing_time"":8527.299999952316}]","62122.300000071526","","","","","","","","","","","","","","","","","","","","","","","",""
"pit-trial","260","1543491","0.0-146.0","battery-v0.2","","""event"",""trial"",""time""
""fullscreenenter"",""1"",""3284""
","
","
","""event"",""trial"",""time""
""fullscreenenter"",""1"",""3284""
","
","","","658.9000000953674","","","14","18665","6904","t","elianto","#f73b6a7A","-1"," ","0","-10","[1511.9000000953674]","1","3","","","18665","141","2","4","lose","no-go","0"
"pit-trial","261","1547309","0.0-147.0","battery-v0.2","","""event"",""trial"",""time""
""fullscreenenter"",""1"",""3284""
","
","
","""event"",""trial"",""time""
""fullscreenenter"",""1"",""3284""
","
","","","959.2999999523163","","","14","18665","6904","f","elianto","#3366ff99"," "," ","1","+10","[1812.8999999761581]","1","3","","","18665","142","1","1","win","go","0"
"pit-trial","262","1551660","0.0-148.0","battery-v0.2","","""event"",""trial"",""time""
""fullscreenenter"",""1"",""3284""
","
","
","""event"",""trial"",""time""
""fullscreenenter"",""1"",""3284""
","
","","","1487.3000000715256","","","14","18665","6904","b","elianto","#f73b6a7A"," "," ","1","0","[2337.600000023842]","1","3","","","18665","143","3","3","lose","go","0"
"pit-trial","263","1555384","0.0-149.0","battery-v0.2","","""event"",""trial"",""time""
""fullscreenenter"",""1"",""3284""
","
","
","""event"",""trial"",""time""
""fullscreenenter"",""1"",""3284""
","
","","","870","","","14","18665","6904","n","elianto","#f73b6a7A","-1"," ","0","-10","[1721.7999999523163]","1","3","","","18665","144","0","4","lose","no-go","0"
"pit-trial","264","1558989","0.0-150.0","battery-v0.2","","""event"",""trial"",""time""
""fullscreenenter"",""1"",""3284""
","
","
","""event"",""trial"",""time""
""fullscreenenter"",""1"",""3284""
","
","","","723.1000000238419","","","14","18665","6904","b","elianto","#f73b6a7A"," "," ","1","0","[1588.6000000238419]","1","3","","","18665","145","3","3","lose","go","0"
"pit-trial","265","1562613","0.0-151.0","battery-v0.2","","""event"",""trial"",""time""
""fullscreenenter"",""1"",""3284""
","
","
","""event"",""trial"",""time""
""fullscreenenter"",""1"",""3284""
","
