"trial_type","trial_index","time_elapsed","internal_node_id","task_version","subject_id","interactions","blur_events","focus_events","fullscreenenter_events","fullscreenexit_events","success","view_history","rt","responses","num_errors","age","subject","participantId","rune","rune_set","hex","correct","choice","accuracy","outcome","keys","total_keys","block","practice","value","sub","trial","stimulus","robot","valence","action","sham"
"pavlovia","0","11","0.0-0.0","battery-v0.2","","""event"",""trial"",""time""
""fullscreenenter"",""1"",""2973""
","
","
","""event"",""trial"",""time""
""fullscreenenter"",""1"",""2973""
","
","","","","","","","","","","","","","","","","","","","","","","","","","","",""
"fullscreen","1","3966","0.0-1.0","battery-v0.2","","""event"",""trial"",""time""
""fullscreenenter"",""1"",""2973""
","
","
","""event"",""trial"",""time""
""fullscreenenter"",""1"",""2973""
","
","true","","","","","","","","","","","","","","","","","","","","","","","","","",""
"pit-instructions","2","8808","0.0-2.0-0.0","battery-v0.2","","""event"",""trial"",""time""
""fullscreenenter"",""1"",""2973""
","
","
","""event"",""trial"",""time""
""fullscreenenter"",""1"",""2973""
","
","","[{""page_index"":0,""viewing_time"":4837.199999999953}]","4837.899999999965","","","","","","","","","","","","","","","","","","","","","","","",""
"pit-comprehension","3","12832","0.0-2.0-1.0-0.0","battery-v0.2","","""event"",""trial"",""time""
""fullscreenenter"",""1"",""2973""
","
","
","""event"",""trial"",""time""
""fullscreenenter"",""1"",""2973""
","
","","","4017.7000000000116","[""shark""]","0","12","9762","4417","","","","","","","","","","","","","","","","","","",""
"pit-instructions","4","16565","0.0-2.0-1.0-1.0","battery-v0.2","","""event"",""trial"",""time""
""fullscreenenter"",""1"",""2973""
","
","
","""event"",""trial"",""time""
""fullscreenenter"",""1"",""2973""
","
","","[{""page_index"":0,""viewing_time"":3722.0999999999767}]","3722.5999999999767","","","","","","","","","","","","","","","","","","","","","","","",""
"pit-comprehension","5","19737","0.0-2.0-2.0-0.0","battery-v0.2","","""event"",""trial"",""time""
""fullscreenenter"",""1"",""2973""
","
","
","""event"",""trial"",""time""
""fullscreenenter"",""1"",""2973""
","
","","","3165.0999999999767","[""tiger""]","0","12","9762","4417","","","","","","","","","","","","","","","","","","",""
"pit-instructions","6","21500","0.0-2.0-2.0-1.0","battery-v0.2","","""event"",""trial"",""time""
""fullscreenenter"",""1"",""2973""
","
","
","""event"",""trial"",""time""
""fullscreenenter"",""1"",""2973""
","
","","[{""page_index"":0,""viewing_time"":1757.5}]","1758","","","","","","","","","","","","","","","","","","","","","","","",""
"pit-instructions","7","124533","0.0-2.0-3.0","battery-v0.2","","""event"",""trial"",""time""
""fullscreenenter"",""1"",""2973""
","
","
","""event"",""trial"",""time""
""fullscreenenter"",""1"",""2973""
","
","","[{""page_index"":0,""viewing_time"":8700.600000000035},{""page_index"":1,""viewing_time"":6197.299999999988},{""page_index"":2,""viewing_time"":7299.900000000023},{""page_index"":3,""viewing_time"":5632},{""page_index"":4,""viewing_time"":6330.099999999977},{""page_index"":5,""viewing_time"":6230.700000000012},{""page_index"":6,""viewing_time"":7716.299999999988},{""page_index"":7,""viewing_time"":7229.299999999988},{""page_index"":8,""viewing_time"":6164.299999999988},{""page_index"":9,""viewing_time"":9785.800000000047},{""page_index"":10,""viewing_time"":10088.399999999965},{""page_index"":11,""viewing_time"":7595.200000000012},{""page_index"":12,""viewing_time"":7329.900000000023},{""page_index"":13,""viewing_time"":6727.099999999977}]","103027.40000000002","","","","","","","","","","","","","","","","","","","","","","","",""
"pit-trial","8","127911","0.0-2.0-4.0-0.0","battery-v0.2","","""event"",""trial"",""time""
""fullscreenenter"",""1"",""2973""
","
","
","""event"",""trial"",""time""
""fullscreenenter"",""1"",""2973""
","
","","","519.5","","","12","9762","4417","&#9784;","elianto","#FFFFF080"," "," ","1","&#10004","[1371.8000000000466]","1","0","0","","","","","","","",""
"pit-trial","9","132310","0.0-2.0-4.1-0.1","battery-v0.2","","""event"",""trial"",""time""
""fullscreenenter"",""1"",""2973""
","
","
","""event"",""trial"",""time""
""fullscreenenter"",""1"",""2973""
","
","","","1539.7999999999884","","","12","9762","4417","&#9784;","elianto","#FFFFF080"," "," ","1","&#10004","[2392.0999999999767]","1","0","0","","","","","","","",""
"pit-trial","10","135959","0.0-2.0-4.2-0.2","battery-v0.2","","""event"",""trial"",""time""
""fullscreenenter"",""1"",""2973""
","
","
","""event"",""trial"",""time""
""fullscreenenter"",""1"",""2973""
","
","","","784.2000000000698","","","12","9762","4417","&#9784;","elianto","#FFFFF080"," "," ","1","&#10004","[1637.3000000000466]","1","0","0","","","","","","","",""
"pit-trial","11","140566","0.0-2.0-4.3-0.3","battery-v0.2","","""event"",""trial"",""time""
""fullscreenenter"",""1"",""2973""
","
","
","""event"",""trial"",""time""
""fullscreenenter"",""1"",""2973""
","
","","","1750.5","","","12","9762","4417","&#9784;","elianto","#FFFFF080"," "," ","1","&#10004","[2603.399999999907]","1","0","0","","","","","","","",""
"pit-trial","12","144126","0.0-2.0-4.4-0.4","battery-v0.2","","""event"",""trial"",""time""
""fullscreenenter"",""1"",""2973""
","
","
","""event"",""trial"",""time""
""fullscreenenter"",""1"",""2973""
","
","","","696.1999999999534","","","12","9762","4417","&#9784;","elianto","#FFFFF080"," "," ","1","&#10004","[1548.7999999999302]","1","0","0","","","","","","","",""
"pit-instructions","13","169318","0.0-2.0-5.0","battery-v0.2","","""event"",""trial"",""time""
""fullscreenenter"",""1"",""2973""
","
","
","""event"",""trial"",""time""
""fullscreenenter"",""1"",""2973""
","
","","[{""page_index"":0,""viewing_time"":6079.900000000023},{""page_index"":1,""viewing_time"":6485.400000000023},{""page_index"":2,""viewing_time"":5651.899999999907},{""page_index"":3,""viewing_time"":6969.70000000007}]","25187.5","","","","","","","","","","","","","","","","","","","","","","","",""
"pit-trial","14","174183","0.0-2.0-6.0-0.0","battery-v0.2","","""event"",""trial"",""time""
""fullscreenenter"",""1"",""2973""
","
","
","""event"",""trial"",""time""
""fullscreenenter"",""1"",""2973""
","
","","","-1","","","12","9762","4417","&#9854;","elianto","#FFFFF080","-1","-1","1","&#10004","[]","0","0","1","","","","","","","",""
"pit-trial","15","179046","0.0-2.0-6.1-0.1","battery-v0.2","","""event"",""trial"",""time""
""fullscreenenter"",""1"",""2973""
","
","
","""event"",""trial"",""time""
""fullscreenenter"",""1"",""2973""
","
","","","-1","","","12","9762","4417","&#9854;","elianto","#FFFFF080","-1","-1","1","&#10004","[]","0","0","1","","","","","","","",""
"pit-trial","16","183910","0.0-2.0-6.2-0.2","battery-v0.2","","""event"",""trial"",""time""
""fullscreenenter"",""1"",""2973""
","
","
","""event"",""trial"",""time""
""fullscreenenter"",""1"",""2973""
","
","","","-1","","","12","9762","4417","&#9854;","elianto","#FFFFF080","-1","-1","1","&#10004","[]","0","0","1","","","","","","","",""
"pit-trial","17","188774","0.0-2.0-6.3-0.3","battery-v0.2","","""event"",""trial"",""time""
""fullscreenenter"",""1"",""2973""
","
","
","""event"",""trial"",""time""
""fullscreenenter"",""1"",""2973""
","
","","","-1","","","12","9762","4417","&#9854;","elianto","#FFFFF080","-1","-1","1","&#10004","[]","0","0","1","","","","","","","",""
"pit-trial","18","193638","0.0-2.0-6.4-0.4","battery-v0.2","","""event"",""trial"",""time""
""fullscreenenter"",""1"",""2973""
","
","
","""event"",""trial"",""time""
""fullscreenenter"",""1"",""2973""
","
","","","-1","","","12","9762","4417","&#9854;","elianto","#FFFFF080","-1","-1","1","&#10004","[]","0","0","1","","","","","","","",""
"pit-instructions","19","326994","0.0-2.0-7.0","battery-v0.2","","""event"",""trial"",""time""
""fullscreenenter"",""1"",""2973""
","
","
","""event"",""trial"",""time""
""fullscreenenter"",""1"",""2973""
","
","","[{""page_index"":0,""viewing_time"":6240.599999999977},{""page_index"":1,""viewing_time"":7458.400000000023},{""page_index"":2,""viewing_time"":6417.300000000047},{""page_index"":3,""viewing_time"":6924.79999999993},{""page_index"":4,""viewing_time"":7723.5},{""page_index"":5,""viewing_time"":6816.20000000007},{""page_index"":6,""viewing_time"":5653.79999999993},{""page_index"":7,""viewing_time"":8645.400000000023},{""page_index"":8,""viewing_time"":7460.099999999977},{""page_index"":9,""viewing_time"":8082},{""page_index"":10,""viewing_time"":9739.5},{""page_index"":11,""viewing_time"":5134.100000000093},{""page_index"":12,""viewing_time"":7020.399999999907},{""page_index"":13,""viewing_time"":8494.100000000093},{""page_index"":14,""viewing_time"":8520.199999999953},{""page_index"":15,""viewing_time"":6782.599999999977},{""page_index"":16,""viewing_time"":8103.300000000047},{""page_index"":17,""viewing_time"":8135.099999999977}]","133352","","","","","","","","","","","","","","","","","","","","","","","",""
"pit-trial","20","330703","0.0-2.0-8.0-0.0","battery-v0.2","","""event"",""trial"",""time""
""fullscreenenter"",""1"",""2973""
","
","
","""event"",""trial"",""time""
""fullscreenenter"",""1"",""2973""
","
","","","842.5","","","12","9762","4417","&#9776;","elianto","#3366ff99"," "," ","1","+10","[1700.5999999999767]","1","0","1","","","","","","","",""
"pit-trial","21","334079","0.0-2.0-8.0-1.0","battery-v0.2","","""event"",""trial"",""time""
""fullscreenenter"",""1"",""2973""
","
","
","""event"",""trial"",""time""
""fullscreenenter"",""1"",""2973""
","
","","","517.4000000000233","","","12","9762","4417","&#9776;","elianto","#3366ff99"," "," ","1","+10","[1370.6999999999534]","1","0","1","","","","","","","",""
"pit-trial","22","337422","0.0-2.0-8.0-2.0","battery-v0.2","","""event"",""trial"",""time""
""fullscreenenter"",""1"",""2973""
","
","
","""event"",""trial"",""time""
""fullscreenenter"",""1"",""2973""
","
","","","484.60000000009313","","","12","9762","4417","&#9776;","elianto","#3366ff99"," "," ","1","+10","[1338]","1","0","1","","","","","","","",""
"pit-trial","23","340854","0.0-2.0-8.0-3.0","battery-v0.2","","""event"",""trial"",""time""
""fullscreenenter"",""1"",""2973""
","
","
","""event"",""trial"",""time""
""fullscreenenter"",""1"",""2973""
","
","","","575.1999999999534","","","12","9762","4417","&#9776;","elianto","#3366ff99"," "," ","1","0","[1427.1999999999534]","1","0","1","","","","","","","",""
"pit-trial","24","344127","0.0-2.0-8.0-4.0","battery-v0.2","","""event"",""trial"",""time""
""fullscreenenter"",""1"",""2973""
","
","
","""event"",""trial"",""time""
""fullscreenenter"",""1"",""2973""
","
","","","413.5999999999767","","","12","9762","4417","&#9776;","elianto","#3366ff99"," "," ","1","+10","[1267.5999999999767]","1","0","1","","","","","","","",""
"pit-trial","25","347471","0.0-2.0-8.1-0.1","battery-v0.2","","""event"",""trial"",""time""
""fullscreenenter"",""1"",""2973""
","
","
","""event"",""trial"",""time""
""fullscreenenter"",""1"",""2973""
","
","","","481","","","12","9762","4417","&#9776;","elianto","#3366ff99"," "," ","1","+10","[1333.3999999999069]","1","0","1","","","","","","","",""
"pit-trial","26","351583","0.0-2.0-8.1-1.1","battery-v0.2","","""event"",""trial"",""time""
""fullscreenenter"",""1"",""2973""
","
","
","""event"",""trial"",""time""
""fullscreenenter"",""1"",""2973""
","
","","","1253.4000000000233","","","12","9762","4417","&#9776;","elianto","#3366ff99"," "," ","1","+10","[2107.3000000000466]","1","0","1","","","","","","","",""
"pit-trial","27","355071","0.0-2.0-8.1-2.1","battery-v0.2","","""event"",""trial"",""time""
""fullscreenenter"",""1"",""2973""
","
","
","""event"",""trial"",""time""
""fullscreenenter"",""1"",""2973""
","
","","","627.1999999999534","","","12","9762","4417","&#9776;","elianto","#3366ff99"," "," ","1","+10","[1480.9000000000233]","1","0","1","","","","","","","",""
"pit-trial","28","358558","0.0-2.0-8.1-3.1","battery-v0.2","","""event"",""trial"",""time""
""fullscreenenter"",""1"",""2973""
","
","
","""event"",""trial"",""time""
""fullscreenenter"",""1"",""2973""
","
","","","624.0999999999767","","","12","9762","4417","&#9776;","elianto","#3366ff99"," "," ","1","0","[1476.6000000000931]","1","0","1","","","","","","","",""
"pit-trial","29","361934","0.0-2.0-8.1-4.1","battery-v0.2","","""event"",""trial"",""time""
""fullscreenenter"",""1"",""2973""
","
","
","""event"",""trial"",""time""
""fullscreenenter"",""1"",""2973""
","
","","","515.1000000000931","","","12","9762","4417","&#9776;","elianto","#3366ff99"," "," ","1","+10","[1369.1000000000931]","1","0","1","","","","","","","",""
"pit-trial","30","366582","0.0-2.0-8.2-0.2","battery-v0.2","","""event"",""trial"",""time""
""fullscreenenter"",""1"",""2973""
","
","
","""event"",""trial"",""time""
""fullscreenenter"",""1"",""2973""
","
","","","1786.4000000000233","","","12","9762","4417","&#9776;","elianto","#3366ff99"," "," ","1","+10","[2638.9000000000233]","1","0","1","","","","","","","",""
"pit-trial","31","370471","0.0-2.0-8.2-1.2","battery-v0.2","","""event"",""trial"",""time""
""fullscreenenter"",""1"",""2973""
","
","
","""event"",""trial"",""time""
""fullscreenenter"",""1"",""2973""
","
","","","1029.2999999999302","","","12","9762","4417","&#9776;","elianto","#3366ff99"," "," ","1","+10","[1884.7999999999302]","1","0","1","","","","","","","",""
"pit-trial","32","373798","0.0-2.0-8.2-2.2","battery-v0.2","","""event"",""trial"",""time""
""fullscreenenter"",""1"",""2973""
","
","
","""event"",""trial"",""time""
""fullscreenenter"",""1"",""2973""
","
","","","470.19999999995343","","","12","9762","4417","&#9776;","elianto","#3366ff99"," "," ","1","+10","[1325.0999999999767]","1","0","1","","","","","","","",""
"pit-trial","33","378030","0.0-2.0-8.2-3.2","battery-v0.2","","""event"",""trial"",""time""
""fullscreenenter"",""1"",""2973""
","
","
","""event"",""trial"",""time""
""fullscreenenter"",""1"",""2973""
","
","","","1372.4000000000233","","","12","9762","4417","&#9776;","elianto","#3366ff99"," "," ","1","0","[2228.6999999999534]","1","0","1","","","","","","","",""
"pit-trial","34","381310","0.0-2.0-8.2-4.2","battery-v0.2","","""event"",""trial"",""time""
""fullscreenenter"",""1"",""2973""
","
","
","""event"",""trial"",""time""
""fullscreenenter"",""1"",""2973""
","
","","","422.89999999990687","","","12","9762","4417","&#9776;","elianto","#3366ff99"," "," ","1","+10","[1276.8999999999069]","1","0","1","","","","","","","",""
"call-function","35","381312","0.0-2.0-9.0","battery-v0.2","","""event"",""trial"",""time""
""fullscreenenter"",""1"",""2973""
","
","
","""event"",""trial"",""time""
""fullscreenenter"",""1"",""2973""
","
","","","","","","","","","","","","","","","","","","","","","","","","","","",""
"pit-instructions","36","424943","0.0-2.0-10.0","battery-v0.2","","""event"",""trial"",""time""
""fullscreenenter"",""1"",""2973""
","
","
","""event"",""trial"",""time""
""fullscreenenter"",""1"",""2973""
","
","","[{""page_index"":0,""viewing_time"":7863.199999999953},{""page_index"":1,""viewing_time"":7782.400000000023},{""page_index"":2,""viewing_time"":9680.20000000007},{""page_index"":3,""viewing_time"":10183.79999999993},{""page_index"":4,""viewing_time"":8119.599999999977}]","43629.80000000005","","","","","","","","","","","","","","","","","","","","","","","",""
"pit-trial","37","428335","0.0-2.0-11.0-0.0","battery-v0.2","","""event"",""trial"",""time""
""fullscreenenter"",""1"",""2973""
","
","
","""event"",""trial"",""time""
""fullscreenenter"",""1"",""2973""
","
","","","537.6999999999534","","","12","9762","4417","&#9761;","elianto","#3366ff99","-1"," ","0","0","[1388.5]","1","0","2","","","","","","","",""
"pit-trial","38","431518","0.0-2.0-11.0-1.0","battery-v0.2","","""event"",""trial"",""time""
""fullscreenenter"",""1"",""2973""
","
","
","""event"",""trial"",""time""
""fullscreenenter"",""1"",""2973""
","
","","","323.9000000000233","","","12","9762","4417","&#9761;","elianto","#3366ff99","-1"," ","0","0","[1177.5]","1","0","2","","","","","","","",""
"pit-trial","39","436383","0.0-2.0-11.0-2.0","battery-v0.2","","""event"",""trial"",""time""
""fullscreenenter"",""1"",""2973""
","
","
","""event"",""trial"",""time""
""fullscreenenter"",""1"",""2973""
","
","","","-1","","","12","9762","4417","&#9761;","elianto","#3366ff99","-1","-1","1","+10","[]","0","0","2","","","","","","","",""
"pit-trial","40","441246","0.0-2.0-11.0-3.0","battery-v0.2","","""event"",""trial"",""time""
""fullscreenenter"",""1"",""2973""
","
","
","""event"",""trial"",""time""
""fullscreenenter"",""1"",""2973""
","
","","","-1","","","12","9762","4417","&#9761;","elianto","#3366ff99","-1","-1","1","0","[]","0","0","2","","","","","","","",""
"pit-trial","41","446111","0.0-2.0-11.0-4.0","battery-v0.2","","""event"",""trial"",""time""
""fullscreenenter"",""1"",""2973""
","
","
","""event"",""trial"",""time""
""fullscreenenter"",""1"",""2973""
","
","","","-1","","","12","9762","4417","&#9761;","elianto","#3366ff99","-1","-1","1","+10","[]","0","0","2","","","","","","","",""
"pit-trial","42","450974","0.0-2.0-11.1-0.1","battery-v0.2","","""event"",""trial"",""time""
""fullscreenenter"",""1"",""2973""
","
","
","""event"",""trial"",""time""
""fullscreenenter"",""1"",""2973""
","
","","","-1","","","12","9762","4417","&#9761;","elianto","#3366ff99","-1","-1","1","+10","[]","0","0","2","","","","","","","",""
"pit-trial","43","455838","0.0-2.0-11.1-1.1","battery-v0.2","","""event"",""trial"",""time""
""fullscreenenter"",""1"",""2973""
","
","
","""event"",""trial"",""time""
""fullscreenenter"",""1"",""2973""
","
","","","-1","","","12","9762","4417","&#9761;","elianto","#3366ff99","-1","-1","1","+10","[]","0","0","2","","","","","","","",""
"pit-trial","44","460703","0.0-2.0-11.1-2.1","battery-v0.2","","""event"",""trial"",""time""
""fullscreenenter"",""1"",""2973""
","
","
","""event"",""trial"",""time""
""fullscreenenter"",""1"",""2973""
","
","","","-1","","","12","9762","4417","&#9761;","elianto","#3366ff99","-1","-1","1","+10","[]","0","0","2","","","","","","","",""
"pit-trial","45","465566","0.0-2.0-11.1-3.1","battery-v0.2","","""event"",""trial"",""time""
""fullscreenenter"",""1"",""2973""
","
","
","""event"",""trial"",""time""
""fullscreenenter"",""1"",""2973""
","
","","","-1","","","12","9762","4417","&#9761;","elianto","#3366ff99","-1","-1","1","0","[]","0","0","2","","","","","","","",""
"pit-trial","46","470431","0.0-2.0-11.1-4.1","battery-v0.2","","""event"",""trial"",""time""
""fullscreenenter"",""1"",""2973""
","
","
","""event"",""trial"",""time""
""fullscreenenter"",""1"",""2973""
","
","","","-1","","","12","9762","4417","&#9761;","elianto","#3366ff99","-1","-1","1","+10","[]","0","0","2","","","","","","","",""
"pit-trial","47","475294","0.0-2.0-11.2-0.2","battery-v0.2","","""event"",""trial"",""time""
""fullscreenenter"",""1"",""2973""
","
","
","""event"",""trial"",""time""
""fullscreenenter"",""1"",""2973""
","
","","","-1","","","12","9762","4417","&#9761;","elianto","#3366ff99","-1","-1","1","+10","[]","0","0","2","","","","","","","",""
"pit-trial","48","480159","0.0-2.0-11.2-1.2","battery-v0.2","","""event"",""trial"",""time""
""fullscreenenter"",""1"",""2973""
","
","
","""event"",""trial"",""time""
""fullscreenenter"",""1"",""2973""
","
","","","-1","","","12","9762","4417","&#9761;","elianto","#3366ff99","-1","-1","1","+10","[]","0","0","2","","","","","","","",""
"pit-trial","49","485022","0.0-2.0-11.2-2.2","battery-v0.2","","""event"",""trial"",""time""
""fullscreenenter"",""1"",""2973""
","
","
","""event"",""trial"",""time""
""fullscreenenter"",""1"",""2973""
","
","","","-1","","","12","9762","4417","&#9761;","elianto","#3366ff99","-1","-1","1","+10","[]","0","0","2","","","","","","","",""
"pit-trial","50","489886","0.0-2.0-11.2-3.2","battery-v0.2","","""event"",""trial"",""time""
""fullscreenenter"",""1"",""2973""
","
","
","""event"",""trial"",""time""
""fullscreenenter"",""1"",""2973""
","
","","","-1","","","12","9762","4417","&#9761;","elianto","#3366ff99","-1","-1","1","0","[]","0","0","2","","","","","","","",""
"pit-trial","51","494750","0.0-2.0-11.2-4.2","battery-v0.2","","""event"",""trial"",""time""
""fullscreenenter"",""1"",""2973""
","
","
","""event"",""trial"",""time""
""fullscreenenter"",""1"",""2973""
","
","","","-1","","","12","9762","4417","&#9761;","elianto","#3366ff99","-1","-1","1","+10","[]","0","0","2","","","","","","","",""
"pit-trial","52","499614","0.0-2.0-11.3-0.3","battery-v0.2","","""event"",""trial"",""time""
""fullscreenenter"",""1"",""2973""
","
","
","""event"",""trial"",""time""
""fullscreenenter"",""1"",""2973""
","
","","","-1","","","12","9762","4417","&#9761;","elianto","#3366ff99","-1","-1","1","+10","[]","0","0","2","","","","","","","",""
"pit-trial","53","504478","0.0-2.0-11.3-1.3","battery-v0.2","","""event"",""trial"",""time""
""fullscreenenter"",""1"",""2973""
","
","
","""event"",""trial"",""time""
""fullscreenenter"",""1"",""2973""
","
","","","-1","","","12","9762","4417","&#9761;","elianto","#3366ff99","-1","-1","1","+10","[]","0","0","2","","","","","","","",""
"pit-trial","54","509342","0.0-2.0-11.3-2.3","battery-v0.2","","""event"",""trial"",""time""
""fullscreenenter"",""1"",""2973""
","
","
","""event"",""trial"",""time""
""fullscreenenter"",""1"",""2973""
","
","","","-1","","","12","9762","4417","&#9761;","elianto","#3366ff99","-1","-1","1","+10","[]","0","0","2","","","","","","","",""
"pit-trial","55","514207","0.0-2.0-11.3-3.3","battery-v0.2","","""event"",""trial"",""time""
""fullscreenenter"",""1"",""2973""
","
","
","""event"",""trial"",""time""
""fullscreenenter"",""1"",""2973""
","
","","","-1","","","12","9762","4417","&#9761;","elianto","#3366ff99","-1","-1","1","0","[]","0","0","2","","","","","","","",""
"pit-trial","56","519070","0.0-2.0-11.3-4.3","battery-v0.2","","""event"",""trial"",""time""
""fullscreenenter"",""1"",""2973""
","
","
","""event"",""trial"",""time""
""fullscreenenter"",""1"",""2973""
","
","","","-1","","","12","9762","4417","&#9761;","elianto","#3366ff99","-1","-1","1","+10","[]","0","0","2","","","","","","","",""
"call-function","57","519072","0.0-2.0-12.0","battery-v0.2","","""event"",""trial"",""time""
""fullscreenenter"",""1"",""2973""
","
","
","""event"",""trial"",""time""
""fullscreenenter"",""1"",""2973""
","
","","","","","","","","","","","","","","","","","","","","","","","","","","",""
"pit-instructions","58","560835","0.0-2.0-13.0","battery-v0.2","","""event"",""trial"",""time""
""fullscreenenter"",""1"",""2973""
","
","
","""event"",""trial"",""time""
""fullscreenenter"",""1"",""2973""
","
","","[{""page_index"":0,""viewing_time"":7611},{""page_index"":1,""viewing_time"":8454.699999999953},{""page_index"":2,""viewing_time"":5956.099999999977},{""page_index"":3,""viewing_time"":12083.5},{""page_index"":4,""viewing_time"":7656.300000000047}]","41762.09999999998","","","","","","","","","","","","","","","","","","","","","","","",""
"pit-trial","59","564382","0.0-2.0-14.0-0.0","battery-v0.2","","""event"",""trial"",""time""
""fullscreenenter"",""1"",""2973""
","
","
","""event"",""trial"",""time""
""fullscreenenter"",""1"",""2973""
","
","","","693.3000000000466","","","12","9762","4417","&#9826;","elianto","#f73b6a7A","-1"," ","0","-10","[1544.5]","1","0","3","","","","","","","",""
"pit-trial","60","569255","0.0-2.0-14.0-1.0","battery-v0.2","","""event"",""trial"",""time""
""fullscreenenter"",""1"",""2973""
","
","
","""event"",""trial"",""time""
""fullscreenenter"",""1"",""2973""
","
","","","-1","","","12","9762","4417","&#9826;","elianto","#f73b6a7A","-1","-1","1","0","[]","0","0","3","","","","","","","",""
"pit-trial","61","574118","0.0-2.0-14.0-2.0","battery-v0.2","","""event"",""trial"",""time""
""fullscreenenter"",""1"",""2973""
","
","
","""event"",""trial"",""time""
""fullscreenenter"",""1"",""2973""
","
","","","-1","","","12","9762","4417","&#9826;","elianto","#f73b6a7A","-1","-1","1","0","[]","0","0","3","","","","","","","",""
"pit-trial","62","578982","0.0-2.0-14.0-3.0","battery-v0.2","","""event"",""trial"",""time""
""fullscreenenter"",""1"",""2973""
","
","
","""event"",""trial"",""time""
""fullscreenenter"",""1"",""2973""
","
","","","-1","","","12","9762","4417","&#9826;","elianto","#f73b6a7A","-1","-1","1","-10","[]","0","0","3","","","","","","","",""
"pit-trial","63","583846","0.0-2.0-14.0-4.0","battery-v0.2","","""event"",""trial"",""time""
""fullscreenenter"",""1"",""2973""
","
","
","""event"",""trial"",""time""
""fullscreenenter"",""1"",""2973""
","
","","","-1","","","12","9762","4417","&#9826;","elianto","#f73b6a7A","-1","-1","1","0","[]","0","0","3","","","","","","","",""
"pit-trial","64","588711","0.0-2.0-14.1-0.1","battery-v0.2","","""event"",""trial"",""time""
""fullscreenenter"",""1"",""2973""
","
","
","""event"",""trial"",""time""
""fullscreenenter"",""1"",""2973""
","
","","","-1","","","12","9762","4417","&#9826;","elianto","#f73b6a7A","-1","-1","1","0","[]","0","0","3","","","","","","","",""
"pit-trial","65","593575","0.0-2.0-14.1-1.1","battery-v0.2","","""event"",""trial"",""time""
""fullscreenenter"",""1"",""2973""
","
","
","""event"",""trial"",""time""
""fullscreenenter"",""1"",""2973""
","
","","","-1","","","12","9762","4417","&#9826;","elianto","#f73b6a7A","-1","-1","1","0","[]","0","0","3","","","","","","","",""
"pit-trial","66","598439","0.0-2.0-14.1-2.1","battery-v0.2","","""event"",""trial"",""time""
""fullscreenenter"",""1"",""2973""
","
","
","""event"",""trial"",""time""
""fullscreenenter"",""1"",""2973""
","
","","","-1","","","12","9762","4417","&#9826;","elianto","#f73b6a7A","-1","-1","1","0","[]","0","0","3","","","","","","","",""
"pit-trial","67","603303","0.0-2.0-14.1-3.1","battery-v0.2","","""event"",""trial"",""time""
""fullscreenenter"",""1"",""2973""
","
","
","""event"",""trial"",""time""
""fullscreenenter"",""1"",""2973""
","
","","","-1","","","12","9762","4417","&#9826;","elianto","#f73b6a7A","-1","-1","1","-10","[]","0","0","3","","","","","","","",""
"pit-trial","68","608166","0.0-2.0-14.1-4.1","battery-v0.2","","""event"",""trial"",""time""
""fullscreenenter"",""1"",""2973""
","
","
","""event"",""trial"",""time""
""fullscreenenter"",""1"",""2973""
","
","","","-1","","","12","9762","4417","&#9826;","elianto","#f73b6a7A","-1","-1","1","0","[]","0","0","3","","","","","","","",""
"pit-trial","69","613031","0.0-2.0-14.2-0.2","battery-v0.2","","""event"",""trial"",""time""
""fullscreenenter"",""1"",""2973""
","
","
","""event"",""trial"",""time""
""fullscreenenter"",""1"",""2973""
","
","","","-1","","","12","9762","4417","&#9826;","elianto","#f73b6a7A","-1","-1","1","0","[]","0","0","3","","","","","","","",""
"pit-trial","70","617894","0.0-2.0-14.2-1.2","battery-v0.2","","""event"",""trial"",""time""
""fullscreenenter"",""1"",""2973""
","
","
","""event"",""trial"",""time""
""fullscreenenter"",""1"",""2973""
","
","","","-1","","","12","9762","4417","&#9826;","elianto","#f73b6a7A","-1","-1","1","0","[]","0","0","3","","","","","","","",""
"pit-trial","71","622758","0.0-2.0-14.2-2.2","battery-v0.2","","""event"",""trial"",""time""
""fullscreenenter"",""1"",""2973""
","
","
","""event"",""trial"",""time""
""fullscreenenter"",""1"",""2973""
","
","","","-1","","","12","9762","4417","&#9826;","elianto","#f73b6a7A","-1","-1","1","0","[]","0","0","3","","","","","","","",""
"pit-trial","72","627622","0.0-2.0-14.2-3.2","battery-v0.2","","""event"",""trial"",""time""
""fullscreenenter"",""1"",""2973""
","
","
","""event"",""trial"",""time""
""fullscreenenter"",""1"",""2973""
","
","","","-1","","","12","9762","4417","&#9826;","elianto","#f73b6a7A","-1","-1","1","-10","[]","0","0","3","","","","","","","",""
"pit-trial","73","632487","0.0-2.0-14.2-4.2","battery-v0.2","","""event"",""trial"",""time""
""fullscreenenter"",""1"",""2973""
","
","
","""event"",""trial"",""time""
""fullscreenenter"",""1"",""2973""
","
","","","-1","","","12","9762","4417","&#9826;","elianto","#f73b6a7A","-1","-1","1","0","[]","0","0","3","","","","","","","",""
"pit-trial","74","637351","0.0-2.0-14.3-0.3","battery-v0.2","","""event"",""trial"",""time""
""fullscreenenter"",""1"",""2973""
","
","
","""event"",""trial"",""time""
""fullscreenenter"",""1"",""2973""
","
","","","-1","","","12","9762","4417","&#9826;","elianto","#f73b6a7A","-1","-1","1","0","[]","0","0","3","","","","","","","",""
"pit-trial","75","642214","0.0-2.0-14.3-1.3","battery-v0.2","","""event"",""trial"",""time""
""fullscreenenter"",""1"",""2973""
","
","
","""event"",""trial"",""time""
""fullscreenenter"",""1"",""2973""
","
","","","-1","","","12","9762","4417","&#9826;","elianto","#f73b6a7A","-1","-1","1","0","[]","0","0","3","","","","","","","",""
"pit-trial","76","647079","0.0-2.0-14.3-2.3","battery-v0.2","","""event"",""trial"",""time""
""fullscreenenter"",""1"",""2973""
","
","
","""event"",""trial"",""time""
""fullscreenenter"",""1"",""2973""
","
","","","-1","","","12","9762","4417","&#9826;","elianto","#f73b6a7A","-1","-1","1","0","[]","0","0","3","","","","","","","",""
"pit-trial","77","651943","0.0-2.0-14.3-3.3","battery-v0.2","","""event"",""trial"",""time""
""fullscreenenter"",""1"",""2973""
","
","
","""event"",""trial"",""time""
""fullscreenenter"",""1"",""2973""
","
","","","-1","","","12","9762","4417","&#9826;","elianto","#f73b6a7A","-1","-1","1","-10","[]","0","0","3","","","","","","","",""
"pit-trial","78","656807","0.0-2.0-14.3-4.3","battery-v0.2","","""event"",""trial"",""time""
""fullscreenenter"",""1"",""2973""
","
","
","""event"",""trial"",""time""
""fullscreenenter"",""1"",""2973""
","
","","","-1","","","12","9762","4417","&#9826;","elianto","#f73b6a7A","-1","-1","1","0","[]","0","0","3","","","","","","","",""
"call-function","79","656809","0.0-2.0-15.0","battery-v0.2","","""event"",""trial"",""time""
""fullscreenenter"",""1"",""2973""
","
","
","""event"",""trial"",""time""
""fullscreenenter"",""1"",""2973""
","
","","","","","","","","","","","","","","","","","","","","","","","","","","",""
"pit-instructions","80","709982","0.0-2.0-16.0","battery-v0.2","","""event"",""trial"",""time""
""fullscreenenter"",""1"",""2973""
","
","
","""event"",""trial"",""time""
""fullscreenenter"",""1"",""2973""
","
","","[{""page_index"":0,""viewing_time"":6895.5},{""page_index"":1,""viewing_time"":9634.5},{""page_index"":2,""viewing_time"":21591.899999999907},{""page_index"":3,""viewing_time"":15050.199999999953}]","53172.59999999986","","","","","","","","","","","","","","","","","","","","","","","",""
"pit-trial","81","713422","0.0-2.0-17.0-0.0","battery-v0.2","","""event"",""trial"",""time""
""fullscreenenter"",""1"",""2973""
","
","
","""event"",""trial"",""time""
""fullscreenenter"",""1"",""2973""
","
","","","576.2999999998137","","","12","9762","4417","&#9789;","elianto","#f73b6a7A"," "," ","1","0","[1432.5999999998603]","1","0","4","","","","","","","",""
"pit-trial","82","716463","0.0-2.0-17.0-1.0","battery-v0.2","","""event"",""trial"",""time""
""fullscreenenter"",""1"",""2973""
","
","
","""event"",""trial"",""time""
""fullscreenenter"",""1"",""2973""
","
","","","179.60000000009313","","","12","9762","4417","&#9789;","elianto","#f73b6a7A"," "," ","1","0","[1033.5]","1","0","4","","","","","","","",""
"pit-trial","83","719590","0.0-2.0-17.0-2.0","battery-v0.2","","""event"",""trial"",""time""
""fullscreenenter"",""1"",""2973""
","
","
","""event"",""trial"",""time""
""fullscreenenter"",""1"",""2973""
","
","","","266.30000000004657","","","12","9762","4417","&#9789;","elianto","#f73b6a7A"," "," ","1","0","[1117.8999999999069]","1","0","4","","","","","","","",""
"pit-trial","84","723022","0.0-2.0-17.0-3.0","battery-v0.2","","""event"",""trial"",""time""
""fullscreenenter"",""1"",""2973""
","
","
","""event"",""trial"",""time""
""fullscreenenter"",""1"",""2973""
","
","","","568","","","12","9762","4417","&#9789;","elianto","#f73b6a7A"," "," ","1","-10","[1422.8999999999069]","1","0","4","","","","","","","",""
"pit-trial","85","726182","0.0-2.0-17.0-4.0","battery-v0.2","","""event"",""trial"",""time""
""fullscreenenter"",""1"",""2973""
","
","
","""event"",""trial"",""time""
""fullscreenenter"",""1"",""2973""
","
","","","300.80000000004657","","","12","9762","4417","&#9789;","elianto","#f73b6a7A"," "," ","1","0","[526,1154.3000000000466]","2","0","4","","","","","","","",""
"pit-trial","86","729519","0.0-2.0-17.1-0.1","battery-v0.2","","""event"",""trial"",""time""
""fullscreenenter"",""1"",""2973""
","
","
","""event"",""trial"",""time""
""fullscreenenter"",""1"",""2973""
","
","","","476.80000000004657","","","12","9762","4417","&#9789;","elianto","#f73b6a7A"," "," ","1","0","[1329.7000000001863]","1","0","4","","","","","","","",""
"pit-trial","87","733079","0.0-2.0-17.1-1.1","battery-v0.2","","""event"",""trial"",""time""
""fullscreenenter"",""1"",""2973""
","
","
","""event"",""trial"",""time""
""fullscreenenter"",""1"",""2973""
","
","","","703","","","12","9762","4417","&#9789;","elianto","#f73b6a7A"," "," ","1","0","[1553.3000000000466]","1","0","4","","","","","","","",""
"pit-trial","88","736694","0.0-2.0-17.1-2.1","battery-v0.2","","""event"",""trial"",""time""
""fullscreenenter"",""1"",""2973""
","
","
","""event"",""trial"",""time""
""fullscreenenter"",""1"",""2973""
","
","","","761.6999999999534","","","12","9762","4417","&#9789;","elianto","#f73b6a7A"," "," ","1","0","[1612.3999999999069]","1","0","4","","","","","","","",""
"pit-trial","89","739959","0.0-2.0-17.1-3.1","battery-v0.2","","""event"",""trial"",""time""
""fullscreenenter"",""1"",""2973""
","
","
","""event"",""trial"",""time""
""fullscreenenter"",""1"",""2973""
","
","","","408.79999999981374","","","12","9762","4417","&#9789;","elianto","#f73b6a7A"," "," ","1","-10","[1259.6999999999534]","1","0","4","","","","","","","",""
"pit-trial","90","743406","0.0-2.0-17.1-4.1","battery-v0.2","","""event"",""trial"",""time""
""fullscreenenter"",""1"",""2973""
","
","
","""event"",""trial"",""time""
""fullscreenenter"",""1"",""2973""
","
","","","588","","","12","9762","4417","&#9789;","elianto","#f73b6a7A"," "," ","1","0","[1438.1999999999534]","1","0","4","","","","","","","",""
"pit-trial","91","746830","0.0-2.0-17.2-0.2","battery-v0.2","","""event"",""trial"",""time""
""fullscreenenter"",""1"",""2973""
","
","
","""event"",""trial"",""time""
""fullscreenenter"",""1"",""2973""
","
","","","567.5","","","12","9762","4417","&#9789;","elianto","#f73b6a7A"," "," ","1","0","[1420.8000000000466]","1","0","4","","","","","","","",""
"pit-trial","92","750054","0.0-2.0-17.2-1.2","battery-v0.2","","""event"",""trial"",""time""
""fullscreenenter"",""1"",""2973""
","
","
","""event"",""trial"",""time""
""fullscreenenter"",""1"",""2973""
","
","","","361.10000000009313","","","12","9762","4417","&#9789;","elianto","#f73b6a7A"," "," ","1","0","[1215.1999999999534]","1","0","4","","","","","","","",""
"pit-trial","93","753294","0.0-2.0-17.2-2.2","battery-v0.2","","""event"",""trial"",""time""
""fullscreenenter"",""1"",""2973""
","
","
","""event"",""trial"",""time""
""fullscreenenter"",""1"",""2973""
","
","","","381.19999999995343","","","12","9762","4417","&#9789;","elianto","#f73b6a7A"," "," ","1","0","[1235.5]","1","0","4","","","","","","","",""
"pit-trial","94","756655","0.0-2.0-17.2-3.2","battery-v0.2","","""event"",""trial"",""time""
""fullscreenenter"",""1"",""2973""
","
","
","""event"",""trial"",""time""
""fullscreenenter"",""1"",""2973""
","
","","","503.10000000009313","","","12","9762","4417","&#9789;","elianto","#f73b6a7A"," "," ","1","-10","[1354.4000000001397]","1","0","4","","","","","","","",""
"pit-trial","95","760191","0.0-2.0-17.2-4.2","battery-v0.2","","""event"",""trial"",""time""
""fullscreenenter"",""1"",""2973""
","
","
","""event"",""trial"",""time""
""fullscreenenter"",""1"",""2973""
","
","","","674.1000000000931","","","12","9762","4417","&#9789;","elianto","#f73b6a7A"," "," ","1","0","[1528.4000000001397]","1","0","4","","","","","","","",""
"pit-trial","96","763622","0.0-2.0-17.3-0.3","battery-v0.2","","""event"",""trial"",""time""
""fullscreenenter"",""1"",""2973""
","
","
","""event"",""trial"",""time""
""fullscreenenter"",""1"",""2973""
","
","","","574","","","12","9762","4417","&#9789;","elianto","#f73b6a7A"," "," ","1","0","[1426.9000000001397]","1","0","4","","","","","","","",""
"pit-trial","97","766926","0.0-2.0-17.3-1.3","battery-v0.2","","""event"",""trial"",""time""
""fullscreenenter"",""1"",""2973""
","
","
","""event"",""trial"",""time""
""fullscreenenter"",""1"",""2973""
","
","","","446.89999999990687","","","12","9762","4417","&#9789;","elianto","#f73b6a7A"," "," ","1","0","[1300.6999999999534]","1","0","4","","","","","","","",""
"pit-trial","98","769935","0.0-2.0-17.3-2.3","battery-v0.2","","""event"",""trial"",""time""
""fullscreenenter"",""1"",""2973""
","
","
","""event"",""trial"",""time""
""fullscreenenter"",""1"",""2973""
","
","","","149.30000000004657","","","12","9762","4417","&#9789;","elianto","#f73b6a7A"," "," ","1","0","[1004.8000000000466]","1","0","4","","","","","","","",""
"pit-trial","99","773302","0.0-2.0-17.3-3.3","battery-v0.2","","""event"",""trial"",""time""
""fullscreenenter"",""1"",""2973""
","
","
","""event"",""trial"",""time""
""fullscreenenter"",""1"",""2973""
","
","","","507.5","","","12","9762","4417","&#9789;","elianto","#f73b6a7A"," "," ","1","-10","[1361.3000000000466]","1","0","4","","","","","","","",""
"pit-trial","100","776543","0.0-2.0-17.3-4.3","battery-v0.2","","""event"",""trial"",""time""
""fullscreenenter"",""1"",""2973""
","
","
","""event"",""trial"",""time""
""fullscreenenter"",""1"",""2973""
","
","","","381.69999999995343","","","12","9762","4417","&#9789;","elianto","#f73b6a7A"," "," ","1","0","[1235]","1","0","4","","","","","","","",""
"call-function","101","776544","0.0-2.0-18.0","battery-v0.2","","""event"",""trial"",""time""
""fullscreenenter"",""1"",""2973""
","
","
","""event"",""trial"",""time""
""fullscreenenter"",""1"",""2973""
","
","","","","","","","","","","","","","","","","","","","","","","","","","","",""
"pit-instructions","102","854179","0.0-2.0-19.0","battery-v0.2","","""event"",""trial"",""time""
""fullscreenenter"",""1"",""2973""
","
","
","""event"",""trial"",""time""
""fullscreenenter"",""1"",""2973""
","
","","[{""page_index"":0,""viewing_time"":6473.399999999907},{""page_index"":1,""viewing_time"":6084},{""page_index"":2,""viewing_time"":14271.5},{""page_index"":3,""viewing_time"":8228.300000000047},{""page_index"":4,""viewing_time"":12032.699999999953},{""page_index"":5,""viewing_time"":9190},{""page_index"":6,""viewing_time"":8868.699999999953},{""page_index"":7,""viewing_time"":7202.200000000186},{""page_index"":8,""viewing_time"":5282.699999999953}]","77634.09999999986","","","","","","","","","","","","","","","","","","","","","","","",""
"pit-comprehension","103","860064","0.0-2.0-20.0-0.0","battery-v0.2","","""event"",""trial"",""time""
""fullscreenenter"",""1"",""2973""
","
","
","""event"",""trial"",""time""
""fullscreenenter"",""1"",""2973""
","
","","","5879.399999999907","[""SPACE""]","0","12","9762","4417","","","","","","","","","","","","","","","","","","",""
"pit-instructions","104","863031","0.0-2.0-20.0-1.0","battery-v0.2","","""event"",""trial"",""time""
""fullscreenenter"",""1"",""2973""
","
","
","""event"",""trial"",""time""
""fullscreenenter"",""1"",""2973""
","
","","[{""page_index"":0,""viewing_time"":2928.3000000000466}]","2928.899999999907","","","","","","","","","","","","","","","","","","","","","","","",""
"pit-comprehension","105","870000","0.0-2.0-21.0-0.0","battery-v0.2","","""event"",""trial"",""time""
""fullscreenenter"",""1"",""2973""
","
","
","""event"",""trial"",""time""
""fullscreenenter"",""1"",""2973""
","
","","","6962.600000000093","[""10""]","0","12","9762","4417","","","","","","","","","","","","","","","","","","",""
"pit-instructions","106","872318","0.0-2.0-21.0-1.0","battery-v0.2","","""event"",""trial"",""time""
""fullscreenenter"",""1"",""2973""
","
","
","""event"",""trial"",""time""
""fullscreenenter"",""1"",""2973""
","
","","[{""page_index"":0,""viewing_time"":2280.1999999999534}]","2280.8000000000466","","","","","","","","","","","","","","","","","","","","","","","",""
"pit-comprehension","107","879202","0.0-2.0-22.0-0.0","battery-v0.2","","""event"",""trial"",""time""
""fullscreenenter"",""1"",""2973""
","
","
","""event"",""trial"",""time""
""fullscreenenter"",""1"",""2973""
","
","","","6877.300000000047","[""0""]","0","12","9762","4417","","","","","","","","","","","","","","","","","","",""
"pit-instructions","108","880966","0.0-2.0-22.0-1.0","battery-v0.2","","""event"",""trial"",""time""
""fullscreenenter"",""1"",""2973""
","
","
","""event"",""trial"",""time""
""fullscreenenter"",""1"",""2973""
","
","","[{""page_index"":0,""viewing_time"":1725.8000000000466}]","1726.5","","","","","","","","","","","","","","","","","","","","","","","",""
"pit-comprehension","109","891103","0.0-2.0-23.0-0.0","battery-v0.2","","""event"",""trial"",""time""
""fullscreenenter"",""1"",""2973""
","
","
","""event"",""trial"",""time""
""fullscreenenter"",""1"",""2973""
","
","","","10129.199999999953","[""True""]","0","12","9762","4417","","","","","","","","","","","","","","","","","","",""
"pit-instructions","110","892926","0.0-2.0-23.0-1.0","battery-v0.2","","""event"",""trial"",""time""
""fullscreenenter"",""1"",""2973""
","
","
","""event"",""trial"",""time""
""fullscreenenter"",""1"",""2973""
","
","","[{""page_index"":0,""viewing_time"":1785.8000000000466}]","1786.3999999999069","","","","","","","","","","","","","","","","","","","","","","","",""
"pit-comprehension","111","900425","0.0-2.0-24.0-0.0","battery-v0.2","","""event"",""trial"",""time""
""fullscreenenter"",""1"",""2973""
","
","
","""event"",""trial"",""time""
""fullscreenenter"",""1"",""2973""
","
","","","7494","[""True""]","0","12","9762","4417","","","","","","","","","","","","","","","","","","",""
"pit-instructions","112","902297","0.0-2.0-24.0-1.0","battery-v0.2","","""event"",""trial"",""time""
""fullscreenenter"",""1"",""2973""
","
","
","""event"",""trial"",""time""
""fullscreenenter"",""1"",""2973""
","
","","[{""page_index"":0,""viewing_time"":1833.8999999999069}]","1834.6999999999534","","","","","","","","","","","","","","","","","","","","","","","",""
"pit-comprehension","113","908758","0.0-2.0-25.0-0.0","battery-v0.2","","""event"",""trial"",""time""
""fullscreenenter"",""1"",""2973""
","
","
","""event"",""trial"",""time""
""fullscreenenter"",""1"",""2973""
","
","","","6453.399999999907","[""True""]","0","12","9762","4417","","","","","","","","","","","","","","","","","","",""
"pit-instructions","114","910310","0.0-2.0-25.0-1.0","battery-v0.2","","""event"",""trial"",""time""
""fullscreenenter"",""1"",""2973""
","
","
","""event"",""trial"",""time""
""fullscreenenter"",""1"",""2973""
","
","","[{""page_index"":0,""viewing_time"":1512.3000000000466}]","1512.8000000000466","","","","","","","","","","","","","","","","","","","","","","","",""
"pit-comprehension","115","916048","0.0-2.0-26.0-0.0","battery-v0.2","","""event"",""trial"",""time""
""fullscreenenter"",""1"",""2973""
","
","
","""event"",""trial"",""time""
""fullscreenenter"",""1"",""2973""
","
","","","5733.699999999953","[""False""]","0","12","9762","4417","","","","","","","","","","","","","","","","","","",""
"pit-instructions","116","917522","0.0-2.0-26.0-1.0","battery-v0.2","","""event"",""trial"",""time""
""fullscreenenter"",""1"",""2973""
","
","
","""event"",""trial"",""time""
""fullscreenenter"",""1"",""2973""
","
","","[{""page_index"":0,""viewing_time"":1425.1000000000931}]","1425.5","","","","","","","","","","","","","","","","","","","","","","","",""
"pit-instructions","117","936284","0.0-3.0","battery-v0.2","","""event"",""trial"",""time""
""fullscreenenter"",""1"",""2973""
","
","
","""event"",""trial"",""time""
""fullscreenenter"",""1"",""2973""
","
","","[{""page_index"":0,""viewing_time"":4899.40000000014},{""page_index"":1,""viewing_time"":6029.300000000047},{""page_index"":2,""viewing_time"":7830.59999999986}]","18759.600000000093","","","","","","","","","","","","","","","","","","","","","","","",""
"pit-trial","118","940094","0.0-4.0","battery-v0.2","","""event"",""trial"",""time""
""fullscreenenter"",""1"",""2973""
","
","
","""event"",""trial"",""time""
""fullscreenenter"",""1"",""2973""
","
","","","945.8000000000466","","","12","9762","4417","&#9752;","elianto","#f73b6a7A"," "," ","1","-10","[1799.1000000000931]","1","1","","","9762","1","3","3","lose","go","1"
"pit-trial","119","943726","0.0-5.0","battery-v0.2","","""event"",""trial"",""time""
""fullscreenenter"",""1"",""2973""
","
","
","""event"",""trial"",""time""
""fullscreenenter"",""1"",""2973""
","
","","","769.8000000000466","","","12","9762","4417","&#9728;","elianto","#f73b6a7A","-1"," ","0","-10","[1623.3999999999069]","1","1","","","9762","2","0","4","lose","no-go","0"
"pit-trial","120","947335","0.0-6.0","battery-v0.2","","""event"",""trial"",""time""
""fullscreenenter"",""1"",""2973""
","
","
","""event"",""trial"",""time""
""fullscreenenter"",""1"",""2973""
","
","","","748.5","","","12","9762","4417","&#9733;","elianto","#3366ff99","-1"," ","0","0","[1601.6999999999534]","1","1","","","9762","3","2","2","win","no-go","0"
"pit-trial","121","951199","0.0-7.0","battery-v0.2","","""event"",""trial"",""time""
""fullscreenenter"",""1"",""2973""
","
","
","""event"",""trial"",""time""
""fullscreenenter"",""1"",""2973""
","
","","","1006.3999999999069","","","12","9762","4417","&#9730;","elianto","#3366ff99"," "," ","1","0","[1858]","1","1","","","9762","4","1","1","win","go","1"
"pit-trial","122","954526","0.0-8.0","battery-v0.2","","""event"",""trial"",""time""
""fullscreenenter"",""1"",""2973""
","
","
","""event"",""trial"",""time""
""fullscreenenter"",""1"",""2973""
","
","","","472.79999999981374","","","12","9762","4417","&#9730;","elianto","#3366ff99"," "," ","1","+10","[1323.7999999998137]","1","1","","","9762","5","1","1","win","go","0"
"pit-trial","123","959391","0.0-9.0","battery-v0.2","","""event"",""trial"",""time""
""fullscreenenter"",""1"",""2973""
","
","
","""event"",""trial"",""time""
""fullscreenenter"",""1"",""2973""
","
","","","-1","","","12","9762","4417","&#9728;","elianto","#f73b6a7A","-1","-1","1","0","[]","0","1","","","9762","6","0","4","lose","no-go","0"
"pit-trial","124","964255","0.0-10.0","battery-v0.2","","""event"",""trial"",""time""
""fullscreenenter"",""1"",""2973""
","
","
","""event"",""trial"",""time""
""fullscreenenter"",""1"",""2973""
","
","","","-1","","","12","9762","4417","&#9752;","elianto","#f73b6a7A"," ","-1","0","-10","[]","0","1","","","9762","7","3","3","lose","go","0"
"pit-trial","125","968230","0.0-11.0","battery-v0.2","","""event"",""trial"",""time""
""fullscreenenter"",""1"",""2973""
","
","
","""event"",""trial"",""time""
""fullscreenenter"",""1"",""2973""
","
","","","1116","","","12","9762","4417","&#9733;","elianto","#3366ff99","-1"," ","0","0","[1969.5999999998603]","1","1","","","9762","8","2","2","win","no-go","0"
"pit-trial","126","971574","0.0-12.0","battery-v0.2","","""event"",""trial"",""time""
""fullscreenenter"",""1"",""2973""
","
","
","""event"",""trial"",""time""
""fullscreenenter"",""1"",""2973""
","
","","","485.69999999995343","","","12","9762","4417","&#9752;","elianto","#f73b6a7A"," "," ","1","0","[1337.5]","1","1","","","9762","9","3","3","lose","go","0"
"pit-trial","127","975758","0.0-13.0","battery-v0.2","","""event"",""trial"",""time""
""fullscreenenter"",""1"",""2973""
","
","
","""event"",""trial"",""time""
""fullscreenenter"",""1"",""2973""
","
","","","1322.6000000000931","","","12","9762","4417","&#9730;","elianto","#3366ff99"," "," ","1","0","[2174.4000000001397]","1","1","","","9762","10","1","1","win","go","1"
"pit-trial","128","980622","0.0-14.0","battery-v0.2","","""event"",""trial"",""time""
""fullscreenenter"",""1"",""2973""
","
","
","""event"",""trial"",""time""
""fullscreenenter"",""1"",""2973""
","
","","","-1","","","12","9762","4417","&#9728;","elianto","#f73b6a7A","-1","-1","1","0","[]","0","1","","","9762","11","0","4","lose","no-go","0"
"pit-trial","129","984630","0.0-15.0","battery-v0.2","","""event"",""trial"",""time""
""fullscreenenter"",""1"",""2973""
","
","
","""event"",""trial"",""time""
""fullscreenenter"",""1"",""2973""
","
","","","1145.9000000001397","","","12","9762","4417","&#9733;","elianto","#3366ff99","-1"," ","0","0","[1999.6999999999534]","1","1","","","9762","12","2","2","win","no-go","0"
"pit-trial","130","989494","0.0-16.0","battery-v0.2","","""event"",""trial"",""time""
""fullscreenenter"",""1"",""2973""
","
","
","""event"",""trial"",""time""
""fullscreenenter"",""1"",""2973""
","
","","","-1","","","12","9762","4417","&#9728;","elianto","#f73b6a7A","-1","-1","1","0","[]","0","1","","","9762","13","0","4","lose","no-go","0"
"pit-trial","131","993030","0.0-17.0","battery-v0.2","","""event"",""trial"",""time""
""fullscreenenter"",""1"",""2973""
","
","
","""event"",""trial"",""time""
""fullscreenenter"",""1"",""2973""
","
","","","676.1999999999534","","","12","9762","4417","&#9733;","elianto","#3366ff99","-1"," ","0","0","[1529.8000000000466]","1","1","","","9762","14","2","2","win","no-go","0"
"pit-trial","132","997894","0.0-18.0","battery-v0.2","","""event"",""trial"",""time""
""fullscreenenter"",""1"",""2973""
","
","
","""event"",""trial"",""time""
""fullscreenenter"",""1"",""2973""
","
","","","-1","","","12","9762","4417","&#9730;","elianto","#3366ff99"," ","-1","0","0","[]","0","1","","","9762","15","1","1","win","go","0"
"pit-trial","133","1001894","0.0-19.0","battery-v0.2","","""event"",""trial"",""time""
""fullscreenenter"",""1"",""2973""
","
","
","""event"",""trial"",""time""
""fullscreenenter"",""1"",""2973""
","
","","","1139.8000000000466","","","12","9762","4417","&#9752;","elianto","#f73b6a7A"," "," ","1","0","[1993]","1","1","","","9762","16","3","3","lose","go","0"
"pit-trial","134","1005422","0.0-20.0","battery-v0.2","","""event"",""trial"",""time""
""fullscreenenter"",""1"",""2973""
","
","
","""event"",""trial"",""time""
""fullscreenenter"",""1"",""2973""
","
","","","669.7000000001863","","","12","9762","4417","&#9752;","elianto","#f73b6a7A"," "," ","1","0","[1521]","1","1","","","9762","17","3","3","lose","go","0"
"pit-trial","135","1009894","0.0-21.0","battery-v0.2","","""event"",""trial"",""time""
""fullscreenenter"",""1"",""2973""
","
","
","""event"",""trial"",""time""
""fullscreenenter"",""1"",""2973""
","
","","","1612","","","12","9762","4417","&#9730;","elianto","#3366ff99"," "," ","1","+10","[2468.3000000000466]","1","1","","","9762","18","1","1","win","go","0"
"pit-trial","136","1014758","0.0-22.0","battery-v0.2","","""event"",""trial"",""time""
""fullscreenenter"",""1"",""2973""
","
","
","""event"",""trial"",""time""
""fullscreenenter"",""1"",""2973""
","
","","","-1","","","12","9762","4417","&#9728;","elianto","#f73b6a7A","-1","-1","1","0","[2929.899999999907]","1","1","","","9762","19","0","4","lose","no-go","0"
"pit-trial","137","1018566","0.0-23.0","battery-v0.2","","""event"",""trial"",""time""
""fullscreenenter"",""1"",""2973""
","
","
","""event"",""trial"",""time""
""fullscreenenter"",""1"",""2973""
","
","","","947.1000000000931","","","12","9762","4417","&#9733;","elianto","#3366ff99","-1"," ","0","0","[1800.5999999998603]","1","1","","","9762","20","2","2","win","no-go","0"
"pit-instructions","138","1031722","0.0-24.0","battery-v0.2","","""event"",""trial"",""time""
""fullscreenenter"",""1"",""2973""
","
","
","""event"",""trial"",""time""
""fullscreenenter"",""1"",""2973""
","
","","[{""page_index"":0,""viewing_time"":6192.899999999907},{""page_index"":1,""viewing_time"":6960}]","13153.399999999907","","","","","","","","","","","","","","","","","","","","","","","",""
"pit-trial","139","1035439","0.0-25.0","battery-v0.2","","""event"",""trial"",""time""
""fullscreenenter"",""1"",""2973""
","
","
","""event"",""trial"",""time""
""fullscreenenter"",""1"",""2973""
","
","","","852.1000000000931","","","12","9762","4417","r","elianto","#3366ff99","-1"," ","0","0","[1709.1999999999534]","1","2","","","9762","21","1","2","win","no-go","0"
"pit-trial","140","1039110","0.0-26.0","battery-v0.2","","""event"",""trial"",""time""
""fullscreenenter"",""1"",""2973""
","
","
","""event"",""trial"",""time""
""fullscreenenter"",""1"",""2973""
","
","","","813.9000000001397","","","12","9762","4417","h","elianto","#f73b6a7A","-1"," ","0","-10","[1667.3999999999069]","1","2","","","9762","22","3","4","lose","no-go","0"
"pit-trial","141","1043591","0.0-27.0","battery-v0.2","","""event"",""trial"",""time""
""fullscreenenter"",""1"",""2973""
","
","
","""event"",""trial"",""time""
""fullscreenenter"",""1"",""2973""
","
","","","1616.5999999998603","","","12","9762","4417","y","elianto","#f73b6a7A"," "," ","1","0","[2468.6999999999534]","1","2","","","9762","23","2","3","lose","go","0"
"pit-trial","142","1047334","0.0-28.0","battery-v0.2","","""event"",""trial"",""time""
""fullscreenenter"",""1"",""2973""
","
","
","""event"",""trial"",""time""
""fullscreenenter"",""1"",""2973""
","
","","","882.0999999999767","","","12","9762","4417","m","elianto","#f73b6a7A"," "," ","1","0","[1734.7999999999302]","1","2","","","9762","24","0","3","lose","go","0"
"pit-trial","143","1050759","0.0-29.0","battery-v0.2","","""event"",""trial"",""time""
""fullscreenenter"",""1"",""2973""
","
","
","""event"",""trial"",""time""
""fullscreenenter"",""1"",""2973""
","
","","","561.3999999999069","","","12","9762","4417","h","elianto","#f73b6a7A","-1"," ","0","-10","[1413]","1","2","","","9762","25","3","4","lose","no-go","0"
"pit-trial","144","1054343","0.0-30.0","battery-v0.2","","""event"",""trial"",""time""
""fullscreenenter"",""1"",""2973""
","
","
","""event"",""trial"",""time""
""fullscreenenter"",""1"",""2973""
","
","","","722.3000000002794","","","12","9762","4417","y","elianto","#f73b6a7A"," "," ","1","0","[1575.3000000002794]","1","2","","","9762","26","2","3","lose","go","0"
"pit-trial","145","1058007","0.0-31.0","battery-v0.2","","""event"",""trial"",""time""
""fullscreenenter"",""1"",""2973""
","
","
","""event"",""trial"",""time""
""fullscreenenter"",""1"",""2973""
","
","","","809.6999999997206","","","12","9762","4417","m","elianto","#f73b6a7A"," "," ","1","-10","[1660.6999999997206]","1","2","","","9762","27","0","3","lose","go","1"
"pit-trial","146","1061542","0.0-32.0","battery-v0.2","","""event"",""trial"",""time""
""fullscreenenter"",""1"",""2973""
","
","
","""event"",""trial"",""time""
""fullscreenenter"",""1"",""2973""
","
","","","682.7999999998137","","","12","9762","4417","r","elianto","#3366ff99","-1"," ","0","0","[1532.8999999999069]","1","2","","","9762","28","1","2","win","no-go","0"
"pit-trial","147","1066406","0.0-33.0","battery-v0.2","","""event"",""trial"",""time""
""fullscreenenter"",""1"",""2973""
","
","
","""event"",""trial"",""time""
""fullscreenenter"",""1"",""2973""
","
","","","-1","","","12","9762","4417","y","elianto","#f73b6a7A"," ","-1","0","0","[]","0","2","","","9762","29","2","3","lose","go","1"
"pit-trial","148","1070782","0.0-34.0","battery-v0.2","","""event"",""trial"",""time""
""fullscreenenter"",""1"",""2973""
","
","
","""event"",""trial"",""time""
""fullscreenenter"",""1"",""2973""
","
","","","1515.5","","","12","9762","4417","r","elianto","#3366ff99","-1"," ","0","0","[2369.5999999996275]","1","2","","","9762","30","1","2","win","no-go","0"
"pit-trial","149","1075646","0.0-35.0","battery-v0.2","","""event"",""trial"",""time""
""fullscreenenter"",""1"",""2973""
","
","
","""event"",""trial"",""time""
""fullscreenenter"",""1"",""2973""
","
","","","-1","","","12","9762","4417","h","elianto","#f73b6a7A","-1","-1","1","0","[3001]","1","2","","","9762","31","3","4","lose","no-go","0"
"pit-trial","150","1079151","0.0-36.0","battery-v0.2","","""event"",""trial"",""time""
""fullscreenenter"",""1"",""2973""
","
","
","""event"",""trial"",""time""
""fullscreenenter"",""1"",""2973""
","
","","","645.5","","","12","9762","4417","m","elianto","#f73b6a7A"," "," ","1","0","[1499]","1","2","","","9762","32","0","3","lose","go","0"
"pit-trial","151","1084015","0.0-37.0","battery-v0.2","","""event"",""trial"",""time""
""fullscreenenter"",""1"",""2973""
","
","
","""event"",""trial"",""time""
""fullscreenenter"",""1"",""2973""
","
","","","-1","","","12","9762","4417","r","elianto","#3366ff99","-1","-1","1","+10","[]","0","2","","","9762","33","1","2","win","no-go","0"
"pit-trial","152","1087678","0.0-38.0","battery-v0.2","","""event"",""trial"",""time""
""fullscreenenter"",""1"",""2973""
","
","
","""event"",""trial"",""time""
""fullscreenenter"",""1"",""2973""
","
","","","803.6000000000931","","","12","9762","4417","y","elianto","#f73b6a7A"," "," ","1","0","[1653.5]","1","2","","","9762","34","2","3","lose","go","0"
"pit-trial","153","1091046","0.0-39.0","battery-v0.2","","""event"",""trial"",""time""
""fullscreenenter"",""1"",""2973""
","
","
","""event"",""trial"",""time""
""fullscreenenter"",""1"",""2973""
","
","","","508.79999999981374","","","12","9762","4417","m","elianto","#f73b6a7A"," "," ","1","0","[1359.6999999997206]","1","2","","","9762","35","0","3","lose","go","0"
"pit-trial","154","1095054","0.0-40.0","battery-v0.2","","""event"",""trial"",""time""
""fullscreenenter"",""1"",""2973""
","
","
","""event"",""trial"",""time""
""fullscreenenter"",""1"",""2973""
","
","","","1148.2000000001863","","","12","9762","4417","h","elianto","#f73b6a7A","-1"," ","0","-10","[2001.6999999997206]","1","2","","","9762","36","3","4","lose","no-go","0"
"pit-trial","155","1098479","0.0-41.0","battery-v0.2","","""event"",""trial"",""time""
""fullscreenenter"",""1"",""2973""
","
","
","""event"",""trial"",""time""
""fullscreenenter"",""1"",""2973""
","
","","","566.6000000000931","","","12","9762","4417","m","elianto","#f73b6a7A"," "," ","1","0","[1418.8999999999069]","1","2","","","9762","37","0","3","lose","go","0"
"pit-trial","156","1103343","0.0-42.0","battery-v0.2","","""event"",""trial"",""time""
""fullscreenenter"",""1"",""2973""
","
","
","""event"",""trial"",""time""
""fullscreenenter"",""1"",""2973""
","
","","","-1","","","12","9762","4417","h","elianto","#f73b6a7A","-1","-1","1","-10","[]","0","2","","","9762","38","3","4","lose","no-go","1"
"pit-trial","157","1107591","0.0-43.0","battery-v0.2","","""event"",""trial"",""time""
""fullscreenenter"",""1"",""2973""
","
","
","""event"",""trial"",""time""
""fullscreenenter"",""1"",""2973""
","
","","","1392","","","12","9762","4417","y","elianto","#f73b6a7A"," "," ","1","0","[2244.5]","1","2","","","9762","39","2","3","lose","go","0"
"pit-trial","158","1112455","0.0-44.0","battery-v0.2","","""event"",""trial"",""time""
""fullscreenenter"",""1"",""2973""
","
","
","""event"",""trial"",""time""
""fullscreenenter"",""1"",""2973""
","
","","","-1","","","12","9762","4417","r","elianto","#3366ff99","-1","-1","1","+10","[]","0","2","","","9762","40","1","2","win","no-go","0"
"pit-trial","159","1117318","0.0-45.0","battery-v0.2","","""event"",""trial"",""time""
""fullscreenenter"",""1"",""2973""
","
","
","""event"",""trial"",""time""
""fullscreenenter"",""1"",""2973""
","
","","","-1","","","12","9762","4417","h","elianto","#f73b6a7A","-1","-1","1","0","[]","0","2","","","9762","41","3","4","lose","no-go","0"
"pit-trial","160","1122182","0.0-46.0","battery-v0.2","","""event"",""trial"",""time""
""fullscreenenter"",""1"",""2973""
","
","
","""event"",""trial"",""time""
""fullscreenenter"",""1"",""2973""
","
","","","-1","","","12","9762","4417","r","elianto","#3366ff99","-1","-1","1","+10","[]","0","2","","","9762","42","1","2","win","no-go","0"
"pit-trial","161","1126062","0.0-47.0","battery-v0.2","","""event"",""trial"",""time""
""fullscreenenter"",""1"",""2973""
","
","
","""event"",""trial"",""time""
""fullscreenenter"",""1"",""2973""
","
","","","1017.3999999999069","","","12","9762","4417","y","elianto","#f73b6a7A"," "," ","1","0","[1871.0999999996275]","1","2","","","9762","43","2","3","lose","go","0"
"pit-trial","162","1130927","0.0-48.0","battery-v0.2","","""event"",""trial"",""time""
""fullscreenenter"",""1"",""2973""
","
","
","""event"",""trial"",""time""
""fullscreenenter"",""1"",""2973""
","
","","","-1","","","12","9762","4417","m","elianto","#f73b6a7A"," ","-1","0","-10","[]","0","2","","","9762","44","0","3","lose","go","0"
"pit-trial","163","1134574","0.0-49.0","battery-v0.2","","""event"",""trial"",""time""
""fullscreenenter"",""1"",""2973""
","
","
","""event"",""trial"",""time""
""fullscreenenter"",""1"",""2973""
","
","","","783.8999999999069","","","12","9762","4417","y","elianto","#f73b6a7A"," "," ","1","0","[1637.5999999996275]","1","2","","","9762","45","2","3","lose","go","0"
"pit-trial","164","1139438","0.0-50.0","battery-v0.2","","""event"",""trial"",""time""
""fullscreenenter"",""1"",""2973""
","
","
","""event"",""trial"",""time""
""fullscreenenter"",""1"",""2973""
","
","","","-1","","","12","9762","4417","r","elianto","#3366ff99","-1","-1","1","+10","[]","0","2","","","9762","46","1","2","win","no-go","0"
"pit-trial","165","1143182","0.0-51.0","battery-v0.2","","""event"",""trial"",""time""
""fullscreenenter"",""1"",""2973""
","
","
","""event"",""trial"",""time""
""fullscreenenter"",""1"",""2973""
","
","","","884.8999999999069","","","12","9762","4417","m","elianto","#f73b6a7A"," "," ","1","0","[1739]","1","2","","","9762","47","0","3","lose","go","0"
"pit-trial","166","1148047","0.0-52.0","battery-v0.2","","""event"",""trial"",""time""
""fullscreenenter"",""1"",""2973""
","
","
","""event"",""trial"",""time""
""fullscreenenter"",""1"",""2973""
","
","","","-1","","","12","9762","4417","h","elianto","#f73b6a7A","-1","-1","1","0","[]","0","2","","","9762","48","3","4","lose","no-go","0"
"pit-trial","167","1151823","0.0-53.0","battery-v0.2","","""event"",""trial"",""time""
""fullscreenenter"",""1"",""2973""
","
","
","""event"",""trial"",""time""
""fullscreenenter"",""1"",""2973""
","
","","","917.5","","","12","9762","4417","r","elianto","#3366ff99","-1"," ","0","0","[1771.3999999999069]","1","2","","","9762","49","1","2","win","no-go","0"
"pit-trial","168","1155534","0.0-54.0","battery-v0.2","","""event"",""trial"",""time""
""fullscreenenter"",""1"",""2973""
","
","
","""event"",""trial"",""time""
""fullscreenenter"",""1"",""2973""
","
","","","852.7000000001863","","","12","9762","4417","y","elianto","#f73b6a7A"," "," ","1","0","[1706.2000000001863]","1","2","","","9762","50","2","3","lose","go","0"
"pit-trial","169","1160399","0.0-55.0","battery-v0.2","","""event"",""trial"",""time""
""fullscreenenter"",""1"",""2973""
","
","
","""event"",""trial"",""time""
""fullscreenenter"",""1"",""2973""
","
","","","-1","","","12","9762","4417","h","elianto","#f73b6a7A","-1","-1","1","0","[]","0","2","","","9762","51","3","4","lose","no-go","0"
"pit-trial","170","1163854","0.0-56.0","battery-v0.2","","""event"",""trial"",""time""
""fullscreenenter"",""1"",""2973""
","
","
","""event"",""trial"",""time""
""fullscreenenter"",""1"",""2973""
","
","","","591.8000000002794","","","12","9762","4417","m","elianto","#f73b6a7A"," "," ","1","0","[1445.3000000002794]","1","2","","","9762","52","0","3","lose","go","0"
"pit-trial","171","1167223","0.0-57.0","battery-v0.2","","""event"",""trial"",""time""
""fullscreenenter"",""1"",""2973""
","
","
","""event"",""trial"",""time""
""fullscreenenter"",""1"",""2973""
","
","","","510.70000000018626","","","12","9762","4417","y","elianto","#f73b6a7A"," "," ","1","0","[1361.6000000000931]","1","2","","","9762","53","2","3","lose","go","0"
"pit-trial","172","1172086","0.0-58.0","battery-v0.2","","""event"",""trial"",""time""
""fullscreenenter"",""1"",""2973""
","
","
","""event"",""trial"",""time""
""fullscreenenter"",""1"",""2973""
","
","","","-1","","","12","9762","4417","r","elianto","#3366ff99","-1","-1","1","+10","[]","0","2","","","9762","54","1","2","win","no-go","0"
"pit-trial","173","1176710","0.0-59.0","battery-v0.2","","""event"",""trial"",""time""
""fullscreenenter"",""1"",""2973""
","
","
","""event"",""trial"",""time""
""fullscreenenter"",""1"",""2973""
","
","","","1760","","","12","9762","4417","h","elianto","#f73b6a7A","-1"," ","0","-10","[2613.3000000002794]","1","2","","","9762","55","3","4","lose","no-go","0"
"pit-trial","174","1180142","0.0-60.0","battery-v0.2","","""event"",""trial"",""time""
""fullscreenenter"",""1"",""2973""
","
","
","""event"",""trial"",""time""
""fullscreenenter"",""1"",""2973""
","
","","","573.6000000000931","","","12","9762","4417","m","elianto","#f73b6a7A"," "," ","1","0","[1427.2999999998137]","1","2","","","9762","56","0","3","lose","go","0"
"pit-trial","175","1185007","0.0-61.0","battery-v0.2","","""event"",""trial"",""time""
""fullscreenenter"",""1"",""2973""
","
","
","""event"",""trial"",""time""
""fullscreenenter"",""1"",""2973""
","
","","","-1","","","12","9762","4417","h","elianto","#f73b6a7A","-1","-1","1","0","[]","0","2","","","9762","57","3","4","lose","no-go","0"
"pit-trial","176","1188415","0.0-62.0","battery-v0.2","","""event"",""trial"",""time""
""fullscreenenter"",""1"",""2973""
","
","
","""event"",""trial"",""time""
""fullscreenenter"",""1"",""2973""
","
","","","545.7999999998137","","","12","9762","4417","m","elianto","#f73b6a7A"," "," ","1","0","[1399.4000000003725]","1","2","","","9762","58","0","3","lose","go","0"
"pit-trial","177","1193247","0.0-63.0","battery-v0.2","","""event"",""trial"",""time""
""fullscreenenter"",""1"",""2973""
","
","
","""event"",""trial"",""time""
""fullscreenenter"",""1"",""2973""
","
","","","1976.3999999999069","","","12","9762","4417","y","elianto","#f73b6a7A"," "," ","1","0","[2827.3000000002794]","1","2","","","9762","59","2","3","lose","go","0"
"pit-trial","178","1197311","0.0-64.0","battery-v0.2","","""event"",""trial"",""time""
""fullscreenenter"",""1"",""2973""
","
","
","""event"",""trial"",""time""
""fullscreenenter"",""1"",""2973""
","
","","","1200.9000000003725","","","12","9762","4417","z","elianto","#3366ff99"," "," ","1","+10","[2054.5]","1","2","","","9762","60","4","1","win","go","0"
"pit-trial","179","1202175","0.0-65.0","battery-v0.2","","""event"",""trial"",""time""
""fullscreenenter"",""1"",""2973""
","
","
","""event"",""trial"",""time""
""fullscreenenter"",""1"",""2973""
","
","","","-1","","","12","9762","4417","y","elianto","#f73b6a7A"," ","-1","0","0","[]","0","2","","","9762","61","2","3","lose","go","1"
"pit-trial","180","1206175","0.0-66.0","battery-v0.2","","""event"",""trial"",""time""
""fullscreenenter"",""1"",""2973""
","
","
","""event"",""trial"",""time""
""fullscreenenter"",""1"",""2973""
","
","","","1140.3999999999069","","","12","9762","4417","r","elianto","#3366ff99","-1"," ","0","+10","[1993.8000000002794]","1","2","","","9762","62","1","2","win","no-go","1"
"pit-trial","181","1210655","0.0-67.0","battery-v0.2","","""event"",""trial"",""time""
""fullscreenenter"",""1"",""2973""
","
","
","""event"",""trial"",""time""
""fullscreenenter"",""1"",""2973""
","
","","","1617.7999999998137","","","12","9762","4417","h","elianto","#f73b6a7A","-1"," ","0","-10","[2472.9000000003725]","1","2","","","9762","63","3","4","lose","no-go","0"
"pit-trial","182","1214422","0.0-68.0","battery-v0.2","","""event"",""trial"",""time""
""fullscreenenter"",""1"",""2973""
","
","
","""event"",""trial"",""time""
""fullscreenenter"",""1"",""2973""
","
","","","904.7999999998137","","","12","9762","4417","z","elianto","#3366ff99"," "," ","1","+10","[1759.0999999996275]","1","2","","","9762","64","4","1","win","go","0"
"pit-trial","183","1217942","0.0-69.0","battery-v0.2","","""event"",""trial"",""time""
""fullscreenenter"",""1"",""2973""
","
","
","""event"",""trial"",""time""
""fullscreenenter"",""1"",""2973""
","
","","","656.8000000002794","","","12","9762","4417","r","elianto","#3366ff99","-1"," ","0","0","[1510.2000000001863]","1","2","","","9762","65","1","2","win","no-go","0"
"pit-trial","184","1222807","0.0-70.0","battery-v0.2","","""event"",""trial"",""time""
""fullscreenenter"",""1"",""2973""
","
","
","""event"",""trial"",""time""
""fullscreenenter"",""1"",""2973""
","
","","","-1","","","12","9762","4417","h","elianto","#f73b6a7A","-1","-1","1","0","[]","0","2","","","9762","66","3","4","lose","no-go","0"
"pit-trial","185","1226422","0.0-71.0","battery-v0.2","","""event"",""trial"",""time""
""fullscreenenter"",""1"",""2973""
","
","
","""event"",""trial"",""time""
""fullscreenenter"",""1"",""2973""
","
","","","753.4000000003725","","","12","9762","4417","z","elianto","#3366ff99"," "," ","1","+10","[1606.9000000003725]","1","2","","","9762","67","4","1","win","go","0"
"pit-trial","186","1230582","0.0-72.0","battery-v0.2","","""event"",""trial"",""time""
""fullscreenenter"",""1"",""2973""
","
","
","""event"",""trial"",""time""
""fullscreenenter"",""1"",""2973""
","
","","","1296.7999999998137","","","12","9762","4417","c","elianto","#3366ff99","-1"," ","0","+10","[2150.100000000093]","1","2","","","9762","68","5","2","win","no-go","1"
"pit-trial","187","1235014","0.0-73.0","battery-v0.2","","""event"",""trial"",""time""
""fullscreenenter"",""1"",""2973""
","
","
","""event"",""trial"",""time""
""fullscreenenter"",""1"",""2973""
","
","","","1565.7000000001863","","","12","9762","4417","r","elianto","#3366ff99","-1"," ","0","0","[2422.600000000093]","1","2","","","9762","69","1","2","win","no-go","0"
"pit-trial","188","1239550","0.0-74.0","battery-v0.2","","""event"",""trial"",""time""
""fullscreenenter"",""1"",""2973""
","
","
","""event"",""trial"",""time""
""fullscreenenter"",""1"",""2973""
","
","","","1679.2000000001863","","","12","9762","4417","y","elianto","#f73b6a7A"," "," ","1","0","[2529.8000000002794]","1","2","","","9762","70","2","3","lose","go","0"
"pit-trial","189","1243710","0.0-75.0","battery-v0.2","","""event"",""trial"",""time""
""fullscreenenter"",""1"",""2973""
","
","
","""event"",""trial"",""time""
""fullscreenenter"",""1"",""2973""
","
","","","1297.6999999997206","","","12","9762","4417","c","elianto","#3366ff99","-1"," ","0","+10","[2150.899999999907]","1","2","","","9762","71","5","2","win","no-go","1"
"pit-trial","190","1247198","0.0-76.0","battery-v0.2","","""event"",""trial"",""time""
""fullscreenenter"",""1"",""2973""
","
","
","""event"",""trial"",""time""
""fullscreenenter"",""1"",""2973""
","
","","","627.7000000001863","","","12","9762","4417","z","elianto","#3366ff99"," "," ","1","0","[1481.6000000000931]","1","2","","","9762","72","4","1","win","go","1"
"pit-trial","191","1252062","0.0-77.0","battery-v0.2","","""event"",""trial"",""time""
""fullscreenenter"",""1"",""2973""
","
","
","""event"",""trial"",""time""
""fullscreenenter"",""1"",""2973""
","
","","","-1","","","12","9762","4417","r","elianto","#3366ff99","-1","-1","1","+10","[]","0","2","","","9762","73","1","2","win","no-go","0"
"pit-trial","192","1255374","0.0-78.0","battery-v0.2","","""event"",""trial"",""time""
""fullscreenenter"",""1"",""2973""
","
","
","""event"",""trial"",""time""
""fullscreenenter"",""1"",""2973""
","
","","","446.20000000018626","","","12","9762","4417","c","elianto","#3366ff99","-1"," ","0","0","[1301.3000000002794]","1","2","","","9762","74","5","2","win","no-go","0"
"pit-trial","193","1258934","0.0-79.0","battery-v0.2","","""event"",""trial"",""time""
""fullscreenenter"",""1"",""2973""
","
","
","""event"",""trial"",""time""
""fullscreenenter"",""1"",""2973""
","
","","","698.8000000002794","","","12","9762","4417","z","elianto","#3366ff99"," "," ","1","+10","[1552.2999999998137]","1","2","","","9762","75","4","1","win","go","0"
"pit-trial","194","1262534","0.0-80.0","battery-v0.2","","""event"",""trial"",""time""
""fullscreenenter"",""1"",""2973""
","
","
","""event"",""trial"",""time""
""fullscreenenter"",""1"",""2973""
","
","","","741","","","12","9762","4417","h","elianto","#f73b6a7A","-1"," ","0","-10","[1594.3999999999069]","1","2","","","9762","76","3","4","lose","no-go","0"
"pit-trial","195","1266047","0.0-81.0","battery-v0.2","","""event"",""trial"",""time""
""fullscreenenter"",""1"",""2973""
","
","
","""event"",""trial"",""time""
""fullscreenenter"",""1"",""2973""
","
","","","648.0999999996275","","","12","9762","4417","h","elianto","#f73b6a7A","-1"," ","0","-10","[1504.2000000001863]","1","2","","","9762","77","3","4","lose","no-go","0"
"pit-trial","196","1269742","0.0-82.0","battery-v0.2","","""event"",""trial"",""time""
""fullscreenenter"",""1"",""2973""
","
","
","""event"",""trial"",""time""
""fullscreenenter"",""1"",""2973""
","
","","","835.2999999998137","","","12","9762","4417","z","elianto","#3366ff99"," "," ","1","+10","[1688.8000000002794]","1","2","","","9762","78","4","1","win","go","0"
"pit-trial","197","1273439","0.0-83.0","battery-v0.2","","""event"",""trial"",""time""
""fullscreenenter"",""1"",""2973""
","
","
","""event"",""trial"",""time""
""fullscreenenter"",""1"",""2973""
","
","","","836.8000000002794","","","12","9762","4417","z","elianto","#3366ff99"," "," ","1","+10","[1690.8999999999069]","1","2","","","9762","79","4","1","win","go","0"
"pit-trial","198","1277758","0.0-84.0","battery-v0.2","","""event"",""trial"",""time""
""fullscreenenter"",""1"",""2973""
","
","
","""event"",""trial"",""time""
""fullscreenenter"",""1"",""2973""
","
","","","1459.8999999999069","","","12","9762","4417","c","elianto","#3366ff99","-1"," ","0","+10","[2314.2000000001863]","1","2","","","9762","80","5","2","win","no-go","1"
"pit-trial","199","1281670","0.0-85.0","battery-v0.2","","""event"",""trial"",""time""
""fullscreenenter"",""1"",""2973""
","
","
","""event"",""trial"",""time""
""fullscreenenter"",""1"",""2973""
","
","","","1054.3999999999069","","","12","9762","4417","h","elianto","#f73b6a7A","-1"," ","0","-10","[1904.3999999999069]","1","2","","","9762","81","3","4","lose","no-go","0"
"pit-trial","200","1285078","0.0-86.0","battery-v0.2","","""event"",""trial"",""time""
""fullscreenenter"",""1"",""2973""
","
","
","""event"",""trial"",""time""
""fullscreenenter"",""1"",""2973""
","
","","","552.1000000000931","","","12","9762","4417","z","elianto","#3366ff99"," "," ","1","0","[1403.2000000001863]","1","2","","","9762","82","4","1","win","go","1"
"pit-trial","201","1288607","0.0-87.0","battery-v0.2","","""event"",""trial"",""time""
""fullscreenenter"",""1"",""2973""
","
","
","""event"",""trial"",""time""
""fullscreenenter"",""1"",""2973""
","
","","","667.5","","","12","9762","4417","c","elianto","#3366ff99","-1"," ","0","+10","[1524.6000000000931]","1","2","","","9762","83","5","2","win","no-go","1"
"pit-trial","202","1292487","0.0-88.0","battery-v0.2","","""event"",""trial"",""time""
""fullscreenenter"",""1"",""2973""
","
","
","""event"",""trial"",""time""
""fullscreenenter"",""1"",""2973""
","
","","","1017.1000000000931","","","12","9762","4417","t","elianto","#f73b6a7A","-1"," ","0","0","[1870.5]","1","2","","","9762","84","7","4","lose","no-go","1"
"pit-trial","203","1295926","0.0-89.0","battery-v0.2","","""event"",""trial"",""time""
""fullscreenenter"",""1"",""2973""
","
","
","""event"",""trial"",""time""
""fullscreenenter"",""1"",""2973""
","
","","","580.5","","","12","9762","4417","z","elianto","#3366ff99"," "," ","1","+10","[1434.5999999996275]","1","2","","","9762","85","4","1","win","go","0"
"pit-trial","204","1299382","0.0-90.0","battery-v0.2","","""event"",""trial"",""time""
""fullscreenenter"",""1"",""2973""
","
","
","""event"",""trial"",""time""
""fullscreenenter"",""1"",""2973""
","
","","","594.7000000001863","","","12","9762","4417","t","elianto","#f73b6a7A","-1"," ","0","-10","[1448.3999999999069]","1","2","","","9762","86","7","4","lose","no-go","0"
"pit-trial","205","1303775","0.0-91.0","battery-v0.2","","""event"",""trial"",""time""
""fullscreenenter"",""1"",""2973""
","
","
","""event"",""trial"",""time""
""fullscreenenter"",""1"",""2973""
","
","","","1533.0999999996275","","","12","9762","4417","b","elianto","#f73b6a7A"," "," ","1","0","[2384.6999999997206]","1","2","","","9762","87","6","3","lose","go","0"
"pit-trial","206","1307375","0.0-92.0","battery-v0.2","","""event"",""trial"",""time""
""fullscreenenter"",""1"",""2973""
","
","
","""event"",""trial"",""time""
""fullscreenenter"",""1"",""2973""
","
","","","740.7000000001863","","","12","9762","4417","c","elianto","#3366ff99","-1"," ","0","0","[1593.7999999998137]","1","2","","","9762","88","5","2","win","no-go","0"
"pit-trial","207","1310887","0.0-93.0","battery-v0.2","","""event"",""trial"",""time""
""fullscreenenter"",""1"",""2973""
","
","
","""event"",""trial"",""time""
""fullscreenenter"",""1"",""2973""
","
","","","655.3000000002794","","","12","9762","4417","c","elianto","#3366ff99","-1"," ","0","+10","[1507.2999999998137]","1","2","","","9762","89","5","2","win","no-go","1"
"pit-trial","208","1314942","0.0-94.0","battery-v0.2","","""event"",""trial"",""time""
""fullscreenenter"",""1"",""2973""
","
","
","""event"",""trial"",""time""
""fullscreenenter"",""1"",""2973""
","
","","","1195.3999999999069","","","12","9762","4417","t","elianto","#f73b6a7A","-1"," ","0","-10","[2048.399999999907]","1","2","","","9762","90","7","4","lose","no-go","0"
"pit-trial","209","1318510","0.0-95.0","battery-v0.2","","""event"",""trial"",""time""
""fullscreenenter"",""1"",""2973""
","
","
","""event"",""trial"",""time""
""fullscreenenter"",""1"",""2973""
","
","","","708.6000000000931","","","12","9762","4417","b","elianto","#f73b6a7A"," "," ","1","0","[1562.5]","1","2","","","9762","91","6","3","lose","go","0"
"pit-trial","210","1322942","0.0-96.0","battery-v0.2","","""event"",""trial"",""time""
""fullscreenenter"",""1"",""2973""
","
","
","""event"",""trial"",""time""
""fullscreenenter"",""1"",""2973""
","
","","","1575","","","12","9762","4417","z","elianto","#3366ff99"," "," ","1","+10","[2428.7999999998137]","1","2","","","9762","92","4","1","win","go","0"
"pit-trial","211","1326358","0.0-97.0","battery-v0.2","","""event"",""trial"",""time""
""fullscreenenter"",""1"",""2973""
","
","
","""event"",""trial"",""time""
""fullscreenenter"",""1"",""2973""
","
","","","560.2999999998137","","","12","9762","4417","c","elianto","#3366ff99","-1"," ","0","+10","[1412]","1","2","","","9762","93","5","2","win","no-go","1"
"pit-trial","212","1330070","0.0-98.0","battery-v0.2","","""event"",""trial"",""time""
""fullscreenenter"",""1"",""2973""
","
","
","""event"",""trial"",""time""
""fullscreenenter"",""1"",""2973""
","
","","","854.8999999999069","","","12","9762","4417","f","elianto","#3366ff99"," "," ","1","+10","[1705.6000000000931]","1","2","","","9762","94","8","1","win","go","0"
"pit-trial","213","1334935","0.0-99.0","battery-v0.2","","""event"",""trial"",""time""
""fullscreenenter"",""1"",""2973""
","
","
","""event"",""trial"",""time""
""fullscreenenter"",""1"",""2973""
","
","","","-1","","","12","9762","4417","b","elianto","#f73b6a7A"," ","-1","0","-10","[]","0","2","","","9762","95","6","3","lose","go","0"
"pit-trial","214","1338382","0.0-100.0","battery-v0.2","","""event"",""trial"",""time""
""fullscreenenter"",""1"",""2973""
","
","
","""event"",""trial"",""time""
""fullscreenenter"",""1"",""2973""
","
","","","588.8999999999069","","","12","9762","4417","t","elianto","#f73b6a7A","-1"," ","0","-10","[1440.7000000001863]","1","2","","","9762","96","7","4","lose","no-go","0"
"pit-trial","215","1342303","0.0-101.0","battery-v0.2","","""event"",""trial"",""time""
""fullscreenenter"",""1"",""2973""
","
","
","""event"",""trial"",""time""
""fullscreenenter"",""1"",""2973""
","
","","","1060.5","","","12","9762","4417","f","elianto","#3366ff99"," "," ","1","+10","[1914]","1","2","","","9762","97","8","1","win","go","0"
"pit-trial","216","1346318","0.0-102.0","battery-v0.2","","""event"",""trial"",""time""
""fullscreenenter"",""1"",""2973""
","
","
","""event"",""trial"",""time""
""fullscreenenter"",""1"",""2973""
","
","","","1153.8000000002794","","","12","9762","4417","c","elianto","#3366ff99","-1"," ","0","0","[2007.1000000000931]","1","2","","","9762","98","5","2","win","no-go","0"
"pit-trial","217","1349975","0.0-103.0","battery-v0.2","","""event"",""trial"",""time""
""fullscreenenter"",""1"",""2973""
","
","
","""event"",""trial"",""time""
""fullscreenenter"",""1"",""2973""
","
","","","792.7000000001863","","","12","9762","4417","t","elianto","#f73b6a7A","-1"," ","0","-10","[1645.2999999998137]","1","2","","","9762","99","7","4","lose","no-go","0"
"pit-trial","218","1353870","0.0-104.0","battery-v0.2","","""event"",""trial"",""time""
""fullscreenenter"",""1"",""2973""
","
","
","""event"",""trial"",""time""
""fullscreenenter"",""1"",""2973""
","
","","","1038.2000000001863","","","12","9762","4417","b","elianto","#f73b6a7A"," "," ","1","0","[1891.5]","1","2","","","9762","100","6","3","lose","go","0"
"pit-trial","219","1357998","0.0-105.0","battery-v0.2","","""event"",""trial"",""time""
""fullscreenenter"",""1"",""2973""
","
","
","""event"",""trial"",""time""
""fullscreenenter"",""1"",""2973""
","
","","","1267.7000000001863","","","12","9762","4417","t","elianto","#f73b6a7A","-1"," ","0","-10","[2121.100000000093]","1","2","","","9762","101","7","4","lose","no-go","0"
"pit-trial","220","1361534","0.0-106.0","battery-v0.2","","""event"",""trial"",""time""
""fullscreenenter"",""1"",""2973""
","
","
","""event"",""trial"",""time""
""fullscreenenter"",""1"",""2973""
","
","","","678.7000000001863","","","12","9762","4417","c","elianto","#3366ff99","-1"," ","0","+10","[1532.2999999998137]","1","2","","","9762","102","5","2","win","no-go","1"
"pit-trial","221","1364766","0.0-107.0","battery-v0.2","","""event"",""trial"",""time""
""fullscreenenter"",""1"",""2973""
","
","
","""event"",""trial"",""time""
""fullscreenenter"",""1"",""2973""
","
","","","368.70000000018626","","","12","9762","4417","f","elianto","#3366ff99"," "," ","1","+10","[1222]","1","2","","","9762","103","8","1","win","go","0"
"pit-trial","222","1368182","0.0-108.0","battery-v0.2","","""event"",""trial"",""time""
""fullscreenenter"",""1"",""2973""
","
","
","""event"",""trial"",""time""
""fullscreenenter"",""1"",""2973""
","
","","","554.0999999996275","","","12","9762","4417","n","elianto","#3366ff99"," "," ","1","+10","[1410.1999999997206]","1","2","","","9762","104","9","1","win","go","0"
"pit-trial","223","1371678","0.0-109.0","battery-v0.2","","""event"",""trial"",""time""
""fullscreenenter"",""1"",""2973""
","
","
","""event"",""trial"",""time""
""fullscreenenter"",""1"",""2973""
","
","","","637.5999999996275","","","12","9762","4417","z","elianto","#3366ff99"," "," ","1","+10","[1487.6000000000931]","1","2","","","9762","105","4","1","win","go","0"
"pit-trial","224","1376535","0.0-110.0","battery-v0.2","","""event"",""trial"",""time""
""fullscreenenter"",""1"",""2973""
","
","
","""event"",""trial"",""time""
""fullscreenenter"",""1"",""2973""
","
","","","-1","","","12","9762","4417","b","elianto","#f73b6a7A"," ","-1","0","-10","[]","0","2","","","9762","106","6","3","lose","go","0"
"pit-trial","225","1379943","0.0-111.0","battery-v0.2","","""event"",""trial"",""time""
""fullscreenenter"",""1"",""2973""
","
","
","""event"",""trial"",""time""
""fullscreenenter"",""1"",""2973""
","
","","","544.8000000002794","","","12","9762","4417","n","elianto","#3366ff99"," "," ","1","0","[1397.5]","1","2","","","9762","107","9","1","win","go","1"
"pit-trial","226","1383406","0.0-112.0","battery-v0.2","","""event"",""trial"",""time""
""fullscreenenter"",""1"",""2973""
","
","
","""event"",""trial"",""time""
""fullscreenenter"",""1"",""2973""
","
","","","604","","","12","9762","4417","f","elianto","#3366ff99"," "," ","1","+10","[1457.5999999996275]","1","2","","","9762","108","8","1","win","go","0"
"pit-trial","227","1388270","0.0-113.0","battery-v0.2","","""event"",""trial"",""time""
""fullscreenenter"",""1"",""2973""
","
","
","""event"",""trial"",""time""
""fullscreenenter"",""1"",""2973""
","
","","","-1","","","12","9762","4417","n","elianto","#3366ff99"," ","-1","0","0","[]","0","2","","","9762","109","9","1","win","go","0"
"pit-trial","228","1392958","0.0-114.0","battery-v0.2","","""event"",""trial"",""time""
""fullscreenenter"",""1"",""2973""
","
","
","""event"",""trial"",""time""
""fullscreenenter"",""1"",""2973""
","
","","","1824","","","12","9762","4417","b","elianto","#f73b6a7A"," "," ","1","0","[2677.5999999996275]","1","2","","","9762","110","6","3","lose","go","0"
"pit-trial","229","1396806","0.0-115.0","battery-v0.2","","""event"",""trial"",""time""
""fullscreenenter"",""1"",""2973""
","
","
","""event"",""trial"",""time""
""fullscreenenter"",""1"",""2973""
","
","","","986","","","12","9762","4417","f","elianto","#3366ff99"," "," ","1","0","[1837.3999999999069]","1","2","","","9762","111","8","1","win","go","1"
"pit-trial","230","1400647","0.0-116.0","battery-v0.2","","""event"",""trial"",""time""
""fullscreenenter"",""1"",""2973""
","
","
","""event"",""trial"",""time""
""fullscreenenter"",""1"",""2973""
","
","","","980.5","","","12","9762","4417","c","elianto","#3366ff99","-1"," ","0","0","[1831.3000000002794]","1","2","","","9762","112","5","2","win","no-go","0"
"pit-trial","231","1404830","0.0-117.0","battery-v0.2","","""event"",""trial"",""time""
""fullscreenenter"",""1"",""2973""
","
","
","""event"",""trial"",""time""
""fullscreenenter"",""1"",""2973""
","
","","","1320","","","12","9762","4417","n","elianto","#3366ff99"," "," ","1","+10","[2173.3000000002794]","1","2","","","9762","113","9","1","win","go","0"
"pit-trial","232","1408454","0.0-118.0","battery-v0.2","","""event"",""trial"",""time""
""fullscreenenter"",""1"",""2973""
","
","
","""event"",""trial"",""time""
""fullscreenenter"",""1"",""2973""
","
","","","766.7000000001863","","","12","9762","4417","b","elianto","#f73b6a7A"," "," ","1","0","[1617.8000000002794]","1","2","","","9762","114","6","3","lose","go","0"
"pit-trial","233","1412527","0.0-119.0","battery-v0.2","","""event"",""trial"",""time""
""fullscreenenter"",""1"",""2973""
","
","
","""event"",""trial"",""time""
""fullscreenenter"",""1"",""2973""
","
","","","1210","","","12","9762","4417","f","elianto","#3366ff99"," "," ","1","+10","[2064]","1","2","","","9762","115","8","1","win","go","0"
"pit-trial","234","1416358","0.0-120.0","battery-v0.2","","""event"",""trial"",""time""
""fullscreenenter"",""1"",""2973""
","
","
","""event"",""trial"",""time""
""fullscreenenter"",""1"",""2973""
","
","","","973.2000000001863","","","12","9762","4417","c","elianto","#3366ff99","-1"," ","0","+10","[1826.5]","1","2","","","9762","116","5","2","win","no-go","1"
"pit-trial","235","1419550","0.0-121.0","battery-v0.2","","""event"",""trial"",""time""
""fullscreenenter"",""1"",""2973""
","
","
","""event"",""trial"",""time""
""fullscreenenter"",""1"",""2973""
","
","","","330.3000000002794","","","12","9762","4417","n","elianto","#3366ff99"," "," ","1","+10","[1183.8999999999069]","1","2","","","9762","117","9","1","win","go","0"
"pit-trial","236","1423863","0.0-122.0","battery-v0.2","","""event"",""trial"",""time""
""fullscreenenter"",""1"",""2973""
","
","
","""event"",""trial"",""time""
""fullscreenenter"",""1"",""2973""
","
","","","1457.0999999996275","","","12","9762","4417","c","elianto","#3366ff99","-1"," ","0","+10","[2307.7999999998137]","1","2","","","9762","118","5","2","win","no-go","1"
"pit-trial","237","1427351","0.0-123.0","battery-v0.2","","""event"",""trial"",""time""
""fullscreenenter"",""1"",""2973""
","
","
","""event"",""trial"",""time""
""fullscreenenter"",""1"",""2973""
","
","","","629.4000000003725","","","12","9762","4417","f","elianto","#3366ff99"," "," ","1","+10","[1480.6000000000931]","1","2","","","9762","119","8","1","win","go","0"
"pit-trial","238","1430863","0.0-124.0","battery-v0.2","","""event"",""trial"",""time""
""fullscreenenter"",""1"",""2973""
","
","
","""event"",""trial"",""time""
""fullscreenenter"",""1"",""2973""
","
","","","643.5","","","12","9762","4417","b","elianto","#f73b6a7A"," "," ","1","0","[1497.7000000001863]","1","2","","","9762","120","6","3","lose","go","0"
"pit-trial","239","1435727","0.0-125.0","battery-v0.2","","""event"",""trial"",""time""
""fullscreenenter"",""1"",""2973""
","
","
","""event"",""trial"",""time""
""fullscreenenter"",""1"",""2973""
","
","","","-1","","","12","9762","4417","n","elianto","#3366ff99"," ","-1","0","+10","[]","0","2","","","9762","121","9","1","win","go","1"
"pit-trial","240","1439575","0.0-126.0","battery-v0.2","","""event"",""trial"",""time""
""fullscreenenter"",""1"",""2973""
","
","
","""event"",""trial"",""time""
""fullscreenenter"",""1"",""2973""
","
","","","985.5","","","12","9762","4417","t","elianto","#f73b6a7A","-1"," ","0","-10","[1839.1000000000931]","1","2","","","9762","122","7","4","lose","no-go","0"
"pit-trial","241","1443102","0.0-127.0","battery-v0.2","","""event"",""trial"",""time""
""fullscreenenter"",""1"",""2973""
","
","
","""event"",""trial"",""time""
""fullscreenenter"",""1"",""2973""
","
","","","665.1000000000931","","","12","9762","4417","f","elianto","#3366ff99"," "," ","1","+10","[1518.7000000001863]","1","2","","","9762","123","8","1","win","go","0"
"pit-trial","242","1446838","0.0-128.0","battery-v0.2","","""event"",""trial"",""time""
""fullscreenenter"",""1"",""2973""
","
","
","""event"",""trial"",""time""
""fullscreenenter"",""1"",""2973""
","
","","","872.9000000003725","","","12","9762","4417","b","elianto","#f73b6a7A"," "," ","1","0","[1726.6000000000931]","1","2","","","9762","124","6","3","lose","go","0"
"pit-trial","243","1451022","0.0-129.0","battery-v0.2","","""event"",""trial"",""time""
""fullscreenenter"",""1"",""2973""
","
","
","""event"",""trial"",""time""
""fullscreenenter"",""1"",""2973""
","
","","","1327.1999999997206","","","12","9762","4417","n","elianto","#3366ff99"," "," ","1","+10","[2178.5999999996275]","1","2","","","9762","125","9","1","win","go","0"
"pit-trial","244","1455887","0.0-130.0","battery-v0.2","","""event"",""trial"",""time""
""fullscreenenter"",""1"",""2973""
","
","
","""event"",""trial"",""time""
""fullscreenenter"",""1"",""2973""
","
","","","-1","","","12","9762","4417","b","elianto","#f73b6a7A"," ","-1","0","-10","[]","0","2","","","9762","126","6","3","lose","go","0"
"pit-trial","245","1459839","0.0-131.0","battery-v0.2","","""event"",""trial"",""time""
""fullscreenenter"",""1"",""2973""
","
","
","""event"",""trial"",""time""
""fullscreenenter"",""1"",""2973""
","
","","","1090.7000000001863","","","12","9762","4417","f","elianto","#3366ff99"," "," ","1","+10","[1944.2000000001863]","1","2","","","9762","127","8","1","win","go","0"
"pit-trial","246","1463718","0.0-132.0","battery-v0.2","","""event"",""trial"",""time""
""fullscreenenter"",""1"",""2973""
","
","
","""event"",""trial"",""time""
""fullscreenenter"",""1"",""2973""
","
","","","1014.8999999999069","","","12","9762","4417","t","elianto","#f73b6a7A","-1"," ","0","-10","[1870.5999999996275]","1","2","","","9762","128","7","4","lose","no-go","0"
"pit-trial","247","1468583","0.0-133.0","battery-v0.2","","""event"",""trial"",""time""
""fullscreenenter"",""1"",""2973""
","
","
","""event"",""trial"",""time""
""fullscreenenter"",""1"",""2973""
","
","","","-1","","","12","9762","4417","b","elianto","#f73b6a7A"," ","-1","0","-10","[]","0","2","","","9762","129","6","3","lose","go","0"
"pit-trial","248","1472590","0.0-134.0","battery-v0.2","","""event"",""trial"",""time""
""fullscreenenter"",""1"",""2973""
","
","
","""event"",""trial"",""time""
""fullscreenenter"",""1"",""2973""
","
","","","1152.5","","","12","9762","4417","n","elianto","#3366ff99"," "," ","1","+10","[2003.2999999998137]","1","2","","","9762","130","9","1","win","go","0"
"pit-trial","249","1477454","0.0-135.0","battery-v0.2","","""event"",""trial"",""time""
""fullscreenenter"",""1"",""2973""
","
","
","""event"",""trial"",""time""
""fullscreenenter"",""1"",""2973""
","
","","","-1","","","12","9762","4417","f","elianto","#3366ff99"," ","-1","0","0","[]","0","2","","","9762","131","8","1","win","go","0"
"pit-trial","250","1481039","0.0-136.0","battery-v0.2","","""event"",""trial"",""time""
""fullscreenenter"",""1"",""2973""
","
","
","""event"",""trial"",""time""
""fullscreenenter"",""1"",""2973""
","
","","","724.3000000002794","","","12","9762","4417","t","elianto","#f73b6a7A","-1"," ","0","0","[1578]","1","2","","","9762","132","7","4","lose","no-go","1"
"pit-trial","251","1484974","0.0-137.0","battery-v0.2","","""event"",""trial"",""time""
""fullscreenenter"",""1"",""2973""
","
","
","""event"",""trial"",""time""
""fullscreenenter"",""1"",""2973""
","
","","","1077.3999999999069","","","12","9762","4417","n","elianto","#3366ff99"," "," ","1","+10","[1930.1000000000931]","1","2","","","9762","133","9","1","win","go","0"
"pit-trial","252","1488879","0.0-138.0","battery-v0.2","","""event"",""trial"",""time""
""fullscreenenter"",""1"",""2973""
","
","
","""event"",""trial"",""time""
""fullscreenenter"",""1"",""2973""
","
","","","1040.5","","","12","9762","4417","b","elianto","#f73b6a7A"," "," ","1","-10","[1894.0999999996275]","1","2","","","9762","134","6","3","lose","go","1"
"pit-trial","253","1492758","0.0-139.0","battery-v0.2","","""event"",""trial"",""time""
""fullscreenenter"",""1"",""2973""
","
","
","""event"",""trial"",""time""
""fullscreenenter"",""1"",""2973""
","
","","","1020.8999999999069","","","12","9762","4417","f","elianto","#3366ff99"," "," ","1","0","[1875.6000000000931]","1","2","","","9762","135","8","1","win","go","1"
"pit-trial","254","1497622","0.0-140.0","battery-v0.2","","""event"",""trial"",""time""
""fullscreenenter"",""1"",""2973""
","
","
","""event"",""trial"",""time""
""fullscreenenter"",""1"",""2973""
","
","","","-1","","","12","9762","4417","t","elianto","#f73b6a7A","-1","-1","1","0","[]","0","2","","","9762","136","7","4","lose","no-go","0"
"pit-trial","255","1501295","0.0-141.0","battery-v0.2","","""event"",""trial"",""time""
""fullscreenenter"",""1"",""2973""
","
","
","""event"",""trial"",""time""
""fullscreenenter"",""1"",""2973""
","
","","","817.8000000002794","","","12","9762","4417","f","elianto","#3366ff99"," "," ","1","+10","[1668.7999999998137]","1","2","","","9762","137","8","1","win","go","0"
"pit-trial","256","1506158","0.0-142.0","battery-v0.2","","""event"",""trial"",""time""
""fullscreenenter"",""1"",""2973""
","
","
","""event"",""trial"",""time""
""fullscreenenter"",""1"",""2973""
","
","","","-1","","","12","9762","4417","b","elianto","#f73b6a7A"," ","-1","0","-10","[]","0","2","","","9762","138","6","3","lose","go","0"
"pit-trial","257","1509639","0.0-143.0","battery-v0.2","","""event"",""trial"",""time""
""fullscreenenter"",""1"",""2973""
","
","
","""event"",""trial"",""time""
""fullscreenenter"",""1"",""2973""
","
","","","618.5","","","12","9762","4417","n","elianto","#3366ff99"," "," ","1","+10","[1472]","1","2","","","9762","139","9","1","win","go","0"
"pit-trial","258","1512951","0.0-144.0","battery-v0.2","","""event"",""trial"",""time""
""fullscreenenter"",""1"",""2973""
","
","
","""event"",""trial"",""time""
""fullscreenenter"",""1"",""2973""
","
","","","447.39999999990687","","","12","9762","4417","t","elianto","#f73b6a7A","-1"," ","0","-10","[1301.2999999998137]","1","2","","","9762","140","7","4","lose","no-go","0"
"pit-instructions","259","1529563","0.0-145.0","battery-v0.2","","""event"",""trial"",""time""
""fullscreenenter"",""1"",""2973""
","
","
","""event"",""trial"",""time""
""fullscreenenter"",""1"",""2973""
","
","","[{""page_index"":0,""viewing_time"":7184.899999999907},{""page_index"":1,""viewing_time"":9424.80000000028}]","16610.100000000093","","","","","","","","","","","","","","","","","","","","","","","",""
"pit-trial","260","1533342","0.0-146.0","battery-v0.2","","""event"",""trial"",""time""
""fullscreenenter"",""1"",""2973""
","
","
","""event"",""trial"",""time""
""fullscreenenter"",""1"",""2973""
","
","","","920.8000000002794","","","12","9762","4417","j","elianto","#f73b6a7A","-1"," ","0","0","[1770.8999999999069]","1","3","","","9762","141","0","4","lose","no-go","1"
"pit-trial","261","1537190","0.0-147.0","battery-v0.2","","""event"",""trial"",""time""
""fullscreenenter"",""1"",""2973""
","
","
","""event"",""trial"",""time""
""fullscreenenter"",""1"",""2973""
","
","","","989","","","12","9762","4417","e","elianto","#f73b6a7A","-1"," ","0","-10","[1842.7999999998137]","1","3","","","9762","142","2","4","lose","no-go","0"
"pit-trial","262","1541223","0.0-148.0","battery-v0.2","","""event"",""trial"",""time""
""fullscreenenter"",""1"",""2973""
","
","
","""event"",""trial"",""time""
""fullscreenenter"",""1"",""2973""
","
","","","1175.1999999997206","","","12","9762","4417","d","elianto","#3366ff99"," "," ","1","0","[2029.6000000000931]","1","3","","","9762","143","1","1","win","go","1"
"pit-trial","263","1545238","0.0-149.0","battery-v0.2","","""event"",""trial"",""time""
""fullscreenenter"",""1"",""2973""
","
","
","""event"",""trial"",""time""
""fullscreenenter"",""1"",""2973""
","
","","","1154.8999999999069","","","12","9762","4417","w","elianto","#f73b6a7A"," "," ","1","-10","[2008.5]","1","3","","","9762","144","3","3","lose","go","1"
"pit-trial","264","1548543","0.0-150.0","battery-v0.2","","""event"",""trial"",""time""
""fullscreenenter"",""1"",""2973""
","
","
","""event"",""trial"",""time""
""fullscreenenter"",""1"",""2973""
","
","","","445","","","12","9762","4417","e","elianto","#f73b6a7A","-1"," ","0","-10","[1297.1999999997206]","1","3","","","9762","145","2","4","lose","no-go","0"
"pit-trial","265","1552126","0.0-151.0","battery-v0.2","","""event"",""trial"",""time""
""fullscreenenter"",""1"",""2973""
","
","
","""event"",""trial"",""time""
""fullscreenenter"",""1"",""2973""
","
