"trial_type","trial_index","time_elapsed","internal_node_id","task_version","subject_id","interactions","blur_events","focus_events","fullscreenenter_events","fullscreenexit_events","success","view_history","rt","responses","num_errors","age","subject","participantId","rune","rune_set","hex","correct","choice","accuracy","outcome","keys","total_keys","block","practice","value","sub","trial","stimulus","robot","valence","action","sham"
"pavlovia","0","12","0.0-0.0","battery-v0.2","","""event"",""trial"",""time""
""fullscreenenter"",""1"",""4020""
","
","
","""event"",""trial"",""time""
""fullscreenenter"",""1"",""4020""
","
","","","","","","","","","","","","","","","","","","","","","","","","","","",""
"fullscreen","1","4910","0.0-1.0","battery-v0.2","","""event"",""trial"",""time""
""fullscreenenter"",""1"",""4020""
","
","
","""event"",""trial"",""time""
""fullscreenenter"",""1"",""4020""
","
","true","","","","","","","","","","","","","","","","","","","","","","","","","",""
"pit-instructions","2","12477","0.0-2.0-0.0","battery-v0.2","","""event"",""trial"",""time""
""fullscreenenter"",""1"",""4020""
","
","
","""event"",""trial"",""time""
""fullscreenenter"",""1"",""4020""
","
","","[{""page_index"":0,""viewing_time"":7563.700000047684}]","7564.200000047684","","","","","","","","","","","","","","","","","","","","","","","",""
"pit-comprehension","3","15507","0.0-2.0-1.0-0.0","battery-v0.2","","""event"",""trial"",""time""
""fullscreenenter"",""1"",""4020""
","
","
","""event"",""trial"",""time""
""fullscreenenter"",""1"",""4020""
","
","","","3024","[""shark""]","0","10","8931","3858","","","","","","","","","","","","","","","","","","",""
"pit-instructions","4","16982","0.0-2.0-1.0-1.0","battery-v0.2","","""event"",""trial"",""time""
""fullscreenenter"",""1"",""4020""
","
","
","""event"",""trial"",""time""
""fullscreenenter"",""1"",""4020""
","
","","[{""page_index"":0,""viewing_time"":1425.7000000476837}]","1426.1000001430511","","","","","","","","","","","","","","","","","","","","","","","",""
"pit-comprehension","5","20014","0.0-2.0-2.0-0.0","battery-v0.2","","""event"",""trial"",""time""
""fullscreenenter"",""1"",""4020""
","
","
","""event"",""trial"",""time""
""fullscreenenter"",""1"",""4020""
","
","","","3027.2999999523163","[""tiger""]","0","10","8931","3858","","","","","","","","","","","","","","","","","","",""
"pit-instructions","6","20589","0.0-2.0-2.0-1.0","battery-v0.2","","""event"",""trial"",""time""
""fullscreenenter"",""1"",""4020""
","
","
","""event"",""trial"",""time""
""fullscreenenter"",""1"",""4020""
","
","","[{""page_index"":0,""viewing_time"":572.7999999523163}]","573.2999999523163","","","","","","","","","","","","","","","","","","","","","","","",""
"pit-instructions","7","126394","0.0-2.0-3.0","battery-v0.2","","""event"",""trial"",""time""
""fullscreenenter"",""1"",""4020""
","
","
","""event"",""trial"",""time""
""fullscreenenter"",""1"",""4020""
","
","","[{""page_index"":0,""viewing_time"":9173.5},{""page_index"":1,""viewing_time"":7807.899999856949},{""page_index"":2,""viewing_time"":6175.700000047684},{""page_index"":3,""viewing_time"":5192.700000047684},{""page_index"":4,""viewing_time"":8351.200000047684},{""page_index"":5,""viewing_time"":6712.899999856949},{""page_index"":6,""viewing_time"":7544},{""page_index"":7,""viewing_time"":7144.100000143051},{""page_index"":8,""viewing_time"":6471.399999856949},{""page_index"":9,""viewing_time"":10632.400000095367},{""page_index"":10,""viewing_time"":8668.299999952316},{""page_index"":11,""viewing_time"":10527.900000095367},{""page_index"":12,""viewing_time"":6375.299999952316},{""page_index"":13,""viewing_time"":5024.799999952316}]","105802.89999985695","","","","","","","","","","","","","","","","","","","","","","","",""
"pit-trial","8","129571","0.0-2.0-4.0-0.0","battery-v0.2","","""event"",""trial"",""time""
""fullscreenenter"",""1"",""4020""
","
","
","""event"",""trial"",""time""
""fullscreenenter"",""1"",""4020""
","
","","","304","","","10","8931","3858","&#9784;","elianto","#FFFFF080"," "," ","1","&#10004","[1163.9000000953674]","1","0","0","","","","","","","",""
"pit-trial","9","133104","0.0-2.0-4.1-0.1","battery-v0.2","","""event"",""trial"",""time""
""fullscreenenter"",""1"",""4020""
","
","
","""event"",""trial"",""time""
""fullscreenenter"",""1"",""4020""
","
","","","663.2999999523163","","","10","8931","3858","&#9784;","elianto","#FFFFF080"," "," ","1","&#10004","[1515.2999999523163]","1","0","0","","","","","","","",""
"pit-trial","10","137305","0.0-2.0-4.2-0.2","battery-v0.2","","""event"",""trial"",""time""
""fullscreenenter"",""1"",""4020""
","
","
","""event"",""trial"",""time""
""fullscreenenter"",""1"",""4020""
","
","","","1346.3999998569489","","","10","8931","3858","&#9784;","elianto","#FFFFF080"," "," ","1","&#10004","[2197.7000000476837]","1","0","0","","","","","","","",""
"pit-trial","11","141294","0.0-2.0-4.3-0.3","battery-v0.2","","""event"",""trial"",""time""
""fullscreenenter"",""1"",""4020""
","
","
","""event"",""trial"",""time""
""fullscreenenter"",""1"",""4020""
","
","","","1123.1000001430511","","","10","8931","3858","&#9784;","elianto","#FFFFF080"," "," ","1","&#10004","[1974.7000000476837]","1","0","0","","","","","","","",""
"pit-trial","12","144905","0.0-2.0-4.4-0.4","battery-v0.2","","""event"",""trial"",""time""
""fullscreenenter"",""1"",""4020""
","
","
","""event"",""trial"",""time""
""fullscreenenter"",""1"",""4020""
","
","","","740.6000001430511","","","10","8931","3858","&#9784;","elianto","#FFFFF080"," "," ","1","&#10004","[584.5999999046326,1600.5999999046326]","2","0","0","","","","","","","",""
"pit-instructions","13","169610","0.0-2.0-5.0","battery-v0.2","","""event"",""trial"",""time""
""fullscreenenter"",""1"",""4020""
","
","
","""event"",""trial"",""time""
""fullscreenenter"",""1"",""4020""
","
","","[{""page_index"":0,""viewing_time"":5458.199999809265},{""page_index"":1,""viewing_time"":7104.100000143051},{""page_index"":2,""viewing_time"":6035.5},{""page_index"":3,""viewing_time"":6104.299999952316}]","24702.599999904633","","","","","","","","","","","","","","","","","","","","","","","",""
"pit-trial","14","174481","0.0-2.0-6.0-0.0","battery-v0.2","","""event"",""trial"",""time""
""fullscreenenter"",""1"",""4020""
","
","
","""event"",""trial"",""time""
""fullscreenenter"",""1"",""4020""
","
","","","-1","","","10","8931","3858","&#9854;","elianto","#FFFFF080","-1","-1","1","&#10004","[]","0","0","1","","","","","","","",""
"pit-trial","15","179356","0.0-2.0-6.1-0.1","battery-v0.2","","""event"",""trial"",""time""
""fullscreenenter"",""1"",""4020""
","
","
","""event"",""trial"",""time""
""fullscreenenter"",""1"",""4020""
","
","","","-1","","","10","8931","3858","&#9854;","elianto","#FFFFF080","-1","-1","1","&#10004","[]","0","0","1","","","","","","","",""
"pit-trial","16","184222","0.0-2.0-6.2-0.2","battery-v0.2","","""event"",""trial"",""time""
""fullscreenenter"",""1"",""4020""
","
","
","""event"",""trial"",""time""
""fullscreenenter"",""1"",""4020""
","
","","","-1","","","10","8931","3858","&#9854;","elianto","#FFFFF080","-1","-1","1","&#10004","[]","0","0","1","","","","","","","",""
"pit-trial","17","189088","0.0-2.0-6.3-0.3","battery-v0.2","","""event"",""trial"",""time""
""fullscreenenter"",""1"",""4020""
","
","
","""event"",""trial"",""time""
""fullscreenenter"",""1"",""4020""
","
","","","-1","","","10","8931","3858","&#9854;","elianto","#FFFFF080","-1","-1","1","&#10004","[]","0","0","1","","","","","","","",""
"pit-trial","18","193956","0.0-2.0-6.4-0.4","battery-v0.2","","""event"",""trial"",""time""
""fullscreenenter"",""1"",""4020""
","
","
","""event"",""trial"",""time""
""fullscreenenter"",""1"",""4020""
","
","","","-1","","","10","8931","3858","&#9854;","elianto","#FFFFF080","-1","-1","1","&#10004","[]","0","0","1","","","","","","","",""
"pit-instructions","19","325706","0.0-2.0-7.0","battery-v0.2","","""event"",""trial"",""time""
""fullscreenenter"",""1"",""4020""
","
","
","""event"",""trial"",""time""
""fullscreenenter"",""1"",""4020""
","
","","[{""page_index"":0,""viewing_time"":5918.200000047684},{""page_index"":1,""viewing_time"":8008.299999952316},{""page_index"":2,""viewing_time"":6839.900000095367},{""page_index"":3,""viewing_time"":7439.700000047684},{""page_index"":4,""viewing_time"":5704.099999904633},{""page_index"":5,""viewing_time"":6144},{""page_index"":6,""viewing_time"":5512.200000047684},{""page_index"":7,""viewing_time"":7831.5},{""page_index"":8,""viewing_time"":8232.299999952316},{""page_index"":9,""viewing_time"":7104.100000143051},{""page_index"":10,""viewing_time"":8635.799999952316},{""page_index"":11,""viewing_time"":4900.299999952316},{""page_index"":12,""viewing_time"":11787.799999952316},{""page_index"":13,""viewing_time"":9912.100000143051},{""page_index"":14,""viewing_time"":7416.299999952316},{""page_index"":15,""viewing_time"":6815.899999856949},{""page_index"":16,""viewing_time"":6327.200000047684},{""page_index"":17,""viewing_time"":7216.900000095367}]","131747","","","","","","","","","","","","","","","","","","","","","","","",""
"pit-trial","20","329019","0.0-2.0-8.0-0.0","battery-v0.2","","""event"",""trial"",""time""
""fullscreenenter"",""1"",""4020""
","
","
","""event"",""trial"",""time""
""fullscreenenter"",""1"",""4020""
","
","","","453","","","10","8931","3858","&#9776;","elianto","#3366ff99"," "," ","1","+10","[1309.9000000953674]","1","0","1","","","","","","","",""
"pit-trial","21","332410","0.0-2.0-8.0-1.0","battery-v0.2","","""event"",""trial"",""time""
""fullscreenenter"",""1"",""4020""
","
","
","""event"",""trial"",""time""
""fullscreenenter"",""1"",""4020""
","
","","","514.5","","","10","8931","3858","&#9776;","elianto","#3366ff99"," "," ","1","+10","[1373.5999999046326]","1","0","1","","","","","","","",""
"pit-trial","22","335960","0.0-2.0-8.0-2.0","battery-v0.2","","""event"",""trial"",""time""
""fullscreenenter"",""1"",""4020""
","
","
","""event"",""trial"",""time""
""fullscreenenter"",""1"",""4020""
","
","","","682.7999999523163","","","10","8931","3858","&#9776;","elianto","#3366ff99"," "," ","1","+10","[1533.7000000476837]","1","0","1","","","","","","","",""
"pit-trial","23","339924","0.0-2.0-8.0-3.0","battery-v0.2","","""event"",""trial"",""time""
""fullscreenenter"",""1"",""4020""
","
","
","""event"",""trial"",""time""
""fullscreenenter"",""1"",""4020""
","
","","","1107","","","10","8931","3858","&#9776;","elianto","#3366ff99"," "," ","1","0","[1959.7999999523163]","1","0","1","","","","","","","",""
"pit-trial","24","343326","0.0-2.0-8.0-4.0","battery-v0.2","","""event"",""trial"",""time""
""fullscreenenter"",""1"",""4020""
","
","
","""event"",""trial"",""time""
""fullscreenenter"",""1"",""4020""
","
","","","542.7999999523163","","","10","8931","3858","&#9776;","elianto","#3366ff99"," "," ","1","+10","[1396.5]","1","0","1","","","","","","","",""
"pit-trial","25","346980","0.0-2.0-8.1-0.1","battery-v0.2","","""event"",""trial"",""time""
""fullscreenenter"",""1"",""4020""
","
","
","""event"",""trial"",""time""
""fullscreenenter"",""1"",""4020""
","
","","","790.2999999523163","","","10","8931","3858","&#9776;","elianto","#3366ff99"," "," ","1","+10","[1641.1000001430511]","1","0","1","","","","","","","",""
"pit-trial","26","350780","0.0-2.0-8.1-1.1","battery-v0.2","","""event"",""trial"",""time""
""fullscreenenter"",""1"",""4020""
","
","
","""event"",""trial"",""time""
""fullscreenenter"",""1"",""4020""
","
","","","946","","","10","8931","3858","&#9776;","elianto","#3366ff99"," "," ","1","+10","[1796]","1","0","1","","","","","","","",""
"pit-trial","27","355012","0.0-2.0-8.1-2.1","battery-v0.2","","""event"",""trial"",""time""
""fullscreenenter"",""1"",""4020""
","
","
","""event"",""trial"",""time""
""fullscreenenter"",""1"",""4020""
","
","","","1369.5999999046326","","","10","8931","3858","&#9776;","elianto","#3366ff99"," "," ","1","+10","[2220.0999999046326]","1","0","1","","","","","","","",""
"pit-trial","28","359866","0.0-2.0-8.1-3.1","battery-v0.2","","""event"",""trial"",""time""
""fullscreenenter"",""1"",""4020""
","
","
","""event"",""trial"",""time""
""fullscreenenter"",""1"",""4020""
","
","","","-1","","","10","8931","3858","&#9776;","elianto","#3366ff99"," ","-1","0","+10","[]","0","0","1","","","","","","","",""
"pit-trial","29","364719","0.0-2.0-8.1-4.1","battery-v0.2","","""event"",""trial"",""time""
""fullscreenenter"",""1"",""4020""
","
","
","""event"",""trial"",""time""
""fullscreenenter"",""1"",""4020""
","
","","","-1","","","10","8931","3858","&#9776;","elianto","#3366ff99"," ","-1","0","0","[]","0","0","1","","","","","","","",""
"pit-trial","30","368035","0.0-2.0-8.2-0.2","battery-v0.2","","""event"",""trial"",""time""
""fullscreenenter"",""1"",""4020""
","
","
","""event"",""trial"",""time""
""fullscreenenter"",""1"",""4020""
","
","","","462.59999990463257","","","10","8931","3858","&#9776;","elianto","#3366ff99"," "," ","1","+10","[1312.5999999046326]","1","0","1","","","","","","","",""
"pit-trial","31","371474","0.0-2.0-8.2-1.2","battery-v0.2","","""event"",""trial"",""time""
""fullscreenenter"",""1"",""4020""
","
","
","""event"",""trial"",""time""
""fullscreenenter"",""1"",""4020""
","
","","","585.9000000953674","","","10","8931","3858","&#9776;","elianto","#3366ff99"," "," ","1","+10","[1436.7999999523163]","1","0","1","","","","","","","",""
"pit-trial","32","376035","0.0-2.0-8.2-2.2","battery-v0.2","","""event"",""trial"",""time""
""fullscreenenter"",""1"",""4020""
","
","
","""event"",""trial"",""time""
""fullscreenenter"",""1"",""4020""
","
","","","1707.6999998092651","","","10","8931","3858","&#9776;","elianto","#3366ff99"," "," ","1","+10","[2558.0999999046326]","1","0","1","","","","","","","",""
"pit-trial","33","379538","0.0-2.0-8.2-3.2","battery-v0.2","","""event"",""trial"",""time""
""fullscreenenter"",""1"",""4020""
","
","
","""event"",""trial"",""time""
""fullscreenenter"",""1"",""4020""
","
","","","650.1000001430511","","","10","8931","3858","&#9776;","elianto","#3366ff99"," "," ","1","0","[1501.5]","1","0","1","","","","","","","",""
"pit-trial","34","383068","0.0-2.0-8.2-4.2","battery-v0.2","","""event"",""trial"",""time""
""fullscreenenter"",""1"",""4020""
","
","
","""event"",""trial"",""time""
""fullscreenenter"",""1"",""4020""
","
","","","675.8000001907349","","","10","8931","3858","&#9776;","elianto","#3366ff99"," "," ","1","+10","[1525.9000000953674]","1","0","1","","","","","","","",""
"call-function","35","383070","0.0-2.0-9.0","battery-v0.2","","""event"",""trial"",""time""
""fullscreenenter"",""1"",""4020""
","
","
","""event"",""trial"",""time""
""fullscreenenter"",""1"",""4020""
","
","","","","","","","","","","","","","","","","","","","","","","","","","","",""
"pit-instructions","36","422614","0.0-2.0-10.0","battery-v0.2","","""event"",""trial"",""time""
""fullscreenenter"",""1"",""4020""
","
","
","""event"",""trial"",""time""
""fullscreenenter"",""1"",""4020""
","
","","[{""page_index"":0,""viewing_time"":7063},{""page_index"":1,""viewing_time"":7495.700000047684},{""page_index"":2,""viewing_time"":9184.099999904633},{""page_index"":3,""viewing_time"":8024.200000047684},{""page_index"":4,""viewing_time"":7775.5}]","39543","","","","","","","","","","","","","","","","","","","","","","","",""
"pit-trial","37","427488","0.0-2.0-11.0-0.0","battery-v0.2","","""event"",""trial"",""time""
""fullscreenenter"",""1"",""4020""
","
","
","""event"",""trial"",""time""
""fullscreenenter"",""1"",""4020""
","
","","","-1","","","10","8931","3858","&#9761;","elianto","#3366ff99","-1","-1","1","+10","[]","0","0","2","","","","","","","",""
"pit-trial","38","430955","0.0-2.0-11.0-1.0","battery-v0.2","","""event"",""trial"",""time""
""fullscreenenter"",""1"",""4020""
","
","
","""event"",""trial"",""time""
""fullscreenenter"",""1"",""4020""
","
","","","605.3000001907349","","","10","8931","3858","&#9761;","elianto","#3366ff99","-1"," ","0","0","[1463.9000000953674]","1","0","2","","","","","","","",""
"pit-trial","39","435822","0.0-2.0-11.0-2.0","battery-v0.2","","""event"",""trial"",""time""
""fullscreenenter"",""1"",""4020""
","
","
","""event"",""trial"",""time""
""fullscreenenter"",""1"",""4020""
","
","","","-1","","","10","8931","3858","&#9761;","elianto","#3366ff99","-1","-1","1","+10","[]","0","0","2","","","","","","","",""
"pit-trial","40","440696","0.0-2.0-11.0-3.0","battery-v0.2","","""event"",""trial"",""time""
""fullscreenenter"",""1"",""4020""
","
","
","""event"",""trial"",""time""
""fullscreenenter"",""1"",""4020""
","
","","","-1","","","10","8931","3858","&#9761;","elianto","#3366ff99","-1","-1","1","0","[]","0","0","2","","","","","","","",""
"pit-trial","41","445570","0.0-2.0-11.0-4.0","battery-v0.2","","""event"",""trial"",""time""
""fullscreenenter"",""1"",""4020""
","
","
","""event"",""trial"",""time""
""fullscreenenter"",""1"",""4020""
","
","","","-1","","","10","8931","3858","&#9761;","elianto","#3366ff99","-1","-1","1","+10","[]","0","0","2","","","","","","","",""
"pit-trial","42","450448","0.0-2.0-11.1-0.1","battery-v0.2","","""event"",""trial"",""time""
""fullscreenenter"",""1"",""4020""
","
","
","""event"",""trial"",""time""
""fullscreenenter"",""1"",""4020""
","
","","","-1","","","10","8931","3858","&#9761;","elianto","#3366ff99","-1","-1","1","+10","[]","0","0","2","","","","","","","",""
"pit-trial","43","455301","0.0-2.0-11.1-1.1","battery-v0.2","","""event"",""trial"",""time""
""fullscreenenter"",""1"",""4020""
","
","
","""event"",""trial"",""time""
""fullscreenenter"",""1"",""4020""
","
","","","-1","","","10","8931","3858","&#9761;","elianto","#3366ff99","-1","-1","1","+10","[]","0","0","2","","","","","","","",""
"pit-trial","44","460154","0.0-2.0-11.1-2.1","battery-v0.2","","""event"",""trial"",""time""
""fullscreenenter"",""1"",""4020""
","
","
","""event"",""trial"",""time""
""fullscreenenter"",""1"",""4020""
","
","","","-1","","","10","8931","3858","&#9761;","elianto","#3366ff99","-1","-1","1","+10","[]","0","0","2","","","","","","","",""
"pit-trial","45","465007","0.0-2.0-11.1-3.1","battery-v0.2","","""event"",""trial"",""time""
""fullscreenenter"",""1"",""4020""
","
","
","""event"",""trial"",""time""
""fullscreenenter"",""1"",""4020""
","
","","","-1","","","10","8931","3858","&#9761;","elianto","#3366ff99","-1","-1","1","0","[]","0","0","2","","","","","","","",""
"pit-trial","46","469863","0.0-2.0-11.1-4.1","battery-v0.2","","""event"",""trial"",""time""
""fullscreenenter"",""1"",""4020""
","
","
","""event"",""trial"",""time""
""fullscreenenter"",""1"",""4020""
","
","","","-1","","","10","8931","3858","&#9761;","elianto","#3366ff99","-1","-1","1","+10","[]","0","0","2","","","","","","","",""
"pit-trial","47","474718","0.0-2.0-11.2-0.2","battery-v0.2","","""event"",""trial"",""time""
""fullscreenenter"",""1"",""4020""
","
","
","""event"",""trial"",""time""
""fullscreenenter"",""1"",""4020""
","
","","","-1","","","10","8931","3858","&#9761;","elianto","#3366ff99","-1","-1","1","+10","[]","0","0","2","","","","","","","",""
"pit-trial","48","479572","0.0-2.0-11.2-1.2","battery-v0.2","","""event"",""trial"",""time""
""fullscreenenter"",""1"",""4020""
","
","
","""event"",""trial"",""time""
""fullscreenenter"",""1"",""4020""
","
","","","-1","","","10","8931","3858","&#9761;","elianto","#3366ff99","-1","-1","1","+10","[]","0","0","2","","","","","","","",""
"pit-trial","49","484424","0.0-2.0-11.2-2.2","battery-v0.2","","""event"",""trial"",""time""
""fullscreenenter"",""1"",""4020""
","
","
","""event"",""trial"",""time""
""fullscreenenter"",""1"",""4020""
","
","","","-1","","","10","8931","3858","&#9761;","elianto","#3366ff99","-1","-1","1","+10","[]","0","0","2","","","","","","","",""
"pit-trial","50","489278","0.0-2.0-11.2-3.2","battery-v0.2","","""event"",""trial"",""time""
""fullscreenenter"",""1"",""4020""
","
","
","""event"",""trial"",""time""
""fullscreenenter"",""1"",""4020""
","
","","","-1","","","10","8931","3858","&#9761;","elianto","#3366ff99","-1","-1","1","0","[]","0","0","2","","","","","","","",""
"pit-trial","51","494131","0.0-2.0-11.2-4.2","battery-v0.2","","""event"",""trial"",""time""
""fullscreenenter"",""1"",""4020""
","
","
","""event"",""trial"",""time""
""fullscreenenter"",""1"",""4020""
","
","","","-1","","","10","8931","3858","&#9761;","elianto","#3366ff99","-1","-1","1","+10","[]","0","0","2","","","","","","","",""
"pit-trial","52","498985","0.0-2.0-11.3-0.3","battery-v0.2","","""event"",""trial"",""time""
""fullscreenenter"",""1"",""4020""
","
","
","""event"",""trial"",""time""
""fullscreenenter"",""1"",""4020""
","
","","","-1","","","10","8931","3858","&#9761;","elianto","#3366ff99","-1","-1","1","+10","[]","0","0","2","","","","","","","",""
"pit-trial","53","503839","0.0-2.0-11.3-1.3","battery-v0.2","","""event"",""trial"",""time""
""fullscreenenter"",""1"",""4020""
","
","
","""event"",""trial"",""time""
""fullscreenenter"",""1"",""4020""
","
","","","-1","","","10","8931","3858","&#9761;","elianto","#3366ff99","-1","-1","1","+10","[]","0","0","2","","","","","","","",""
"pit-trial","54","508692","0.0-2.0-11.3-2.3","battery-v0.2","","""event"",""trial"",""time""
""fullscreenenter"",""1"",""4020""
","
","
","""event"",""trial"",""time""
""fullscreenenter"",""1"",""4020""
","
","","","-1","","","10","8931","3858","&#9761;","elianto","#3366ff99","-1","-1","1","+10","[]","0","0","2","","","","","","","",""
"pit-trial","55","513546","0.0-2.0-11.3-3.3","battery-v0.2","","""event"",""trial"",""time""
""fullscreenenter"",""1"",""4020""
","
","
","""event"",""trial"",""time""
""fullscreenenter"",""1"",""4020""
","
","","","-1","","","10","8931","3858","&#9761;","elianto","#3366ff99","-1","-1","1","0","[]","0","0","2","","","","","","","",""
"pit-trial","56","518400","0.0-2.0-11.3-4.3","battery-v0.2","","""event"",""trial"",""time""
""fullscreenenter"",""1"",""4020""
","
","
","""event"",""trial"",""time""
""fullscreenenter"",""1"",""4020""
","
","","","-1","","","10","8931","3858","&#9761;","elianto","#3366ff99","-1","-1","1","+10","[]","0","0","2","","","","","","","",""
"call-function","57","518402","0.0-2.0-12.0","battery-v0.2","","""event"",""trial"",""time""
""fullscreenenter"",""1"",""4020""
","
","
","""event"",""trial"",""time""
""fullscreenenter"",""1"",""4020""
","
","","","","","","","","","","","","","","","","","","","","","","","","","","",""
"pit-instructions","58","551335","0.0-2.0-13.0","battery-v0.2","","""event"",""trial"",""time""
""fullscreenenter"",""1"",""4020""
","
","
","""event"",""trial"",""time""
""fullscreenenter"",""1"",""4020""
","
","","[{""page_index"":0,""viewing_time"":6423.799999952316},{""page_index"":1,""viewing_time"":7300.400000095367},{""page_index"":2,""viewing_time"":3775.0999999046326},{""page_index"":3,""viewing_time"":10288.800000190735},{""page_index"":4,""viewing_time"":5143.899999856949}]","32932.40000009537","","","","","","","","","","","","","","","","","","","","","","","",""
"pit-trial","59","554910","0.0-2.0-14.0-0.0","battery-v0.2","","""event"",""trial"",""time""
""fullscreenenter"",""1"",""4020""
","
","
","""event"",""trial"",""time""
""fullscreenenter"",""1"",""4020""
","
","","","717.9000000953674","","","10","8931","3858","&#9826;","elianto","#f73b6a7A","-1"," ","0","-10","[1569.6999998092651]","1","0","3","","","","","","","",""
"pit-trial","60","559774","0.0-2.0-14.0-1.0","battery-v0.2","","""event"",""trial"",""time""
""fullscreenenter"",""1"",""4020""
","
","
","""event"",""trial"",""time""
""fullscreenenter"",""1"",""4020""
","
","","","-1","","","10","8931","3858","&#9826;","elianto","#f73b6a7A","-1","-1","1","0","[]","0","0","3","","","","","","","",""
"pit-trial","61","564632","0.0-2.0-14.0-2.0","battery-v0.2","","""event"",""trial"",""time""
""fullscreenenter"",""1"",""4020""
","
","
","""event"",""trial"",""time""
""fullscreenenter"",""1"",""4020""
","
","","","-1","","","10","8931","3858","&#9826;","elianto","#f73b6a7A","-1","-1","1","0","[]","0","0","3","","","","","","","",""
"pit-trial","62","569500","0.0-2.0-14.0-3.0","battery-v0.2","","""event"",""trial"",""time""
""fullscreenenter"",""1"",""4020""
","
","
","""event"",""trial"",""time""
""fullscreenenter"",""1"",""4020""
","
","","","-1","","","10","8931","3858","&#9826;","elianto","#f73b6a7A","-1","-1","1","-10","[]","0","0","3","","","","","","","",""
"pit-trial","63","574371","0.0-2.0-14.0-4.0","battery-v0.2","","""event"",""trial"",""time""
""fullscreenenter"",""1"",""4020""
","
","
","""event"",""trial"",""time""
""fullscreenenter"",""1"",""4020""
","
","","","-1","","","10","8931","3858","&#9826;","elianto","#f73b6a7A","-1","-1","1","0","[]","0","0","3","","","","","","","",""
"pit-trial","64","579255","0.0-2.0-14.1-0.1","battery-v0.2","","""event"",""trial"",""time""
""fullscreenenter"",""1"",""4020""
","
","
","""event"",""trial"",""time""
""fullscreenenter"",""1"",""4020""
","
","","","-1","","","10","8931","3858","&#9826;","elianto","#f73b6a7A","-1","-1","1","0","[]","0","0","3","","","","","","","",""
"pit-trial","65","584121","0.0-2.0-14.1-1.1","battery-v0.2","","""event"",""trial"",""time""
""fullscreenenter"",""1"",""4020""
","
","
","""event"",""trial"",""time""
""fullscreenenter"",""1"",""4020""
","
","","","-1","","","10","8931","3858","&#9826;","elianto","#f73b6a7A","-1","-1","1","0","[]","0","0","3","","","","","","","",""
"pit-trial","66","588975","0.0-2.0-14.1-2.1","battery-v0.2","","""event"",""trial"",""time""
""fullscreenenter"",""1"",""4020""
","
","
","""event"",""trial"",""time""
""fullscreenenter"",""1"",""4020""
","
","","","-1","","","10","8931","3858","&#9826;","elianto","#f73b6a7A","-1","-1","1","0","[]","0","0","3","","","","","","","",""
"pit-trial","67","593828","0.0-2.0-14.1-3.1","battery-v0.2","","""event"",""trial"",""time""
""fullscreenenter"",""1"",""4020""
","
","
","""event"",""trial"",""time""
""fullscreenenter"",""1"",""4020""
","
","","","-1","","","10","8931","3858","&#9826;","elianto","#f73b6a7A","-1","-1","1","-10","[]","0","0","3","","","","","","","",""
"pit-trial","68","598681","0.0-2.0-14.1-4.1","battery-v0.2","","""event"",""trial"",""time""
""fullscreenenter"",""1"",""4020""
","
","
","""event"",""trial"",""time""
""fullscreenenter"",""1"",""4020""
","
","","","-1","","","10","8931","3858","&#9826;","elianto","#f73b6a7A","-1","-1","1","0","[]","0","0","3","","","","","","","",""
"pit-trial","69","603536","0.0-2.0-14.2-0.2","battery-v0.2","","""event"",""trial"",""time""
""fullscreenenter"",""1"",""4020""
","
","
","""event"",""trial"",""time""
""fullscreenenter"",""1"",""4020""
","
","","","-1","","","10","8931","3858","&#9826;","elianto","#f73b6a7A","-1","-1","1","0","[]","0","0","3","","","","","","","",""
"pit-trial","70","608390","0.0-2.0-14.2-1.2","battery-v0.2","","""event"",""trial"",""time""
""fullscreenenter"",""1"",""4020""
","
","
","""event"",""trial"",""time""
""fullscreenenter"",""1"",""4020""
","
","","","-1","","","10","8931","3858","&#9826;","elianto","#f73b6a7A","-1","-1","1","0","[]","0","0","3","","","","","","","",""
"pit-trial","71","613256","0.0-2.0-14.2-2.2","battery-v0.2","","""event"",""trial"",""time""
""fullscreenenter"",""1"",""4020""
","
","
","""event"",""trial"",""time""
""fullscreenenter"",""1"",""4020""
","
","","","-1","","","10","8931","3858","&#9826;","elianto","#f73b6a7A","-1","-1","1","0","[]","0","0","3","","","","","","","",""
"pit-trial","72","618123","0.0-2.0-14.2-3.2","battery-v0.2","","""event"",""trial"",""time""
""fullscreenenter"",""1"",""4020""
","
","
","""event"",""trial"",""time""
""fullscreenenter"",""1"",""4020""
","
","","","-1","","","10","8931","3858","&#9826;","elianto","#f73b6a7A","-1","-1","1","-10","[]","0","0","3","","","","","","","",""
"pit-trial","73","622976","0.0-2.0-14.2-4.2","battery-v0.2","","""event"",""trial"",""time""
""fullscreenenter"",""1"",""4020""
","
","
","""event"",""trial"",""time""
""fullscreenenter"",""1"",""4020""
","
","","","-1","","","10","8931","3858","&#9826;","elianto","#f73b6a7A","-1","-1","1","0","[]","0","0","3","","","","","","","",""
"pit-trial","74","627831","0.0-2.0-14.3-0.3","battery-v0.2","","""event"",""trial"",""time""
""fullscreenenter"",""1"",""4020""
","
","
","""event"",""trial"",""time""
""fullscreenenter"",""1"",""4020""
","
","","","-1","","","10","8931","3858","&#9826;","elianto","#f73b6a7A","-1","-1","1","0","[]","0","0","3","","","","","","","",""
"pit-trial","75","632684","0.0-2.0-14.3-1.3","battery-v0.2","","""event"",""trial"",""time""
""fullscreenenter"",""1"",""4020""
","
","
","""event"",""trial"",""time""
""fullscreenenter"",""1"",""4020""
","
","","","-1","","","10","8931","3858","&#9826;","elianto","#f73b6a7A","-1","-1","1","0","[]","0","0","3","","","","","","","",""
"pit-trial","76","637540","0.0-2.0-14.3-2.3","battery-v0.2","","""event"",""trial"",""time""
""fullscreenenter"",""1"",""4020""
","
","
","""event"",""trial"",""time""
""fullscreenenter"",""1"",""4020""
","
","","","-1","","","10","8931","3858","&#9826;","elianto","#f73b6a7A","-1","-1","1","0","[]","0","0","3","","","","","","","",""
"pit-trial","77","642394","0.0-2.0-14.3-3.3","battery-v0.2","","""event"",""trial"",""time""
""fullscreenenter"",""1"",""4020""
","
","
","""event"",""trial"",""time""
""fullscreenenter"",""1"",""4020""
","
","","","-1","","","10","8931","3858","&#9826;","elianto","#f73b6a7A","-1","-1","1","-10","[]","0","0","3","","","","","","","",""
"pit-trial","78","647247","0.0-2.0-14.3-4.3","battery-v0.2","","""event"",""trial"",""time""
""fullscreenenter"",""1"",""4020""
","
","
","""event"",""trial"",""time""
""fullscreenenter"",""1"",""4020""
","
","","","-1","","","10","8931","3858","&#9826;","elianto","#f73b6a7A","-1","-1","1","0","[]","0","0","3","","","","","","","",""
"call-function","79","647249","0.0-2.0-15.0","battery-v0.2","","""event"",""trial"",""time""
""fullscreenenter"",""1"",""4020""
","
","
","""event"",""trial"",""time""
""fullscreenenter"",""1"",""4020""
","
","","","","","","","","","","","","","","","","","","","","","","","","","","",""
"pit-instructions","80","693519","0.0-2.0-16.0","battery-v0.2","","""event"",""trial"",""time""
""fullscreenenter"",""1"",""4020""
","
","
","""event"",""trial"",""time""
""fullscreenenter"",""1"",""4020""
","
","","[{""page_index"":0,""viewing_time"":8904},{""page_index"":1,""viewing_time"":14667.600000143051},{""page_index"":2,""viewing_time"":17452.599999904633},{""page_index"":3,""viewing_time"":5243.900000095367}]","46268.5","","","","","","","","","","","","","","","","","","","","","","","",""
"pit-trial","81","697668","0.0-2.0-17.0-0.0","battery-v0.2","","""event"",""trial"",""time""
""fullscreenenter"",""1"",""4020""
","
","
","""event"",""trial"",""time""
""fullscreenenter"",""1"",""4020""
","
","","","1293.7000000476837","","","10","8931","3858","&#9789;","elianto","#f73b6a7A"," "," ","1","0","[2146.399999856949]","1","0","4","","","","","","","",""
"pit-trial","82","700869","0.0-2.0-17.0-1.0","battery-v0.2","","""event"",""trial"",""time""
""fullscreenenter"",""1"",""4020""
","
","
","""event"",""trial"",""time""
""fullscreenenter"",""1"",""4020""
","
","","","342.7000000476837","","","10","8931","3858","&#9789;","elianto","#f73b6a7A"," "," ","1","0","[1196.8999998569489]","1","0","4","","","","","","","",""
"pit-trial","83","704190","0.0-2.0-17.0-2.0","battery-v0.2","","""event"",""trial"",""time""
""fullscreenenter"",""1"",""4020""
","
","
","""event"",""trial"",""time""
""fullscreenenter"",""1"",""4020""
","
","","","454.60000014305115","","","10","8931","3858","&#9789;","elianto","#f73b6a7A"," "," ","1","0","[1307.7000000476837]","1","0","4","","","","","","","",""
"pit-trial","84","708265","0.0-2.0-17.0-3.0","battery-v0.2","","""event"",""trial"",""time""
""fullscreenenter"",""1"",""4020""
","
","
","""event"",""trial"",""time""
""fullscreenenter"",""1"",""4020""
","
","","","1215.7000000476837","","","10","8931","3858","&#9789;","elianto","#f73b6a7A"," "," ","1","-10","[2066.5]","1","0","4","","","","","","","",""
"pit-trial","85","711684","0.0-2.0-17.0-4.0","battery-v0.2","","""event"",""trial"",""time""
""fullscreenenter"",""1"",""4020""
","
","
","""event"",""trial"",""time""
""fullscreenenter"",""1"",""4020""
","
","","","558.7000000476837","","","10","8931","3858","&#9789;","elianto","#f73b6a7A"," "," ","1","0","[1416.2000000476837]","1","0","4","","","","","","","",""
"pit-trial","86","715107","0.0-2.0-17.1-0.1","battery-v0.2","","""event"",""trial"",""time""
""fullscreenenter"",""1"",""4020""
","
","
","""event"",""trial"",""time""
""fullscreenenter"",""1"",""4020""
","
","","","565.9000000953674","","","10","8931","3858","&#9789;","elianto","#f73b6a7A"," "," ","1","0","[628,1420.1000001430511,1692,1916.2000000476837,2323.9000000953674,2515.9000000953674,2747.2000000476837,3155.7000000476837]","8","0","4","","","","","","","",""
"pit-trial","87","718105","0.0-2.0-17.1-1.1","battery-v0.2","","""event"",""trial"",""time""
""fullscreenenter"",""1"",""4020""
","
","
","""event"",""trial"",""time""
""fullscreenenter"",""1"",""4020""
","
","","","130.59999990463257","","","10","8931","3858","&#9789;","elianto","#f73b6a7A"," "," ","1","0","[157.20000004768372,541.2999999523163,773.8999998569489,981.0999999046326,1229.5,1477.5999999046326,1670.2999999523163,1846,2021.7999999523163,2197.2000000476837,2413.5,2598.5,2813.2000000476837]","13","0","4","","","","","","","",""
"pit-trial","88","721045","0.0-2.0-17.1-2.1","battery-v0.2","","""event"",""trial"",""time""
""fullscreenenter"",""1"",""4020""
","
","
","""event"",""trial"",""time""
""fullscreenenter"",""1"",""4020""
","
","","","85.79999995231628","","","10","8931","3858","&#9789;","elianto","#f73b6a7A"," "," ","1","0","[8.099999904632568,223.39999985694885,390.69999980926514,590.5999999046326,774.5999999046326,936,1071.1999998092651,1231.2999999523163,1383.5999999046326,1535.1999998092651,1655.3999998569489,1815.1999998092651,2703.199999809265]","13","0","4","","","","","","","",""
"pit-trial","89","724395","0.0-2.0-17.1-3.1","battery-v0.2","","""event"",""trial"",""time""
""fullscreenenter"",""1"",""4020""
","
","
","""event"",""trial"",""time""
""fullscreenenter"",""1"",""4020""
","
","","","486.7000000476837","","","10","8931","3858","&#9789;","elianto","#f73b6a7A"," "," ","1","-10","[179.59999990463257,1347.7000000476837,2171.9000000953674,2907.7999999523163]","4","0","4","","","","","","","",""
"pit-trial","90","727483","0.0-2.0-17.1-4.1","battery-v0.2","","""event"",""trial"",""time""
""fullscreenenter"",""1"",""4020""
","
","
","""event"",""trial"",""time""
""fullscreenenter"",""1"",""4020""
","
","","","235.5","","","10","8931","3858","&#9789;","elianto","#f73b6a7A"," "," ","1","0","[341.90000009536743,1085.7000000476837,1933.7999999523163,2694.5]","4","0","4","","","","","","","",""
"pit-trial","91","730619","0.0-2.0-17.2-0.2","battery-v0.2","","""event"",""trial"",""time""
""fullscreenenter"",""1"",""4020""
","
","
","""event"",""trial"",""time""
""fullscreenenter"",""1"",""4020""
","
","","","282.7000000476837","","","10","8931","3858","&#9789;","elianto","#f73b6a7A"," "," ","1","0","[348.89999985694885,1133.1999998092651,1813.3999998569489,2597.199999809265]","4","0","4","","","","","","","",""
"pit-trial","92","733548","0.0-2.0-17.2-1.2","battery-v0.2","","""event"",""trial"",""time""
""fullscreenenter"",""1"",""4020""
","
","
","""event"",""trial"",""time""
""fullscreenenter"",""1"",""4020""
","
","","","74.70000004768372","","","10","8931","3858","&#9789;","elianto","#f73b6a7A"," "," ","1","0","[125.90000009536743,925.7999999523163,1589.4000000953674,2325.5]","4","0","4","","","","","","","",""
"pit-trial","93","736979","0.0-2.0-17.2-2.2","battery-v0.2","","""event"",""trial"",""time""
""fullscreenenter"",""1"",""4020""
","
","
","""event"",""trial"",""time""
""fullscreenenter"",""1"",""4020""
","
","","","578.6000001430511","","","10","8931","3858","&#9789;","elianto","#f73b6a7A"," "," ","1","0","[12.300000190734863,820.1000001430511,1428.8000001907349,2286.2000000476837,3044.600000143051]","5","0","4","","","","","","","",""
"pit-trial","94","739932","0.0-2.0-17.2-3.2","battery-v0.2","","""event"",""trial"",""time""
""fullscreenenter"",""1"",""4020""
","
","
","""event"",""trial"",""time""
""fullscreenenter"",""1"",""4020""
","
","","","98.70000004768372","","","10","8931","3858","&#9789;","elianto","#f73b6a7A"," "," ","1","-10","[950,1237.7999999523163,1525.3999998569489,1853.6999998092651,2125.7999999523163,2437.899999856949,2693.5999999046326]","7","0","4","","","","","","","",""
"pit-trial","95","742908","0.0-2.0-17.2-4.2","battery-v0.2","","""event"",""trial"",""time""
""fullscreenenter"",""1"",""4020""
","
","
","""event"",""trial"",""time""
""fullscreenenter"",""1"",""4020""
","
","","","123","","","10","8931","3858","&#9789;","elianto","#f73b6a7A"," "," ","1","0","[220.40000009536743,644.4000000953674,973.5]","3","0","4","","","","","","","",""
"pit-trial","96","746915","0.0-2.0-17.3-0.3","battery-v0.2","","""event"",""trial"",""time""
""fullscreenenter"",""1"",""4020""
","
","
","""event"",""trial"",""time""
""fullscreenenter"",""1"",""4020""
","
","","","1152.3999998569489","","","10","8931","3858","&#9789;","elianto","#f73b6a7A"," "," ","1","0","[2004,3428,3732.0999999046326]","3","0","4","","","","","","","",""
"pit-trial","97","749883","0.0-2.0-17.3-1.3","battery-v0.2","","""event"",""trial"",""time""
""fullscreenenter"",""1"",""4020""
","
","
","""event"",""trial"",""time""
""fullscreenenter"",""1"",""4020""
","
","","","114.70000004768372","","","10","8931","3858","&#9789;","elianto","#f73b6a7A"," "," ","1","0","[676.8000001907349,965.1000001430511,1221.6000001430511,1549.6000001430511,1829.7000000476837,2165.300000190735,2493.7000000476837,2813.7000000476837]","8","0","4","","","","","","","",""
"pit-trial","98","753013","0.0-2.0-17.3-2.3","battery-v0.2","","""event"",""trial"",""time""
""fullscreenenter"",""1"",""4020""
","
","
","""event"",""trial"",""time""
""fullscreenenter"",""1"",""4020""
","
","","","276.39999985694885","","","10","8931","3858","&#9789;","elianto","#f73b6a7A"," "," ","1","0","[206.09999990463257,453.7999999523163,789.7000000476837,1127.0999999046326,1454.7999999523163,1742,2094.0999999046326,2422.0999999046326,2718.0999999046326,3069.7000000476837]","10","0","4","","","","","","","",""
"pit-trial","99","756563","0.0-2.0-17.3-3.3","battery-v0.2","","""event"",""trial"",""time""
""fullscreenenter"",""1"",""4020""
","
","
","""event"",""trial"",""time""
""fullscreenenter"",""1"",""4020""
","
","","","696.8000001907349","","","10","8931","3858","&#9789;","elianto","#f73b6a7A"," "," ","1","-10","[1547,2627.399999856949,2819.2999999523163,3035,3219.399999856949,3546.899999856949]","6","0","4","","","","","","","",""
"pit-trial","100","759779","0.0-2.0-17.3-4.3","battery-v0.2","","""event"",""trial"",""time""
""fullscreenenter"",""1"",""4020""
","
","
","""event"",""trial"",""time""
""fullscreenenter"",""1"",""4020""
","
","","","363","","","10","8931","3858","&#9789;","elianto","#f73b6a7A"," "," ","1","0","[317.5,1213.3999998569489,1877.3999998569489,2213.5,2445.7000000476837,3015.0999999046326,3101.2999999523163]","7","0","4","","","","","","","",""
"call-function","101","759781","0.0-2.0-18.0","battery-v0.2","","""event"",""trial"",""time""
""fullscreenenter"",""1"",""4020""
","
","
","""event"",""trial"",""time""
""fullscreenenter"",""1"",""4020""
","
","","","","","","","","","","","","","","","","","","","","","","","","","","",""
"pit-instructions","102","849611","0.0-2.0-19.0","battery-v0.2","","""event"",""trial"",""time""
""fullscreenenter"",""1"",""4020""
","
","
","""event"",""trial"",""time""
""fullscreenenter"",""1"",""4020""
","
","","[{""page_index"":0,""viewing_time"":6976.299999952316},{""page_index"":1,""viewing_time"":8857.099999904633},{""page_index"":2,""viewing_time"":13447},{""page_index"":3,""viewing_time"":4176.100000143051},{""page_index"":4,""viewing_time"":6372.200000047684},{""page_index"":3,""viewing_time"":7504},{""page_index"":4,""viewing_time"":13239.899999856949},{""page_index"":5,""viewing_time"":8956.200000047684},{""page_index"":6,""viewing_time"":9836.099999904633},{""page_index"":7,""viewing_time"":6513.700000047684},{""page_index"":8,""viewing_time"":3949.9000000953674}]","89829.09999990463","","","","","","","","","","","","","","","","","","","","","","","",""
"pit-comprehension","103","854052","0.0-2.0-20.0-0.0","battery-v0.2","","""event"",""trial"",""time""
""fullscreenenter"",""1"",""4020""
","
","
","""event"",""trial"",""time""
""fullscreenenter"",""1"",""4020""
","
","","","4435.899999856949","[""SPACE""]","0","10","8931","3858","","","","","","","","","","","","","","","","","","",""
"pit-instructions","104","858587","0.0-2.0-20.0-1.0","battery-v0.2","","""event"",""trial"",""time""
""fullscreenenter"",""1"",""4020""
","
","
","""event"",""trial"",""time""
""fullscreenenter"",""1"",""4020""
","
","","[{""page_index"":0,""viewing_time"":4471.700000047684}]","4472.100000143051","","","","","","","","","","","","","","","","","","","","","","","",""
"pit-comprehension","105","864196","0.0-2.0-21.0-0.0","battery-v0.2","","""event"",""trial"",""time""
""fullscreenenter"",""1"",""4020""
","
","
","""event"",""trial"",""time""
""fullscreenenter"",""1"",""4020""
","
","","","5604.5","[""10""]","0","10","8931","3858","","","","","","","","","","","","","","","","","","",""
"pit-instructions","106","865858","0.0-2.0-21.0-1.0","battery-v0.2","","""event"",""trial"",""time""
""fullscreenenter"",""1"",""4020""
","
","
","""event"",""trial"",""time""
""fullscreenenter"",""1"",""4020""
","
","","[{""page_index"":0,""viewing_time"":1627.2999999523163}]","1627.5999999046326","","","","","","","","","","","","","","","","","","","","","","","",""
"pit-comprehension","107","872347","0.0-2.0-22.0-0.0","battery-v0.2","","""event"",""trial"",""time""
""fullscreenenter"",""1"",""4020""
","
","
","""event"",""trial"",""time""
""fullscreenenter"",""1"",""4020""
","
","","","6484.799999952316","[""0""]","0","10","8931","3858","","","","","","","","","","","","","","","","","","",""
"pit-instructions","108","874563","0.0-2.0-22.0-1.0","battery-v0.2","","""event"",""trial"",""time""
""fullscreenenter"",""1"",""4020""
","
","
","""event"",""trial"",""time""
""fullscreenenter"",""1"",""4020""
","
","","[{""page_index"":0,""viewing_time"":2177.899999856949}]","2178.399999856949","","","","","","","","","","","","","","","","","","","","","","","",""
"pit-comprehension","109","886943","0.0-2.0-23.0-0.0","battery-v0.2","","""event"",""trial"",""time""
""fullscreenenter"",""1"",""4020""
","
","
","""event"",""trial"",""time""
""fullscreenenter"",""1"",""4020""
","
","","","12376.700000047684","[""False""]","1","10","8931","3858","","","","","","","","","","","","","","","","","","",""
"pit-instructions","110","891891","0.0-2.0-23.0-1.0","battery-v0.2","","""event"",""trial"",""time""
""fullscreenenter"",""1"",""4020""
","
","
","""event"",""trial"",""time""
""fullscreenenter"",""1"",""4020""
","
","","[{""page_index"":0,""viewing_time"":4910.599999904633}]","4910.899999856949","","","","","","","","","","","","","","","","","","","","","","","",""
"pit-instructions","111","892902","0.0-2.0-23.0-2.0-0.0","battery-v0.2","","""event"",""trial"",""time""
""fullscreenenter"",""1"",""4020""
","
","
","""event"",""trial"",""time""
""fullscreenenter"",""1"",""4020""
","
","","[{""page_index"":0,""viewing_time"":1009.1999998092651}]","1009.5999999046326","","","","","","","","","","","","","","","","","","","","","","","",""
"pit-comprehension","112","901307","0.0-2.0-23.1-0.1","battery-v0.2","","""event"",""trial"",""time""
""fullscreenenter"",""1"",""4020""
","
","
","""event"",""trial"",""time""
""fullscreenenter"",""1"",""4020""
","
","","","8402.200000047684","[""True""]","0","10","8931","3858","","","","","","","","","","","","","","","","","","",""
"pit-instructions","113","903386","0.0-2.0-23.1-1.1","battery-v0.2","","""event"",""trial"",""time""
""fullscreenenter"",""1"",""4020""
","
","
","""event"",""trial"",""time""
""fullscreenenter"",""1"",""4020""
","
","","[{""page_index"":0,""viewing_time"":2040.4000000953674}]","2040.6000001430511","","","","","","","","","","","","","","","","","","","","","","","",""
"pit-comprehension","114","911375","0.0-2.0-24.0-0.0","battery-v0.2","","""event"",""trial"",""time""
""fullscreenenter"",""1"",""4020""
","
","
","""event"",""trial"",""time""
""fullscreenenter"",""1"",""4020""
","
","","","7987.099999904633","[""True""]","0","10","8931","3858","","","","","","","","","","","","","","","","","","",""
"pit-instructions","115","913047","0.0-2.0-24.0-1.0","battery-v0.2","","""event"",""trial"",""time""
""fullscreenenter"",""1"",""4020""
","
","
","""event"",""trial"",""time""
""fullscreenenter"",""1"",""4020""
","
","","[{""page_index"":0,""viewing_time"":1633.6999998092651}]","1634.0999999046326","","","","","","","","","","","","","","","","","","","","","","","",""
"pit-comprehension","116","919472","0.0-2.0-25.0-0.0","battery-v0.2","","""event"",""trial"",""time""
""fullscreenenter"",""1"",""4020""
","
","
","""event"",""trial"",""time""
""fullscreenenter"",""1"",""4020""
","
","","","6421.200000047684","[""True""]","0","10","8931","3858","","","","","","","","","","","","","","","","","","",""
"pit-instructions","117","921081","0.0-2.0-25.0-1.0","battery-v0.2","","""event"",""trial"",""time""
""fullscreenenter"",""1"",""4020""
","
","
","""event"",""trial"",""time""
""fullscreenenter"",""1"",""4020""
","
","","[{""page_index"":0,""viewing_time"":1568.7000000476837}]","1569","","","","","","","","","","","","","","","","","","","","","","","",""
"pit-comprehension","118","927415","0.0-2.0-26.0-0.0","battery-v0.2","","""event"",""trial"",""time""
""fullscreenenter"",""1"",""4020""
","
","
","""event"",""trial"",""time""
""fullscreenenter"",""1"",""4020""
","
","","","6332","[""False""]","0","10","8931","3858","","","","","","","","","","","","","","","","","","",""
"pit-instructions","119","928975","0.0-2.0-26.0-1.0","battery-v0.2","","""event"",""trial"",""time""
""fullscreenenter"",""1"",""4020""
","
","
","""event"",""trial"",""time""
""fullscreenenter"",""1"",""4020""
","
","","[{""page_index"":0,""viewing_time"":1523.7000000476837}]","1524.1000001430511","","","","","","","","","","","","","","","","","","","","","","","",""
"pit-instructions","120","948190","0.0-3.0","battery-v0.2","","""event"",""trial"",""time""
""fullscreenenter"",""1"",""4020""
","
","
","""event"",""trial"",""time""
""fullscreenenter"",""1"",""4020""
","
","","[{""page_index"":0,""viewing_time"":7064.5},{""page_index"":1,""viewing_time"":5176.400000095367},{""page_index"":2,""viewing_time"":6971.599999904633}]","19212.900000095367","","","","","","","","","","","","","","","","","","","","","","","",""
"pit-trial","121","951672","0.0-4.0","battery-v0.2","","""event"",""trial"",""time""
""fullscreenenter"",""1"",""4020""
","
","
","""event"",""trial"",""time""
""fullscreenenter"",""1"",""4020""
","
","","","611.4000000953674","","","10","8931","3858","&#9733;","elianto","#3366ff99","-1"," ","0","0","[1464.0999999046326]","1","1","","","8931","1","2","2","win","no-go","0"
"pit-trial","122","955283","0.0-5.0","battery-v0.2","","""event"",""trial"",""time""
""fullscreenenter"",""1"",""4020""
","
","
","""event"",""trial"",""time""
""fullscreenenter"",""1"",""4020""
","
","","","751.9000000953674","","","10","8931","3858","&#9752;","elianto","#f73b6a7A"," "," ","1","0","[1608.8999998569489]","1","1","","","8931","2","3","3","lose","go","0"
"pit-trial","123","959012","0.0-6.0","battery-v0.2","","""event"",""trial"",""time""
""fullscreenenter"",""1"",""4020""
","
","
","""event"",""trial"",""time""
""fullscreenenter"",""1"",""4020""
","
","","","863.5","","","10","8931","3858","&#9730;","elianto","#3366ff99"," "," ","1","+10","[1717.5]","1","1","","","8931","3","1","1","win","go","0"
"pit-trial","124","962685","0.0-7.0","battery-v0.2","","""event"",""trial"",""time""
""fullscreenenter"",""1"",""4020""
","
","
","""event"",""trial"",""time""
""fullscreenenter"",""1"",""4020""
","
","","","811","","","10","8931","3858","&#9728;","elianto","#f73b6a7A","-1"," ","0","-10","[1661.2999999523163]","1","1","","","8931","4","0","4","lose","no-go","0"
"pit-trial","125","966441","0.0-8.0","battery-v0.2","","""event"",""trial"",""time""
""fullscreenenter"",""1"",""4020""
","
","
","""event"",""trial"",""time""
""fullscreenenter"",""1"",""4020""
","
","","","887.7000000476837","","","10","8931","3858","&#9752;","elianto","#f73b6a7A"," "," ","1","0","[1748.5]","1","1","","","8931","5","3","3","lose","go","0"
"pit-trial","126","971308","0.0-9.0","battery-v0.2","","""event"",""trial"",""time""
""fullscreenenter"",""1"",""4020""
","
","
","""event"",""trial"",""time""
""fullscreenenter"",""1"",""4020""
","
","","","-1","","","10","8931","3858","&#9728;","elianto","#f73b6a7A","-1","-1","1","0","[]","0","1","","","8931","6","0","4","lose","no-go","0"
"pit-trial","127","974811","0.0-10.0","battery-v0.2","","""event"",""trial"",""time""
""fullscreenenter"",""1"",""4020""
","
","
","""event"",""trial"",""time""
""fullscreenenter"",""1"",""4020""
","
","","","629.7999999523163","","","10","8931","3858","&#9730;","elianto","#3366ff99"," "," ","1","0","[1484.5999999046326]","1","1","","","8931","7","1","1","win","go","1"
"pit-trial","128","978439","0.0-11.0","battery-v0.2","","""event"",""trial"",""time""
""fullscreenenter"",""1"",""4020""
","
","
","""event"",""trial"",""time""
""fullscreenenter"",""1"",""4020""
","
","","","768.2999999523163","","","10","8931","3858","&#9733;","elianto","#3366ff99","-1"," ","0","0","[1622.7000000476837]","1","1","","","8931","8","2","2","win","no-go","0"
"pit-trial","129","982292","0.0-12.0","battery-v0.2","","""event"",""trial"",""time""
""fullscreenenter"",""1"",""4020""
","
","
","""event"",""trial"",""time""
""fullscreenenter"",""1"",""4020""
","
","","","999.2000000476837","","","10","8931","3858","&#9730;","elianto","#3366ff99"," "," ","1","+10","[1850.2000000476837]","1","1","","","8931","9","1","1","win","go","0"
"pit-trial","130","986220","0.0-13.0","battery-v0.2","","""event"",""trial"",""time""
""fullscreenenter"",""1"",""4020""
","
","
","""event"",""trial"",""time""
""fullscreenenter"",""1"",""4020""
","
","","","1074.5","","","10","8931","3858","&#9752;","elianto","#f73b6a7A"," "," ","1","0","[1925.4000000953674]","1","1","","","8931","10","3","3","lose","go","0"
"pit-trial","131","990028","0.0-14.0","battery-v0.2","","""event"",""trial"",""time""
""fullscreenenter"",""1"",""4020""
","
","
","""event"",""trial"",""time""
""fullscreenenter"",""1"",""4020""
","
","","","953.5","","","10","8931","3858","&#9733;","elianto","#3366ff99","-1"," ","0","0","[1805.7999999523163]","1","1","","","8931","11","2","2","win","no-go","0"
"pit-trial","132","994882","0.0-15.0","battery-v0.2","","""event"",""trial"",""time""
""fullscreenenter"",""1"",""4020""
","
","
","""event"",""trial"",""time""
""fullscreenenter"",""1"",""4020""
","
","","","-1","","","10","8931","3858","&#9728;","elianto","#f73b6a7A","-1","-1","1","0","[]","0","1","","","8931","12","0","4","lose","no-go","0"
"pit-trial","133","999476","0.0-16.0","battery-v0.2","","""event"",""trial"",""time""
""fullscreenenter"",""1"",""4020""
","
","
","""event"",""trial"",""time""
""fullscreenenter"",""1"",""4020""
","
","","","1741.2000000476837","","","10","8931","3858","&#9728;","elianto","#f73b6a7A","-1"," ","0","-10","[2591.4000000953674]","1","1","","","8931","13","0","4","lose","no-go","0"
"pit-trial","134","1003419","0.0-17.0","battery-v0.2","","""event"",""trial"",""time""
""fullscreenenter"",""1"",""4020""
","
","
","""event"",""trial"",""time""
""fullscreenenter"",""1"",""4020""
","
","","","1090.4000000953674","","","10","8931","3858","&#9730;","elianto","#3366ff99"," "," ","1","0","[1940.5999999046326]","1","1","","","8931","14","1","1","win","go","1"
"pit-trial","135","1007172","0.0-18.0","battery-v0.2","","""event"",""trial"",""time""
""fullscreenenter"",""1"",""4020""
","
","
","""event"",""trial"",""time""
""fullscreenenter"",""1"",""4020""
","
","","","898.7999999523163","","","10","8931","3858","&#9752;","elianto","#f73b6a7A"," "," ","1","0","[1750]","1","1","","","8931","15","3","3","lose","go","0"
"pit-trial","136","1010813","0.0-19.0","battery-v0.2","","""event"",""trial"",""time""
""fullscreenenter"",""1"",""4020""
","
","
","""event"",""trial"",""time""
""fullscreenenter"",""1"",""4020""
","
","","","787.7000000476837","","","10","8931","3858","&#9733;","elianto","#3366ff99","-1"," ","0","0","[1638.2999999523163]","1","1","","","8931","16","2","2","win","no-go","0"
"pit-trial","137","1014619","0.0-20.0","battery-v0.2","","""event"",""trial"",""time""
""fullscreenenter"",""1"",""4020""
","
","
","""event"",""trial"",""time""
""fullscreenenter"",""1"",""4020""
","
","","","954.4000000953674","","","10","8931","3858","&#9730;","elianto","#3366ff99"," "," ","1","+10","[1804.5999999046326]","1","1","","","8931","17","1","1","win","go","0"
"pit-trial","138","1018332","0.0-21.0","battery-v0.2","","""event"",""trial"",""time""
""fullscreenenter"",""1"",""4020""
","
","
","""event"",""trial"",""time""
""fullscreenenter"",""1"",""4020""
","
","","","859.2999999523163","","","10","8931","3858","&#9728;","elianto","#f73b6a7A","-1"," ","0","-10","[1710]","1","1","","","8931","18","0","4","lose","no-go","0"
"pit-trial","139","1022156","0.0-22.0","battery-v0.2","","""event"",""trial"",""time""
""fullscreenenter"",""1"",""4020""
","
","
","""event"",""trial"",""time""
""fullscreenenter"",""1"",""4020""
","
","","","970.5","","","10","8931","3858","&#9733;","elianto","#3366ff99","-1"," ","0","0","[1821.2999999523163]","1","1","","","8931","19","2","2","win","no-go","0"
"pit-trial","140","1025948","0.0-23.0","battery-v0.2","","""event"",""trial"",""time""
""fullscreenenter"",""1"",""4020""
","
","
","""event"",""trial"",""time""
""fullscreenenter"",""1"",""4020""
","
","","","938.7000000476837","","","10","8931","3858","&#9752;","elianto","#f73b6a7A"," "," ","1","0","[1789.0999999046326]","1","1","","","8931","20","3","3","lose","go","0"
"pit-instructions","141","1038747","0.0-24.0","battery-v0.2","","""event"",""trial"",""time""
""fullscreenenter"",""1"",""4020""
","
","
","""event"",""trial"",""time""
""fullscreenenter"",""1"",""4020""
","
","","[{""page_index"":0,""viewing_time"":5820.599999904633},{""page_index"":1,""viewing_time"":6976.200000047684}]","12797.099999904633","","","","","","","","","","","","","","","","","","","","","","","",""
"pit-trial","142","1042399","0.0-25.0","battery-v0.2","","""event"",""trial"",""time""
""fullscreenenter"",""1"",""4020""
","
","
","""event"",""trial"",""time""
""fullscreenenter"",""1"",""4020""
","
","","","792.6999998092651","","","10","8931","3858","r","elianto","#3366ff99","-1"," ","0","0","[1644.3999998569489]","1","2","","","8931","21","1","2","win","no-go","0"
"pit-trial","143","1046369","0.0-26.0","battery-v0.2","","""event"",""trial"",""time""
""fullscreenenter"",""1"",""4020""
","
","
","""event"",""trial"",""time""
""fullscreenenter"",""1"",""4020""
","
","","","1103.1000001430511","","","10","8931","3858","y","elianto","#f73b6a7A"," "," ","1","0","[1954.5]","1","2","","","8931","22","2","3","lose","go","0"
"pit-trial","144","1050764","0.0-27.0","battery-v0.2","","""event"",""trial"",""time""
""fullscreenenter"",""1"",""4020""
","
","
","""event"",""trial"",""time""
""fullscreenenter"",""1"",""4020""
","
","","","1521.5999999046326","","","10","8931","3858","m","elianto","#f73b6a7A"," "," ","1","0","[2384.5]","1","2","","","8931","23","0","3","lose","go","0"
"pit-trial","145","1055531","0.0-28.0","battery-v0.2","","""event"",""trial"",""time""
""fullscreenenter"",""1"",""4020""
","
","
","""event"",""trial"",""time""
""fullscreenenter"",""1"",""4020""
","
","","","1898","","","10","8931","3858","h","elianto","#f73b6a7A","-1"," ","0","-10","[2749.300000190735]","1","2","","","8931","24","3","4","lose","no-go","0"
"pit-trial","146","1059033","0.0-29.0","battery-v0.2","","""event"",""trial"",""time""
""fullscreenenter"",""1"",""4020""
","
","
","""event"",""trial"",""time""
""fullscreenenter"",""1"",""4020""
","
","","","643.2999999523163","","","10","8931","3858","m","elianto","#f73b6a7A"," "," ","1","0","[1494.8999998569489]","1","2","","","8931","25","0","3","lose","go","0"
"pit-trial","147","1063199","0.0-30.0","battery-v0.2","","""event"",""trial"",""time""
""fullscreenenter"",""1"",""4020""
","
","
","""event"",""trial"",""time""
""fullscreenenter"",""1"",""4020""
","
","","","1303.2000000476837","","","10","8931","3858","h","elianto","#f73b6a7A","-1"," ","0","0","[2153.2000000476837]","1","2","","","8931","26","3","4","lose","no-go","1"
"pit-trial","148","1067447","0.0-31.0","battery-v0.2","","""event"",""trial"",""time""
""fullscreenenter"",""1"",""4020""
","
","
","""event"",""trial"",""time""
""fullscreenenter"",""1"",""4020""
","
","","","1392.2999999523163","","","10","8931","3858","r","elianto","#3366ff99","-1"," ","0","0","[2242.2000000476837]","1","2","","","8931","27","1","2","win","no-go","0"
"pit-trial","149","1071548","0.0-32.0","battery-v0.2","","""event"",""trial"",""time""
""fullscreenenter"",""1"",""4020""
","
","
","""event"",""trial"",""time""
""fullscreenenter"",""1"",""4020""
","
","","","1246.2000000476837","","","10","8931","3858","y","elianto","#f73b6a7A"," "," ","1","0","[2099]","1","2","","","8931","28","2","3","lose","go","0"
"pit-trial","150","1075900","0.0-33.0","battery-v0.2","","""event"",""trial"",""time""
""fullscreenenter"",""1"",""4020""
","
","
","""event"",""trial"",""time""
""fullscreenenter"",""1"",""4020""
","
","","","1498.5","","","10","8931","3858","y","elianto","#f73b6a7A"," "," ","1","0","[2349]","1","2","","","8931","29","2","3","lose","go","0"
"pit-trial","151","1079845","0.0-34.0","battery-v0.2","","""event"",""trial"",""time""
""fullscreenenter"",""1"",""4020""
","
","
","""event"",""trial"",""time""
""fullscreenenter"",""1"",""4020""
","
","","","1090","","","10","8931","3858","r","elianto","#3366ff99","-1"," ","0","0","[1941.0999999046326]","1","2","","","8931","30","1","2","win","no-go","0"
"pit-trial","152","1084699","0.0-35.0","battery-v0.2","","""event"",""trial"",""time""
""fullscreenenter"",""1"",""4020""
","
","
","""event"",""trial"",""time""
""fullscreenenter"",""1"",""4020""
","
","","","-1","","","10","8931","3858","h","elianto","#f73b6a7A","-1","-1","1","0","[]","0","2","","","8931","31","3","4","lose","no-go","0"
"pit-trial","153","1089553","0.0-36.0","battery-v0.2","","""event"",""trial"",""time""
""fullscreenenter"",""1"",""4020""
","
","
","""event"",""trial"",""time""
""fullscreenenter"",""1"",""4020""
","
","","","-1","","","10","8931","3858","m","elianto","#f73b6a7A"," ","-1","0","-10","[]","0","2","","","8931","32","0","3","lose","go","0"
"pit-trial","154","1093212","0.0-37.0","battery-v0.2","","""event"",""trial"",""time""
""fullscreenenter"",""1"",""4020""
","
","
","""event"",""trial"",""time""
""fullscreenenter"",""1"",""4020""
","
","","","805.2999999523163","","","10","8931","3858","m","elianto","#f73b6a7A"," "," ","1","0","[1656.2000000476837]","1","2","","","8931","33","0","3","lose","go","0"
"pit-trial","155","1097205","0.0-38.0","battery-v0.2","","""event"",""trial"",""time""
""fullscreenenter"",""1"",""4020""
","
","
","""event"",""trial"",""time""
""fullscreenenter"",""1"",""4020""
","
","","","1137.9000000953674","","","10","8931","3858","y","elianto","#f73b6a7A"," "," ","1","0","[1988.5]","1","2","","","8931","34","2","3","lose","go","0"
"pit-trial","156","1102058","0.0-39.0","battery-v0.2","","""event"",""trial"",""time""
""fullscreenenter"",""1"",""4020""
","
","
","""event"",""trial"",""time""
""fullscreenenter"",""1"",""4020""
","
","","","-1","","","10","8931","3858","r","elianto","#3366ff99","-1","-1","1","0","[]","0","2","","","8931","35","1","2","win","no-go","1"
"pit-trial","157","1106911","0.0-40.0","battery-v0.2","","""event"",""trial"",""time""
""fullscreenenter"",""1"",""4020""
","
","
","""event"",""trial"",""time""
""fullscreenenter"",""1"",""4020""
","
","","","-1","","","10","8931","3858","h","elianto","#f73b6a7A","-1","-1","1","-10","[2967.7999999523163]","1","2","","","8931","36","3","4","lose","no-go","1"
"pit-trial","158","1110605","0.0-41.0","battery-v0.2","","""event"",""trial"",""time""
""fullscreenenter"",""1"",""4020""
","
","
","""event"",""trial"",""time""
""fullscreenenter"",""1"",""4020""
","
","","","839.3999998569489","","","10","8931","3858","m","elianto","#f73b6a7A"," "," ","1","-10","[1690]","1","2","","","8931","37","0","3","lose","go","1"
"pit-trial","159","1114307","0.0-42.0","battery-v0.2","","""event"",""trial"",""time""
""fullscreenenter"",""1"",""4020""
","
","
","""event"",""trial"",""time""
""fullscreenenter"",""1"",""4020""
","
","","","849.5","","","10","8931","3858","y","elianto","#f73b6a7A"," "," ","1","0","[1699.5999999046326]","1","2","","","8931","38","2","3","lose","go","0"
"pit-trial","160","1119161","0.0-43.0","battery-v0.2","","""event"",""trial"",""time""
""fullscreenenter"",""1"",""4020""
","
","
","""event"",""trial"",""time""
""fullscreenenter"",""1"",""4020""
","
","","","-1","","","10","8931","3858","h","elianto","#f73b6a7A","-1","-1","1","0","[]","0","2","","","8931","39","3","4","lose","no-go","0"
"pit-trial","161","1124016","0.0-44.0","battery-v0.2","","""event"",""trial"",""time""
""fullscreenenter"",""1"",""4020""
","
","
","""event"",""trial"",""time""
""fullscreenenter"",""1"",""4020""
","
","","","-1","","","10","8931","3858","r","elianto","#3366ff99","-1","-1","1","+10","[]","0","2","","","8931","40","1","2","win","no-go","0"
"pit-trial","162","1128195","0.0-45.0","battery-v0.2","","""event"",""trial"",""time""
""fullscreenenter"",""1"",""4020""
","
","
","""event"",""trial"",""time""
""fullscreenenter"",""1"",""4020""
","
","","","1322.2000000476837","","","10","8931","3858","y","elianto","#f73b6a7A"," "," ","1","0","[2173.600000143051]","1","2","","","8931","41","2","3","lose","go","0"
"pit-trial","163","1131772","0.0-46.0","battery-v0.2","","""event"",""trial"",""time""
""fullscreenenter"",""1"",""4020""
","
","
","""event"",""trial"",""time""
""fullscreenenter"",""1"",""4020""
","
","","","723.6000001430511","","","10","8931","3858","m","elianto","#f73b6a7A"," "," ","1","0","[1574.3999998569489]","1","2","","","8931","42","0","3","lose","go","0"
"pit-trial","164","1136625","0.0-47.0","battery-v0.2","","""event"",""trial"",""time""
""fullscreenenter"",""1"",""4020""
","
","
","""event"",""trial"",""time""
""fullscreenenter"",""1"",""4020""
","
","","","-1","","","10","8931","3858","h","elianto","#f73b6a7A","-1","-1","1","0","[]","0","2","","","8931","43","3","4","lose","no-go","0"
"pit-trial","165","1140115","0.0-48.0","battery-v0.2","","""event"",""trial"",""time""
""fullscreenenter"",""1"",""4020""
","
","
","""event"",""trial"",""time""
""fullscreenenter"",""1"",""4020""
","
","","","635.7000000476837","","","10","8931","3858","r","elianto","#3366ff99","-1"," ","0","+10","[1487.7000000476837]","1","2","","","8931","44","1","2","win","no-go","1"
"pit-trial","166","1144969","0.0-49.0","battery-v0.2","","""event"",""trial"",""time""
""fullscreenenter"",""1"",""4020""
","
","
","""event"",""trial"",""time""
""fullscreenenter"",""1"",""4020""
","
","","","-1","","","10","8931","3858","h","elianto","#f73b6a7A","-1","-1","1","0","[]","0","2","","","8931","45","3","4","lose","no-go","0"
"pit-trial","167","1148667","0.0-50.0","battery-v0.2","","""event"",""trial"",""time""
""fullscreenenter"",""1"",""4020""
","
","
","""event"",""trial"",""time""
""fullscreenenter"",""1"",""4020""
","
","","","845.5","","","10","8931","3858","y","elianto","#f73b6a7A"," "," ","1","0","[1696.4000000953674]","1","2","","","8931","46","2","3","lose","go","0"
"pit-trial","168","1152165","0.0-51.0","battery-v0.2","","""event"",""trial"",""time""
""fullscreenenter"",""1"",""4020""
","
","
","""event"",""trial"",""time""
""fullscreenenter"",""1"",""4020""
","
","","","643.4000000953674","","","10","8931","3858","m","elianto","#f73b6a7A"," "," ","1","0","[1494.5]","1","2","","","8931","47","0","3","lose","go","0"
"pit-trial","169","1157018","0.0-52.0","battery-v0.2","","""event"",""trial"",""time""
""fullscreenenter"",""1"",""4020""
","
","
","""event"",""trial"",""time""
""fullscreenenter"",""1"",""4020""
","
","","","-1","","","10","8931","3858","r","elianto","#3366ff99","-1","-1","1","0","[]","0","2","","","8931","48","1","2","win","no-go","1"
"pit-trial","170","1160787","0.0-53.0","battery-v0.2","","""event"",""trial"",""time""
""fullscreenenter"",""1"",""4020""
","
","
","""event"",""trial"",""time""
""fullscreenenter"",""1"",""4020""
","
","","","915","","","10","8931","3858","y","elianto","#f73b6a7A"," "," ","1","0","[1766.9000000953674]","1","2","","","8931","49","2","3","lose","go","0"
"pit-trial","171","1164252","0.0-54.0","battery-v0.2","","""event"",""trial"",""time""
""fullscreenenter"",""1"",""4020""
","
","
","""event"",""trial"",""time""
""fullscreenenter"",""1"",""4020""
","
","","","611.7999999523163","","","10","8931","3858","m","elianto","#f73b6a7A"," "," ","1","0","[1461.7999999523163]","1","2","","","8931","50","0","3","lose","go","0"
"pit-trial","172","1169106","0.0-55.0","battery-v0.2","","""event"",""trial"",""time""
""fullscreenenter"",""1"",""4020""
","
","
","""event"",""trial"",""time""
""fullscreenenter"",""1"",""4020""
","
","","","-1","","","10","8931","3858","r","elianto","#3366ff99","-1","-1","1","+10","[]","0","2","","","8931","51","1","2","win","no-go","0"
"pit-trial","173","1173960","0.0-56.0","battery-v0.2","","""event"",""trial"",""time""
""fullscreenenter"",""1"",""4020""
","
","
","""event"",""trial"",""time""
""fullscreenenter"",""1"",""4020""
","
","","","-1","","","10","8931","3858","h","elianto","#f73b6a7A","-1","-1","1","0","[]","0","2","","","8931","52","3","4","lose","no-go","0"
"pit-trial","174","1177588","0.0-57.0","battery-v0.2","","""event"",""trial"",""time""
""fullscreenenter"",""1"",""4020""
","
","
","""event"",""trial"",""time""
""fullscreenenter"",""1"",""4020""
","
","","","775","","","10","8931","3858","m","elianto","#f73b6a7A"," "," ","1","0","[1625.8999998569489]","1","2","","","8931","53","0","3","lose","go","0"
"pit-trial","175","1182441","0.0-58.0","battery-v0.2","","""event"",""trial"",""time""
""fullscreenenter"",""1"",""4020""
","
","
","""event"",""trial"",""time""
""fullscreenenter"",""1"",""4020""
","
","","","-1","","","10","8931","3858","h","elianto","#f73b6a7A","-1","-1","1","0","[]","0","2","","","8931","54","3","4","lose","no-go","0"
"pit-trial","176","1186027","0.0-59.0","battery-v0.2","","""event"",""trial"",""time""
""fullscreenenter"",""1"",""4020""
","
","
","""event"",""trial"",""time""
""fullscreenenter"",""1"",""4020""
","
","","","731.6000001430511","","","10","8931","3858","r","elianto","#3366ff99","-1"," ","0","0","[1583.6000001430511]","1","2","","","8931","55","1","2","win","no-go","0"
"pit-trial","177","1189748","0.0-60.0","battery-v0.2","","""event"",""trial"",""time""
""fullscreenenter"",""1"",""4020""
","
","
","""event"",""trial"",""time""
""fullscreenenter"",""1"",""4020""
","
","","","866.5","","","10","8931","3858","y","elianto","#f73b6a7A"," "," ","1","0","[1718]","1","2","","","8931","56","2","3","lose","go","0"
"pit-trial","178","1194602","0.0-61.0","battery-v0.2","","""event"",""trial"",""time""
""fullscreenenter"",""1"",""4020""
","
","
","""event"",""trial"",""time""
""fullscreenenter"",""1"",""4020""
","
","","","-1","","","10","8931","3858","h","elianto","#f73b6a7A","-1","-1","1","0","[]","0","2","","","8931","57","3","4","lose","no-go","0"
"pit-trial","179","1198427","0.0-62.0","battery-v0.2","","""event"",""trial"",""time""
""fullscreenenter"",""1"",""4020""
","
","
","""event"",""trial"",""time""
""fullscreenenter"",""1"",""4020""
","
","","","972.2999999523163","","","10","8931","3858","m","elianto","#f73b6a7A"," "," ","1","0","[1822.6999998092651]","1","2","","","8931","58","0","3","lose","go","0"
"pit-trial","180","1202092","0.0-63.0","battery-v0.2","","""event"",""trial"",""time""
""fullscreenenter"",""1"",""4020""
","
","
","""event"",""trial"",""time""
""fullscreenenter"",""1"",""4020""
","
","","","811.7999999523163","","","10","8931","3858","y","elianto","#f73b6a7A"," "," ","1","-10","[1661.9000000953674]","1","2","","","8931","59","2","3","lose","go","1"
"pit-trial","181","1205795","0.0-64.0","battery-v0.2","","""event"",""trial"",""time""
""fullscreenenter"",""1"",""4020""
","
","
","""event"",""trial"",""time""
""fullscreenenter"",""1"",""4020""
","
","","","850.1000001430511","","","10","8931","3858","z","elianto","#3366ff99"," "," ","1","+10","[1700.7000000476837]","1","2","","","8931","60","4","1","win","go","0"
"pit-trial","182","1209205","0.0-65.0","battery-v0.2","","""event"",""trial"",""time""
""fullscreenenter"",""1"",""4020""
","
","
","""event"",""trial"",""time""
""fullscreenenter"",""1"",""4020""
","
","","","555.5","","","10","8931","3858","z","elianto","#3366ff99"," "," ","1","+10","[1406.7000000476837]","1","2","","","8931","61","4","1","win","go","0"
"pit-trial","183","1212820","0.0-66.0","battery-v0.2","","""event"",""trial"",""time""
""fullscreenenter"",""1"",""4020""
","
","
","""event"",""trial"",""time""
""fullscreenenter"",""1"",""4020""
","
","","","762.0999999046326","","","10","8931","3858","y","elianto","#f73b6a7A"," "," ","1","0","[1612.1999998092651]","1","2","","","8931","62","2","3","lose","go","0"
"pit-trial","184","1216412","0.0-67.0","battery-v0.2","","""event"",""trial"",""time""
""fullscreenenter"",""1"",""4020""
","
","
","""event"",""trial"",""time""
""fullscreenenter"",""1"",""4020""
","
","","","739.1000001430511","","","10","8931","3858","r","elianto","#3366ff99","-1"," ","0","+10","[1589]","1","2","","","8931","63","1","2","win","no-go","1"
"pit-trial","185","1221266","0.0-68.0","battery-v0.2","","""event"",""trial"",""time""
""fullscreenenter"",""1"",""4020""
","
","
","""event"",""trial"",""time""
""fullscreenenter"",""1"",""4020""
","
","","","-1","","","10","8931","3858","h","elianto","#f73b6a7A","-1","-1","1","0","[]","0","2","","","8931","64","3","4","lose","no-go","0"
"pit-trial","186","1225004","0.0-69.0","battery-v0.2","","""event"",""trial"",""time""
""fullscreenenter"",""1"",""4020""
","
","
","""event"",""trial"",""time""
""fullscreenenter"",""1"",""4020""
","
","","","885","","","10","8931","3858","c","elianto","#3366ff99","-1"," ","0","+10","[1735.5999999046326]","1","2","","","8931","65","5","2","win","no-go","1"
"pit-trial","187","1228684","0.0-70.0","battery-v0.2","","""event"",""trial"",""time""
""fullscreenenter"",""1"",""4020""
","
","
","""event"",""trial"",""time""
""fullscreenenter"",""1"",""4020""
","
","","","826.2999999523163","","","10","8931","3858","z","elianto","#3366ff99"," "," ","1","0","[1676.8000001907349]","1","2","","","8931","66","4","1","win","go","1"
"pit-trial","188","1233537","0.0-71.0","battery-v0.2","","""event"",""trial"",""time""
""fullscreenenter"",""1"",""4020""
","
","
","""event"",""trial"",""time""
""fullscreenenter"",""1"",""4020""
","
","","","-1","","","10","8931","3858","h","elianto","#f73b6a7A","-1","-1","1","0","[]","0","2","","","8931","67","3","4","lose","no-go","0"
"pit-trial","189","1238391","0.0-72.0","battery-v0.2","","""event"",""trial"",""time""
""fullscreenenter"",""1"",""4020""
","
","
","""event"",""trial"",""time""
""fullscreenenter"",""1"",""4020""
","
","","","-1","","","10","8931","3858","r","elianto","#3366ff99","-1","-1","1","+10","[]","0","2","","","8931","68","1","2","win","no-go","0"
"pit-trial","190","1242060","0.0-73.0","battery-v0.2","","""event"",""trial"",""time""
""fullscreenenter"",""1"",""4020""
","
","
","""event"",""trial"",""time""
""fullscreenenter"",""1"",""4020""
","
","","","816.2999999523163","","","10","8931","3858","c","elianto","#3366ff99","-1"," ","0","0","[1666.7999999523163]","1","2","","","8931","69","5","2","win","no-go","0"
"pit-trial","191","1245525","0.0-74.0","battery-v0.2","","""event"",""trial"",""time""
""fullscreenenter"",""1"",""4020""
","
","
","""event"",""trial"",""time""
""fullscreenenter"",""1"",""4020""
","
","","","609.1000001430511","","","10","8931","3858","z","elianto","#3366ff99"," "," ","1","+10","[1461.3000001907349]","1","2","","","8931","70","4","1","win","go","0"
"pit-trial","192","1249780","0.0-75.0","battery-v0.2","","""event"",""trial"",""time""
""fullscreenenter"",""1"",""4020""
","
","
","""event"",""trial"",""time""
""fullscreenenter"",""1"",""4020""
","
","","","1402.2999999523163","","","10","8931","3858","y","elianto","#f73b6a7A"," "," ","1","-10","[2252.5]","1","2","","","8931","71","2","3","lose","go","1"
"pit-trial","193","1253220","0.0-76.0","battery-v0.2","","""event"",""trial"",""time""
""fullscreenenter"",""1"",""4020""
","
","
","""event"",""trial"",""time""
""fullscreenenter"",""1"",""4020""
","
","","","586.5","","","10","8931","3858","r","elianto","#3366ff99","-1"," ","0","0","[1437.2999999523163]","1","2","","","8931","72","1","2","win","no-go","0"
"pit-trial","194","1256732","0.0-77.0","battery-v0.2","","""event"",""trial"",""time""
""fullscreenenter"",""1"",""4020""
","
","
","""event"",""trial"",""time""
""fullscreenenter"",""1"",""4020""
","
","","","658.5","","","10","8931","3858","c","elianto","#3366ff99","-1"," ","0","0","[1509]","1","2","","","8931","73","5","2","win","no-go","0"
"pit-trial","195","1261586","0.0-78.0","battery-v0.2","","""event"",""trial"",""time""
""fullscreenenter"",""1"",""4020""
","
","
","""event"",""trial"",""time""
""fullscreenenter"",""1"",""4020""
","
","","","-1","","","10","8931","3858","h","elianto","#f73b6a7A","-1","-1","1","0","[]","0","2","","","8931","74","3","4","lose","no-go","0"
"pit-trial","196","1265355","0.0-79.0","battery-v0.2","","""event"",""trial"",""time""
""fullscreenenter"",""1"",""4020""
","
","
","""event"",""trial"",""time""
""fullscreenenter"",""1"",""4020""
","
","","","916.4000000953674","","","10","8931","3858","z","elianto","#3366ff99"," "," ","1","+10","[1767]","1","2","","","8931","75","4","1","win","go","0"
"pit-trial","197","1270208","0.0-80.0","battery-v0.2","","""event"",""trial"",""time""
""fullscreenenter"",""1"",""4020""
","
","
","""event"",""trial"",""time""
""fullscreenenter"",""1"",""4020""
","
","","","-1","","","10","8931","3858","r","elianto","#3366ff99","-1","-1","1","+10","[]","0","2","","","8931","76","1","2","win","no-go","0"
"pit-trial","198","1273907","0.0-81.0","battery-v0.2","","""event"",""trial"",""time""
""fullscreenenter"",""1"",""4020""
","
","
","""event"",""trial"",""time""
""fullscreenenter"",""1"",""4020""
","
","","","846.1000001430511","","","10","8931","3858","z","elianto","#3366ff99"," "," ","1","+10","[1696.6000001430511]","1","2","","","8931","77","4","1","win","go","0"
"pit-trial","199","1277484","0.0-82.0","battery-v0.2","","""event"",""trial"",""time""
""fullscreenenter"",""1"",""4020""
","
","
","""event"",""trial"",""time""
""fullscreenenter"",""1"",""4020""
","
","","","723.6000001430511","","","10","8931","3858","z","elianto","#3366ff99"," "," ","1","+10","[1573.8000001907349]","1","2","","","8931","78","4","1","win","go","0"
"pit-trial","200","1282340","0.0-83.0","battery-v0.2","","""event"",""trial"",""time""
""fullscreenenter"",""1"",""4020""
","
","
","""event"",""trial"",""time""
""fullscreenenter"",""1"",""4020""
","
","","","-1","","","10","8931","3858","c","elianto","#3366ff99","-1","-1","1","+10","[]","0","2","","","8931","79","5","2","win","no-go","0"
"pit-trial","201","1287193","0.0-84.0","battery-v0.2","","""event"",""trial"",""time""
""fullscreenenter"",""1"",""4020""
","
","
","""event"",""trial"",""time""
""fullscreenenter"",""1"",""4020""
","
","","","-1","","","10","8931","3858","h","elianto","#f73b6a7A","-1","-1","1","0","[]","0","2","","","8931","80","3","4","lose","no-go","0"
"pit-trial","202","1290842","0.0-85.0","battery-v0.2","","""event"",""trial"",""time""
""fullscreenenter"",""1"",""4020""
","
","
","""event"",""trial"",""time""
""fullscreenenter"",""1"",""4020""
","
","","","780.7000000476837","","","10","8931","3858","z","elianto","#3366ff99"," "," ","1","+10","[1632.5]","1","2","","","8931","81","4","1","win","go","0"
"pit-trial","203","1295695","0.0-86.0","battery-v0.2","","""event"",""trial"",""time""
""fullscreenenter"",""1"",""4020""
","
","
","""event"",""trial"",""time""
""fullscreenenter"",""1"",""4020""
","
","","","-1","","","10","8931","3858","h","elianto","#f73b6a7A","-1","-1","1","0","[]","0","2","","","8931","82","3","4","lose","no-go","0"
"pit-trial","204","1300549","0.0-87.0","battery-v0.2","","""event"",""trial"",""time""
""fullscreenenter"",""1"",""4020""
","
","
","""event"",""trial"",""time""
""fullscreenenter"",""1"",""4020""
","
","","","-1","","","10","8931","3858","t","elianto","#f73b6a7A","-1","-1","1","0","[]","0","2","","","8931","83","7","4","lose","no-go","0"
"pit-trial","205","1305403","0.0-88.0","battery-v0.2","","""event"",""trial"",""time""
""fullscreenenter"",""1"",""4020""
","
","
","""event"",""trial"",""time""
""fullscreenenter"",""1"",""4020""
","
","","","-1","","","10","8931","3858","c","elianto","#3366ff99","-1","-1","1","+10","[]","0","2","","","8931","84","5","2","win","no-go","0"
"pit-trial","206","1310257","0.0-89.0","battery-v0.2","","""event"",""trial"",""time""
""fullscreenenter"",""1"",""4020""
","
","
","""event"",""trial"",""time""
""fullscreenenter"",""1"",""4020""
","
","","","-1","","","10","8931","3858","c","elianto","#3366ff99","-1","-1","1","+10","[]","0","2","","","8931","85","5","2","win","no-go","0"
"pit-trial","207","1314573","0.0-90.0","battery-v0.2","","""event"",""trial"",""time""
""fullscreenenter"",""1"",""4020""
","
","
","""event"",""trial"",""time""
""fullscreenenter"",""1"",""4020""
","
","","","1461.1000001430511","","","10","8931","3858","b","elianto","#f73b6a7A"," "," ","1","0","[2312.7999999523163]","1","2","","","8931","86","6","3","lose","go","0"
"pit-trial","208","1319426","0.0-91.0","battery-v0.2","","""event"",""trial"",""time""
""fullscreenenter"",""1"",""4020""
","
","
","""event"",""trial"",""time""
""fullscreenenter"",""1"",""4020""
","
","","","-1","","","10","8931","3858","t","elianto","#f73b6a7A","-1","-1","1","0","[]","0","2","","","8931","87","7","4","lose","no-go","0"
"pit-trial","209","1323012","0.0-92.0","battery-v0.2","","""event"",""trial"",""time""
""fullscreenenter"",""1"",""4020""
","
","
","""event"",""trial"",""time""
""fullscreenenter"",""1"",""4020""
","
","","","731.1999998092651","","","10","8931","3858","z","elianto","#3366ff99"," "," ","1","+10","[1582.8999998569489]","1","2","","","8931","88","4","1","win","go","0"
"pit-trial","210","1327865","0.0-93.0","battery-v0.2","","""event"",""trial"",""time""
""fullscreenenter"",""1"",""4020""
","
","
","""event"",""trial"",""time""
""fullscreenenter"",""1"",""4020""
","
","","","-1","","","10","8931","3858","b","elianto","#f73b6a7A"," ","-1","0","-10","[]","0","2","","","8931","89","6","3","lose","go","0"
"pit-trial","211","1331476","0.0-94.0","battery-v0.2","","""event"",""trial"",""time""
""fullscreenenter"",""1"",""4020""
","
","
","""event"",""trial"",""time""
""fullscreenenter"",""1"",""4020""
","
","","","756.5","","","10","8931","3858","t","elianto","#f73b6a7A","-1"," ","0","-10","[1607.7000000476837]","1","2","","","8931","90","7","4","lose","no-go","0"
"pit-trial","212","1335132","0.0-95.0","battery-v0.2","","""event"",""trial"",""time""
""fullscreenenter"",""1"",""4020""
","
","
","""event"",""trial"",""time""
""fullscreenenter"",""1"",""4020""
","
","","","802.8999998569489","","","10","8931","3858","c","elianto","#3366ff99","-1"," ","0","0","[1653.5]","1","2","","","8931","91","5","2","win","no-go","0"
"pit-trial","213","1338595","0.0-96.0","battery-v0.2","","""event"",""trial"",""time""
""fullscreenenter"",""1"",""4020""
","
","
","""event"",""trial"",""time""
""fullscreenenter"",""1"",""4020""
","
","","","610.0999999046326","","","10","8931","3858","z","elianto","#3366ff99"," "," ","1","+10","[1460.7999999523163]","1","2","","","8931","92","4","1","win","go","0"
"pit-trial","214","1343450","0.0-97.0","battery-v0.2","","""event"",""trial"",""time""
""fullscreenenter"",""1"",""4020""
","
","
","""event"",""trial"",""time""
""fullscreenenter"",""1"",""4020""
","
","","","-1","","","10","8931","3858","c","elianto","#3366ff99","-1","-1","1","+10","[]","0","2","","","8931","93","5","2","win","no-go","0"
"pit-trial","215","1347020","0.0-98.0","battery-v0.2","","""event"",""trial"",""time""
""fullscreenenter"",""1"",""4020""
","
","
","""event"",""trial"",""time""
""fullscreenenter"",""1"",""4020""
","
","","","717.2000000476837","","","10","8931","3858","t","elianto","#f73b6a7A","-1"," ","0","-10","[1568.1000001430511]","1","2","","","8931","94","7","4","lose","no-go","0"
"pit-trial","216","1350724","0.0-99.0","battery-v0.2","","""event"",""trial"",""time""
""fullscreenenter"",""1"",""4020""
","
","
","""event"",""trial"",""time""
""fullscreenenter"",""1"",""4020""
","
","","","851.3999998569489","","","10","8931","3858","b","elianto","#f73b6a7A"," "," ","1","0","[1701.5]","1","2","","","8931","95","6","3","lose","go","0"
"pit-trial","217","1355578","0.0-100.0","battery-v0.2","","""event"",""trial"",""time""
""fullscreenenter"",""1"",""4020""
","
","
","""event"",""trial"",""time""
""fullscreenenter"",""1"",""4020""
","
","","","-1","","","10","8931","3858","f","elianto","#3366ff99"," ","-1","0","0","[]","0","2","","","8931","96","8","1","win","go","0"
"pit-trial","218","1359581","0.0-101.0","battery-v0.2","","""event"",""trial"",""time""
""fullscreenenter"",""1"",""4020""
","
","
","""event"",""trial"",""time""
""fullscreenenter"",""1"",""4020""
","
","","","1148","","","10","8931","3858","t","elianto","#f73b6a7A","-1"," ","0","0","[1999.2999999523163]","1","2","","","8931","97","7","4","lose","no-go","1"
"pit-trial","219","1364436","0.0-102.0","battery-v0.2","","""event"",""trial"",""time""
""fullscreenenter"",""1"",""4020""
","
","
","""event"",""trial"",""time""
""fullscreenenter"",""1"",""4020""
","
","","","-1","","","10","8931","3858","c","elianto","#3366ff99","-1","-1","1","+10","[]","0","2","","","8931","98","5","2","win","no-go","0"
"pit-trial","220","1368061","0.0-103.0","battery-v0.2","","""event"",""trial"",""time""
""fullscreenenter"",""1"",""4020""
","
","
","""event"",""trial"",""time""
""fullscreenenter"",""1"",""4020""
","
","","","771.7000000476837","","","10","8931","3858","f","elianto","#3366ff99"," "," ","1","+10","[1622.5]","1","2","","","8931","99","8","1","win","go","0"
"pit-trial","221","1372012","0.0-104.0","battery-v0.2","","""event"",""trial"",""time""
""fullscreenenter"",""1"",""4020""
","
","
","""event"",""trial"",""time""
""fullscreenenter"",""1"",""4020""
","
","","","1097.2000000476837","","","10","8931","3858","b","elianto","#f73b6a7A"," "," ","1","0","[1948.6000001430511]","1","2","","","8931","100","6","3","lose","go","0"
"pit-trial","222","1376866","0.0-105.0","battery-v0.2","","""event"",""trial"",""time""
""fullscreenenter"",""1"",""4020""
","
","
","""event"",""trial"",""time""
""fullscreenenter"",""1"",""4020""
","
","","","-1","","","10","8931","3858","c","elianto","#3366ff99","-1","-1","1","0","[]","0","2","","","8931","101","5","2","win","no-go","1"
"pit-trial","223","1380516","0.0-106.0","battery-v0.2","","""event"",""trial"",""time""
""fullscreenenter"",""1"",""4020""
","
","
","""event"",""trial"",""time""
""fullscreenenter"",""1"",""4020""
","
","","","796.0999999046326","","","10","8931","3858","n","elianto","#3366ff99"," "," ","1","+10","[1647.0999999046326]","1","2","","","8931","102","9","1","win","go","0"
"pit-trial","224","1384148","0.0-107.0","battery-v0.2","","""event"",""trial"",""time""
""fullscreenenter"",""1"",""4020""
","
","
","""event"",""trial"",""time""
""fullscreenenter"",""1"",""4020""
","
","","","779.5999999046326","","","10","8931","3858","f","elianto","#3366ff99"," "," ","1","+10","[1629.5999999046326]","1","2","","","8931","103","8","1","win","go","0"
"pit-trial","225","1387869","0.0-108.0","battery-v0.2","","""event"",""trial"",""time""
""fullscreenenter"",""1"",""4020""
","
","
","""event"",""trial"",""time""
""fullscreenenter"",""1"",""4020""
","
","","","867.9000000953674","","","10","8931","3858","t","elianto","#f73b6a7A","-1"," ","0","0","[1718]","1","2","","","8931","104","7","4","lose","no-go","1"
"pit-trial","226","1391355","0.0-109.0","battery-v0.2","","""event"",""trial"",""time""
""fullscreenenter"",""1"",""4020""
","
","
","""event"",""trial"",""time""
""fullscreenenter"",""1"",""4020""
","
","","","632.5999999046326","","","10","8931","3858","z","elianto","#3366ff99"," "," ","1","+10","[1483.6000001430511]","1","2","","","8931","105","4","1","win","go","0"
"pit-trial","227","1394980","0.0-110.0","battery-v0.2","","""event"",""trial"",""time""
""fullscreenenter"",""1"",""4020""
","
","
","""event"",""trial"",""time""
""fullscreenenter"",""1"",""4020""
","
","","","771.9000000953674","","","10","8931","3858","n","elianto","#3366ff99"," "," ","1","+10","[1622.0999999046326]","1","2","","","8931","106","9","1","win","go","0"
"pit-trial","228","1398580","0.0-111.0","battery-v0.2","","""event"",""trial"",""time""
""fullscreenenter"",""1"",""4020""
","
","
","""event"",""trial"",""time""
""fullscreenenter"",""1"",""4020""
","
","","","746.2999999523163","","","10","8931","3858","f","elianto","#3366ff99"," "," ","1","+10","[1597.1999998092651]","1","2","","","8931","107","8","1","win","go","0"
"pit-trial","229","1402292","0.0-112.0","battery-v0.2","","""event"",""trial"",""time""
""fullscreenenter"",""1"",""4020""
","
","
","""event"",""trial"",""time""
""fullscreenenter"",""1"",""4020""
","
","","","858.3999998569489","","","10","8931","3858","b","elianto","#f73b6a7A"," "," ","1","0","[1709.2999999523163]","1","2","","","8931","108","6","3","lose","go","0"
"pit-trial","230","1405876","0.0-113.0","battery-v0.2","","""event"",""trial"",""time""
""fullscreenenter"",""1"",""4020""
","
","
","""event"",""trial"",""time""
""fullscreenenter"",""1"",""4020""
","
","","","728.5","","","10","8931","3858","f","elianto","#3366ff99"," "," ","1","+10","[1581.6000001430511]","1","2","","","8931","109","8","1","win","go","0"
"pit-trial","231","1409645","0.0-114.0","battery-v0.2","","""event"",""trial"",""time""
""fullscreenenter"",""1"",""4020""
","
","
","""event"",""trial"",""time""
""fullscreenenter"",""1"",""4020""
","
","","","913.2999999523163","","","10","8931","3858","c","elianto","#3366ff99","-1"," ","0","+10","[1765.0999999046326]","1","2","","","8931","110","5","2","win","no-go","1"
"pit-trial","232","1413372","0.0-115.0","battery-v0.2","","""event"",""trial"",""time""
""fullscreenenter"",""1"",""4020""
","
","
","""event"",""trial"",""time""
""fullscreenenter"",""1"",""4020""
","
","","","874.5","","","10","8931","3858","b","elianto","#f73b6a7A"," "," ","1","-10","[1724.5]","1","2","","","8931","111","6","3","lose","go","1"
"pit-trial","233","1417076","0.0-116.0","battery-v0.2","","""event"",""trial"",""time""
""fullscreenenter"",""1"",""4020""
","
","
","""event"",""trial"",""time""
""fullscreenenter"",""1"",""4020""
","
","","","850.1999998092651","","","10","8931","3858","n","elianto","#3366ff99"," "," ","1","0","[1701.5999999046326]","1","2","","","8931","112","9","1","win","go","1"
"pit-trial","234","1420732","0.0-117.0","battery-v0.2","","""event"",""trial"",""time""
""fullscreenenter"",""1"",""4020""
","
","
","""event"",""trial"",""time""
""fullscreenenter"",""1"",""4020""
","
","","","803.1999998092651","","","10","8931","3858","c","elianto","#3366ff99","-1"," ","0","0","[1653.4000000953674]","1","2","","","8931","113","5","2","win","no-go","0"
"pit-trial","235","1424405","0.0-118.0","battery-v0.2","","""event"",""trial"",""time""
""fullscreenenter"",""1"",""4020""
","
","
","""event"",""trial"",""time""
""fullscreenenter"",""1"",""4020""
","
","","","810.4000000953674","","","10","8931","3858","b","elianto","#f73b6a7A"," "," ","1","0","[1669.7000000476837]","1","2","","","8931","114","6","3","lose","go","0"
"pit-trial","236","1427780","0.0-119.0","battery-v0.2","","""event"",""trial"",""time""
""fullscreenenter"",""1"",""4020""
","
","
","""event"",""trial"",""time""
""fullscreenenter"",""1"",""4020""
","
","","","522.8000001907349","","","10","8931","3858","n","elianto","#3366ff99"," "," ","1","+10","[1373]","1","2","","","8931","115","9","1","win","go","0"
"pit-trial","237","1431347","0.0-120.0","battery-v0.2","","""event"",""trial"",""time""
""fullscreenenter"",""1"",""4020""
","
","
","""event"",""trial"",""time""
""fullscreenenter"",""1"",""4020""
","
","","","714.5","","","10","8931","3858","f","elianto","#3366ff99"," "," ","1","+10","[1564.7999999523163]","1","2","","","8931","116","8","1","win","go","0"
"pit-trial","238","1435204","0.0-121.0","battery-v0.2","","""event"",""trial"",""time""
""fullscreenenter"",""1"",""4020""
","
","
","""event"",""trial"",""time""
""fullscreenenter"",""1"",""4020""
","
","","","1003.7999999523163","","","10","8931","3858","b","elianto","#f73b6a7A"," "," ","1","0","[1853.7999999523163]","1","2","","","8931","117","6","3","lose","go","0"
"pit-trial","239","1438812","0.0-122.0","battery-v0.2","","""event"",""trial"",""time""
""fullscreenenter"",""1"",""4020""
","
","
","""event"",""trial"",""time""
""fullscreenenter"",""1"",""4020""
","
","","","754.2000000476837","","","10","8931","3858","n","elianto","#3366ff99"," "," ","1","+10","[1605.2999999523163,2164.899999856949,2540.5999999046326,2908.7999999523163,3221,3398.0999999046326]","6","2","","","8931","118","9","1","win","go","0"
"pit-trial","240","1442580","0.0-123.0","battery-v0.2","","""event"",""trial"",""time""
""fullscreenenter"",""1"",""4020""
","
","
","""event"",""trial"",""time""
""fullscreenenter"",""1"",""4020""
","
","","","914.2999999523163","","","10","8931","3858","f","elianto","#3366ff99"," "," ","1","+10","[134.40000009536743,1765]","2","2","","","8931","119","8","1","win","go","0"
"pit-trial","241","1446180","0.0-124.0","battery-v0.2","","""event"",""trial"",""time""
""fullscreenenter"",""1"",""4020""
","
","
","""event"",""trial"",""time""
""fullscreenenter"",""1"",""4020""
","
","","","744.7999999523163","","","10","8931","3858","c","elianto","#3366ff99","-1"," ","0","0","[1596.6000001430511]","1","2","","","8931","120","5","2","win","no-go","0"
"pit-trial","242","1449868","0.0-125.0","battery-v0.2","","""event"",""trial"",""time""
""fullscreenenter"",""1"",""4020""
","
","
","""event"",""trial"",""time""
""fullscreenenter"",""1"",""4020""
","
","","","835.4000000953674","","","10","8931","3858","t","elianto","#f73b6a7A","-1"," ","0","-10","[1685.4000000953674]","1","2","","","8931","121","7","4","lose","no-go","0"
"pit-trial","243","1453452","0.0-126.0","battery-v0.2","","""event"",""trial"",""time""
""fullscreenenter"",""1"",""4020""
","
","
","""event"",""trial"",""time""
""fullscreenenter"",""1"",""4020""
","
","","","731.2000000476837","","","10","8931","3858","n","elianto","#3366ff99"," "," ","1","0","[1581.6000001430511]","1","2","","","8931","122","9","1","win","go","1"
"pit-trial","244","1457341","0.0-127.0","battery-v0.2","","""event"",""trial"",""time""
""fullscreenenter"",""1"",""4020""
","
","
","""event"",""trial"",""time""
""fullscreenenter"",""1"",""4020""
","
","","","1036.5","","","10","8931","3858","b","elianto","#f73b6a7A"," "," ","1","0","[1887.2000000476837]","1","2","","","8931","123","6","3","lose","go","0"
"pit-trial","245","1460965","0.0-128.0","battery-v0.2","","""event"",""trial"",""time""
""fullscreenenter"",""1"",""4020""
","
","
","""event"",""trial"",""time""
""fullscreenenter"",""1"",""4020""
","
","","","769.4000000953674","","","10","8931","3858","f","elianto","#3366ff99"," "," ","1","+10","[1620.2000000476837]","1","2","","","8931","124","8","1","win","go","0"
"pit-trial","246","1464900","0.0-129.0","battery-v0.2","","""event"",""trial"",""time""
""fullscreenenter"",""1"",""4020""
","
","
","""event"",""trial"",""time""
""fullscreenenter"",""1"",""4020""
","
","","","1082.2999999523163","","","10","8931","3858","n","elianto","#3366ff99"," "," ","1","0","[1932.2999999523163,2116.199999809265]","2","2","","","8931","125","9","1","win","go","1"
"pit-trial","247","1468588","0.0-130.0","battery-v0.2","","""event"",""trial"",""time""
""fullscreenenter"",""1"",""4020""
","
","
","""event"",""trial"",""time""
""fullscreenenter"",""1"",""4020""
","
","","","834.9000000953674","","","10","8931","3858","b","elianto","#f73b6a7A"," "," ","1","0","[1685.7000000476837]","1","2","","","8931","126","6","3","lose","go","0"
"pit-trial","248","1472196","0.0-131.0","battery-v0.2","","""event"",""trial"",""time""
""fullscreenenter"",""1"",""4020""
","
","
","""event"",""trial"",""time""
""fullscreenenter"",""1"",""4020""
","
","","","754.3999998569489","","","10","8931","3858","f","elianto","#3366ff99"," "," ","1","+10","[1605]","1","2","","","8931","127","8","1","win","go","0"
"pit-trial","249","1476588","0.0-132.0","battery-v0.2","","""event"",""trial"",""time""
""fullscreenenter"",""1"",""4020""
","
","
","""event"",""trial"",""time""
""fullscreenenter"",""1"",""4020""
","
","","","1538.4000000953674","","","10","8931","3858","t","elianto","#f73b6a7A","-1"," ","0","-10","[2389.5]","1","2","","","8931","128","7","4","lose","no-go","0"
"pit-trial","250","1480300","0.0-133.0","battery-v0.2","","""event"",""trial"",""time""
""fullscreenenter"",""1"",""4020""
","
","
","""event"",""trial"",""time""
""fullscreenenter"",""1"",""4020""
","
","","","859","","","10","8931","3858","b","elianto","#f73b6a7A"," "," ","1","0","[1709.5]","1","2","","","8931","129","6","3","lose","go","0"
"pit-trial","251","1483876","0.0-134.0","battery-v0.2","","""event"",""trial"",""time""
""fullscreenenter"",""1"",""4020""
","
","
","""event"",""trial"",""time""
""fullscreenenter"",""1"",""4020""
","
","","","722.2999999523163","","","10","8931","3858","n","elianto","#3366ff99"," "," ","1","+10","[1573.7000000476837]","1","2","","","8931","130","9","1","win","go","0"
"pit-trial","252","1488729","0.0-135.0","battery-v0.2","","""event"",""trial"",""time""
""fullscreenenter"",""1"",""4020""
","
","
","""event"",""trial"",""time""
""fullscreenenter"",""1"",""4020""
","
","","","-1","","","10","8931","3858","t","elianto","#f73b6a7A","-1","-1","1","0","[]","0","2","","","8931","131","7","4","lose","no-go","0"
"pit-trial","253","1492669","0.0-136.0","battery-v0.2","","""event"",""trial"",""time""
""fullscreenenter"",""1"",""4020""
","
","
","""event"",""trial"",""time""
""fullscreenenter"",""1"",""4020""
","
","","","1085.0999999046326","","","10","8931","3858","f","elianto","#3366ff99"," "," ","1","+10","[1936.7000000476837]","1","2","","","8931","132","8","1","win","go","0"
"pit-trial","254","1496333","0.0-137.0","battery-v0.2","","""event"",""trial"",""time""
""fullscreenenter"",""1"",""4020""
","
","
","""event"",""trial"",""time""
""fullscreenenter"",""1"",""4020""
","
","","","811.0999999046326","","","10","8931","3858","n","elianto","#3366ff99"," "," ","1","+10","[1661.4000000953674]","1","2","","","8931","133","9","1","win","go","0"
"pit-trial","255","1499796","0.0-138.0","battery-v0.2","","""event"",""trial"",""time""
""fullscreenenter"",""1"",""4020""
","
","
","""event"",""trial"",""time""
""fullscreenenter"",""1"",""4020""
","
","","","610.4000000953674","","","10","8931","3858","f","elianto","#3366ff99"," "," ","1","+10","[1460.5]","1","2","","","8931","134","8","1","win","go","0"
"pit-trial","256","1504650","0.0-139.0","battery-v0.2","","""event"",""trial"",""time""
""fullscreenenter"",""1"",""4020""
","
","
","""event"",""trial"",""time""
""fullscreenenter"",""1"",""4020""
","
","","","-1","","","10","8931","3858","t","elianto","#f73b6a7A","-1","-1","1","0","[]","0","2","","","8931","135","7","4","lose","no-go","0"
"pit-trial","257","1508508","0.0-140.0","battery-v0.2","","""event"",""trial"",""time""
""fullscreenenter"",""1"",""4020""
","
","
","""event"",""trial"",""time""
""fullscreenenter"",""1"",""4020""
","
","","","1005.2000000476837","","","10","8931","3858","b","elianto","#f73b6a7A"," "," ","1","0","[1856.0999999046326]","1","2","","","8931","136","6","3","lose","go","0"
"pit-trial","258","1512645","0.0-141.0","battery-v0.2","","""event"",""trial"",""time""
""fullscreenenter"",""1"",""4020""
","
","
","""event"",""trial"",""time""
""fullscreenenter"",""1"",""4020""
","
","","","1282.8999998569489","","","10","8931","3858","b","elianto","#f73b6a7A"," "," ","1","0","[2133.100000143051]","1","2","","","8931","137","6","3","lose","go","0"
"pit-trial","259","1516156","0.0-142.0","battery-v0.2","","""event"",""trial"",""time""
""fullscreenenter"",""1"",""4020""
","
","
","""event"",""trial"",""time""
""fullscreenenter"",""1"",""4020""
","
","","","657.5999999046326","","","10","8931","3858","n","elianto","#3366ff99"," "," ","1","+10","[1508.3999998569489]","1","2","","","8931","138","9","1","win","go","0"
"pit-trial","260","1521010","0.0-143.0","battery-v0.2","","""event"",""trial"",""time""
""fullscreenenter"",""1"",""4020""
","
","
","""event"",""trial"",""time""
""fullscreenenter"",""1"",""4020""
","
","","","-1","","","10","8931","3858","t","elianto","#f73b6a7A","-1","-1","1","0","[]","0","2","","","8931","139","7","4","lose","no-go","0"
"pit-trial","261","1524901","0.0-144.0","battery-v0.2","","""event"",""trial"",""time""
""fullscreenenter"",""1"",""4020""
","
","
","""event"",""trial"",""time""
""fullscreenenter"",""1"",""4020""
","
","","","1037.6999998092651","","","10","8931","3858","f","elianto","#3366ff99"," "," ","1","0","[1888.2999999523163]","1","2","","","8931","140","8","1","win","go","1"
"pit-instructions","262","1550952","0.0-145.0","battery-v0.2","","""event"",""trial"",""time""
""fullscreenenter"",""1"",""4020""
","
","
