"trial_type","trial_index","time_elapsed","internal_node_id","task_version","subject_id","interactions","blur_events","focus_events","fullscreenenter_events","fullscreenexit_events","success","view_history","rt","responses","num_errors","age","subject","participantId","rune","rune_set","hex","correct","choice","accuracy","outcome","keys","total_keys","block","practice","value","sub","trial","stimulus","robot","valence","action","sham"
"pavlovia","0","21","0.0-0.0","battery-v0.2","","""event"",""trial"",""time""
""fullscreenenter"",""1"",""11238""
","
","
","""event"",""trial"",""time""
""fullscreenenter"",""1"",""11238""
","
","","","","","","","","","","","","","","","","","","","","","","","","","","",""
"fullscreen","1","12176","0.0-1.0","battery-v0.2","","""event"",""trial"",""time""
""fullscreenenter"",""1"",""11238""
","
","
","""event"",""trial"",""time""
""fullscreenenter"",""1"",""11238""
","
","true","","","","","","","","","","","","","","","","","","","","","","","","","",""
"pit-instructions","2","15773","0.0-2.0-0.0","battery-v0.2","","""event"",""trial"",""time""
""fullscreenenter"",""1"",""11238""
","
","
","""event"",""trial"",""time""
""fullscreenenter"",""1"",""11238""
","
","","[{""page_index"":0,""viewing_time"":3578.2999999970198}]","3580.2999999970198","","","","","","","","","","","","","","","","","","","","","","","",""
"pit-comprehension","3","19222","0.0-2.0-1.0-0.0","battery-v0.2","","""event"",""trial"",""time""
""fullscreenenter"",""1"",""11238""
","
","
","""event"",""trial"",""time""
""fullscreenenter"",""1"",""11238""
","
","","","3424.599999997765","[""shark""]","0","14","20705","2414","","","","","","","","","","","","","","","","","","",""
"pit-instructions","4","26197","0.0-2.0-1.0-1.0","battery-v0.2","","""event"",""trial"",""time""
""fullscreenenter"",""1"",""11238""
","
","
","""event"",""trial"",""time""
""fullscreenenter"",""1"",""11238""
","
","","[{""page_index"":0,""viewing_time"":6949.800000000745}]","6951.400000002235","","","","","","","","","","","","","","","","","","","","","","","",""
"pit-comprehension","5","29130","0.0-2.0-2.0-0.0","battery-v0.2","","""event"",""trial"",""time""
""fullscreenenter"",""1"",""11238""
","
","
","""event"",""trial"",""time""
""fullscreenenter"",""1"",""11238""
","
","","","2916.60000000149","[""tiger""]","0","14","20705","2414","","","","","","","","","","","","","","","","","","",""
"pit-instructions","6","30630","0.0-2.0-2.0-1.0","battery-v0.2","","""event"",""trial"",""time""
""fullscreenenter"",""1"",""11238""
","
","
","""event"",""trial"",""time""
""fullscreenenter"",""1"",""11238""
","
","","[{""page_index"":0,""viewing_time"":1485.1000000014901}]","1486.699999999255","","","","","","","","","","","","","","","","","","","","","","","",""
"pit-instructions","7","277716","0.0-2.0-3.0","battery-v0.2","","""event"",""trial"",""time""
""fullscreenenter"",""1"",""11238""
","
","
","""event"",""trial"",""time""
""fullscreenenter"",""1"",""11238""
","
","","[{""page_index"":0,""viewing_time"":22570.5},{""page_index"":1,""viewing_time"":5507.39999999851},{""page_index"":2,""viewing_time"":6186.60000000149},{""page_index"":3,""viewing_time"":5220.89999999851},{""page_index"":4,""viewing_time"":6597.70000000298},{""page_index"":5,""viewing_time"":71542.89999999851},{""page_index"":6,""viewing_time"":14082},{""page_index"":7,""viewing_time"":7108.199999999255},{""page_index"":8,""viewing_time"":22501.10000000149},{""page_index"":9,""viewing_time"":33451.5},{""page_index"":10,""viewing_time"":17099.099999997765},{""page_index"":11,""viewing_time"":12489.10000000149},{""page_index"":12,""viewing_time"":13729.10000000149},{""page_index"":13,""viewing_time"":8987.699999999255}]","247075.3999999985","","","","","","","","","","","","","","","","","","","","","","","",""
"pit-trial","8","281619","0.0-2.0-4.0-0.0","battery-v0.2","","""event"",""trial"",""time""
""fullscreenenter"",""1"",""11238""
","
","
","""event"",""trial"",""time""
""fullscreenenter"",""1"",""11238""
","
","","","1040.199999999255","","","14","20705","2414","&#9784;","elianto","#FFFFF080"," "," ","1","&#10004","[1890.199999999255]","1","0","0","","","","","","","",""
"pit-trial","9","285109","0.0-2.0-4.1-0.1","battery-v0.2","","""event"",""trial"",""time""
""fullscreenenter"",""1"",""11238""
","
","
","""event"",""trial"",""time""
""fullscreenenter"",""1"",""11238""
","
","","","627.5","","","14","20705","2414","&#9784;","elianto","#FFFFF080"," "," ","1","&#10004","[1478.1000000014901,2222.199999999255,2718.5,3088.699999999255,3426.60000000149]","5","0","0","","","","","","","",""
"pit-trial","10","288204","0.0-2.0-4.2-0.2","battery-v0.2","","""event"",""trial"",""time""
""fullscreenenter"",""1"",""11238""
","
","
","""event"",""trial"",""time""
""fullscreenenter"",""1"",""11238""
","
","","","234.20000000298023","","","14","20705","2414","&#9784;","elianto","#FFFFF080"," "," ","1","&#10004","[362.8999999985099,699.8999999985099,1084.3999999985099,1426.0999999977648,1946.0999999977648,2537.5,2722.199999999255]","7","0","0","","","","","","","",""
"pit-trial","11","291140","0.0-2.0-4.3-0.3","battery-v0.2","","""event"",""trial"",""time""
""fullscreenenter"",""1"",""11238""
","
","
","""event"",""trial"",""time""
""fullscreenenter"",""1"",""11238""
","
","","","77.10000000149012","","","14","20705","2414","&#9784;","elianto","#FFFFF080"," "," ","1","&#10004","[28.599999997764826,214.09999999776483,489,698.3999999985099,928.0999999977648,1114.199999999255,1680.199999999255,1842.3999999985099,2084.2999999970198,2270.699999999255,2501.39999999851,2710.099999997765]","12","0","0","","","","","","","",""
"pit-trial","12","294011","0.0-2.0-4.4-0.4","battery-v0.2","","""event"",""trial"",""time""
""fullscreenenter"",""1"",""11238""
","
","
","""event"",""trial"",""time""
""fullscreenenter"",""1"",""11238""
","
","","","11.5","","","14","20705","2414","&#9784;","elianto","#FFFFF080"," "," ","1","&#10004","[11.900000002235174,234.20000000298023,445.80000000074506,648.8000000007451,862.1000000014901,1586,1793.800000000745,2003,2210.7000000029802,2417.800000000745,2650.5,2834.900000002235]","12","0","0","","","","","","","",""
"pit-instructions","13","344615","0.0-2.0-5.0","battery-v0.2","","""event"",""trial"",""time""
""fullscreenenter"",""1"",""11238""
","
","
","""event"",""trial"",""time""
""fullscreenenter"",""1"",""11238""
","
","","[{""page_index"":0,""viewing_time"":21302.39999999851},{""page_index"":1,""viewing_time"":5648.5},{""page_index"":2,""viewing_time"":4263.5},{""page_index"":3,""viewing_time"":19378.800000000745}]","50594.79999999702","","","","","","","","","","","","","","","","","","","","","","","",""
"pit-trial","14","349478","0.0-2.0-6.0-0.0","battery-v0.2","","""event"",""trial"",""time""
""fullscreenenter"",""1"",""11238""
","
","
","""event"",""trial"",""time""
""fullscreenenter"",""1"",""11238""
","
","","","-1","","","14","20705","2414","&#9854;","elianto","#FFFFF080","-1","-1","1","&#10004","[]","0","0","1","","","","","","","",""
"pit-trial","15","354337","0.0-2.0-6.1-0.1","battery-v0.2","","""event"",""trial"",""time""
""fullscreenenter"",""1"",""11238""
","
","
","""event"",""trial"",""time""
""fullscreenenter"",""1"",""11238""
","
","","","-1","","","14","20705","2414","&#9854;","elianto","#FFFFF080","-1","-1","1","&#10004","[]","0","0","1","","","","","","","",""
"pit-trial","16","359195","0.0-2.0-6.2-0.2","battery-v0.2","","""event"",""trial"",""time""
""fullscreenenter"",""1"",""11238""
","
","
","""event"",""trial"",""time""
""fullscreenenter"",""1"",""11238""
","
","","","-1","","","14","20705","2414","&#9854;","elianto","#FFFFF080","-1","-1","1","&#10004","[]","0","0","1","","","","","","","",""
"pit-trial","17","364052","0.0-2.0-6.3-0.3","battery-v0.2","","""event"",""trial"",""time""
""fullscreenenter"",""1"",""11238""
","
","
","""event"",""trial"",""time""
""fullscreenenter"",""1"",""11238""
","
","","","-1","","","14","20705","2414","&#9854;","elianto","#FFFFF080","-1","-1","1","&#10004","[]","0","0","1","","","","","","","",""
"pit-trial","18","368909","0.0-2.0-6.4-0.4","battery-v0.2","","""event"",""trial"",""time""
""fullscreenenter"",""1"",""11238""
","
","
","""event"",""trial"",""time""
""fullscreenenter"",""1"",""11238""
","
","","","-1","","","14","20705","2414","&#9854;","elianto","#FFFFF080","-1","-1","1","&#10004","[]","0","0","1","","","","","","","",""
"pit-instructions","19","602479","0.0-2.0-7.0","battery-v0.2","","""event"",""trial"",""time""
""fullscreenenter"",""1"",""11238""
","
","
","""event"",""trial"",""time""
""fullscreenenter"",""1"",""11238""
","
","","[{""page_index"":0,""viewing_time"":24421.800000000745},{""page_index"":1,""viewing_time"":31011.199999999255},{""page_index"":2,""viewing_time"":10285.300000000745},{""page_index"":3,""viewing_time"":25791},{""page_index"":4,""viewing_time"":5805.300000000745},{""page_index"":5,""viewing_time"":5072.199999999255},{""page_index"":6,""viewing_time"":9266.599999997765},{""page_index"":7,""viewing_time"":16455.400000002235},{""page_index"":8,""viewing_time"":21797.699999999255},{""page_index"":9,""viewing_time"":5823.699999999255},{""page_index"":10,""viewing_time"":15264.800000000745},{""page_index"":11,""viewing_time"":7604.699999999255},{""page_index"":12,""viewing_time"":9819.300000000745},{""page_index"":13,""viewing_time"":6614.10000000149},{""page_index"":14,""viewing_time"":11806.89999999851},{""page_index"":15,""viewing_time"":8437.10000000149},{""page_index"":16,""viewing_time"":11137.79999999702},{""page_index"":17,""viewing_time"":7145.10000000149}]","233561.1000000015","","","","","","","","","","","","","","","","","","","","","","","",""
"pit-trial","20","606704","0.0-2.0-8.0-0.0","battery-v0.2","","""event"",""trial"",""time""
""fullscreenenter"",""1"",""11238""
","
","
","""event"",""trial"",""time""
""fullscreenenter"",""1"",""11238""
","
","","","1361.8999999985099","","","14","20705","2414","&#9776;","elianto","#3366ff99"," "," ","1","+10","[2216.5]","1","0","1","","","","","","","",""
"pit-trial","21","610329","0.0-2.0-8.0-1.0","battery-v0.2","","""event"",""trial"",""time""
""fullscreenenter"",""1"",""11238""
","
","
","""event"",""trial"",""time""
""fullscreenenter"",""1"",""11238""
","
","","","768.0999999977648","","","14","20705","2414","&#9776;","elianto","#3366ff99"," "," ","1","+10","[1618.2000000029802]","1","0","1","","","","","","","",""
"pit-trial","22","614419","0.0-2.0-8.0-2.0","battery-v0.2","","""event"",""trial"",""time""
""fullscreenenter"",""1"",""11238""
","
","
","""event"",""trial"",""time""
""fullscreenenter"",""1"",""11238""
","
","","","1233.300000000745","","","14","20705","2414","&#9776;","elianto","#3366ff99"," "," ","1","+10","[2083.60000000149,3694.800000000745,4073.39999999851]","3","0","1","","","","","","","",""
"pit-trial","23","617551","0.0-2.0-8.0-3.0","battery-v0.2","","""event"",""trial"",""time""
""fullscreenenter"",""1"",""11238""
","
","
","""event"",""trial"",""time""
""fullscreenenter"",""1"",""11238""
","
","","","270.80000000074506","","","14","20705","2414","&#9776;","elianto","#3366ff99"," "," ","1","0","[386.30000000074506,623.8000000007451,1125.800000000745,1386.5,1665.4000000022352,1943.5,2231.800000000745,2553.60000000149,2863.300000000745]","9","0","1","","","","","","","",""
"pit-trial","24","620477","0.0-2.0-8.0-4.0","battery-v0.2","","""event"",""trial"",""time""
""fullscreenenter"",""1"",""11238""
","
","
","""event"",""trial"",""time""
""fullscreenenter"",""1"",""11238""
","
","","","68","","","14","20705","2414","&#9776;","elianto","#3366ff99"," "," ","1","+10","[16.5,344.80000000074506,636.1000000014901,919.3000000007451,1207.800000000745,1446.699999999255,1721.9000000022352,1999.5,2481,2852.5]","10","0","1","","","","","","","",""
"pit-trial","25","623402","0.0-2.0-8.1-0.1","battery-v0.2","","""event"",""trial"",""time""
""fullscreenenter"",""1"",""11238""
","
","
","""event"",""trial"",""time""
""fullscreenenter"",""1"",""11238""
","
","","","63.20000000298023","","","14","20705","2414","&#9776;","elianto","#3366ff99"," "," ","1","+10","[224,430.5999999977648,709.0999999977648,917.1999999992549,1032.199999999255,1126.3999999985099,1240.5999999977648,1358,1451.0999999977648,1587.8999999985099,1703,1819.300000000745,1934.699999999255,2074.599999997765,2189.5,2306.300000000745,2420.300000000745,2513.699999999255,2652.300000000745,2767.599999997765,2883.5]","21","0","1","","","","","","","",""
"pit-trial","26","626338","0.0-2.0-8.1-1.1","battery-v0.2","","""event"",""trial"",""time""
""fullscreenenter"",""1"",""11238""
","
","
","""event"",""trial"",""time""
""fullscreenenter"",""1"",""11238""
","
","","","78.89999999850988","","","14","20705","2414","&#9776;","elianto","#3366ff99"," "," ","1","+10","[73.69999999925494,190,322.8999999985099,419.5999999977648,545,663.1999999992549,782.1999999992549,929.0999999977648,1029.5999999977648,1257.199999999255,2111.2999999970198,2485.599999997765]","12","0","1","","","","","","","",""
"pit-trial","27","629570","0.0-2.0-8.1-2.1","battery-v0.2","","""event"",""trial"",""time""
""fullscreenenter"",""1"",""11238""
","
","
","""event"",""trial"",""time""
""fullscreenenter"",""1"",""11238""
","
","","","376.0999999977648","","","14","20705","2414","&#9776;","elianto","#3366ff99"," "," ","1","+10","[7.900000002235174,412.80000000074506,1226.4000000022352,1697.699999999255,2102.800000000745,2536.699999999255,3146.699999999255]","7","0","1","","","","","","","",""
"pit-trial","28","632781","0.0-2.0-8.1-3.1","battery-v0.2","","""event"",""trial"",""time""
""fullscreenenter"",""1"",""11238""
","
","
","""event"",""trial"",""time""
""fullscreenenter"",""1"",""11238""
","
","","","351.5","","","14","20705","2414","&#9776;","elianto","#3366ff99"," "," ","1","0","[254.90000000223517,771.6000000014901,1203.800000000745,2031.2000000029802,2312.400000002235,2629,3108.7000000029802]","7","0","1","","","","","","","",""
"pit-trial","29","635961","0.0-2.0-8.1-4.1","battery-v0.2","","""event"",""trial"",""time""
""fullscreenenter"",""1"",""11238""
","
","
","""event"",""trial"",""time""
""fullscreenenter"",""1"",""11238""
","
","","","323.5","","","14","20705","2414","&#9776;","elianto","#3366ff99"," "," ","1","+10","[216.89999999850988,487.3999999985099,826.3000000007451,1173.5999999977648,1593.5,2314,2704.099999997765,2996.699999999255]","8","0","1","","","","","","","",""
"pit-trial","30","638941","0.0-2.0-8.2-0.2","battery-v0.2","","""event"",""trial"",""time""
""fullscreenenter"",""1"",""11238""
","
","
","""event"",""trial"",""time""
""fullscreenenter"",""1"",""11238""
","
","","","117.69999999925494","","","14","20705","2414","&#9776;","elianto","#3366ff99"," "," ","1","+10","[114.30000000074506,414.8999999985099,972.1999999992549,1487.0999999977648,1744.5999999977648,2099,2408,2844.699999999255]","8","0","1","","","","","","","",""
"pit-trial","31","641806","0.0-2.0-8.2-1.2","battery-v0.2","","""event"",""trial"",""time""
""fullscreenenter"",""1"",""11238""
","
","
","""event"",""trial"",""time""
""fullscreenenter"",""1"",""11238""
","
","","","8.600000001490116","","","14","20705","2414","&#9776;","elianto","#3366ff99"," "," ","1","+10","[173,526.1999999992549,858.7999999970198,1138.5999999977648,1545.7999999970198,1938.5,2353.199999999255,2738.39999999851]","8","0","1","","","","","","","",""
"pit-trial","32","644821","0.0-2.0-8.2-2.2","battery-v0.2","","""event"",""trial"",""time""
""fullscreenenter"",""1"",""11238""
","
","
","""event"",""trial"",""time""
""fullscreenenter"",""1"",""11238""
","
","","","153.90000000223517","","","14","20705","2414","&#9776;","elianto","#3366ff99"," "," ","1","+10","[262,695.8000000007451,1008.5,1318.5,1691.8999999985099,1996.8999999985099,2406.5,2768.39999999851]","8","0","1","","","","","","","",""
"pit-trial","33","647980","0.0-2.0-8.2-3.2","battery-v0.2","","""event"",""trial"",""time""
""fullscreenenter"",""1"",""11238""
","
","
","""event"",""trial"",""time""
""fullscreenenter"",""1"",""11238""
","
","","","298.80000000074506","","","14","20705","2414","&#9776;","elianto","#3366ff99"," "," ","1","0","[95.39999999850988,427.69999999925494,755.8999999985099,1153,1463.800000000745,1739.5999999977648,2076.199999999255]","7","0","1","","","","","","","",""
"pit-trial","34","652836","0.0-2.0-8.2-4.2","battery-v0.2","","""event"",""trial"",""time""
""fullscreenenter"",""1"",""11238""
","
","
","""event"",""trial"",""time""
""fullscreenenter"",""1"",""11238""
","
","","","-1","","","14","20705","2414","&#9776;","elianto","#3366ff99"," ","-1","0","0","[]","0","0","1","","","","","","","",""
"call-function","35","652843","0.0-2.0-9.0","battery-v0.2","","""event"",""trial"",""time""
""fullscreenenter"",""1"",""11238""
","
","
","""event"",""trial"",""time""
""fullscreenenter"",""1"",""11238""
","
","","","","","","","","","","","","","","","","","","","","","","","","","","",""
"pit-instructions","36","718619","0.0-2.0-10.0","battery-v0.2","","""event"",""trial"",""time""
""fullscreenenter"",""1"",""11238""
","
","
","""event"",""trial"",""time""
""fullscreenenter"",""1"",""11238""
","
","","[{""page_index"":0,""viewing_time"":21944.599999997765},{""page_index"":1,""viewing_time"":13744},{""page_index"":2,""viewing_time"":12076.20000000298},{""page_index"":3,""viewing_time"":8813.79999999702},{""page_index"":4,""viewing_time"":9193.900000002235}]","65774","","","","","","","","","","","","","","","","","","","","","","","",""
"pit-trial","37","723477","0.0-2.0-11.0-0.0","battery-v0.2","","""event"",""trial"",""time""
""fullscreenenter"",""1"",""11238""
","
","
","""event"",""trial"",""time""
""fullscreenenter"",""1"",""11238""
","
","","","-1","","","14","20705","2414","&#9761;","elianto","#3366ff99","-1","-1","1","+10","[208.59999999776483]","1","0","2","","","","","","","",""
"pit-trial","38","727102","0.0-2.0-11.0-1.0","battery-v0.2","","""event"",""trial"",""time""
""fullscreenenter"",""1"",""11238""
","
","
","""event"",""trial"",""time""
""fullscreenenter"",""1"",""11238""
","
","","","767.3000000007451","","","14","20705","2414","&#9761;","elianto","#3366ff99","-1"," ","0","0","[1617.699999999255]","1","0","2","","","","","","","",""
"pit-trial","39","731959","0.0-2.0-11.0-2.0","battery-v0.2","","""event"",""trial"",""time""
""fullscreenenter"",""1"",""11238""
","
","
","""event"",""trial"",""time""
""fullscreenenter"",""1"",""11238""
","
","","","-1","","","14","20705","2414","&#9761;","elianto","#3366ff99","-1","-1","1","+10","[]","0","0","2","","","","","","","",""
"pit-trial","40","736816","0.0-2.0-11.0-3.0","battery-v0.2","","""event"",""trial"",""time""
""fullscreenenter"",""1"",""11238""
","
","
","""event"",""trial"",""time""
""fullscreenenter"",""1"",""11238""
","
","","","-1","","","14","20705","2414","&#9761;","elianto","#3366ff99","-1","-1","1","0","[]","0","0","2","","","","","","","",""
"pit-trial","41","741673","0.0-2.0-11.0-4.0","battery-v0.2","","""event"",""trial"",""time""
""fullscreenenter"",""1"",""11238""
","
","
","""event"",""trial"",""time""
""fullscreenenter"",""1"",""11238""
","
","","","-1","","","14","20705","2414","&#9761;","elianto","#3366ff99","-1","-1","1","+10","[]","0","0","2","","","","","","","",""
"pit-trial","42","746530","0.0-2.0-11.1-0.1","battery-v0.2","","""event"",""trial"",""time""
""fullscreenenter"",""1"",""11238""
","
","
","""event"",""trial"",""time""
""fullscreenenter"",""1"",""11238""
","
","","","-1","","","14","20705","2414","&#9761;","elianto","#3366ff99","-1","-1","1","+10","[]","0","0","2","","","","","","","",""
"pit-trial","43","751387","0.0-2.0-11.1-1.1","battery-v0.2","","""event"",""trial"",""time""
""fullscreenenter"",""1"",""11238""
","
","
","""event"",""trial"",""time""
""fullscreenenter"",""1"",""11238""
","
","","","-1","","","14","20705","2414","&#9761;","elianto","#3366ff99","-1","-1","1","+10","[]","0","0","2","","","","","","","",""
"pit-trial","44","756244","0.0-2.0-11.1-2.1","battery-v0.2","","""event"",""trial"",""time""
""fullscreenenter"",""1"",""11238""
","
","
","""event"",""trial"",""time""
""fullscreenenter"",""1"",""11238""
","
","","","-1","","","14","20705","2414","&#9761;","elianto","#3366ff99","-1","-1","1","+10","[]","0","0","2","","","","","","","",""
"pit-trial","45","761101","0.0-2.0-11.1-3.1","battery-v0.2","","""event"",""trial"",""time""
""fullscreenenter"",""1"",""11238""
","
","
","""event"",""trial"",""time""
""fullscreenenter"",""1"",""11238""
","
","","","-1","","","14","20705","2414","&#9761;","elianto","#3366ff99","-1","-1","1","0","[]","0","0","2","","","","","","","",""
"pit-trial","46","765957","0.0-2.0-11.1-4.1","battery-v0.2","","""event"",""trial"",""time""
""fullscreenenter"",""1"",""11238""
","
","
","""event"",""trial"",""time""
""fullscreenenter"",""1"",""11238""
","
","","","-1","","","14","20705","2414","&#9761;","elianto","#3366ff99","-1","-1","1","+10","[]","0","0","2","","","","","","","",""
"pit-trial","47","770815","0.0-2.0-11.2-0.2","battery-v0.2","","""event"",""trial"",""time""
""fullscreenenter"",""1"",""11238""
","
","
","""event"",""trial"",""time""
""fullscreenenter"",""1"",""11238""
","
","","","-1","","","14","20705","2414","&#9761;","elianto","#3366ff99","-1","-1","1","+10","[]","0","0","2","","","","","","","",""
"pit-trial","48","775673","0.0-2.0-11.2-1.2","battery-v0.2","","""event"",""trial"",""time""
""fullscreenenter"",""1"",""11238""
","
","
","""event"",""trial"",""time""
""fullscreenenter"",""1"",""11238""
","
","","","-1","","","14","20705","2414","&#9761;","elianto","#3366ff99","-1","-1","1","+10","[]","0","0","2","","","","","","","",""
"pit-trial","49","780531","0.0-2.0-11.2-2.2","battery-v0.2","","""event"",""trial"",""time""
""fullscreenenter"",""1"",""11238""
","
","
","""event"",""trial"",""time""
""fullscreenenter"",""1"",""11238""
","
","","","-1","","","14","20705","2414","&#9761;","elianto","#3366ff99","-1","-1","1","+10","[]","0","0","2","","","","","","","",""
"pit-trial","50","785387","0.0-2.0-11.2-3.2","battery-v0.2","","""event"",""trial"",""time""
""fullscreenenter"",""1"",""11238""
","
","
","""event"",""trial"",""time""
""fullscreenenter"",""1"",""11238""
","
","","","-1","","","14","20705","2414","&#9761;","elianto","#3366ff99","-1","-1","1","0","[]","0","0","2","","","","","","","",""
"pit-trial","51","790245","0.0-2.0-11.2-4.2","battery-v0.2","","""event"",""trial"",""time""
""fullscreenenter"",""1"",""11238""
","
","
","""event"",""trial"",""time""
""fullscreenenter"",""1"",""11238""
","
","","","-1","","","14","20705","2414","&#9761;","elianto","#3366ff99","-1","-1","1","+10","[]","0","0","2","","","","","","","",""
"pit-trial","52","795103","0.0-2.0-11.3-0.3","battery-v0.2","","""event"",""trial"",""time""
""fullscreenenter"",""1"",""11238""
","
","
","""event"",""trial"",""time""
""fullscreenenter"",""1"",""11238""
","
","","","-1","","","14","20705","2414","&#9761;","elianto","#3366ff99","-1","-1","1","+10","[]","0","0","2","","","","","","","",""
"pit-trial","53","799961","0.0-2.0-11.3-1.3","battery-v0.2","","""event"",""trial"",""time""
""fullscreenenter"",""1"",""11238""
","
","
","""event"",""trial"",""time""
""fullscreenenter"",""1"",""11238""
","
","","","-1","","","14","20705","2414","&#9761;","elianto","#3366ff99","-1","-1","1","+10","[]","0","0","2","","","","","","","",""
"pit-trial","54","804817","0.0-2.0-11.3-2.3","battery-v0.2","","""event"",""trial"",""time""
""fullscreenenter"",""1"",""11238""
","
","
","""event"",""trial"",""time""
""fullscreenenter"",""1"",""11238""
","
","","","-1","","","14","20705","2414","&#9761;","elianto","#3366ff99","-1","-1","1","+10","[]","0","0","2","","","","","","","",""
"pit-trial","55","809675","0.0-2.0-11.3-3.3","battery-v0.2","","""event"",""trial"",""time""
""fullscreenenter"",""1"",""11238""
","
","
","""event"",""trial"",""time""
""fullscreenenter"",""1"",""11238""
","
","","","-1","","","14","20705","2414","&#9761;","elianto","#3366ff99","-1","-1","1","0","[]","0","0","2","","","","","","","",""
"pit-trial","56","814533","0.0-2.0-11.3-4.3","battery-v0.2","","""event"",""trial"",""time""
""fullscreenenter"",""1"",""11238""
","
","
","""event"",""trial"",""time""
""fullscreenenter"",""1"",""11238""
","
","","","-1","","","14","20705","2414","&#9761;","elianto","#3366ff99","-1","-1","1","+10","[]","0","0","2","","","","","","","",""
"call-function","57","814538","0.0-2.0-12.0","battery-v0.2","","""event"",""trial"",""time""
""fullscreenenter"",""1"",""11238""
","
","
","""event"",""trial"",""time""
""fullscreenenter"",""1"",""11238""
","
","","","","","","","","","","","","","","","","","","","","","","","","","","",""
"pit-instructions","58","853112","0.0-2.0-13.0","battery-v0.2","","""event"",""trial"",""time""
""fullscreenenter"",""1"",""11238""
","
","
","""event"",""trial"",""time""
""fullscreenenter"",""1"",""11238""
","
","","[{""page_index"":0,""viewing_time"":14685.199999999255},{""page_index"":1,""viewing_time"":6043.10000000149},{""page_index"":2,""viewing_time"":3139.800000000745},{""page_index"":3,""viewing_time"":10425},{""page_index"":4,""viewing_time"":4276.800000000745}]","38571","","","","","","","","","","","","","","","","","","","","","","","",""
"pit-trial","59","856238","0.0-2.0-14.0-0.0","battery-v0.2","","""event"",""trial"",""time""
""fullscreenenter"",""1"",""11238""
","
","
","""event"",""trial"",""time""
""fullscreenenter"",""1"",""11238""
","
","","","267.8999999985099","","","14","20705","2414","&#9826;","elianto","#f73b6a7A","-1"," ","0","-10","[218.69999999925494,667.1999999992549,1118.699999999255,1548.5999999977648,2045.199999999255,2508.099999997765]","6","0","3","","","","","","","",""
"pit-trial","60","859810","0.0-2.0-14.0-1.0","battery-v0.2","","""event"",""trial"",""time""
""fullscreenenter"",""1"",""11238""
","
","
","""event"",""trial"",""time""
""fullscreenenter"",""1"",""11238""
","
","","","715.5","","","14","20705","2414","&#9826;","elianto","#f73b6a7A","-1"," ","0","-10","[1565.5999999977648]","1","0","3","","","","","","","",""
"pit-trial","61","864668","0.0-2.0-14.0-2.0","battery-v0.2","","""event"",""trial"",""time""
""fullscreenenter"",""1"",""11238""
","
","
","""event"",""trial"",""time""
""fullscreenenter"",""1"",""11238""
","
","","","-1","","","14","20705","2414","&#9826;","elianto","#f73b6a7A","-1","-1","1","0","[]","0","0","3","","","","","","","",""
"pit-trial","62","869525","0.0-2.0-14.0-3.0","battery-v0.2","","""event"",""trial"",""time""
""fullscreenenter"",""1"",""11238""
","
","
","""event"",""trial"",""time""
""fullscreenenter"",""1"",""11238""
","
","","","-1","","","14","20705","2414","&#9826;","elianto","#f73b6a7A","-1","-1","1","-10","[]","0","0","3","","","","","","","",""
"pit-trial","63","874383","0.0-2.0-14.0-4.0","battery-v0.2","","""event"",""trial"",""time""
""fullscreenenter"",""1"",""11238""
","
","
","""event"",""trial"",""time""
""fullscreenenter"",""1"",""11238""
","
","","","-1","","","14","20705","2414","&#9826;","elianto","#f73b6a7A","-1","-1","1","0","[]","0","0","3","","","","","","","",""
"pit-trial","64","879242","0.0-2.0-14.1-0.1","battery-v0.2","","""event"",""trial"",""time""
""fullscreenenter"",""1"",""11238""
","
","
","""event"",""trial"",""time""
""fullscreenenter"",""1"",""11238""
","
","","","-1","","","14","20705","2414","&#9826;","elianto","#f73b6a7A","-1","-1","1","0","[]","0","0","3","","","","","","","",""
"pit-trial","65","884099","0.0-2.0-14.1-1.1","battery-v0.2","","""event"",""trial"",""time""
""fullscreenenter"",""1"",""11238""
","
","
","""event"",""trial"",""time""
""fullscreenenter"",""1"",""11238""
","
","","","-1","","","14","20705","2414","&#9826;","elianto","#f73b6a7A","-1","-1","1","0","[]","0","0","3","","","","","","","",""
"pit-trial","66","888955","0.0-2.0-14.1-2.1","battery-v0.2","","""event"",""trial"",""time""
""fullscreenenter"",""1"",""11238""
","
","
","""event"",""trial"",""time""
""fullscreenenter"",""1"",""11238""
","
","","","-1","","","14","20705","2414","&#9826;","elianto","#f73b6a7A","-1","-1","1","0","[]","0","0","3","","","","","","","",""
"pit-trial","67","893812","0.0-2.0-14.1-3.1","battery-v0.2","","""event"",""trial"",""time""
""fullscreenenter"",""1"",""11238""
","
","
","""event"",""trial"",""time""
""fullscreenenter"",""1"",""11238""
","
","","","-1","","","14","20705","2414","&#9826;","elianto","#f73b6a7A","-1","-1","1","-10","[]","0","0","3","","","","","","","",""
"pit-trial","68","898669","0.0-2.0-14.1-4.1","battery-v0.2","","""event"",""trial"",""time""
""fullscreenenter"",""1"",""11238""
","
","
","""event"",""trial"",""time""
""fullscreenenter"",""1"",""11238""
","
","","","-1","","","14","20705","2414","&#9826;","elianto","#f73b6a7A","-1","-1","1","0","[]","0","0","3","","","","","","","",""
"pit-trial","69","903527","0.0-2.0-14.2-0.2","battery-v0.2","","""event"",""trial"",""time""
""fullscreenenter"",""1"",""11238""
","
","
","""event"",""trial"",""time""
""fullscreenenter"",""1"",""11238""
","
","","","-1","","","14","20705","2414","&#9826;","elianto","#f73b6a7A","-1","-1","1","0","[]","0","0","3","","","","","","","",""
"pit-trial","70","908384","0.0-2.0-14.2-1.2","battery-v0.2","","""event"",""trial"",""time""
""fullscreenenter"",""1"",""11238""
","
","
","""event"",""trial"",""time""
""fullscreenenter"",""1"",""11238""
","
","","","-1","","","14","20705","2414","&#9826;","elianto","#f73b6a7A","-1","-1","1","0","[]","0","0","3","","","","","","","",""
"pit-trial","71","913239","0.0-2.0-14.2-2.2","battery-v0.2","","""event"",""trial"",""time""
""fullscreenenter"",""1"",""11238""
","
","
","""event"",""trial"",""time""
""fullscreenenter"",""1"",""11238""
","
","","","-1","","","14","20705","2414","&#9826;","elianto","#f73b6a7A","-1","-1","1","0","[]","0","0","3","","","","","","","",""
"pit-trial","72","918097","0.0-2.0-14.2-3.2","battery-v0.2","","""event"",""trial"",""time""
""fullscreenenter"",""1"",""11238""
","
","
","""event"",""trial"",""time""
""fullscreenenter"",""1"",""11238""
","
","","","-1","","","14","20705","2414","&#9826;","elianto","#f73b6a7A","-1","-1","1","-10","[]","0","0","3","","","","","","","",""
"pit-trial","73","922953","0.0-2.0-14.2-4.2","battery-v0.2","","""event"",""trial"",""time""
""fullscreenenter"",""1"",""11238""
","
","
","""event"",""trial"",""time""
""fullscreenenter"",""1"",""11238""
","
","","","-1","","","14","20705","2414","&#9826;","elianto","#f73b6a7A","-1","-1","1","0","[]","0","0","3","","","","","","","",""
"pit-trial","74","927811","0.0-2.0-14.3-0.3","battery-v0.2","","""event"",""trial"",""time""
""fullscreenenter"",""1"",""11238""
","
","
","""event"",""trial"",""time""
""fullscreenenter"",""1"",""11238""
","
","","","-1","","","14","20705","2414","&#9826;","elianto","#f73b6a7A","-1","-1","1","0","[]","0","0","3","","","","","","","",""
"pit-trial","75","932669","0.0-2.0-14.3-1.3","battery-v0.2","","""event"",""trial"",""time""
""fullscreenenter"",""1"",""11238""
","
","
","""event"",""trial"",""time""
""fullscreenenter"",""1"",""11238""
","
","","","-1","","","14","20705","2414","&#9826;","elianto","#f73b6a7A","-1","-1","1","0","[]","0","0","3","","","","","","","",""
"pit-trial","76","937526","0.0-2.0-14.3-2.3","battery-v0.2","","""event"",""trial"",""time""
""fullscreenenter"",""1"",""11238""
","
","
","""event"",""trial"",""time""
""fullscreenenter"",""1"",""11238""
","
","","","-1","","","14","20705","2414","&#9826;","elianto","#f73b6a7A","-1","-1","1","0","[]","0","0","3","","","","","","","",""
"pit-trial","77","942382","0.0-2.0-14.3-3.3","battery-v0.2","","""event"",""trial"",""time""
""fullscreenenter"",""1"",""11238""
","
","
","""event"",""trial"",""time""
""fullscreenenter"",""1"",""11238""
","
","","","-1","","","14","20705","2414","&#9826;","elianto","#f73b6a7A","-1","-1","1","-10","[]","0","0","3","","","","","","","",""
"pit-trial","78","947239","0.0-2.0-14.3-4.3","battery-v0.2","","""event"",""trial"",""time""
""fullscreenenter"",""1"",""11238""
","
","
","""event"",""trial"",""time""
""fullscreenenter"",""1"",""11238""
","
","","","-1","","","14","20705","2414","&#9826;","elianto","#f73b6a7A","-1","-1","1","0","[]","0","0","3","","","","","","","",""
"call-function","79","947245","0.0-2.0-15.0","battery-v0.2","","""event"",""trial"",""time""
""fullscreenenter"",""1"",""11238""
","
","
","""event"",""trial"",""time""
""fullscreenenter"",""1"",""11238""
","
","","","","","","","","","","","","","","","","","","","","","","","","","","",""
"pit-instructions","80","984422","0.0-2.0-16.0","battery-v0.2","","""event"",""trial"",""time""
""fullscreenenter"",""1"",""11238""
","
","
","""event"",""trial"",""time""
""fullscreenenter"",""1"",""11238""
","
","","[{""page_index"":0,""viewing_time"":15436},{""page_index"":1,""viewing_time"":12828.599999997765},{""page_index"":2,""viewing_time"":4798.400000002235},{""page_index"":3,""viewing_time"":4108.79999999702}]","37174.099999997765","","","","","","","","","","","","","","","","","","","","","","","",""
"pit-trial","81","989280","0.0-2.0-17.0-0.0","battery-v0.2","","""event"",""trial"",""time""
""fullscreenenter"",""1"",""11238""
","
","
","""event"",""trial"",""time""
""fullscreenenter"",""1"",""11238""
","
","","","-1","","","14","20705","2414","&#9789;","elianto","#f73b6a7A"," ","-1","0","-10","[3094.39999999851,4665.800000000745]","2","0","4","","","","","","","",""
"pit-trial","82","992258","0.0-2.0-17.0-1.0","battery-v0.2","","""event"",""trial"",""time""
""fullscreenenter"",""1"",""11238""
","
","
","""event"",""trial"",""time""
""fullscreenenter"",""1"",""11238""
","
","","","120.10000000149012","","","14","20705","2414","&#9789;","elianto","#f73b6a7A"," "," ","1","0","[195.40000000223517,555.3000000007451,970.3000000007451,1399.4000000022352,1782.300000000745,2166.400000002235,2684.800000000745]","7","0","4","","","","","","","",""
"pit-trial","83","995154","0.0-2.0-17.0-2.0","battery-v0.2","","""event"",""trial"",""time""
""fullscreenenter"",""1"",""11238""
","
","
","""event"",""trial"",""time""
""fullscreenenter"",""1"",""11238""
","
","","","29.699999999254942","","","14","20705","2414","&#9789;","elianto","#f73b6a7A"," "," ","1","0","[889.0999999977648]","1","0","4","","","","","","","",""
"pit-trial","84","998131","0.0-2.0-17.0-3.0","battery-v0.2","","""event"",""trial"",""time""
""fullscreenenter"",""1"",""11238""
","
","
","""event"",""trial"",""time""
""fullscreenenter"",""1"",""11238""
","
","","","120","","","14","20705","2414","&#9789;","elianto","#f73b6a7A"," "," ","1","-10","[970.1999999992549]","1","0","4","","","","","","","",""
"pit-trial","85","1001527","0.0-2.0-17.0-4.0","battery-v0.2","","""event"",""trial"",""time""
""fullscreenenter"",""1"",""11238""
","
","
","""event"",""trial"",""time""
""fullscreenenter"",""1"",""11238""
","
","","","538.3000000007451","","","14","20705","2414","&#9789;","elianto","#f73b6a7A"," "," ","1","0","[1390.3999999985099]","1","0","4","","","","","","","",""
"pit-trial","86","1004561","0.0-2.0-17.1-0.1","battery-v0.2","","""event"",""trial"",""time""
""fullscreenenter"",""1"",""11238""
","
","
","""event"",""trial"",""time""
""fullscreenenter"",""1"",""11238""
","
","","","177.19999999925494","","","14","20705","2414","&#9789;","elianto","#f73b6a7A"," "," ","1","0","[1027.300000000745]","1","0","4","","","","","","","",""
"pit-trial","87","1007712","0.0-2.0-17.1-1.1","battery-v0.2","","""event"",""trial"",""time""
""fullscreenenter"",""1"",""11238""
","
","
","""event"",""trial"",""time""
""fullscreenenter"",""1"",""11238""
","
","","","294.6000000014901","","","14","20705","2414","&#9789;","elianto","#f73b6a7A"," "," ","1","0","[489.30000000074506,1144.699999999255]","2","0","4","","","","","","","",""
"pit-trial","88","1010822","0.0-2.0-17.1-2.1","battery-v0.2","","""event"",""trial"",""time""
""fullscreenenter"",""1"",""11238""
","
","
","""event"",""trial"",""time""
""fullscreenenter"",""1"",""11238""
","
","","","254.10000000149012","","","14","20705","2414","&#9789;","elianto","#f73b6a7A"," "," ","1","0","[581,1104.199999999255,2237.300000000745]","3","0","4","","","","","","","",""
"pit-trial","89","1013932","0.0-2.0-17.1-3.1","battery-v0.2","","""event"",""trial"",""time""
""fullscreenenter"",""1"",""11238""
","
","
","""event"",""trial"",""time""
""fullscreenenter"",""1"",""11238""
","
","","","252.30000000074506","","","14","20705","2414","&#9789;","elianto","#f73b6a7A"," "," ","1","-10","[84.90000000223517,1102.5,2328]","3","0","4","","","","","","","",""
"pit-trial","90","1017146","0.0-2.0-17.1-4.1","battery-v0.2","","""event"",""trial"",""time""
""fullscreenenter"",""1"",""11238""
","
","
","""event"",""trial"",""time""
""fullscreenenter"",""1"",""11238""
","
","","","356.79999999701977","","","14","20705","2414","&#9789;","elianto","#f73b6a7A"," "," ","1","0","[200.5,1207,2210.5]","3","0","4","","","","","","","",""
"pit-trial","91","1020394","0.0-2.0-17.2-0.2","battery-v0.2","","""event"",""trial"",""time""
""fullscreenenter"",""1"",""11238""
","
","
","""event"",""trial"",""time""
""fullscreenenter"",""1"",""11238""
","
","","","389.30000000074506","","","14","20705","2414","&#9789;","elianto","#f73b6a7A"," "," ","1","0","[294.5,1239.699999999255]","2","0","4","","","","","","","",""
"pit-trial","92","1023622","0.0-2.0-17.2-1.2","battery-v0.2","","""event"",""trial"",""time""
""fullscreenenter"",""1"",""11238""
","
","
","""event"",""trial"",""time""
""fullscreenenter"",""1"",""11238""
","
","","","371.80000000074506","","","14","20705","2414","&#9789;","elianto","#f73b6a7A"," "," ","1","0","[1221.800000000745]","1","0","4","","","","","","","",""
"pit-trial","93","1026775","0.0-2.0-17.2-2.2","battery-v0.2","","""event"",""trial"",""time""
""fullscreenenter"",""1"",""11238""
","
","
","""event"",""trial"",""time""
""fullscreenenter"",""1"",""11238""
","
","","","296.69999999925494","","","14","20705","2414","&#9789;","elianto","#f73b6a7A"," "," ","1","0","[1146.8999999985099]","1","0","4","","","","","","","",""
"pit-trial","94","1030017","0.0-2.0-17.2-3.2","battery-v0.2","","""event"",""trial"",""time""
""fullscreenenter"",""1"",""11238""
","
","
","""event"",""trial"",""time""
""fullscreenenter"",""1"",""11238""
","
","","","386.5","","","14","20705","2414","&#9789;","elianto","#f73b6a7A"," "," ","1","-10","[1236.6000000014901]","1","0","4","","","","","","","",""
"pit-trial","95","1033270","0.0-2.0-17.2-4.2","battery-v0.2","","""event"",""trial"",""time""
""fullscreenenter"",""1"",""11238""
","
","
","""event"",""trial"",""time""
""fullscreenenter"",""1"",""11238""
","
","","","397.69999999925494","","","14","20705","2414","&#9789;","elianto","#f73b6a7A"," "," ","1","0","[1247.8999999985099]","1","0","4","","","","","","","",""
"pit-trial","96","1036598","0.0-2.0-17.3-0.3","battery-v0.2","","""event"",""trial"",""time""
""fullscreenenter"",""1"",""11238""
","
","
","""event"",""trial"",""time""
""fullscreenenter"",""1"",""11238""
","
","","","470.69999999925494","","","14","20705","2414","&#9789;","elianto","#f73b6a7A"," "," ","1","0","[1320.9000000022352]","1","0","4","","","","","","","",""
"pit-trial","97","1039847","0.0-2.0-17.3-1.3","battery-v0.2","","""event"",""trial"",""time""
""fullscreenenter"",""1"",""11238""
","
","
","""event"",""trial"",""time""
""fullscreenenter"",""1"",""11238""
","
","","","392.29999999701977","","","14","20705","2414","&#9789;","elianto","#f73b6a7A"," "," ","1","0","[1242.6000000014901]","1","0","4","","","","","","","",""
"pit-trial","98","1043520","0.0-2.0-17.3-2.3","battery-v0.2","","""event"",""trial"",""time""
""fullscreenenter"",""1"",""11238""
","
","
","""event"",""trial"",""time""
""fullscreenenter"",""1"",""11238""
","
","","","817.3000000007451","","","14","20705","2414","&#9789;","elianto","#f73b6a7A"," "," ","1","0","[1667.3999999985099]","1","0","4","","","","","","","",""
"pit-trial","99","1048377","0.0-2.0-17.3-3.3","battery-v0.2","","""event"",""trial"",""time""
""fullscreenenter"",""1"",""11238""
","
","
","""event"",""trial"",""time""
""fullscreenenter"",""1"",""11238""
","
","","","-1","","","14","20705","2414","&#9789;","elianto","#f73b6a7A"," ","-1","0","0","[3511.199999999255]","1","0","4","","","","","","","",""
"pit-trial","100","1051495","0.0-2.0-17.3-4.3","battery-v0.2","","""event"",""trial"",""time""
""fullscreenenter"",""1"",""11238""
","
","
","""event"",""trial"",""time""
""fullscreenenter"",""1"",""11238""
","
","","","258.5","","","14","20705","2414","&#9789;","elianto","#f73b6a7A"," "," ","1","0","[1111.199999999255]","1","0","4","","","","","","","",""
"call-function","101","1051500","0.0-2.0-18.0","battery-v0.2","","""event"",""trial"",""time""
""fullscreenenter"",""1"",""11238""
","
","
","""event"",""trial"",""time""
""fullscreenenter"",""1"",""11238""
","
","","","","","","","","","","","","","","","","","","","","","","","","","","",""
"pit-instructions","102","1119443","0.0-2.0-19.0","battery-v0.2","","""event"",""trial"",""time""
""fullscreenenter"",""1"",""11238""
","
","
","""event"",""trial"",""time""
""fullscreenenter"",""1"",""11238""
","
","","[{""page_index"":0,""viewing_time"":10925.599999997765},{""page_index"":1,""viewing_time"":6619},{""page_index"":2,""viewing_time"":8187.5},{""page_index"":3,""viewing_time"":4232.70000000298},{""page_index"":4,""viewing_time"":13285},{""page_index"":5,""viewing_time"":12206},{""page_index"":6,""viewing_time"":5013.29999999702},{""page_index"":7,""viewing_time"":4051.60000000149},{""page_index"":8,""viewing_time"":3419.5}]","67941.39999999851","","","","","","","","","","","","","","","","","","","","","","","",""
"pit-comprehension","103","1124386","0.0-2.0-20.0-0.0","battery-v0.2","","""event"",""trial"",""time""
""fullscreenenter"",""1"",""11238""
","
","
","""event"",""trial"",""time""
""fullscreenenter"",""1"",""11238""
","
","","","4930.39999999851","[""SPACE""]","0","14","20705","2414","","","","","","","","","","","","","","","","","","",""
"pit-instructions","104","1128479","0.0-2.0-20.0-1.0","battery-v0.2","","""event"",""trial"",""time""
""fullscreenenter"",""1"",""11238""
","
","
","""event"",""trial"",""time""
""fullscreenenter"",""1"",""11238""
","
","","[{""page_index"":0,""viewing_time"":3992.599999997765}]","3994","","","","","","","","","","","","","","","","","","","","","","","",""
"pit-comprehension","105","1135899","0.0-2.0-21.0-0.0","battery-v0.2","","""event"",""trial"",""time""
""fullscreenenter"",""1"",""11238""
","
","
","""event"",""trial"",""time""
""fullscreenenter"",""1"",""11238""
","
","","","7403.39999999851","[""10""]","0","14","20705","2414","","","","","","","","","","","","","","","","","","",""
"pit-instructions","106","1175800","0.0-2.0-21.0-1.0","battery-v0.2","","""event"",""trial"",""time""
""fullscreenenter"",""1"",""11238""
","
","
","""event"",""trial"",""time""
""fullscreenenter"",""1"",""11238""
","
","","[{""page_index"":0,""viewing_time"":39806.39999999851}]","39807.699999999255","","","","","","","","","","","","","","","","","","","","","","","",""
"pit-comprehension","107","1183316","0.0-2.0-22.0-0.0","battery-v0.2","","""event"",""trial"",""time""
""fullscreenenter"",""1"",""11238""
","
","
","""event"",""trial"",""time""
""fullscreenenter"",""1"",""11238""
","
","","","7501.300000000745","[""0""]","0","14","20705","2414","","","","","","","","","","","","","","","","","","",""
"pit-instructions","108","1188592","0.0-2.0-22.0-1.0","battery-v0.2","","""event"",""trial"",""time""
""fullscreenenter"",""1"",""11238""
","
","
","""event"",""trial"",""time""
""fullscreenenter"",""1"",""11238""
","
","","[{""page_index"":0,""viewing_time"":5129.10000000149}]","5130.5","","","","","","","","","","","","","","","","","","","","","","","",""
"pit-comprehension","109","1197949","0.0-2.0-23.0-0.0","battery-v0.2","","""event"",""trial"",""time""
""fullscreenenter"",""1"",""11238""
","
","
","""event"",""trial"",""time""
""fullscreenenter"",""1"",""11238""
","
","","","9341.900000002235","[""False""]","1","14","20705","2414","","","","","","","","","","","","","","","","","","",""
"pit-instructions","110","1201605","0.0-2.0-23.0-1.0","battery-v0.2","","""event"",""trial"",""time""
""fullscreenenter"",""1"",""11238""
","
","
","""event"",""trial"",""time""
""fullscreenenter"",""1"",""11238""
","
","","[{""page_index"":0,""viewing_time"":3555.2999999970198}]","3556.39999999851","","","","","","","","","","","","","","","","","","","","","","","",""
"pit-instructions","111","1202354","0.0-2.0-23.0-2.0-0.0","battery-v0.2","","""event"",""trial"",""time""
""fullscreenenter"",""1"",""11238""
","
","
","""event"",""trial"",""time""
""fullscreenenter"",""1"",""11238""
","
","","[{""page_index"":0,""viewing_time"":740.7999999970198}]","741.6999999992549","","","","","","","","","","","","","","","","","","","","","","","",""
"pit-comprehension","112","1211516","0.0-2.0-23.1-0.1","battery-v0.2","","""event"",""trial"",""time""
""fullscreenenter"",""1"",""11238""
","
","
","""event"",""trial"",""time""
""fullscreenenter"",""1"",""11238""
","
","","","9152.5","[""False""]","1","14","20705","2414","","","","","","","","","","","","","","","","","","",""
"pit-instructions","113","1214147","0.0-2.0-23.1-1.1","battery-v0.2","","""event"",""trial"",""time""
""fullscreenenter"",""1"",""11238""
","
","
","""event"",""trial"",""time""
""fullscreenenter"",""1"",""11238""
","
","","[{""page_index"":0,""viewing_time"":2531.7000000029802}]","2533.2000000029802","","","","","","","","","","","","","","","","","","","","","","","",""
"pit-instructions","114","1217114","0.0-2.0-23.1-2.1-0.1","battery-v0.2","","""event"",""trial"",""time""
""fullscreenenter"",""1"",""11238""
","
","
","""event"",""trial"",""time""
""fullscreenenter"",""1"",""11238""
","
","","[{""page_index"":0,""viewing_time"":2958.5}]","2959.699999999255","","","","","","","","","","","","","","","","","","","","","","","",""
"pit-comprehension","115","1225217","0.0-2.0-23.2-0.2","battery-v0.2","","""event"",""trial"",""time""
""fullscreenenter"",""1"",""11238""
","
","
","""event"",""trial"",""time""
""fullscreenenter"",""1"",""11238""
","
","","","8093.300000000745","[""True""]","0","14","20705","2414","","","","","","","","","","","","","","","","","","",""
"pit-instructions","116","1258241","0.0-2.0-23.2-1.2","battery-v0.2","","""event"",""trial"",""time""
""fullscreenenter"",""1"",""11238""
","
","
","""event"",""trial"",""time""
""fullscreenenter"",""1"",""11238""
","
","","[{""page_index"":0,""viewing_time"":32881.699999999255}]","32883.10000000149","","","","","","","","","","","","","","","","","","","","","","","",""
"pit-comprehension","117","1267836","0.0-2.0-24.0-0.0","battery-v0.2","","""event"",""trial"",""time""
""fullscreenenter"",""1"",""11238""
","
","
","""event"",""trial"",""time""
""fullscreenenter"",""1"",""11238""
","
","","","9581.89999999851","[""True""]","0","14","20705","2414","","","","","","","","","","","","","","","","","","",""
"pit-instructions","118","1271969","0.0-2.0-24.0-1.0","battery-v0.2","","""event"",""trial"",""time""
""fullscreenenter"",""1"",""11238""
","
","
","""event"",""trial"",""time""
""fullscreenenter"",""1"",""11238""
","
","","[{""page_index"":0,""viewing_time"":4031.099999997765}]","4032.39999999851","","","","","","","","","","","","","","","","","","","","","","","",""
"pit-comprehension","119","1278617","0.0-2.0-25.0-0.0","battery-v0.2","","""event"",""trial"",""time""
""fullscreenenter"",""1"",""11238""
","
","
","""event"",""trial"",""time""
""fullscreenenter"",""1"",""11238""
","
","","","6634.199999999255","[""True""]","0","14","20705","2414","","","","","","","","","","","","","","","","","","",""
"pit-instructions","120","1287373","0.0-2.0-25.0-1.0","battery-v0.2","","""event"",""trial"",""time""
""fullscreenenter"",""1"",""11238""
","
","
","""event"",""trial"",""time""
""fullscreenenter"",""1"",""11238""
","
","","[{""page_index"":0,""viewing_time"":8586.800000000745}]","8588.800000000745","","","","","","","","","","","","","","","","","","","","","","","",""
"pit-comprehension","121","1292089","0.0-2.0-26.0-0.0","battery-v0.2","","""event"",""trial"",""time""
""fullscreenenter"",""1"",""11238""
","
","
","""event"",""trial"",""time""
""fullscreenenter"",""1"",""11238""
","
","","","4702","[""False""]","0","14","20705","2414","","","","","","","","","","","","","","","","","","",""
"pit-instructions","122","1302943","0.0-2.0-26.0-1.0","battery-v0.2","","""event"",""trial"",""time""
""fullscreenenter"",""1"",""11238""
","
","
","""event"",""trial"",""time""
""fullscreenenter"",""1"",""11238""
","
","","[{""page_index"":0,""viewing_time"":10751.39999999851}]","10752.5","","","","","","","","","","","","","","","","","","","","","","","",""
"pit-instructions","123","1323833","0.0-3.0","battery-v0.2","","""event"",""trial"",""time""
""fullscreenenter"",""1"",""11238""
","
","
","""event"",""trial"",""time""
""fullscreenenter"",""1"",""11238""
","
","","[{""page_index"":0,""viewing_time"":3735.10000000149},{""page_index"":1,""viewing_time"":8651.79999999702},{""page_index"":2,""viewing_time"":8491.70000000298}]","20880.199999999255","","","","","","","","","","","","","","","","","","","","","","","",""
"pit-trial","124","1327350","0.0-4.0","battery-v0.2","","""event"",""trial"",""time""
""fullscreenenter"",""1"",""11238""
","
","
","""event"",""trial"",""time""
""fullscreenenter"",""1"",""11238""
","
","","","644","","","14","20705","2414","&#9728;","elianto","#f73b6a7A","-1"," ","0","0","[1496.300000000745]","1","1","","","20705","1","0","4","lose","no-go","1"
"pit-trial","125","1330788","0.0-5.0","battery-v0.2","","""event"",""trial"",""time""
""fullscreenenter"",""1"",""11238""
","
","
","""event"",""trial"",""time""
""fullscreenenter"",""1"",""11238""
","
","","","579.1999999992549","","","14","20705","2414","&#9733;","elianto","#3366ff99","-1"," ","0","+10","[1429.3999999985099]","1","1","","","20705","2","2","2","win","no-go","1"
"pit-trial","126","1334538","0.0-6.0","battery-v0.2","","""event"",""trial"",""time""
""fullscreenenter"",""1"",""11238""
","
","
","""event"",""trial"",""time""
""fullscreenenter"",""1"",""11238""
","
","","","890","","","14","20705","2414","&#9730;","elianto","#3366ff99"," "," ","1","+10","[1743.3999999985099]","1","1","","","20705","3","1","1","win","go","0"
"pit-trial","127","1339395","0.0-7.0","battery-v0.2","","""event"",""trial"",""time""
""fullscreenenter"",""1"",""11238""
","
","
","""event"",""trial"",""time""
""fullscreenenter"",""1"",""11238""
","
","","","-1","","","14","20705","2414","&#9752;","elianto","#f73b6a7A"," ","-1","0","0","[]","0","1","","","20705","4","3","3","lose","go","1"
"pit-trial","128","1344253","0.0-8.0","battery-v0.2","","""event"",""trial"",""time""
""fullscreenenter"",""1"",""11238""
","
","
","""event"",""trial"",""time""
""fullscreenenter"",""1"",""11238""
","
","","","-1","","","14","20705","2414","&#9752;","elianto","#f73b6a7A"," ","-1","0","-10","[]","0","1","","","20705","5","3","3","lose","go","0"
"pit-trial","129","1347838","0.0-9.0","battery-v0.2","","""event"",""trial"",""time""
""fullscreenenter"",""1"",""11238""
","
","
","""event"",""trial"",""time""
""fullscreenenter"",""1"",""11238""
","
","","","727.8999999985099","","","14","20705","2414","&#9730;","elianto","#3366ff99"," "," ","1","0","[1578.0999999977648]","1","1","","","20705","6","1","1","win","go","1"
"pit-trial","130","1351068","0.0-10.0","battery-v0.2","","""event"",""trial"",""time""
""fullscreenenter"",""1"",""11238""
","
","
","""event"",""trial"",""time""
""fullscreenenter"",""1"",""11238""
","
","","","370.30000000074506","","","14","20705","2414","&#9728;","elianto","#f73b6a7A","-1"," ","0","-10","[1224.699999999255]","1","1","","","20705","7","0","4","lose","no-go","0"
"pit-trial","131","1354192","0.0-11.0","battery-v0.2","","""event"",""trial"",""time""
""fullscreenenter"",""1"",""11238""
","
","
","""event"",""trial"",""time""
""fullscreenenter"",""1"",""11238""
","
","","","263.5","","","14","20705","2414","&#9733;","elianto","#3366ff99","-1"," ","0","0","[1116.800000000745]","1","1","","","20705","8","2","2","win","no-go","0"
"pit-trial","132","1357874","0.0-12.0","battery-v0.2","","""event"",""trial"",""time""
""fullscreenenter"",""1"",""11238""
","
","
","""event"",""trial"",""time""
""fullscreenenter"",""1"",""11238""
","
","","","826.0999999977648","","","14","20705","2414","&#9733;","elianto","#3366ff99","-1"," ","0","0","[1676.300000000745]","1","1","","","20705","9","2","2","win","no-go","0"
"pit-trial","133","1362731","0.0-13.0","battery-v0.2","","""event"",""trial"",""time""
""fullscreenenter"",""1"",""11238""
","
","
","""event"",""trial"",""time""
""fullscreenenter"",""1"",""11238""
","
","","","-1","","","14","20705","2414","&#9730;","elianto","#3366ff99"," ","-1","0","+10","[4447.60000000149]","1","1","","","20705","10","1","1","win","go","1"
"pit-trial","134","1367588","0.0-14.0","battery-v0.2","","""event"",""trial"",""time""
""fullscreenenter"",""1"",""11238""
","
","
","""event"",""trial"",""time""
""fullscreenenter"",""1"",""11238""
","
","","","-1","","","14","20705","2414","&#9752;","elianto","#f73b6a7A"," ","-1","0","-10","[3930.2000000029802]","1","1","","","20705","11","3","3","lose","go","0"
"pit-trial","135","1372444","0.0-15.0","battery-v0.2","","""event"",""trial"",""time""
""fullscreenenter"",""1"",""11238""
","
","
","""event"",""trial"",""time""
""fullscreenenter"",""1"",""11238""
","
","","","-1","","","14","20705","2414","&#9728;","elianto","#f73b6a7A","-1","-1","1","0","[402.1000000014901]","1","1","","","20705","12","0","4","lose","no-go","0"
"pit-trial","136","1377301","0.0-16.0","battery-v0.2","","""event"",""trial"",""time""
""fullscreenenter"",""1"",""11238""
","
","
","""event"",""trial"",""time""
""fullscreenenter"",""1"",""11238""
","
","","","-1","","","14","20705","2414","&#9728;","elianto","#f73b6a7A","-1","-1","1","0","[]","0","1","","","20705","13","0","4","lose","no-go","0"
"pit-trial","137","1381846","0.0-17.0","battery-v0.2","","""event"",""trial"",""time""
""fullscreenenter"",""1"",""11238""
","
","
","""event"",""trial"",""time""
""fullscreenenter"",""1"",""11238""
","
","","","1688.1000000014901","","","14","20705","2414","&#9733;","elianto","#3366ff99","-1"," ","0","0","[2538.300000000745]","1","1","","","20705","14","2","2","win","no-go","0"
"pit-trial","138","1385600","0.0-18.0","battery-v0.2","","""event"",""trial"",""time""
""fullscreenenter"",""1"",""11238""
","
","
","""event"",""trial"",""time""
""fullscreenenter"",""1"",""11238""
","
","","","896.5","","","14","20705","2414","&#9730;","elianto","#3366ff99"," "," ","1","0","[1746.699999999255]","1","1","","","20705","15","1","1","win","go","1"
"pit-trial","139","1388797","0.0-19.0","battery-v0.2","","""event"",""trial"",""time""
""fullscreenenter"",""1"",""11238""
","
","
","""event"",""trial"",""time""
""fullscreenenter"",""1"",""11238""
","
","","","338.69999999925494","","","14","20705","2414","&#9752;","elianto","#f73b6a7A"," "," ","1","-10","[1189.9000000022352]","1","1","","","20705","16","3","3","lose","go","1"
"pit-trial","140","1392116","0.0-20.0","battery-v0.2","","""event"",""trial"",""time""
""fullscreenenter"",""1"",""11238""
","
","
","""event"",""trial"",""time""
""fullscreenenter"",""1"",""11238""
","
","","","460.69999999925494","","","14","20705","2414","&#9733;","elianto","#3366ff99","-1"," ","0","0","[1312.2999999970198]","1","1","","","20705","17","2","2","win","no-go","0"
"pit-trial","141","1396974","0.0-21.0","battery-v0.2","","""event"",""trial"",""time""
""fullscreenenter"",""1"",""11238""
","
","
","""event"",""trial"",""time""
""fullscreenenter"",""1"",""11238""
","
","","","-1","","","14","20705","2414","&#9730;","elianto","#3366ff99"," ","-1","0","0","[3758.699999999255]","1","1","","","20705","18","1","1","win","go","0"
"pit-trial","142","1400407","0.0-22.0","battery-v0.2","","""event"",""trial"",""time""
""fullscreenenter"",""1"",""11238""
","
","
","""event"",""trial"",""time""
""fullscreenenter"",""1"",""11238""
","
","","","575.5999999977648","","","14","20705","2414","&#9728;","elianto","#f73b6a7A","-1"," ","0","-10","[1427.300000000745]","1","1","","","20705","19","0","4","lose","no-go","0"
"pit-trial","143","1403997","0.0-23.0","battery-v0.2","","""event"",""trial"",""time""
""fullscreenenter"",""1"",""11238""
","
","
","""event"",""trial"",""time""
""fullscreenenter"",""1"",""11238""
","
","","","732.0999999977648","","","14","20705","2414","&#9752;","elianto","#f73b6a7A"," "," ","1","0","[1582.2000000029802]","1","1","","","20705","20","3","3","lose","go","0"
"pit-instructions","144","1418176","0.0-24.0","battery-v0.2","","""event"",""trial"",""time""
""fullscreenenter"",""1"",""11238""
","
","
","""event"",""trial"",""time""
""fullscreenenter"",""1"",""11238""
","
","","[{""page_index"":0,""viewing_time"":5075.199999999255},{""page_index"":1,""viewing_time"":9096.39999999851}]","14173.89999999851","","","","","","","","","","","","","","","","","","","","","","","",""
"pit-trial","145","1421443","0.0-25.0","battery-v0.2","","""event"",""trial"",""time""
""fullscreenenter"",""1"",""11238""
","
","
","""event"",""trial"",""time""
""fullscreenenter"",""1"",""11238""
","
","","","399.1000000014901","","","14","20705","2414","d","elianto","#3366ff99","-1"," ","0","+10","[259.19999999925494,1250.800000000745]","2","2","","","20705","21","1","2","win","no-go","1"
"pit-trial","146","1424815","0.0-26.0","battery-v0.2","","""event"",""trial"",""time""
""fullscreenenter"",""1"",""11238""
","
","
","""event"",""trial"",""time""
""fullscreenenter"",""1"",""11238""
","
","","","516.3999999985099","","","14","20705","2414","e","elianto","#f73b6a7A"," "," ","1","0","[1366.7999999970198]","1","2","","","20705","22","2","3","lose","go","0"
"pit-trial","147","1428262","0.0-27.0","battery-v0.2","","""event"",""trial"",""time""
""fullscreenenter"",""1"",""11238""
","
","
","""event"",""trial"",""time""
""fullscreenenter"",""1"",""11238""
","
","","","589.4000000022352","","","14","20705","2414","w","elianto","#f73b6a7A","-1"," ","0","-10","[1439.5]","1","2","","","20705","23","3","4","lose","no-go","0"
"pit-trial","148","1431871","0.0-28.0","battery-v0.2","","""event"",""trial"",""time""
""fullscreenenter"",""1"",""11238""
","
","
","""event"",""trial"",""time""
""fullscreenenter"",""1"",""11238""
","
","","","751.5","","","14","20705","2414","j","elianto","#f73b6a7A"," "," ","1","-10","[1601.699999999255]","1","2","","","20705","24","0","3","lose","go","1"
"pit-trial","149","1435905","0.0-29.0","battery-v0.2","","""event"",""trial"",""time""
""fullscreenenter"",""1"",""11238""
","
","
","""event"",""trial"",""time""
""fullscreenenter"",""1"",""11238""
","
","","","1175.199999999255","","","14","20705","2414","w","elianto","#f73b6a7A","-1"," ","0","-10","[2028]","1","2","","","20705","25","3","4","lose","no-go","0"
"pit-trial","150","1440763","0.0-30.0","battery-v0.2","","""event"",""trial"",""time""
""fullscreenenter"",""1"",""11238""
","
","
","""event"",""trial"",""time""
""fullscreenenter"",""1"",""11238""
","
","","","-1","","","14","20705","2414","e","elianto","#f73b6a7A"," ","-1","0","-10","[]","0","2","","","20705","26","2","3","lose","go","0"
"pit-trial","151","1445621","0.0-31.0","battery-v0.2","","""event"",""trial"",""time""
""fullscreenenter"",""1"",""11238""
","
","
","""event"",""trial"",""time""
""fullscreenenter"",""1"",""11238""
","
","","","-1","","","14","20705","2414","j","elianto","#f73b6a7A"," ","-1","0","-10","[]","0","2","","","20705","27","0","3","lose","go","0"
"pit-trial","152","1450220","0.0-32.0","battery-v0.2","","""event"",""trial"",""time""
""fullscreenenter"",""1"",""11238""
","
","
","""event"",""trial"",""time""
""fullscreenenter"",""1"",""11238""
","
","","","1739.699999999255","","","14","20705","2414","d","elianto","#3366ff99","-1"," ","0","0","[2591.2999999970198,4384.199999999255]","2","2","","","20705","28","1","2","win","no-go","0"
"pit-trial","153","1453375","0.0-33.0","battery-v0.2","","""event"",""trial"",""time""
""fullscreenenter"",""1"",""11238""
","
","
","""event"",""trial"",""time""
""fullscreenenter"",""1"",""11238""
","
","","","298.5","","","14","20705","2414","d","elianto","#3366ff99","-1"," ","0","0","[1148.6000000014901]","1","2","","","20705","29","1","2","win","no-go","0"
"pit-trial","154","1458095","0.0-34.0","battery-v0.2","","""event"",""trial"",""time""
""fullscreenenter"",""1"",""11238""
","
","
","""event"",""trial"",""time""
""fullscreenenter"",""1"",""11238""
","
","","","1862.699999999255","","","14","20705","2414","w","elianto","#f73b6a7A","-1"," ","0","-10","[2712.900000002235]","1","2","","","20705","30","3","4","lose","no-go","0"
"pit-trial","155","1461655","0.0-35.0","battery-v0.2","","""event"",""trial"",""time""
""fullscreenenter"",""1"",""11238""
","
","
","""event"",""trial"",""time""
""fullscreenenter"",""1"",""11238""
","
","","","703.1000000014901","","","14","20705","2414","e","elianto","#f73b6a7A"," "," ","1","0","[1553.1000000014901]","1","2","","","20705","31","2","3","lose","go","0"
"pit-trial","156","1464992","0.0-36.0","battery-v0.2","","""event"",""trial"",""time""
""fullscreenenter"",""1"",""11238""
","
","
","""event"",""trial"",""time""
""fullscreenenter"",""1"",""11238""
","
","","","477.70000000298023","","","14","20705","2414","j","elianto","#f73b6a7A"," "," ","1","0","[1330]","1","2","","","20705","32","0","3","lose","go","0"
"pit-trial","157","1468350","0.0-37.0","battery-v0.2","","""event"",""trial"",""time""
""fullscreenenter"",""1"",""11238""
","
","
","""event"",""trial"",""time""
""fullscreenenter"",""1"",""11238""
","
","","","501.4000000022352","","","14","20705","2414","w","elianto","#f73b6a7A","-1"," ","0","-10","[1351.5999999977648,2530.199999999255,2967.099999997765]","3","2","","","20705","33","3","4","lose","no-go","0"
"pit-trial","158","1471757","0.0-38.0","battery-v0.2","","""event"",""trial"",""time""
""fullscreenenter"",""1"",""11238""
","
","
","""event"",""trial"",""time""
""fullscreenenter"",""1"",""11238""
","
","","","548.6999999992549","","","14","20705","2414","e","elianto","#f73b6a7A"," "," ","1","0","[79.30000000074506,1400.1000000014901]","2","2","","","20705","34","2","3","lose","go","0"
"pit-trial","159","1476614","0.0-39.0","battery-v0.2","","""event"",""trial"",""time""
""fullscreenenter"",""1"",""11238""
","
","
","""event"",""trial"",""time""
""fullscreenenter"",""1"",""11238""
","
","","","-1","","","14","20705","2414","d","elianto","#3366ff99","-1","-1","1","+10","[]","0","2","","","20705","35","1","2","win","no-go","0"
"pit-trial","160","1480001","0.0-40.0","battery-v0.2","","""event"",""trial"",""time""
""fullscreenenter"",""1"",""11238""
","
","
","""event"",""trial"",""time""
""fullscreenenter"",""1"",""11238""
","
","","","530.6999999992549","","","14","20705","2414","j","elianto","#f73b6a7A"," "," ","1","0","[1381]","1","2","","","20705","36","0","3","lose","go","0"
"pit-trial","161","1483482","0.0-41.0","battery-v0.2","","""event"",""trial"",""time""
""fullscreenenter"",""1"",""11238""
","
","
","""event"",""trial"",""time""
""fullscreenenter"",""1"",""11238""
","
","","","623.8999999985099","","","14","20705","2414","w","elianto","#f73b6a7A","-1"," ","0","-10","[1474]","1","2","","","20705","37","3","4","lose","no-go","0"
"pit-trial","162","1486587","0.0-42.0","battery-v0.2","","""event"",""trial"",""time""
""fullscreenenter"",""1"",""11238""
","
","
","""event"",""trial"",""time""
""fullscreenenter"",""1"",""11238""
","
","","","245.39999999850988","","","14","20705","2414","e","elianto","#f73b6a7A"," "," ","1","-10","[1098.199999999255]","1","2","","","20705","38","2","3","lose","go","1"
"pit-trial","163","1490029","0.0-43.0","battery-v0.2","","""event"",""trial"",""time""
""fullscreenenter"",""1"",""11238""
","
","
","""event"",""trial"",""time""
""fullscreenenter"",""1"",""11238""
","
","","","585.1999999992549","","","14","20705","2414","d","elianto","#3366ff99","-1"," ","0","0","[1435.300000000745]","1","2","","","20705","39","1","2","win","no-go","0"
"pit-trial","164","1493445","0.0-44.0","battery-v0.2","","""event"",""trial"",""time""
""fullscreenenter"",""1"",""11238""
","
","
","""event"",""trial"",""time""
""fullscreenenter"",""1"",""11238""
","
","","","558.1999999992549","","","14","20705","2414","j","elianto","#f73b6a7A"," "," ","1","0","[1408.3999999985099]","1","2","","","20705","40","0","3","lose","go","0"
"pit-trial","165","1497786","0.0-45.0","battery-v0.2","","""event"",""trial"",""time""
""fullscreenenter"",""1"",""11238""
","
","
","""event"",""trial"",""time""
""fullscreenenter"",""1"",""11238""
","
","","","1482.800000000745","","","14","20705","2414","e","elianto","#f73b6a7A"," "," ","1","0","[2333.099999997765]","1","2","","","20705","41","2","3","lose","go","0"
"pit-trial","166","1502171","0.0-46.0","battery-v0.2","","""event"",""trial"",""time""
""fullscreenenter"",""1"",""11238""
","
","
","""event"",""trial"",""time""
""fullscreenenter"",""1"",""11238""
","
","","","1527","","","14","20705","2414","d","elianto","#3366ff99","-1"," ","0","0","[2378.39999999851]","1","2","","","20705","42","1","2","win","no-go","0"
"pit-trial","167","1507029","0.0-47.0","battery-v0.2","","""event"",""trial"",""time""
""fullscreenenter"",""1"",""11238""
","
","
","""event"",""trial"",""time""
""fullscreenenter"",""1"",""11238""
","
","","","-1","","","14","20705","2414","w","elianto","#f73b6a7A","-1","-1","1","0","[]","0","2","","","20705","43","3","4","lose","no-go","0"
"pit-trial","168","1510451","0.0-48.0","battery-v0.2","","""event"",""trial"",""time""
""fullscreenenter"",""1"",""11238""
","
","
","""event"",""trial"",""time""
""fullscreenenter"",""1"",""11238""
","
","","","565","","","14","20705","2414","j","elianto","#f73b6a7A"," "," ","1","0","[1415.300000000745]","1","2","","","20705","44","0","3","lose","go","0"
"pit-trial","169","1514288","0.0-49.0","battery-v0.2","","""event"",""trial"",""time""
""fullscreenenter"",""1"",""11238""
","
","
","""event"",""trial"",""time""
""fullscreenenter"",""1"",""11238""
","
","","","979.6999999992549","","","14","20705","2414","j","elianto","#f73b6a7A"," "," ","1","0","[1830]","1","2","","","20705","45","0","3","lose","go","0"
"pit-trial","170","1517441","0.0-50.0","battery-v0.2","","""event"",""trial"",""time""
""fullscreenenter"",""1"",""11238""
","
","
","""event"",""trial"",""time""
""fullscreenenter"",""1"",""11238""
","
","","","295.80000000074506","","","14","20705","2414","d","elianto","#3366ff99","-1"," ","0","+10","[1146.199999999255]","1","2","","","20705","46","1","2","win","no-go","1"
"pit-trial","171","1520710","0.0-51.0","battery-v0.2","","""event"",""trial"",""time""
""fullscreenenter"",""1"",""11238""
","
","
","""event"",""trial"",""time""
""fullscreenenter"",""1"",""11238""
","
","","","412.20000000298023","","","14","20705","2414","w","elianto","#f73b6a7A","-1"," ","0","0","[1262.3999999985099]","1","2","","","20705","47","3","4","lose","no-go","1"
"pit-trial","172","1524087","0.0-52.0","battery-v0.2","","""event"",""trial"",""time""
""fullscreenenter"",""1"",""11238""
","
","
","""event"",""trial"",""time""
""fullscreenenter"",""1"",""11238""
","
","","","515.9000000022352","","","14","20705","2414","e","elianto","#f73b6a7A"," "," ","1","0","[1370.699999999255]","1","2","","","20705","48","2","3","lose","go","0"
"pit-trial","173","1527248","0.0-53.0","battery-v0.2","","""event"",""trial"",""time""
""fullscreenenter"",""1"",""11238""
","
","
","""event"",""trial"",""time""
""fullscreenenter"",""1"",""11238""
","
","","","302.69999999925494","","","14","20705","2414","d","elianto","#3366ff99","-1"," ","0","+10","[541.3000000007451,1153.0999999977648]","2","2","","","20705","49","1","2","win","no-go","1"
"pit-trial","174","1530319","0.0-54.0","battery-v0.2","","""event"",""trial"",""time""
""fullscreenenter"",""1"",""11238""
","
","
","""event"",""trial"",""time""
""fullscreenenter"",""1"",""11238""
","
","","","214.19999999925494","","","14","20705","2414","w","elianto","#f73b6a7A","-1"," ","0","-10","[1064.300000000745]","1","2","","","20705","50","3","4","lose","no-go","0"
"pit-trial","175","1535177","0.0-55.0","battery-v0.2","","""event"",""trial"",""time""
""fullscreenenter"",""1"",""11238""
","
","
","""event"",""trial"",""time""
""fullscreenenter"",""1"",""11238""
","
","","","-1","","","14","20705","2414","e","elianto","#f73b6a7A"," ","-1","0","-10","[2913.900000002235]","1","2","","","20705","51","2","3","lose","go","0"
"pit-trial","176","1540034","0.0-56.0","battery-v0.2","","""event"",""trial"",""time""
""fullscreenenter"",""1"",""11238""
","
","
","""event"",""trial"",""time""
""fullscreenenter"",""1"",""11238""
","
","","","-1","","","14","20705","2414","j","elianto","#f73b6a7A"," ","-1","0","-10","[]","0","2","","","20705","52","0","3","lose","go","0"
"pit-trial","177","1543051","0.0-57.0","battery-v0.2","","""event"",""trial"",""time""
""fullscreenenter"",""1"",""11238""
","
","
","""event"",""trial"",""time""
""fullscreenenter"",""1"",""11238""
","
","","","160.19999999925494","","","14","20705","2414","e","elianto","#f73b6a7A"," "," ","1","0","[121.90000000223517,1010.1000000014901,2991.800000000745]","3","2","","","20705","53","2","3","lose","go","0"
"pit-trial","178","1546271","0.0-58.0","battery-v0.2","","""event"",""trial"",""time""
""fullscreenenter"",""1"",""11238""
","
","
","""event"",""trial"",""time""
""fullscreenenter"",""1"",""11238""
","
","","","355.19999999925494","","","14","20705","2414","d","elianto","#3366ff99","-1"," ","0","0","[1210.300000000745]","1","2","","","20705","54","1","2","win","no-go","0"
"pit-trial","179","1549504","0.0-59.0","battery-v0.2","","""event"",""trial"",""time""
""fullscreenenter"",""1"",""11238""
","
","
","""event"",""trial"",""time""
""fullscreenenter"",""1"",""11238""
","
","","","376","","","14","20705","2414","j","elianto","#f73b6a7A"," "," ","1","0","[363.5,1226.6000000014901]","2","2","","","20705","55","0","3","lose","go","0"
"pit-trial","180","1552698","0.0-60.0","battery-v0.2","","""event"",""trial"",""time""
""fullscreenenter"",""1"",""11238""
","
","
","""event"",""trial"",""time""
""fullscreenenter"",""1"",""11238""
","
","","","336","","","14","20705","2414","w","elianto","#f73b6a7A","-1"," ","0","-10","[532.3000000007451,1186.3999999985099]","2","2","","","20705","56","3","4","lose","no-go","0"
"pit-trial","181","1556469","0.0-61.0","battery-v0.2","","""event"",""trial"",""time""
""fullscreenenter"",""1"",""11238""
","
","
","""event"",""trial"",""time""
""fullscreenenter"",""1"",""11238""
","
","","","915","","","14","20705","2414","s","elianto","#3366ff99"," "," ","1","+10","[1766]","1","2","","","20705","57","4","1","win","go","0"
"pit-trial","182","1560269","0.0-62.0","battery-v0.2","","""event"",""trial"",""time""
""fullscreenenter"",""1"",""11238""
","
","
","""event"",""trial"",""time""
""fullscreenenter"",""1"",""11238""
","
","","","943.9000000022352","","","14","20705","2414","w","elianto","#f73b6a7A","-1"," ","0","0","[1794.300000000745]","1","2","","","20705","58","3","4","lose","no-go","1"
"pit-trial","183","1564099","0.0-63.0","battery-v0.2","","""event"",""trial"",""time""
""fullscreenenter"",""1"",""11238""
","
","
","""event"",""trial"",""time""
""fullscreenenter"",""1"",""11238""
","
","","","972.9000000022352","","","14","20705","2414","j","elianto","#f73b6a7A"," "," ","1","0","[1823.0999999977648]","1","2","","","20705","59","0","3","lose","go","0"
"pit-trial","184","1568957","0.0-64.0","battery-v0.2","","""event"",""trial"",""time""
""fullscreenenter"",""1"",""11238""
","
","
","""event"",""trial"",""time""
""fullscreenenter"",""1"",""11238""
","
","","","-1","","","14","20705","2414","e","elianto","#f73b6a7A"," ","-1","0","0","[]","0","2","","","20705","60","2","3","lose","go","1"
"pit-trial","185","1573814","0.0-65.0","battery-v0.2","","""event"",""trial"",""time""
""fullscreenenter"",""1"",""11238""
","
","
","""event"",""trial"",""time""
""fullscreenenter"",""1"",""11238""
","
","","","-1","","","14","20705","2414","w","elianto","#f73b6a7A","-1","-1","1","0","[67.69999999925494,4251.199999999255]","2","2","","","20705","61","3","4","lose","no-go","0"
"pit-trial","186","1577760","0.0-66.0","battery-v0.2","","""event"",""trial"",""time""
""fullscreenenter"",""1"",""11238""
","
","
","""event"",""trial"",""time""
""fullscreenenter"",""1"",""11238""
","
","","","1087.699999999255","","","14","20705","2414","s","elianto","#3366ff99"," "," ","1","+10","[1937.9000000022352]","1","2","","","20705","62","4","1","win","go","0"
"pit-trial","187","1582060","0.0-67.0","battery-v0.2","","""event"",""trial"",""time""
""fullscreenenter"",""1"",""11238""
","
","
","""event"",""trial"",""time""
""fullscreenenter"",""1"",""11238""
","
","","","1442.8999999985099","","","14","20705","2414","e","elianto","#f73b6a7A"," "," ","1","0","[2293.199999999255]","1","2","","","20705","63","2","3","lose","go","0"
"pit-trial","188","1586236","0.0-68.0","battery-v0.2","","""event"",""trial"",""time""
""fullscreenenter"",""1"",""11238""
","
","
","""event"",""trial"",""time""
""fullscreenenter"",""1"",""11238""
","
","","","1317.5","","","14","20705","2414","d","elianto","#3366ff99","-1"," ","0","0","[2167.699999999255]","1","2","","","20705","64","1","2","win","no-go","0"
"pit-trial","189","1591093","0.0-69.0","battery-v0.2","","""event"",""trial"",""time""
""fullscreenenter"",""1"",""11238""
","
","
","""event"",""trial"",""time""
""fullscreenenter"",""1"",""11238""
","
","","","-1","","","14","20705","2414","d","elianto","#3366ff99","-1","-1","1","+10","[]","0","2","","","20705","65","1","2","win","no-go","0"
"pit-trial","190","1595950","0.0-70.0","battery-v0.2","","""event"",""trial"",""time""
""fullscreenenter"",""1"",""11238""
","
","
","""event"",""trial"",""time""
""fullscreenenter"",""1"",""11238""
","
","","","-1","","","14","20705","2414","p","elianto","#3366ff99","-1","-1","1","+10","[]","0","2","","","20705","66","5","2","win","no-go","0"
"pit-trial","191","1600807","0.0-71.0","battery-v0.2","","""event"",""trial"",""time""
""fullscreenenter"",""1"",""11238""
","
","
","""event"",""trial"",""time""
""fullscreenenter"",""1"",""11238""
","
","","","-1","","","14","20705","2414","s","elianto","#3366ff99"," ","-1","0","0","[]","0","2","","","20705","67","4","1","win","go","0"
"pit-trial","192","1605664","0.0-72.0","battery-v0.2","","""event"",""trial"",""time""
""fullscreenenter"",""1"",""11238""
","
","
","""event"",""trial"",""time""
""fullscreenenter"",""1"",""11238""
","
","","","-1","","","14","20705","2414","w","elianto","#f73b6a7A","-1","-1","1","0","[]","0","2","","","20705","68","3","4","lose","no-go","0"
"pit-trial","193","1610522","0.0-73.0","battery-v0.2","","""event"",""trial"",""time""
""fullscreenenter"",""1"",""11238""
","
","
","""event"",""trial"",""time""
""fullscreenenter"",""1"",""11238""
","
","","","-1","","","14","20705","2414","s","elianto","#3366ff99"," ","-1","0","+10","[]","0","2","","","20705","69","4","1","win","go","1"
"pit-trial","194","1615379","0.0-74.0","battery-v0.2","","""event"",""trial"",""time""
""fullscreenenter"",""1"",""11238""
","
","
","""event"",""trial"",""time""
""fullscreenenter"",""1"",""11238""
","
","","","-1","","","14","20705","2414","d","elianto","#3366ff99","-1","-1","1","+10","[]","0","2","","","20705","70","1","2","win","no-go","0"
"pit-trial","195","1620236","0.0-75.0","battery-v0.2","","""event"",""trial"",""time""
""fullscreenenter"",""1"",""11238""
","
","
","""event"",""trial"",""time""
""fullscreenenter"",""1"",""11238""
","
","","","-1","","","14","20705","2414","e","elianto","#f73b6a7A"," ","-1","0","-10","[]","0","2","","","20705","71","2","3","lose","go","0"
"pit-trial","196","1625094","0.0-76.0","battery-v0.2","","""event"",""trial"",""time""
""fullscreenenter"",""1"",""11238""
","
","
","""event"",""trial"",""time""
""fullscreenenter"",""1"",""11238""
","
","","","-1","","","14","20705","2414","p","elianto","#3366ff99","-1","-1","1","+10","[]","0","2","","","20705","72","5","2","win","no-go","0"
"pit-trial","197","1629951","0.0-77.0","battery-v0.2","","""event"",""trial"",""time""
""fullscreenenter"",""1"",""11238""
","
","
","""event"",""trial"",""time""
""fullscreenenter"",""1"",""11238""
","
","","","-1","","","14","20705","2414","w","elianto","#f73b6a7A","-1","-1","1","0","[]","0","2","","","20705","73","3","4","lose","no-go","0"
"pit-trial","198","1634809","0.0-78.0","battery-v0.2","","""event"",""trial"",""time""
""fullscreenenter"",""1"",""11238""
","
","
","""event"",""trial"",""time""
""fullscreenenter"",""1"",""11238""
","
","","","-1","","","14","20705","2414","p","elianto","#3366ff99","-1","-1","1","+10","[]","0","2","","","20705","74","5","2","win","no-go","0"
"pit-trial","199","1639666","0.0-79.0","battery-v0.2","","""event"",""trial"",""time""
""fullscreenenter"",""1"",""11238""
","
","
","""event"",""trial"",""time""
""fullscreenenter"",""1"",""11238""
","
","","","-1","","","14","20705","2414","s","elianto","#3366ff99"," ","-1","0","+10","[]","0","2","","","20705","75","4","1","win","go","1"
"pit-trial","200","1644521","0.0-80.0","battery-v0.2","","""event"",""trial"",""time""
""fullscreenenter"",""1"",""11238""
","
","
","""event"",""trial"",""time""
""fullscreenenter"",""1"",""11238""
","
","","","-1","","","14","20705","2414","d","elianto","#3366ff99","-1","-1","1","+10","[]","0","2","","","20705","76","1","2","win","no-go","0"
"pit-trial","201","1649378","0.0-81.0","battery-v0.2","","""event"",""trial"",""time""
""fullscreenenter"",""1"",""11238""
","
","
","""event"",""trial"",""time""
""fullscreenenter"",""1"",""11238""
","
","","","-1","","","14","20705","2414","s","elianto","#3366ff99"," ","-1","0","0","[]","0","2","","","20705","77","4","1","win","go","0"
"pit-trial","202","1654235","0.0-82.0","battery-v0.2","","""event"",""trial"",""time""
""fullscreenenter"",""1"",""11238""
","
","
","""event"",""trial"",""time""
""fullscreenenter"",""1"",""11238""
","
","","","-1","","","14","20705","2414","s","elianto","#3366ff99"," ","-1","0","+10","[]","0","2","","","20705","78","4","1","win","go","1"
"pit-trial","203","1659093","0.0-83.0","battery-v0.2","","""event"",""trial"",""time""
""fullscreenenter"",""1"",""11238""
","
","
","""event"",""trial"",""time""
""fullscreenenter"",""1"",""11238""
","
","","","-1","","","14","20705","2414","w","elianto","#f73b6a7A","-1","-1","1","-10","[]","0","2","","","20705","79","3","4","lose","no-go","1"
"pit-trial","204","1663950","0.0-84.0","battery-v0.2","","""event"",""trial"",""time""
""fullscreenenter"",""1"",""11238""
","
","
","""event"",""trial"",""time""
""fullscreenenter"",""1"",""11238""
","
","","","-1","","","14","20705","2414","p","elianto","#3366ff99","-1","-1","1","+10","[]","0","2","","","20705","80","5","2","win","no-go","0"
"pit-trial","205","1668808","0.0-85.0","battery-v0.2","","""event"",""trial"",""time""
""fullscreenenter"",""1"",""11238""
","
","
","""event"",""trial"",""time""
""fullscreenenter"",""1"",""11238""
","
","","","-1","","","14","20705","2414","p","elianto","#3366ff99","-1","-1","1","+10","[]","0","2","","","20705","81","5","2","win","no-go","0"
"pit-trial","206","1673666","0.0-86.0","battery-v0.2","","""event"",""trial"",""time""
""fullscreenenter"",""1"",""11238""
","
","
","""event"",""trial"",""time""
""fullscreenenter"",""1"",""11238""
","
","","","-1","","","14","20705","2414","s","elianto","#3366ff99"," ","-1","0","+10","[]","0","2","","","20705","82","4","1","win","go","1"
"pit-trial","207","1678524","0.0-87.0","battery-v0.2","","""event"",""trial"",""time""
""fullscreenenter"",""1"",""11238""
","
","
","""event"",""trial"",""time""
""fullscreenenter"",""1"",""11238""
","
","","","-1","","","14","20705","2414","a","elianto","#f73b6a7A","-1","-1","1","-10","[]","0","2","","","20705","83","7","4","lose","no-go","1"
"pit-trial","208","1683381","0.0-88.0","battery-v0.2","","""event"",""trial"",""time""
""fullscreenenter"",""1"",""11238""
","
","
","""event"",""trial"",""time""
""fullscreenenter"",""1"",""11238""
","
","","","-1","","","14","20705","2414","w","elianto","#f73b6a7A","-1","-1","1","0","[]","0","2","","","20705","84","3","4","lose","no-go","0"
"pit-trial","209","1688238","0.0-89.0","battery-v0.2","","""event"",""trial"",""time""
""fullscreenenter"",""1"",""11238""
","
","
","""event"",""trial"",""time""
""fullscreenenter"",""1"",""11238""
","
","","","-1","","","14","20705","2414","a","elianto","#f73b6a7A","-1","-1","1","0","[3167.599999997765,3305.699999999255,3718.199999999255]","3","2","","","20705","85","7","4","lose","no-go","0"
"pit-trial","210","1691831","0.0-90.0","battery-v0.2","","""event"",""trial"",""time""
""fullscreenenter"",""1"",""11238""
","
","
","""event"",""trial"",""time""
""fullscreenenter"",""1"",""11238""
","
","","","736","","","14","20705","2414","p","elianto","#3366ff99","-1"," ","0","0","[1586.199999999255,2878.699999999255,3443.60000000149]","3","2","","","20705","86","5","2","win","no-go","0"
"pit-trial","211","1694921","0.0-91.0","battery-v0.2","","""event"",""trial"",""time""
""fullscreenenter"",""1"",""11238""
","
","
","""event"",""trial"",""time""
""fullscreenenter"",""1"",""11238""
","
","","","232.30000000074506","","","14","20705","2414","g","elianto","#f73b6a7A"," "," ","1","0","[243.69999999925494,1082.5,1812.1000000014901]","3","2","","","20705","87","6","3","lose","go","0"
"pit-trial","212","1698196","0.0-92.0","battery-v0.2","","""event"",""trial"",""time""
""fullscreenenter"",""1"",""11238""
","
","
","""event"",""trial"",""time""
""fullscreenenter"",""1"",""11238""
","
","","","417.1000000014901","","","14","20705","2414","s","elianto","#3366ff99"," "," ","1","+10","[1267.2999999970198,3208.099999997765]","2","2","","","20705","88","4","1","win","go","0"
"pit-trial","213","1701690","0.0-93.0","battery-v0.2","","""event"",""trial"",""time""
""fullscreenenter"",""1"",""11238""
","
","
","""event"",""trial"",""time""
""fullscreenenter"",""1"",""11238""
","
","","","632.8999999985099","","","14","20705","2414","s","elianto","#3366ff99"," "," ","1","+10","[1487.5,3183.400000002235]","2","2","","","20705","89","4","1","win","go","0"
"pit-trial","214","1705001","0.0-94.0","battery-v0.2","","""event"",""trial"",""time""
""fullscreenenter"",""1"",""11238""
","
","
","""event"",""trial"",""time""
""fullscreenenter"",""1"",""11238""
","
","","","454.8999999985099","","","14","20705","2414","p","elianto","#3366ff99","-1"," ","0","0","[1305.300000000745]","1","2","","","20705","90","5","2","win","no-go","0"
"pit-trial","215","1708231","0.0-95.0","battery-v0.2","","""event"",""trial"",""time""
""fullscreenenter"",""1"",""11238""
","
","
","""event"",""trial"",""time""
""fullscreenenter"",""1"",""11238""
","
","","","375","","","14","20705","2414","a","elianto","#f73b6a7A","-1"," ","0","-10","[1225.1000000014901]","1","2","","","20705","91","7","4","lose","no-go","0"
"pit-trial","216","1711154","0.0-96.0","battery-v0.2","","""event"",""trial"",""time""
""fullscreenenter"",""1"",""11238""
","
","
","""event"",""trial"",""time""
""fullscreenenter"",""1"",""11238""
","
","","","65.39999999850988","","","14","20705","2414","g","elianto","#f73b6a7A"," "," ","1","0","[915.6999999992549]","1","2","","","20705","92","6","3","lose","go","0"
"pit-trial","217","1714084","0.0-97.0","battery-v0.2","","""event"",""trial"",""time""
""fullscreenenter"",""1"",""11238""
","
","
","""event"",""trial"",""time""
""fullscreenenter"",""1"",""11238""
","
","","","73.5","","","14","20705","2414","p","elianto","#3366ff99","-1"," ","0","0","[134.79999999701977,923.5]","2","2","","","20705","93","5","2","win","no-go","0"
"pit-trial","218","1717865","0.0-98.0","battery-v0.2","","""event"",""trial"",""time""
""fullscreenenter"",""1"",""11238""
","
","
","""event"",""trial"",""time""
""fullscreenenter"",""1"",""11238""
","
","","","923.8000000007451","","","14","20705","2414","a","elianto","#f73b6a7A","-1"," ","0","-10","[1774.699999999255]","1","2","","","20705","94","7","4","lose","no-go","0"
"pit-trial","219","1721201","0.0-99.0","battery-v0.2","","""event"",""trial"",""time""
""fullscreenenter"",""1"",""11238""
","
","
","""event"",""trial"",""time""
""fullscreenenter"",""1"",""11238""
","
","","","478.69999999925494","","","14","20705","2414","l","elianto","#3366ff99"," "," ","1","+10","[1329]","1","2","","","20705","95","8","1","win","go","0"
"pit-trial","220","1724219","0.0-100.0","battery-v0.2","","""event"",""trial"",""time""
""fullscreenenter"",""1"",""11238""
","
","
","""event"",""trial"",""time""
""fullscreenenter"",""1"",""11238""
","
","","","161.19999999925494","","","14","20705","2414","g","elianto","#f73b6a7A"," "," ","1","0","[1011.3999999985099]","1","2","","","20705","96","6","3","lose","go","0"
"pit-trial","221","1727622","0.0-101.0","battery-v0.2","","""event"",""trial"",""time""
""fullscreenenter"",""1"",""11238""
","
","
","""event"",""trial"",""time""
""fullscreenenter"",""1"",""11238""
","
","","","542.1999999992549","","","14","20705","2414","p","elianto","#3366ff99","-1"," ","0","0","[1396]","1","2","","","20705","97","5","2","win","no-go","0"
"pit-trial","222","1730955","0.0-102.0","battery-v0.2","","""event"",""trial"",""time""
""fullscreenenter"",""1"",""11238""
","
","
","""event"",""trial"",""time""
""fullscreenenter"",""1"",""11238""
","
","","","476.20000000298023","","","14","20705","2414","g","elianto","#f73b6a7A"," "," ","1","0","[1326.3999999985099,3044.699999999255]","2","2","","","20705","98","6","3","lose","go","0"
"pit-trial","223","1734618","0.0-103.0","battery-v0.2","","""event"",""trial"",""time""
""fullscreenenter"",""1"",""11238""
","
","
","""event"",""trial"",""time""
""fullscreenenter"",""1"",""11238""
","
","","","806.3999999985099","","","14","20705","2414","a","elianto","#f73b6a7A","-1"," ","0","-10","[383.5,1656.5,1879.699999999255,2280.099999997765]","4","2","","","20705","99","7","4","lose","no-go","0"
"pit-trial","224","1737995","0.0-104.0","battery-v0.2","","""event"",""trial"",""time""
""fullscreenenter"",""1"",""11238""
","
","
","""event"",""trial"",""time""
""fullscreenenter"",""1"",""11238""
","
","","","519.8999999985099","","","14","20705","2414","l","elianto","#3366ff99"," "," ","1","+10","[1370.300000000745]","1","2","","","20705","100","8","1","win","go","0"
"pit-trial","225","1741498","0.0-105.0","battery-v0.2","","""event"",""trial"",""time""
""fullscreenenter"",""1"",""11238""
","
","
","""event"",""trial"",""time""
""fullscreenenter"",""1"",""11238""
","
","","","646.1000000014901","","","14","20705","2414","l","elianto","#3366ff99"," "," ","1","+10","[1496.3999999985099]","1","2","","","20705","101","8","1","win","go","0"
"pit-trial","226","1744433","0.0-106.0","battery-v0.2","","""event"",""trial"",""time""
""fullscreenenter"",""1"",""11238""
","
","
","""event"",""trial"",""time""
""fullscreenenter"",""1"",""11238""
","
","","","77.69999999925494","","","14","20705","2414","p","elianto","#3366ff99","-1"," ","0","0","[927.7999999970198,1298.3999999985099]","2","2","","","20705","102","5","2","win","no-go","0"
"pit-trial","227","1747764","0.0-107.0","battery-v0.2","","""event"",""trial"",""time""
""fullscreenenter"",""1"",""11238""
","
","
","""event"",""trial"",""time""
""fullscreenenter"",""1"",""11238""
","
","","","469.8999999985099","","","14","20705","2414","u","elianto","#3366ff99"," "," ","1","+10","[1323.9000000022352]","1","2","","","20705","103","9","1","win","go","0"
"pit-trial","228","1750940","0.0-108.0","battery-v0.2","","""event"",""trial"",""time""
""fullscreenenter"",""1"",""11238""
","
","
","""event"",""trial"",""time""
""fullscreenenter"",""1"",""11238""
","
","","","318","","","14","20705","2414","a","elianto","#f73b6a7A","-1"," ","0","0","[440.3999999985099,1168.3999999985099,1597.300000000745]","3","2","","","20705","104","7","4","lose","no-go","1"
"pit-trial","229","1755349","0.0-109.0","battery-v0.2","","""event"",""trial"",""time""
""fullscreenenter"",""1"",""11238""
","
","
","""event"",""trial"",""time""
""fullscreenenter"",""1"",""11238""
","
","","","1552.300000000745","","","14","20705","2414","l","elianto","#3366ff99"," "," ","1","+10","[2402.39999999851,3065.599999997765,3803.5]","3","2","","","20705","105","8","1","win","go","0"
"pit-trial","230","1758623","0.0-110.0","battery-v0.2","","""event"",""trial"",""time""
""fullscreenenter"",""1"",""11238""
","
","
","""event"",""trial"",""time""
""fullscreenenter"",""1"",""11238""
","
","","","415.69999999925494","","","14","20705","2414","u","elianto","#3366ff99"," "," ","1","0","[1266.0999999977648,1843.3999999985099,2358.5,2999]","4","2","","","20705","106","9","1","win","go","1"
"pit-trial","231","1762675","0.0-111.0","battery-v0.2","","""event"",""trial"",""time""
""fullscreenenter"",""1"",""11238""
","
","
","""event"",""trial"",""time""
""fullscreenenter"",""1"",""11238""
","
","","","1194.800000000745","","","14","20705","2414","g","elianto","#f73b6a7A"," "," ","1","0","[174.10000000149012,548.1999999992549,2044.9000000022352]","3","2","","","20705","107","6","3","lose","go","0"
"pit-trial","232","1766207","0.0-112.0","battery-v0.2","","""event"",""trial"",""time""
""fullscreenenter"",""1"",""11238""
","
","
","""event"",""trial"",""time""
""fullscreenenter"",""1"",""11238""
","
","","","674.1999999992549","","","14","20705","2414","s","elianto","#3366ff99"," "," ","1","+10","[1524.1000000014901]","1","2","","","20705","108","4","1","win","go","0"
"pit-trial","233","1769556","0.0-113.0","battery-v0.2","","""event"",""trial"",""time""
""fullscreenenter"",""1"",""11238""
","
","
","""event"",""trial"",""time""
""fullscreenenter"",""1"",""11238""
","
","","","491.6000000014901","","","14","20705","2414","u","elianto","#3366ff99"," "," ","1","+10","[1342]","1","2","","","20705","109","9","1","win","go","0"
"pit-trial","234","1773191","0.0-114.0","battery-v0.2","","""event"",""trial"",""time""
""fullscreenenter"",""1"",""11238""
","
","
","""event"",""trial"",""time""
""fullscreenenter"",""1"",""11238""
","
","","","772.4000000022352","","","14","20705","2414","p","elianto","#3366ff99","-1"," ","0","+10","[1628.199999999255]","1","2","","","20705","110","5","2","win","no-go","1"
"pit-trial","235","1777471","0.0-115.0","battery-v0.2","","""event"",""trial"",""time""
""fullscreenenter"",""1"",""11238""
","
","
","""event"",""trial"",""time""
""fullscreenenter"",""1"",""11238""
","
","","","1423.300000000745","","","14","20705","2414","l","elianto","#3366ff99"," "," ","1","+10","[2273.5]","1","2","","","20705","111","8","1","win","go","0"
"pit-trial","236","1782329","0.0-116.0","battery-v0.2","","""event"",""trial"",""time""
""fullscreenenter"",""1"",""11238""
","
","
","""event"",""trial"",""time""
""fullscreenenter"",""1"",""11238""
","
","","","-1","","","14","20705","2414","g","elianto","#f73b6a7A"," ","-1","0","-10","[]","0","2","","","20705","112","6","3","lose","go","0"
"pit-trial","237","1787187","0.0-117.0","battery-v0.2","","""event"",""trial"",""time""
""fullscreenenter"",""1"",""11238""
","
","
","""event"",""trial"",""time""
""fullscreenenter"",""1"",""11238""
","
","","","-1","","","14","20705","2414","g","elianto","#f73b6a7A"," ","-1","0","-10","[]","0","2","","","20705","113","6","3","lose","go","0"
"pit-trial","238","1792044","0.0-118.0","battery-v0.2","","""event"",""trial"",""time""
""fullscreenenter"",""1"",""11238""
","
","
","""event"",""trial"",""time""
""fullscreenenter"",""1"",""11238""
","
","","","-1","","","14","20705","2414","p","elianto","#3366ff99","-1","-1","1","+10","[]","0","2","","","20705","114","5","2","win","no-go","0"
"pit-trial","239","1796901","0.0-119.0","battery-v0.2","","""event"",""trial"",""time""
""fullscreenenter"",""1"",""11238""
","
","
","""event"",""trial"",""time""
""fullscreenenter"",""1"",""11238""
","
","","","-1","","","14","20705","2414","l","elianto","#3366ff99"," ","-1","0","+10","[]","0","2","","","20705","115","8","1","win","go","1"
"pit-trial","240","1800303","0.0-120.0","battery-v0.2","","""event"",""trial"",""time""
""fullscreenenter"",""1"",""11238""
","
","
","""event"",""trial"",""time""
""fullscreenenter"",""1"",""11238""
","
","","","544.5","","","14","20705","2414","u","elianto","#3366ff99"," "," ","1","0","[1394.699999999255]","1","2","","","20705","116","9","1","win","go","1"
"pit-trial","241","1804639","0.0-121.0","battery-v0.2","","""event"",""trial"",""time""
""fullscreenenter"",""1"",""11238""
","
","
","""event"",""trial"",""time""
""fullscreenenter"",""1"",""11238""
","
","","","1480.8999999985099","","","14","20705","2414","l","elianto","#3366ff99"," "," ","1","+10","[2331,3106.60000000149,3544.800000000745]","3","2","","","20705","117","8","1","win","go","0"
"pit-trial","242","1807770","0.0-122.0","battery-v0.2","","""event"",""trial"",""time""
""fullscreenenter"",""1"",""11238""
","
","
","""event"",""trial"",""time""
""fullscreenenter"",""1"",""11238""
","
","","","270.69999999925494","","","14","20705","2414","u","elianto","#3366ff99"," "," ","1","+10","[300.0999999977648,738.3000000007451,1124.3999999985099,1506.5999999977648,2115.599999997765,2652.89999999851,3003.099999997765]","7","2","","","20705","118","9","1","win","go","0"
"pit-trial","243","1810773","0.0-123.0","battery-v0.2","","""event"",""trial"",""time""
""fullscreenenter"",""1"",""11238""
","
","
","""event"",""trial"",""time""
""fullscreenenter"",""1"",""11238""
","
","","","143.89999999850988","","","14","20705","2414","p","elianto","#3366ff99","-1"," ","0","0","[193.60000000149012,541.8000000007451,994.8999999985099,1249.8999999985099,1690.5]","5","2","","","20705","119","5","2","win","no-go","0"
"pit-trial","244","1815631","0.0-124.0","battery-v0.2","","""event"",""trial"",""time""
""fullscreenenter"",""1"",""11238""
","
","
","""event"",""trial"",""time""
""fullscreenenter"",""1"",""11238""
","
","","","-1","","","14","20705","2414","g","elianto","#f73b6a7A"," ","-1","0","-10","[]","0","2","","","20705","120","6","3","lose","go","0"
"pit-trial","245","1819405","0.0-125.0","battery-v0.2","","""event"",""trial"",""time""
""fullscreenenter"",""1"",""11238""
","
","
","""event"",""trial"",""time""
""fullscreenenter"",""1"",""11238""
","
","","","917.3000000007451","","","14","20705","2414","l","elianto","#3366ff99"," "," ","1","0","[1767.5]","1","2","","","20705","121","8","1","win","go","1"
"pit-trial","246","1824263","0.0-126.0","battery-v0.2","","""event"",""trial"",""time""
""fullscreenenter"",""1"",""11238""
","
","
","""event"",""trial"",""time""
""fullscreenenter"",""1"",""11238""
","
","","","-1","","","14","20705","2414","g","elianto","#f73b6a7A"," ","-1","0","-10","[]","0","2","","","20705","122","6","3","lose","go","0"
"pit-trial","247","1827522","0.0-127.0","battery-v0.2","","""event"",""trial"",""time""
""fullscreenenter"",""1"",""11238""
","
","
","""event"",""trial"",""time""
""fullscreenenter"",""1"",""11238""
","
","","","402.1000000014901","","","14","20705","2414","u","elianto","#3366ff99"," "," ","1","0","[1252.300000000745,1961.300000000745,2516.199999999255,3085.10000000149]","4","2","","","20705","123","9","1","win","go","1"
"pit-trial","248","1832379","0.0-128.0","battery-v0.2","","""event"",""trial"",""time""
""fullscreenenter"",""1"",""11238""
","
","
","""event"",""trial"",""time""
""fullscreenenter"",""1"",""11238""
","
","","","-1","","","14","20705","2414","a","elianto","#f73b6a7A","-1","-1","1","-10","[]","0","2","","","20705","124","7","4","lose","no-go","1"
"pit-trial","249","1835800","0.0-129.0","battery-v0.2","","""event"",""trial"",""time""
""fullscreenenter"",""1"",""11238""
","
","
","""event"",""trial"",""time""
""fullscreenenter"",""1"",""11238""
","
","","","562.3000000007451","","","14","20705","2414","l","elianto","#3366ff99"," "," ","1","+10","[227.40000000223517,1412.4000000022352]","2","2","","","20705","125","8","1","win","go","0"
"pit-trial","250","1839068","0.0-130.0","battery-v0.2","","""event"",""trial"",""time""
""fullscreenenter"",""1"",""11238""
","
","
","""event"",""trial"",""time""
""fullscreenenter"",""1"",""11238""
","
","","","411.69999999925494","","","14","20705","2414","a","elianto","#f73b6a7A","-1"," ","0","-10","[283.80000000074506,1262.199999999255,2113.199999999255,2557.400000002235,2943.60000000149]","5","2","","","20705","126","7","4","lose","no-go","0"
"pit-trial","251","1842066","0.0-131.0","battery-v0.2","","""event"",""trial"",""time""
""fullscreenenter"",""1"",""11238""
","
","
","""event"",""trial"",""time""
""fullscreenenter"",""1"",""11238""
","
","","","140.70000000298023","","","14","20705","2414","g","elianto","#f73b6a7A"," "," ","1","0","[312.5,679.6000000014901,990.8000000007451,1268.9000000022352,1711.199999999255,2275.900000002235]","6","2","","","20705","127","6","3","lose","go","0"
"pit-trial","252","1844950","0.0-132.0","battery-v0.2","","""event"",""trial"",""time""
""fullscreenenter"",""1"",""11238""
","
","
","""event"",""trial"",""time""
""fullscreenenter"",""1"",""11238""
","
","","","22.5","","","14","20705","2414","u","elianto","#3366ff99"," "," ","1","+10","[380.5,876.6999999992549,1202.199999999255,1486.5,1944.300000000745,2655.400000002235]","6","2","","","20705","128","9","1","win","go","0"
"pit-trial","253","1847925","0.0-133.0","battery-v0.2","","""event"",""trial"",""time""
""fullscreenenter"",""1"",""11238""
","
","
","""event"",""trial"",""time""
""fullscreenenter"",""1"",""11238""
","
","","","117.30000000074506","","","14","20705","2414","l","elianto","#3366ff99"," "," ","1","0","[202.79999999701977,603.0999999977648,968.3999999985099,1247.5,1694.5]","5","2","","","20705","129","8","1","win","go","1"
"pit-trial","254","1851111","0.0-134.0","battery-v0.2","","""event"",""trial"",""time""
""fullscreenenter"",""1"",""11238""
","
","
","""event"",""trial"",""time""
""fullscreenenter"",""1"",""11238""
","
","","","328","","","14","20705","2414","g","elianto","#f73b6a7A"," "," ","1","0","[1178.199999999255,1563.1000000014901,2543.5]","3","2","","","20705","130","6","3","lose","go","0"
"pit-trial","255","1854232","0.0-135.0","battery-v0.2","","""event"",""trial"",""time""
""fullscreenenter"",""1"",""11238""
","
