"trial_type","trial_index","time_elapsed","internal_node_id","task_version","subject_id","interactions","blur_events","focus_events","fullscreenenter_events","fullscreenexit_events","success","view_history","rt","responses","num_errors","age","subject","participantId","rune","rune_set","hex","correct","choice","accuracy","outcome","keys","total_keys","block","practice","value","sub","trial","stimulus","robot","valence","action","sham"
"pavlovia","0","7","0.0-0.0","battery-v0.2","","""event"",""trial"",""time""
""fullscreenenter"",""1"",""3600""
","
","
","""event"",""trial"",""time""
""fullscreenenter"",""1"",""3600""
","
","","","","","","","","","","","","","","","","","","","","","","","","","","",""
"fullscreen","1","4575","0.0-1.0","battery-v0.2","","""event"",""trial"",""time""
""fullscreenenter"",""1"",""3600""
","
","
","""event"",""trial"",""time""
""fullscreenenter"",""1"",""3600""
","
","true","","","","","","","","","","","","","","","","","","","","","","","","","",""
"pit-instructions","2","10193","0.0-2.0-0.0","battery-v0.2","","""event"",""trial"",""time""
""fullscreenenter"",""1"",""3600""
","
","
","""event"",""trial"",""time""
""fullscreenenter"",""1"",""3600""
","
","","[{""page_index"":0,""viewing_time"":5612.89999999851}]","5613.5","","","","","","","","","","","","","","","","","","","","","","","",""
"pit-comprehension","3","13723","0.0-2.0-1.0-0.0","battery-v0.2","","""event"",""trial"",""time""
""fullscreenenter"",""1"",""3600""
","
","
","""event"",""trial"",""time""
""fullscreenenter"",""1"",""3600""
","
","","","3525.2999999970198","[""shark""]","0","25","18229","6903","","","","","","","","","","","","","","","","","","",""
"pit-instructions","4","15955","0.0-2.0-1.0-1.0","battery-v0.2","","""event"",""trial"",""time""
""fullscreenenter"",""1"",""3600""
","
","
","""event"",""trial"",""time""
""fullscreenenter"",""1"",""3600""
","
","","[{""page_index"":0,""viewing_time"":2226.89999999851}]","2227.2999999970198","","","","","","","","","","","","","","","","","","","","","","","",""
"pit-comprehension","5","18556","0.0-2.0-2.0-0.0","battery-v0.2","","""event"",""trial"",""time""
""fullscreenenter"",""1"",""3600""
","
","
","""event"",""trial"",""time""
""fullscreenenter"",""1"",""3600""
","
","","","2597.7999999970198","[""tiger""]","0","25","18229","6903","","","","","","","","","","","","","","","","","","",""
"pit-instructions","6","19222","0.0-2.0-2.0-1.0","battery-v0.2","","""event"",""trial"",""time""
""fullscreenenter"",""1"",""3600""
","
","
","""event"",""trial"",""time""
""fullscreenenter"",""1"",""3600""
","
","","[{""page_index"":0,""viewing_time"":664.4000000059605}]","664.7000000029802","","","","","","","","","","","","","","","","","","","","","","","",""
"pit-instructions","7","125293","0.0-2.0-3.0","battery-v0.2","","""event"",""trial"",""time""
""fullscreenenter"",""1"",""3600""
","
","
","""event"",""trial"",""time""
""fullscreenenter"",""1"",""3600""
","
","","[{""page_index"":0,""viewing_time"":8981},{""page_index"":1,""viewing_time"":6116.80000000447},{""page_index"":2,""viewing_time"":6485.10000000149},{""page_index"":3,""viewing_time"":6182.79999999702},{""page_index"":4,""viewing_time"":6102.39999999851},{""page_index"":5,""viewing_time"":5014.60000000149},{""page_index"":6,""viewing_time"":8915.5},{""page_index"":7,""viewing_time"":7152.79999999702},{""page_index"":8,""viewing_time"":10233.90000000596},{""page_index"":9,""viewing_time"":13647.19999999553},{""page_index"":10,""viewing_time"":7652},{""page_index"":11,""viewing_time"":7484.70000000298},{""page_index"":12,""viewing_time"":6864.29999999702},{""page_index"":13,""viewing_time"":5235.70000000298}]","106069.5","","","","","","","","","","","","","","","","","","","","","","","",""
"pit-trial","8","128996","0.0-2.0-4.0-0.0","battery-v0.2","","""event"",""trial"",""time""
""fullscreenenter"",""1"",""3600""
","
","
","""event"",""trial"",""time""
""fullscreenenter"",""1"",""3600""
","
","","","844.2000000029802","","","25","18229","6903","&#9784;","elianto","#FFFFF080"," "," ","1","&#10004","[1695.8000000044703]","1","0","0","","","","","","","",""
"pit-trial","9","132549","0.0-2.0-4.1-0.1","battery-v0.2","","""event"",""trial"",""time""
""fullscreenenter"",""1"",""3600""
","
","
","""event"",""trial"",""time""
""fullscreenenter"",""1"",""3600""
","
","","","695.6000000014901","","","25","18229","6903","&#9784;","elianto","#FFFFF080"," "," ","1","&#10004","[540.7000000029802,1546.3999999985099]","2","0","0","","","","","","","",""
"pit-trial","10","136103","0.0-2.0-4.2-0.2","battery-v0.2","","""event"",""trial"",""time""
""fullscreenenter"",""1"",""3600""
","
","
","""event"",""trial"",""time""
""fullscreenenter"",""1"",""3600""
","
","","","697.8000000044703","","","25","18229","6903","&#9784;","elianto","#FFFFF080"," "," ","1","&#10004","[1548.2999999970198]","1","0","0","","","","","","","",""
"pit-trial","11","139642","0.0-2.0-4.3-0.3","battery-v0.2","","""event"",""trial"",""time""
""fullscreenenter"",""1"",""3600""
","
","
","""event"",""trial"",""time""
""fullscreenenter"",""1"",""3600""
","
","","","682.4000000059605","","","25","18229","6903","&#9784;","elianto","#FFFFF080"," "," ","1","&#10004","[1533]","1","0","0","","","","","","","",""
"pit-trial","12","143003","0.0-2.0-4.4-0.4","battery-v0.2","","""event"",""trial"",""time""
""fullscreenenter"",""1"",""3600""
","
","
","""event"",""trial"",""time""
""fullscreenenter"",""1"",""3600""
","
","","","504","","","25","18229","6903","&#9784;","elianto","#FFFFF080"," "," ","1","&#10004","[1355.3000000044703]","1","0","0","","","","","","","",""
"pit-instructions","13","164209","0.0-2.0-5.0","battery-v0.2","","""event"",""trial"",""time""
""fullscreenenter"",""1"",""3600""
","
","
","""event"",""trial"",""time""
""fullscreenenter"",""1"",""3600""
","
","","[{""page_index"":0,""viewing_time"":6199.89999999851},{""page_index"":1,""viewing_time"":5184},{""page_index"":2,""viewing_time"":4483.70000000298},{""page_index"":3,""viewing_time"":5333.39999999851}]","21201.70000000298","","","","","","","","","","","","","","","","","","","","","","","",""
"pit-trial","14","169066","0.0-2.0-6.0-0.0","battery-v0.2","","""event"",""trial"",""time""
""fullscreenenter"",""1"",""3600""
","
","
","""event"",""trial"",""time""
""fullscreenenter"",""1"",""3600""
","
","","","-1","","","25","18229","6903","&#9854;","elianto","#FFFFF080","-1","-1","1","&#10004","[]","0","0","1","","","","","","","",""
"pit-trial","15","173924","0.0-2.0-6.1-0.1","battery-v0.2","","""event"",""trial"",""time""
""fullscreenenter"",""1"",""3600""
","
","
","""event"",""trial"",""time""
""fullscreenenter"",""1"",""3600""
","
","","","-1","","","25","18229","6903","&#9854;","elianto","#FFFFF080","-1","-1","1","&#10004","[]","0","0","1","","","","","","","",""
"pit-trial","16","178782","0.0-2.0-6.2-0.2","battery-v0.2","","""event"",""trial"",""time""
""fullscreenenter"",""1"",""3600""
","
","
","""event"",""trial"",""time""
""fullscreenenter"",""1"",""3600""
","
","","","-1","","","25","18229","6903","&#9854;","elianto","#FFFFF080","-1","-1","1","&#10004","[]","0","0","1","","","","","","","",""
"pit-trial","17","183640","0.0-2.0-6.3-0.3","battery-v0.2","","""event"",""trial"",""time""
""fullscreenenter"",""1"",""3600""
","
","
","""event"",""trial"",""time""
""fullscreenenter"",""1"",""3600""
","
","","","-1","","","25","18229","6903","&#9854;","elianto","#FFFFF080","-1","-1","1","&#10004","[]","0","0","1","","","","","","","",""
"pit-trial","18","188499","0.0-2.0-6.4-0.4","battery-v0.2","","""event"",""trial"",""time""
""fullscreenenter"",""1"",""3600""
","
","
","""event"",""trial"",""time""
""fullscreenenter"",""1"",""3600""
","
","","","-1","","","25","18229","6903","&#9854;","elianto","#FFFFF080","-1","-1","1","&#10004","[]","0","0","1","","","","","","","",""
"pit-instructions","19","302709","0.0-2.0-7.0","battery-v0.2","","""event"",""trial"",""time""
""fullscreenenter"",""1"",""3600""
","
","
","""event"",""trial"",""time""
""fullscreenenter"",""1"",""3600""
","
","","[{""page_index"":0,""viewing_time"":5436.70000000298},{""page_index"":1,""viewing_time"":6201.60000000149},{""page_index"":2,""viewing_time"":5500.5999999940395},{""page_index"":3,""viewing_time"":5833},{""page_index"":4,""viewing_time"":5733.60000000149},{""page_index"":5,""viewing_time"":5015.80000000447},{""page_index"":6,""viewing_time"":4700.0999999940395},{""page_index"":7,""viewing_time"":7067.20000000298},{""page_index"":8,""viewing_time"":6366.60000000149},{""page_index"":9,""viewing_time"":8731.79999999702},{""page_index"":10,""viewing_time"":6867.5},{""page_index"":11,""viewing_time"":4869.10000000149},{""page_index"":12,""viewing_time"":7082.70000000298},{""page_index"":13,""viewing_time"":7515.29999999702},{""page_index"":14,""viewing_time"":8384},{""page_index"":15,""viewing_time"":6500.60000000149},{""page_index"":16,""viewing_time"":6048.60000000149},{""page_index"":17,""viewing_time"":6351.0999999940395}]","114206.5","","","","","","","","","","","","","","","","","","","","","","","",""
"pit-trial","20","306472","0.0-2.0-8.0-0.0","battery-v0.2","","""event"",""trial"",""time""
""fullscreenenter"",""1"",""3600""
","
","
","""event"",""trial"",""time""
""fullscreenenter"",""1"",""3600""
","
","","","908.1000000014901","","","25","18229","6903","&#9776;","elianto","#3366ff99"," "," ","1","+10","[1759.2999999970198]","1","0","1","","","","","","","",""
"pit-trial","21","309948","0.0-2.0-8.0-1.0","battery-v0.2","","""event"",""trial"",""time""
""fullscreenenter"",""1"",""3600""
","
","
","""event"",""trial"",""time""
""fullscreenenter"",""1"",""3600""
","
","","","621.2999999970198","","","25","18229","6903","&#9776;","elianto","#3366ff99"," "," ","1","+10","[1472.6999999955297]","1","0","1","","","","","","","",""
"pit-trial","22","313403","0.0-2.0-8.0-2.0","battery-v0.2","","""event"",""trial"",""time""
""fullscreenenter"",""1"",""3600""
","
","
","""event"",""trial"",""time""
""fullscreenenter"",""1"",""3600""
","
","","","598.5","","","25","18229","6903","&#9776;","elianto","#3366ff99"," "," ","1","+10","[1449.0999999940395]","1","0","1","","","","","","","",""
"pit-trial","23","316823","0.0-2.0-8.0-3.0","battery-v0.2","","""event"",""trial"",""time""
""fullscreenenter"",""1"",""3600""
","
","
","""event"",""trial"",""time""
""fullscreenenter"",""1"",""3600""
","
","","","564.5","","","25","18229","6903","&#9776;","elianto","#3366ff99"," "," ","1","0","[1414.6999999955297]","1","0","1","","","","","","","",""
"pit-trial","24","320258","0.0-2.0-8.0-4.0","battery-v0.2","","""event"",""trial"",""time""
""fullscreenenter"",""1"",""3600""
","
","
","""event"",""trial"",""time""
""fullscreenenter"",""1"",""3600""
","
","","","577.7999999970198","","","25","18229","6903","&#9776;","elianto","#3366ff99"," "," ","1","+10","[1428.9000000059605]","1","0","1","","","","","","","",""
"pit-trial","25","323663","0.0-2.0-8.1-0.1","battery-v0.2","","""event"",""trial"",""time""
""fullscreenenter"",""1"",""3600""
","
","
","""event"",""trial"",""time""
""fullscreenenter"",""1"",""3600""
","
","","","546.7000000029802","","","25","18229","6903","&#9776;","elianto","#3366ff99"," "," ","1","+10","[1397.6999999955297]","1","0","1","","","","","","","",""
"pit-trial","26","327099","0.0-2.0-8.1-1.1","battery-v0.2","","""event"",""trial"",""time""
""fullscreenenter"",""1"",""3600""
","
","
","""event"",""trial"",""time""
""fullscreenenter"",""1"",""3600""
","
","","","579.8999999985099","","","25","18229","6903","&#9776;","elianto","#3366ff99"," "," ","1","+10","[1431.4000000059605]","1","0","1","","","","","","","",""
"pit-trial","27","330489","0.0-2.0-8.1-2.1","battery-v0.2","","""event"",""trial"",""time""
""fullscreenenter"",""1"",""3600""
","
","
","""event"",""trial"",""time""
""fullscreenenter"",""1"",""3600""
","
","","","533.6999999955297","","","25","18229","6903","&#9776;","elianto","#3366ff99"," "," ","1","+10","[1383.8999999985099]","1","0","1","","","","","","","",""
"pit-trial","28","333982","0.0-2.0-8.1-3.1","battery-v0.2","","""event"",""trial"",""time""
""fullscreenenter"",""1"",""3600""
","
","
","""event"",""trial"",""time""
""fullscreenenter"",""1"",""3600""
","
","","","637.2000000029802","","","25","18229","6903","&#9776;","elianto","#3366ff99"," "," ","1","0","[1487.8999999985099]","1","0","1","","","","","","","",""
"pit-trial","29","337282","0.0-2.0-8.1-4.1","battery-v0.2","","""event"",""trial"",""time""
""fullscreenenter"",""1"",""3600""
","
","
","""event"",""trial"",""time""
""fullscreenenter"",""1"",""3600""
","
","","","443.8999999985099","","","25","18229","6903","&#9776;","elianto","#3366ff99"," "," ","1","+10","[1294.5]","1","0","1","","","","","","","",""
"pit-trial","30","340547","0.0-2.0-8.2-0.2","battery-v0.2","","""event"",""trial"",""time""
""fullscreenenter"",""1"",""3600""
","
","
","""event"",""trial"",""time""
""fullscreenenter"",""1"",""3600""
","
","","","408.79999999701977","","","25","18229","6903","&#9776;","elianto","#3366ff99"," "," ","1","+10","[1260.2000000029802]","1","0","1","","","","","","","",""
"pit-trial","31","343821","0.0-2.0-8.2-1.2","battery-v0.2","","""event"",""trial"",""time""
""fullscreenenter"",""1"",""3600""
","
","
","""event"",""trial"",""time""
""fullscreenenter"",""1"",""3600""
","
","","","417.70000000298023","","","25","18229","6903","&#9776;","elianto","#3366ff99"," "," ","1","+10","[1268.3999999985099]","1","0","1","","","","","","","",""
"pit-trial","32","347258","0.0-2.0-8.2-2.2","battery-v0.2","","""event"",""trial"",""time""
""fullscreenenter"",""1"",""3600""
","
","
","""event"",""trial"",""time""
""fullscreenenter"",""1"",""3600""
","
","","","579.7000000029802","","","25","18229","6903","&#9776;","elianto","#3366ff99"," "," ","1","+10","[1430.8000000044703]","1","0","1","","","","","","","",""
"pit-trial","33","350633","0.0-2.0-8.2-3.2","battery-v0.2","","""event"",""trial"",""time""
""fullscreenenter"",""1"",""3600""
","
","
","""event"",""trial"",""time""
""fullscreenenter"",""1"",""3600""
","
","","","518.5999999940395","","","25","18229","6903","&#9776;","elianto","#3366ff99"," "," ","1","0","[1369.7000000029802]","1","0","1","","","","","","","",""
"pit-trial","34","353992","0.0-2.0-8.2-4.2","battery-v0.2","","""event"",""trial"",""time""
""fullscreenenter"",""1"",""3600""
","
","
","""event"",""trial"",""time""
""fullscreenenter"",""1"",""3600""
","
","","","502.1000000014901","","","25","18229","6903","&#9776;","elianto","#3366ff99"," "," ","1","+10","[1352.8999999985099]","1","0","1","","","","","","","",""
"call-function","35","353995","0.0-2.0-9.0","battery-v0.2","","""event"",""trial"",""time""
""fullscreenenter"",""1"",""3600""
","
","
","""event"",""trial"",""time""
""fullscreenenter"",""1"",""3600""
","
","","","","","","","","","","","","","","","","","","","","","","","","","","",""
"pit-instructions","36","396891","0.0-2.0-10.0","battery-v0.2","","""event"",""trial"",""time""
""fullscreenenter"",""1"",""3600""
","
","
","""event"",""trial"",""time""
""fullscreenenter"",""1"",""3600""
","
","","[{""page_index"":0,""viewing_time"":5411},{""page_index"":1,""viewing_time"":6584.89999999851},{""page_index"":2,""viewing_time"":10150.70000000298},{""page_index"":3,""viewing_time"":12382.79999999702},{""page_index"":4,""viewing_time"":8364.89999999851}]","42894.89999999851","","","","","","","","","","","","","","","","","","","","","","","",""
"pit-trial","37","400584","0.0-2.0-11.0-0.0","battery-v0.2","","""event"",""trial"",""time""
""fullscreenenter"",""1"",""3600""
","
","
","""event"",""trial"",""time""
""fullscreenenter"",""1"",""3600""
","
","","","836.7999999970198","","","25","18229","6903","&#9761;","elianto","#3366ff99","-1"," ","0","0","[1687.5]","1","0","2","","","","","","","",""
"pit-trial","38","404242","0.0-2.0-11.0-1.0","battery-v0.2","","""event"",""trial"",""time""
""fullscreenenter"",""1"",""3600""
","
","
","""event"",""trial"",""time""
""fullscreenenter"",""1"",""3600""
","
","","","801","","","25","18229","6903","&#9761;","elianto","#3366ff99","-1"," ","0","0","[1652.6000000014901]","1","0","2","","","","","","","",""
"pit-trial","39","407692","0.0-2.0-11.0-2.0","battery-v0.2","","""event"",""trial"",""time""
""fullscreenenter"",""1"",""3600""
","
","
","""event"",""trial"",""time""
""fullscreenenter"",""1"",""3600""
","
","","","593.3999999985099","","","25","18229","6903","&#9761;","elianto","#3366ff99","-1"," ","0","0","[1444.3999999985099]","1","0","2","","","","","","","",""
"pit-trial","40","411038","0.0-2.0-11.0-3.0","battery-v0.2","","""event"",""trial"",""time""
""fullscreenenter"",""1"",""3600""
","
","
","""event"",""trial"",""time""
""fullscreenenter"",""1"",""3600""
","
","","","489.1000000014901","","","25","18229","6903","&#9761;","elianto","#3366ff99","-1"," ","0","+10","[1339.8999999985099]","1","0","2","","","","","","","",""
"pit-trial","41","415733","0.0-2.0-11.0-4.0","battery-v0.2","","""event"",""trial"",""time""
""fullscreenenter"",""1"",""3600""
","
","
","""event"",""trial"",""time""
""fullscreenenter"",""1"",""3600""
","
","","","1838.3999999985099","","","25","18229","6903","&#9761;","elianto","#3366ff99","-1"," ","0","0","[2689]","1","0","2","","","","","","","",""
"pit-trial","42","418852","0.0-2.0-11.1-0.1","battery-v0.2","","""event"",""trial"",""time""
""fullscreenenter"",""1"",""3600""
","
","
","""event"",""trial"",""time""
""fullscreenenter"",""1"",""3600""
","
","","","262.29999999701977","","","25","18229","6903","&#9761;","elianto","#3366ff99","-1"," ","0","0","[314.79999999701977,1113.1999999955297]","2","0","2","","","","","","","",""
"pit-trial","43","422289","0.0-2.0-11.1-1.1","battery-v0.2","","""event"",""trial"",""time""
""fullscreenenter"",""1"",""3600""
","
","
","""event"",""trial"",""time""
""fullscreenenter"",""1"",""3600""
","
","","","579.1999999955297","","","25","18229","6903","&#9761;","elianto","#3366ff99","-1"," ","0","0","[1430.5]","1","0","2","","","","","","","",""
"pit-trial","44","425872","0.0-2.0-11.1-2.1","battery-v0.2","","""event"",""trial"",""time""
""fullscreenenter"",""1"",""3600""
","
","
","""event"",""trial"",""time""
""fullscreenenter"",""1"",""3600""
","
","","","726.0999999940395","","","25","18229","6903","&#9761;","elianto","#3366ff99","-1"," ","0","0","[1577.2000000029802]","1","0","2","","","","","","","",""
"pit-trial","45","429171","0.0-2.0-11.1-3.1","battery-v0.2","","""event"",""trial"",""time""
""fullscreenenter"",""1"",""3600""
","
","
","""event"",""trial"",""time""
""fullscreenenter"",""1"",""3600""
","
","","","442.59999999403954","","","25","18229","6903","&#9761;","elianto","#3366ff99","-1"," ","0","+10","[1293.6999999955297]","1","0","2","","","","","","","",""
"pit-trial","46","433072","0.0-2.0-11.1-4.1","battery-v0.2","","""event"",""trial"",""time""
""fullscreenenter"",""1"",""3600""
","
","
","""event"",""trial"",""time""
""fullscreenenter"",""1"",""3600""
","
","","","1044.7999999970198","","","25","18229","6903","&#9761;","elianto","#3366ff99","-1"," ","0","0","[1895.5999999940395]","1","0","2","","","","","","","",""
"pit-trial","47","436165","0.0-2.0-11.2-0.2","battery-v0.2","","""event"",""trial"",""time""
""fullscreenenter"",""1"",""3600""
","
","
","""event"",""trial"",""time""
""fullscreenenter"",""1"",""3600""
","
","","","236.10000000149012","","","25","18229","6903","&#9761;","elianto","#3366ff99","-1"," ","0","0","[1087.1000000014901]","1","0","2","","","","","","","",""
"pit-trial","48","439566","0.0-2.0-11.2-1.2","battery-v0.2","","""event"",""trial"",""time""
""fullscreenenter"",""1"",""3600""
","
","
","""event"",""trial"",""time""
""fullscreenenter"",""1"",""3600""
","
","","","544.1999999955297","","","25","18229","6903","&#9761;","elianto","#3366ff99","-1"," ","0","0","[1395.3999999985099]","1","0","2","","","","","","","",""
"pit-trial","49","442881","0.0-2.0-11.2-2.2","battery-v0.2","","""event"",""trial"",""time""
""fullscreenenter"",""1"",""3600""
","
","
","""event"",""trial"",""time""
""fullscreenenter"",""1"",""3600""
","
","","","458.70000000298023","","","25","18229","6903","&#9761;","elianto","#3366ff99","-1"," ","0","0","[408.6000000014901,1310.5]","2","0","2","","","","","","","",""
"pit-trial","50","446362","0.0-2.0-11.2-3.2","battery-v0.2","","""event"",""trial"",""time""
""fullscreenenter"",""1"",""3600""
","
","
","""event"",""trial"",""time""
""fullscreenenter"",""1"",""3600""
","
","","","624.2999999970198","","","25","18229","6903","&#9761;","elianto","#3366ff99","-1"," ","0","+10","[1476.5]","1","0","2","","","","","","","",""
"pit-trial","51","449538","0.0-2.0-11.2-4.2","battery-v0.2","","""event"",""trial"",""time""
""fullscreenenter"",""1"",""3600""
","
","
","""event"",""trial"",""time""
""fullscreenenter"",""1"",""3600""
","
","","","319","","","25","18229","6903","&#9761;","elianto","#3366ff99","-1"," ","0","0","[1170.1000000014901]","1","0","2","","","","","","","",""
"pit-trial","52","452707","0.0-2.0-11.3-0.3","battery-v0.2","","""event"",""trial"",""time""
""fullscreenenter"",""1"",""3600""
","
","
","""event"",""trial"",""time""
""fullscreenenter"",""1"",""3600""
","
","","","311.70000000298023","","","25","18229","6903","&#9761;","elianto","#3366ff99","-1"," ","0","0","[1162.2000000029802]","1","0","2","","","","","","","",""
"pit-trial","53","455827","0.0-2.0-11.3-1.3","battery-v0.2","","""event"",""trial"",""time""
""fullscreenenter"",""1"",""3600""
","
","
","""event"",""trial"",""time""
""fullscreenenter"",""1"",""3600""
","
","","","263.1000000014901","","","25","18229","6903","&#9761;","elianto","#3366ff99","-1"," ","0","0","[1114.1999999955297]","1","0","2","","","","","","","",""
"pit-trial","54","459172","0.0-2.0-11.3-2.3","battery-v0.2","","""event"",""trial"",""time""
""fullscreenenter"",""1"",""3600""
","
","
","""event"",""trial"",""time""
""fullscreenenter"",""1"",""3600""
","
","","","488.3999999985099","","","25","18229","6903","&#9761;","elianto","#3366ff99","-1"," ","0","0","[1339.5999999940395]","1","0","2","","","","","","","",""
"pit-trial","55","462230","0.0-2.0-11.3-3.3","battery-v0.2","","""event"",""trial"",""time""
""fullscreenenter"",""1"",""3600""
","
","
","""event"",""trial"",""time""
""fullscreenenter"",""1"",""3600""
","
","","","203.10000000149012","","","25","18229","6903","&#9761;","elianto","#3366ff99","-1"," ","0","+10","[1053.5]","1","0","2","","","","","","","",""
"pit-trial","56","465742","0.0-2.0-11.3-4.3","battery-v0.2","","""event"",""trial"",""time""
""fullscreenenter"",""1"",""3600""
","
","
","""event"",""trial"",""time""
""fullscreenenter"",""1"",""3600""
","
","","","654.1999999955297","","","25","18229","6903","&#9761;","elianto","#3366ff99","-1"," ","0","0","[1506]","1","0","2","","","","","","","",""
"call-function","57","465745","0.0-2.0-12.0","battery-v0.2","","""event"",""trial"",""time""
""fullscreenenter"",""1"",""3600""
","
","
","""event"",""trial"",""time""
""fullscreenenter"",""1"",""3600""
","
","","","","","","","","","","","","","","","","","","","","","","","","","","",""
"pit-instructions","58","508161","0.0-2.0-13.0","battery-v0.2","","""event"",""trial"",""time""
""fullscreenenter"",""1"",""3600""
","
","
","""event"",""trial"",""time""
""fullscreenenter"",""1"",""3600""
","
","","[{""page_index"":0,""viewing_time"":6710.5},{""page_index"":1,""viewing_time"":7801.60000000149},{""page_index"":2,""viewing_time"":5516.29999999702},{""page_index"":3,""viewing_time"":15116.39999999851},{""page_index"":4,""viewing_time"":7269.10000000149}]","42414.5","","","","","","","","","","","","","","","","","","","","","","","",""
"pit-trial","59","513018","0.0-2.0-14.0-0.0","battery-v0.2","","""event"",""trial"",""time""
""fullscreenenter"",""1"",""3600""
","
","
","""event"",""trial"",""time""
""fullscreenenter"",""1"",""3600""
","
","","","-1","","","25","18229","6903","&#9826;","elianto","#f73b6a7A","-1","-1","1","0","[]","0","0","3","","","","","","","",""
"pit-trial","60","517874","0.0-2.0-14.0-1.0","battery-v0.2","","""event"",""trial"",""time""
""fullscreenenter"",""1"",""3600""
","
","
","""event"",""trial"",""time""
""fullscreenenter"",""1"",""3600""
","
","","","-1","","","25","18229","6903","&#9826;","elianto","#f73b6a7A","-1","-1","1","0","[]","0","0","3","","","","","","","",""
"pit-trial","61","522731","0.0-2.0-14.0-2.0","battery-v0.2","","""event"",""trial"",""time""
""fullscreenenter"",""1"",""3600""
","
","
","""event"",""trial"",""time""
""fullscreenenter"",""1"",""3600""
","
","","","-1","","","25","18229","6903","&#9826;","elianto","#f73b6a7A","-1","-1","1","0","[]","0","0","3","","","","","","","",""
"pit-trial","62","527589","0.0-2.0-14.0-3.0","battery-v0.2","","""event"",""trial"",""time""
""fullscreenenter"",""1"",""3600""
","
","
","""event"",""trial"",""time""
""fullscreenenter"",""1"",""3600""
","
","","","-1","","","25","18229","6903","&#9826;","elianto","#f73b6a7A","-1","-1","1","-10","[]","0","0","3","","","","","","","",""
"pit-trial","63","532445","0.0-2.0-14.0-4.0","battery-v0.2","","""event"",""trial"",""time""
""fullscreenenter"",""1"",""3600""
","
","
","""event"",""trial"",""time""
""fullscreenenter"",""1"",""3600""
","
","","","-1","","","25","18229","6903","&#9826;","elianto","#f73b6a7A","-1","-1","1","0","[]","0","0","3","","","","","","","",""
"pit-trial","64","537302","0.0-2.0-14.1-0.1","battery-v0.2","","""event"",""trial"",""time""
""fullscreenenter"",""1"",""3600""
","
","
","""event"",""trial"",""time""
""fullscreenenter"",""1"",""3600""
","
","","","-1","","","25","18229","6903","&#9826;","elianto","#f73b6a7A","-1","-1","1","0","[]","0","0","3","","","","","","","",""
"pit-trial","65","542159","0.0-2.0-14.1-1.1","battery-v0.2","","""event"",""trial"",""time""
""fullscreenenter"",""1"",""3600""
","
","
","""event"",""trial"",""time""
""fullscreenenter"",""1"",""3600""
","
","","","-1","","","25","18229","6903","&#9826;","elianto","#f73b6a7A","-1","-1","1","0","[]","0","0","3","","","","","","","",""
"pit-trial","66","547017","0.0-2.0-14.1-2.1","battery-v0.2","","""event"",""trial"",""time""
""fullscreenenter"",""1"",""3600""
","
","
","""event"",""trial"",""time""
""fullscreenenter"",""1"",""3600""
","
","","","-1","","","25","18229","6903","&#9826;","elianto","#f73b6a7A","-1","-1","1","0","[]","0","0","3","","","","","","","",""
"pit-trial","67","551875","0.0-2.0-14.1-3.1","battery-v0.2","","""event"",""trial"",""time""
""fullscreenenter"",""1"",""3600""
","
","
","""event"",""trial"",""time""
""fullscreenenter"",""1"",""3600""
","
","","","-1","","","25","18229","6903","&#9826;","elianto","#f73b6a7A","-1","-1","1","-10","[]","0","0","3","","","","","","","",""
"pit-trial","68","556731","0.0-2.0-14.1-4.1","battery-v0.2","","""event"",""trial"",""time""
""fullscreenenter"",""1"",""3600""
","
","
","""event"",""trial"",""time""
""fullscreenenter"",""1"",""3600""
","
","","","-1","","","25","18229","6903","&#9826;","elianto","#f73b6a7A","-1","-1","1","0","[]","0","0","3","","","","","","","",""
"pit-trial","69","561587","0.0-2.0-14.2-0.2","battery-v0.2","","""event"",""trial"",""time""
""fullscreenenter"",""1"",""3600""
","
","
","""event"",""trial"",""time""
""fullscreenenter"",""1"",""3600""
","
","","","-1","","","25","18229","6903","&#9826;","elianto","#f73b6a7A","-1","-1","1","0","[]","0","0","3","","","","","","","",""
"pit-trial","70","566442","0.0-2.0-14.2-1.2","battery-v0.2","","""event"",""trial"",""time""
""fullscreenenter"",""1"",""3600""
","
","
","""event"",""trial"",""time""
""fullscreenenter"",""1"",""3600""
","
","","","-1","","","25","18229","6903","&#9826;","elianto","#f73b6a7A","-1","-1","1","0","[]","0","0","3","","","","","","","",""
"pit-trial","71","571298","0.0-2.0-14.2-2.2","battery-v0.2","","""event"",""trial"",""time""
""fullscreenenter"",""1"",""3600""
","
","
","""event"",""trial"",""time""
""fullscreenenter"",""1"",""3600""
","
","","","-1","","","25","18229","6903","&#9826;","elianto","#f73b6a7A","-1","-1","1","0","[]","0","0","3","","","","","","","",""
"pit-trial","72","576153","0.0-2.0-14.2-3.2","battery-v0.2","","""event"",""trial"",""time""
""fullscreenenter"",""1"",""3600""
","
","
","""event"",""trial"",""time""
""fullscreenenter"",""1"",""3600""
","
","","","-1","","","25","18229","6903","&#9826;","elianto","#f73b6a7A","-1","-1","1","-10","[]","0","0","3","","","","","","","",""
"pit-trial","73","581011","0.0-2.0-14.2-4.2","battery-v0.2","","""event"",""trial"",""time""
""fullscreenenter"",""1"",""3600""
","
","
","""event"",""trial"",""time""
""fullscreenenter"",""1"",""3600""
","
","","","-1","","","25","18229","6903","&#9826;","elianto","#f73b6a7A","-1","-1","1","0","[]","0","0","3","","","","","","","",""
"pit-trial","74","585867","0.0-2.0-14.3-0.3","battery-v0.2","","""event"",""trial"",""time""
""fullscreenenter"",""1"",""3600""
","
","
","""event"",""trial"",""time""
""fullscreenenter"",""1"",""3600""
","
","","","-1","","","25","18229","6903","&#9826;","elianto","#f73b6a7A","-1","-1","1","0","[]","0","0","3","","","","","","","",""
"pit-trial","75","590723","0.0-2.0-14.3-1.3","battery-v0.2","","""event"",""trial"",""time""
""fullscreenenter"",""1"",""3600""
","
","
","""event"",""trial"",""time""
""fullscreenenter"",""1"",""3600""
","
","","","-1","","","25","18229","6903","&#9826;","elianto","#f73b6a7A","-1","-1","1","0","[]","0","0","3","","","","","","","",""
"pit-trial","76","595578","0.0-2.0-14.3-2.3","battery-v0.2","","""event"",""trial"",""time""
""fullscreenenter"",""1"",""3600""
","
","
","""event"",""trial"",""time""
""fullscreenenter"",""1"",""3600""
","
","","","-1","","","25","18229","6903","&#9826;","elianto","#f73b6a7A","-1","-1","1","0","[]","0","0","3","","","","","","","",""
"pit-trial","77","600436","0.0-2.0-14.3-3.3","battery-v0.2","","""event"",""trial"",""time""
""fullscreenenter"",""1"",""3600""
","
","
","""event"",""trial"",""time""
""fullscreenenter"",""1"",""3600""
","
","","","-1","","","25","18229","6903","&#9826;","elianto","#f73b6a7A","-1","-1","1","-10","[]","0","0","3","","","","","","","",""
"pit-trial","78","605293","0.0-2.0-14.3-4.3","battery-v0.2","","""event"",""trial"",""time""
""fullscreenenter"",""1"",""3600""
","
","
","""event"",""trial"",""time""
""fullscreenenter"",""1"",""3600""
","
","","","-1","","","25","18229","6903","&#9826;","elianto","#f73b6a7A","-1","-1","1","0","[]","0","0","3","","","","","","","",""
"call-function","79","605296","0.0-2.0-15.0","battery-v0.2","","""event"",""trial"",""time""
""fullscreenenter"",""1"",""3600""
","
","
","""event"",""trial"",""time""
""fullscreenenter"",""1"",""3600""
","
","","","","","","","","","","","","","","","","","","","","","","","","","","",""
"pit-instructions","80","630025","0.0-2.0-16.0","battery-v0.2","","""event"",""trial"",""time""
""fullscreenenter"",""1"",""3600""
","
","
","""event"",""trial"",""time""
""fullscreenenter"",""1"",""3600""
","
","","[{""page_index"":0,""viewing_time"":6443.39999999851},{""page_index"":1,""viewing_time"":8250.79999999702},{""page_index"":2,""viewing_time"":4617.5},{""page_index"":3,""viewing_time"":5415.80000000447}]","24728.10000000149","","","","","","","","","","","","","","","","","","","","","","","",""
"pit-trial","81","634881","0.0-2.0-17.0-0.0","battery-v0.2","","""event"",""trial"",""time""
""fullscreenenter"",""1"",""3600""
","
","
","""event"",""trial"",""time""
""fullscreenenter"",""1"",""3600""
","
","","","-1","","","25","18229","6903","&#9789;","elianto","#f73b6a7A"," ","-1","0","-10","[]","0","0","4","","","","","","","",""
"pit-trial","82","638481","0.0-2.0-17.0-1.0","battery-v0.2","","""event"",""trial"",""time""
""fullscreenenter"",""1"",""3600""
","
","
","""event"",""trial"",""time""
""fullscreenenter"",""1"",""3600""
","
","","","744.3999999985099","","","25","18229","6903","&#9789;","elianto","#f73b6a7A"," "," ","1","0","[1595.8999999985099]","1","0","4","","","","","","","",""
"pit-trial","83","642052","0.0-2.0-17.0-2.0","battery-v0.2","","""event"",""trial"",""time""
""fullscreenenter"",""1"",""3600""
","
","
","""event"",""trial"",""time""
""fullscreenenter"",""1"",""3600""
","
","","","714.3000000044703","","","25","18229","6903","&#9789;","elianto","#f73b6a7A"," "," ","1","0","[1566.1000000014901]","1","0","4","","","","","","","",""
"pit-trial","84","645062","0.0-2.0-17.0-3.0","battery-v0.2","","""event"",""trial"",""time""
""fullscreenenter"",""1"",""3600""
","
","
","""event"",""trial"",""time""
""fullscreenenter"",""1"",""3600""
","
","","","153.30000000447035","","","25","18229","6903","&#9789;","elianto","#f73b6a7A"," "," ","1","-10","[1004.7000000029802]","1","0","4","","","","","","","",""
"pit-trial","85","649919","0.0-2.0-17.0-4.0","battery-v0.2","","""event"",""trial"",""time""
""fullscreenenter"",""1"",""3600""
","
","
","""event"",""trial"",""time""
""fullscreenenter"",""1"",""3600""
","
","","","-1","","","25","18229","6903","&#9789;","elianto","#f73b6a7A"," ","-1","0","-10","[]","0","0","4","","","","","","","",""
"pit-trial","86","653213","0.0-2.0-17.1-0.1","battery-v0.2","","""event"",""trial"",""time""
""fullscreenenter"",""1"",""3600""
","
","
","""event"",""trial"",""time""
""fullscreenenter"",""1"",""3600""
","
","","","435.8999999985099","","","25","18229","6903","&#9789;","elianto","#f73b6a7A"," "," ","1","0","[1286.8999999985099]","1","0","4","","","","","","","",""
"pit-trial","87","656332","0.0-2.0-17.1-1.1","battery-v0.2","","""event"",""trial"",""time""
""fullscreenenter"",""1"",""3600""
","
","
","""event"",""trial"",""time""
""fullscreenenter"",""1"",""3600""
","
","","","262.8999999985099","","","25","18229","6903","&#9789;","elianto","#f73b6a7A"," "," ","1","0","[1113.2999999970198]","1","0","4","","","","","","","",""
"pit-trial","88","659722","0.0-2.0-17.1-2.1","battery-v0.2","","""event"",""trial"",""time""
""fullscreenenter"",""1"",""3600""
","
","
","""event"",""trial"",""time""
""fullscreenenter"",""1"",""3600""
","
","","","532.7999999970198","","","25","18229","6903","&#9789;","elianto","#f73b6a7A"," "," ","1","0","[1384]","1","0","4","","","","","","","",""
"pit-trial","89","663051","0.0-2.0-17.1-3.1","battery-v0.2","","""event"",""trial"",""time""
""fullscreenenter"",""1"",""3600""
","
","
","""event"",""trial"",""time""
""fullscreenenter"",""1"",""3600""
","
","","","473.5","","","25","18229","6903","&#9789;","elianto","#f73b6a7A"," "," ","1","-10","[1324.2999999970198]","1","0","4","","","","","","","",""
"pit-trial","90","666292","0.0-2.0-17.1-4.1","battery-v0.2","","""event"",""trial"",""time""
""fullscreenenter"",""1"",""3600""
","
","
","""event"",""trial"",""time""
""fullscreenenter"",""1"",""3600""
","
","","","384.3999999985099","","","25","18229","6903","&#9789;","elianto","#f73b6a7A"," "," ","1","0","[1235.7999999970198]","1","0","4","","","","","","","",""
"pit-trial","91","669591","0.0-2.0-17.2-0.2","battery-v0.2","","""event"",""trial"",""time""
""fullscreenenter"",""1"",""3600""
","
","
","""event"",""trial"",""time""
""fullscreenenter"",""1"",""3600""
","
","","","441","","","25","18229","6903","&#9789;","elianto","#f73b6a7A"," "," ","1","0","[1292]","1","0","4","","","","","","","",""
"pit-trial","92","673071","0.0-2.0-17.2-1.2","battery-v0.2","","""event"",""trial"",""time""
""fullscreenenter"",""1"",""3600""
","
","
","""event"",""trial"",""time""
""fullscreenenter"",""1"",""3600""
","
","","","623.0999999940395","","","25","18229","6903","&#9789;","elianto","#f73b6a7A"," "," ","1","0","[1474.4000000059605]","1","0","4","","","","","","","",""
"pit-trial","93","676388","0.0-2.0-17.2-2.2","battery-v0.2","","""event"",""trial"",""time""
""fullscreenenter"",""1"",""3600""
","
","
","""event"",""trial"",""time""
""fullscreenenter"",""1"",""3600""
","
","","","460.1000000014901","","","25","18229","6903","&#9789;","elianto","#f73b6a7A"," "," ","1","0","[1311.1000000014901]","1","0","4","","","","","","","",""
"pit-trial","94","679717","0.0-2.0-17.2-3.2","battery-v0.2","","""event"",""trial"",""time""
""fullscreenenter"",""1"",""3600""
","
","
","""event"",""trial"",""time""
""fullscreenenter"",""1"",""3600""
","
","","","473.6000000014901","","","25","18229","6903","&#9789;","elianto","#f73b6a7A"," "," ","1","-10","[1323.7000000029802]","1","0","4","","","","","","","",""
"pit-trial","95","682806","0.0-2.0-17.2-4.2","battery-v0.2","","""event"",""trial"",""time""
""fullscreenenter"",""1"",""3600""
","
","
","""event"",""trial"",""time""
""fullscreenenter"",""1"",""3600""
","
","","","231.79999999701977","","","25","18229","6903","&#9789;","elianto","#f73b6a7A"," "," ","1","0","[1083.1000000014901]","1","0","4","","","","","","","",""
"pit-trial","96","686024","0.0-2.0-17.3-0.3","battery-v0.2","","""event"",""trial"",""time""
""fullscreenenter"",""1"",""3600""
","
","
","""event"",""trial"",""time""
""fullscreenenter"",""1"",""3600""
","
","","","361.90000000596046","","","25","18229","6903","&#9789;","elianto","#f73b6a7A"," "," ","1","0","[1213.1000000014901]","1","0","4","","","","","","","",""
"pit-trial","97","689116","0.0-2.0-17.3-1.3","battery-v0.2","","""event"",""trial"",""time""
""fullscreenenter"",""1"",""3600""
","
","
","""event"",""trial"",""time""
""fullscreenenter"",""1"",""3600""
","
","","","238","","","25","18229","6903","&#9789;","elianto","#f73b6a7A"," "," ","1","0","[1088.8999999985099]","1","0","4","","","","","","","",""
"pit-trial","98","692301","0.0-2.0-17.3-2.3","battery-v0.2","","""event"",""trial"",""time""
""fullscreenenter"",""1"",""3600""
","
","
","""event"",""trial"",""time""
""fullscreenenter"",""1"",""3600""
","
","","","328.19999999552965","","","25","18229","6903","&#9789;","elianto","#f73b6a7A"," "," ","1","0","[1178.7999999970198]","1","0","4","","","","","","","",""
"pit-trial","99","695449","0.0-2.0-17.3-3.3","battery-v0.2","","""event"",""trial"",""time""
""fullscreenenter"",""1"",""3600""
","
","
","""event"",""trial"",""time""
""fullscreenenter"",""1"",""3600""
","
","","","292.29999999701977","","","25","18229","6903","&#9789;","elianto","#f73b6a7A"," "," ","1","-10","[1143.5]","1","0","4","","","","","","","",""
"pit-trial","100","698900","0.0-2.0-17.3-4.3","battery-v0.2","","""event"",""trial"",""time""
""fullscreenenter"",""1"",""3600""
","
","
","""event"",""trial"",""time""
""fullscreenenter"",""1"",""3600""
","
","","","594.5","","","25","18229","6903","&#9789;","elianto","#f73b6a7A"," "," ","1","0","[1446.1000000014901]","1","0","4","","","","","","","",""
"call-function","101","698903","0.0-2.0-18.0","battery-v0.2","","""event"",""trial"",""time""
""fullscreenenter"",""1"",""3600""
","
","
","""event"",""trial"",""time""
""fullscreenenter"",""1"",""3600""
","
","","","","","","","","","","","","","","","","","","","","","","","","","","",""
"pit-instructions","102","766876","0.0-2.0-19.0","battery-v0.2","","""event"",""trial"",""time""
""fullscreenenter"",""1"",""3600""
","
","
","""event"",""trial"",""time""
""fullscreenenter"",""1"",""3600""
","
","","[{""page_index"":0,""viewing_time"":9792.10000000149},{""page_index"":1,""viewing_time"":4046.6999999955297},{""page_index"":2,""viewing_time"":9368.30000000447},{""page_index"":3,""viewing_time"":8280.79999999702},{""page_index"":4,""viewing_time"":8400.80000000447},{""page_index"":5,""viewing_time"":8382.09999999404},{""page_index"":6,""viewing_time"":8801.5},{""page_index"":7,""viewing_time"":6949.30000000447},{""page_index"":8,""viewing_time"":3950.6999999955297}]","67973","","","","","","","","","","","","","","","","","","","","","","","",""
"pit-comprehension","103","771358","0.0-2.0-20.0-0.0","battery-v0.2","","""event"",""trial"",""time""
""fullscreenenter"",""1"",""3600""
","
","
","""event"",""trial"",""time""
""fullscreenenter"",""1"",""3600""
","
","","","4476.69999999553","[""SPACE""]","0","25","18229","6903","","","","","","","","","","","","","","","","","","",""
"pit-instructions","104","775345","0.0-2.0-20.0-1.0","battery-v0.2","","""event"",""trial"",""time""
""fullscreenenter"",""1"",""3600""
","
","
","""event"",""trial"",""time""
""fullscreenenter"",""1"",""3600""
","
","","[{""page_index"":0,""viewing_time"":3963.60000000149}]","3963.89999999851","","","","","","","","","","","","","","","","","","","","","","","",""
"pit-comprehension","105","781742","0.0-2.0-21.0-0.0","battery-v0.2","","""event"",""trial"",""time""
""fullscreenenter"",""1"",""3600""
","
","
","""event"",""trial"",""time""
""fullscreenenter"",""1"",""3600""
","
","","","6394.39999999851","[""10""]","0","25","18229","6903","","","","","","","","","","","","","","","","","","",""
"pit-instructions","106","783491","0.0-2.0-21.0-1.0","battery-v0.2","","""event"",""trial"",""time""
""fullscreenenter"",""1"",""3600""
","
","
","""event"",""trial"",""time""
""fullscreenenter"",""1"",""3600""
","
","","[{""page_index"":0,""viewing_time"":1726.1000000014901}]","1726.2999999970198","","","","","","","","","","","","","","","","","","","","","","","",""
"pit-comprehension","107","790128","0.0-2.0-22.0-0.0","battery-v0.2","","""event"",""trial"",""time""
""fullscreenenter"",""1"",""3600""
","
","
","""event"",""trial"",""time""
""fullscreenenter"",""1"",""3600""
","
","","","6634","[""-10""]","1","25","18229","6903","","","","","","","","","","","","","","","","","","",""
"pit-instructions","108","798629","0.0-2.0-22.0-1.0","battery-v0.2","","""event"",""trial"",""time""
""fullscreenenter"",""1"",""3600""
","
","
","""event"",""trial"",""time""
""fullscreenenter"",""1"",""3600""
","
","","[{""page_index"":0,""viewing_time"":8471.19999999553}]","8471.79999999702","","","","","","","","","","","","","","","","","","","","","","","",""
"pit-instructions","109","799658","0.0-2.0-22.0-2.0-0.0","battery-v0.2","","""event"",""trial"",""time""
""fullscreenenter"",""1"",""3600""
","
","
","""event"",""trial"",""time""
""fullscreenenter"",""1"",""3600""
","
","","[{""page_index"":0,""viewing_time"":1026.6000000014901}]","1026.8999999985099","","","","","","","","","","","","","","","","","","","","","","","",""
"pit-comprehension","110","806509","0.0-2.0-22.1-0.1","battery-v0.2","","""event"",""trial"",""time""
""fullscreenenter"",""1"",""3600""
","
","
","""event"",""trial"",""time""
""fullscreenenter"",""1"",""3600""
","
","","","6848","[""0""]","0","25","18229","6903","","","","","","","","","","","","","","","","","","",""
"pit-instructions","111","810225","0.0-2.0-22.1-1.1","battery-v0.2","","""event"",""trial"",""time""
""fullscreenenter"",""1"",""3600""
","
","
","""event"",""trial"",""time""
""fullscreenenter"",""1"",""3600""
","
","","[{""page_index"":0,""viewing_time"":3691.10000000149}]","3691.3000000044703","","","","","","","","","","","","","","","","","","","","","","","",""
"pit-comprehension","112","822675","0.0-2.0-23.0-0.0","battery-v0.2","","""event"",""trial"",""time""
""fullscreenenter"",""1"",""3600""
","
","
","""event"",""trial"",""time""
""fullscreenenter"",""1"",""3600""
","
","","","12448.79999999702","[""True""]","0","25","18229","6903","","","","","","","","","","","","","","","","","","",""
"pit-instructions","113","823879","0.0-2.0-23.0-1.0","battery-v0.2","","""event"",""trial"",""time""
""fullscreenenter"",""1"",""3600""
","
","
","""event"",""trial"",""time""
""fullscreenenter"",""1"",""3600""
","
","","[{""page_index"":0,""viewing_time"":1178}]","1178.5","","","","","","","","","","","","","","","","","","","","","","","",""
"pit-comprehension","114","831342","0.0-2.0-24.0-0.0","battery-v0.2","","""event"",""trial"",""time""
""fullscreenenter"",""1"",""3600""
","
","
","""event"",""trial"",""time""
""fullscreenenter"",""1"",""3600""
","
","","","7459.4000000059605","[""True""]","0","25","18229","6903","","","","","","","","","","","","","","","","","","",""
"pit-instructions","115","833175","0.0-2.0-24.0-1.0","battery-v0.2","","""event"",""trial"",""time""
""fullscreenenter"",""1"",""3600""
","
","
","""event"",""trial"",""time""
""fullscreenenter"",""1"",""3600""
","
","","[{""page_index"":0,""viewing_time"":1808.1000000014901}]","1808.3999999985099","","","","","","","","","","","","","","","","","","","","","","","",""
"pit-comprehension","116","839592","0.0-2.0-25.0-0.0","battery-v0.2","","""event"",""trial"",""time""
""fullscreenenter"",""1"",""3600""
","
","
","""event"",""trial"",""time""
""fullscreenenter"",""1"",""3600""
","
","","","6414.60000000149","[""True""]","0","25","18229","6903","","","","","","","","","","","","","","","","","","",""
"pit-instructions","117","841728","0.0-2.0-25.0-1.0","battery-v0.2","","""event"",""trial"",""time""
""fullscreenenter"",""1"",""3600""
","
","
","""event"",""trial"",""time""
""fullscreenenter"",""1"",""3600""
","
","","[{""page_index"":0,""viewing_time"":2111}]","2111.60000000149","","","","","","","","","","","","","","","","","","","","","","","",""
"pit-comprehension","118","847175","0.0-2.0-26.0-0.0","battery-v0.2","","""event"",""trial"",""time""
""fullscreenenter"",""1"",""3600""
","
","
","""event"",""trial"",""time""
""fullscreenenter"",""1"",""3600""
","
","","","5443.10000000149","[""True""]","1","25","18229","6903","","","","","","","","","","","","","","","","","","",""
"pit-instructions","119","851808","0.0-2.0-26.0-1.0","battery-v0.2","","""event"",""trial"",""time""
""fullscreenenter"",""1"",""3600""
","
","
","""event"",""trial"",""time""
""fullscreenenter"",""1"",""3600""
","
","","[{""page_index"":0,""viewing_time"":4606.9000000059605}]","4607.20000000298","","","","","","","","","","","","","","","","","","","","","","","",""
"pit-instructions","120","853162","0.0-2.0-26.0-2.0-0.0","battery-v0.2","","""event"",""trial"",""time""
""fullscreenenter"",""1"",""3600""
","
","
","""event"",""trial"",""time""
""fullscreenenter"",""1"",""3600""
","
","","[{""page_index"":0,""viewing_time"":1352.1000000014901}]","1352.5","","","","","","","","","","","","","","","","","","","","","","","",""
"pit-comprehension","121","857859","0.0-2.0-26.1-0.1","battery-v0.2","","""event"",""trial"",""time""
""fullscreenenter"",""1"",""3600""
","
","
","""event"",""trial"",""time""
""fullscreenenter"",""1"",""3600""
","
","","","4694.30000000447","[""False""]","0","25","18229","6903","","","","","","","","","","","","","","","","","","",""
"pit-instructions","122","860109","0.0-2.0-26.1-1.1","battery-v0.2","","""event"",""trial"",""time""
""fullscreenenter"",""1"",""3600""
","
","
","""event"",""trial"",""time""
""fullscreenenter"",""1"",""3600""
","
","","[{""page_index"":0,""viewing_time"":2225.60000000149}]","2225.9000000059605","","","","","","","","","","","","","","","","","","","","","","","",""
"pit-instructions","123","876077","0.0-3.0","battery-v0.2","","""event"",""trial"",""time""
""fullscreenenter"",""1"",""3600""
","
","
","""event"",""trial"",""time""
""fullscreenenter"",""1"",""3600""
","
","","[{""page_index"":0,""viewing_time"":3819},{""page_index"":1,""viewing_time"":5280.69999999553},{""page_index"":2,""viewing_time"":6866.20000000298}]","15966.60000000149","","","","","","","","","","","","","","","","","","","","","","","",""
"pit-trial","124","879966","0.0-4.0","battery-v0.2","","""event"",""trial"",""time""
""fullscreenenter"",""1"",""3600""
","
","
","""event"",""trial"",""time""
""fullscreenenter"",""1"",""3600""
","
","","","1028.2000000029802","","","25","18229","6903","&#9728;","elianto","#f73b6a7A","-1"," ","0","0","[1879.5]","1","1","","","18229","1","0","4","lose","no-go","1"
"pit-trial","125","884419","0.0-5.0","battery-v0.2","","""event"",""trial"",""time""
""fullscreenenter"",""1"",""3600""
","
","
","""event"",""trial"",""time""
""fullscreenenter"",""1"",""3600""
","
","","","1596.1999999955297","","","25","18229","6903","&#9752;","elianto","#f73b6a7A"," "," ","1","0","[2447.60000000149]","1","1","","","18229","2","3","3","lose","go","0"
"pit-trial","126","888561","0.0-6.0","battery-v0.2","","""event"",""trial"",""time""
""fullscreenenter"",""1"",""3600""
","
","
","""event"",""trial"",""time""
""fullscreenenter"",""1"",""3600""
","
","","","1284.9000000059605","","","25","18229","6903","&#9730;","elianto","#3366ff99"," "," ","1","+10","[2136.10000000149]","1","1","","","18229","3","1","1","win","go","0"
"pit-trial","127","892022","0.0-7.0","battery-v0.2","","""event"",""trial"",""time""
""fullscreenenter"",""1"",""3600""
","
","
","""event"",""trial"",""time""
""fullscreenenter"",""1"",""3600""
","
","","","604","","","25","18229","6903","&#9733;","elianto","#3366ff99","-1"," ","0","0","[1455.4000000059605]","1","1","","","18229","4","2","2","win","no-go","0"
"pit-trial","128","895865","0.0-8.0","battery-v0.2","","""event"",""trial"",""time""
""fullscreenenter"",""1"",""3600""
","
","
","""event"",""trial"",""time""
""fullscreenenter"",""1"",""3600""
","
","","","986.8000000044703","","","25","18229","6903","&#9728;","elianto","#f73b6a7A","-1"," ","0","-10","[1837.7000000029802]","1","1","","","18229","5","0","4","lose","no-go","0"
"pit-trial","129","899510","0.0-9.0","battery-v0.2","","""event"",""trial"",""time""
""fullscreenenter"",""1"",""3600""
","
","
","""event"",""trial"",""time""
""fullscreenenter"",""1"",""3600""
","
","","","788.1999999955297","","","25","18229","6903","&#9733;","elianto","#3366ff99","-1"," ","0","0","[1639.6000000014901]","1","1","","","18229","6","2","2","win","no-go","0"
"pit-trial","130","903890","0.0-10.0","battery-v0.2","","""event"",""trial"",""time""
""fullscreenenter"",""1"",""3600""
","
","
","""event"",""trial"",""time""
""fullscreenenter"",""1"",""3600""
","
","","","1522.3999999985099","","","25","18229","6903","&#9752;","elianto","#f73b6a7A"," "," ","1","0","[2373.6999999955297]","1","1","","","18229","7","3","3","lose","go","0"
"pit-trial","131","907818","0.0-11.0","battery-v0.2","","""event"",""trial"",""time""
""fullscreenenter"",""1"",""3600""
","
","
","""event"",""trial"",""time""
""fullscreenenter"",""1"",""3600""
","
","","","1073.1000000014901","","","25","18229","6903","&#9730;","elianto","#3366ff99"," "," ","1","+10","[1924]","1","1","","","18229","8","1","1","win","go","0"
"pit-trial","132","912674","0.0-12.0","battery-v0.2","","""event"",""trial"",""time""
""fullscreenenter"",""1"",""3600""
","
","
","""event"",""trial"",""time""
""fullscreenenter"",""1"",""3600""
","
","","","-1","","","25","18229","6903","&#9733;","elianto","#3366ff99","-1","-1","1","+10","[]","0","1","","","18229","9","2","2","win","no-go","0"
"pit-trial","133","916941","0.0-13.0","battery-v0.2","","""event"",""trial"",""time""
""fullscreenenter"",""1"",""3600""
","
","
","""event"",""trial"",""time""
""fullscreenenter"",""1"",""3600""
","
","","","1410.8000000044703","","","25","18229","6903","&#9752;","elianto","#f73b6a7A"," "," ","1","0","[2261.2999999970198]","1","1","","","18229","10","3","3","lose","go","0"
"pit-trial","134","921799","0.0-14.0","battery-v0.2","","""event"",""trial"",""time""
""fullscreenenter"",""1"",""3600""
","
","
","""event"",""trial"",""time""
""fullscreenenter"",""1"",""3600""
","
","","","-1","","","25","18229","6903","&#9728;","elianto","#f73b6a7A","-1","-1","1","0","[]","0","1","","","18229","11","0","4","lose","no-go","0"
"pit-trial","135","925934","0.0-15.0","battery-v0.2","","""event"",""trial"",""time""
""fullscreenenter"",""1"",""3600""
","
","
","""event"",""trial"",""time""
""fullscreenenter"",""1"",""3600""
","
","","","1280","","","25","18229","6903","&#9730;","elianto","#3366ff99"," "," ","1","0","[2131.10000000149]","1","1","","","18229","12","1","1","win","go","1"
"pit-trial","136","929841","0.0-16.0","battery-v0.2","","""event"",""trial"",""time""
""fullscreenenter"",""1"",""3600""
","
","
","""event"",""trial"",""time""
""fullscreenenter"",""1"",""3600""
","
","","","1051.3000000044703","","","25","18229","6903","&#9730;","elianto","#3366ff99"," "," ","1","+10","[1902.5]","1","1","","","18229","13","1","1","win","go","0"
"pit-trial","137","933636","0.0-17.0","battery-v0.2","","""event"",""trial"",""time""
""fullscreenenter"",""1"",""3600""
","
","
","""event"",""trial"",""time""
""fullscreenenter"",""1"",""3600""
","
","","","937.5999999940395","","","25","18229","6903","&#9752;","elianto","#f73b6a7A"," "," ","1","0","[1789]","1","1","","","18229","14","3","3","lose","go","0"
"pit-trial","138","938493","0.0-18.0","battery-v0.2","","""event"",""trial"",""time""
""fullscreenenter"",""1"",""3600""
","
","
","""event"",""trial"",""time""
""fullscreenenter"",""1"",""3600""
","
","","","-1","","","25","18229","6903","&#9728;","elianto","#f73b6a7A","-1","-1","1","-10","[]","0","1","","","18229","15","0","4","lose","no-go","1"
"pit-trial","139","943351","0.0-19.0","battery-v0.2","","""event"",""trial"",""time""
""fullscreenenter"",""1"",""3600""
","
","
","""event"",""trial"",""time""
""fullscreenenter"",""1"",""3600""
","
","","","-1","","","25","18229","6903","&#9733;","elianto","#3366ff99","-1","-1","1","+10","[]","0","1","","","18229","16","2","2","win","no-go","0"
"pit-trial","140","946879","0.0-20.0","battery-v0.2","","""event"",""trial"",""time""
""fullscreenenter"",""1"",""3600""
","
","
","""event"",""trial"",""time""
""fullscreenenter"",""1"",""3600""
","
","","","670.5","","","25","18229","6903","&#9730;","elianto","#3366ff99"," "," ","1","+10","[1522.5]","1","1","","","18229","17","1","1","win","go","0"
"pit-trial","141","951737","0.0-21.0","battery-v0.2","","""event"",""trial"",""time""
""fullscreenenter"",""1"",""3600""
","
","
","""event"",""trial"",""time""
""fullscreenenter"",""1"",""3600""
","
","","","-1","","","25","18229","6903","&#9728;","elianto","#f73b6a7A","-1","-1","1","0","[]","0","1","","","18229","18","0","4","lose","no-go","0"
"pit-trial","142","956594","0.0-22.0","battery-v0.2","","""event"",""trial"",""time""
""fullscreenenter"",""1"",""3600""
","
","
","""event"",""trial"",""time""
""fullscreenenter"",""1"",""3600""
","
","","","-1","","","25","18229","6903","&#9733;","elianto","#3366ff99","-1","-1","1","+10","[]","0","1","","","18229","19","2","2","win","no-go","0"
"pit-trial","143","960231","0.0-23.0","battery-v0.2","","""event"",""trial"",""time""
""fullscreenenter"",""1"",""3600""
","
","
","""event"",""trial"",""time""
""fullscreenenter"",""1"",""3600""
","
","","","779.1000000014901","","","25","18229","6903","&#9752;","elianto","#f73b6a7A"," "," ","1","0","[1630.8999999985099]","1","1","","","18229","20","3","3","lose","go","0"
"pit-instructions","144","972711","0.0-24.0","battery-v0.2","","""event"",""trial"",""time""
""fullscreenenter"",""1"",""3600""
","
","
","""event"",""trial"",""time""
""fullscreenenter"",""1"",""3600""
","
","","[{""page_index"":0,""viewing_time"":6391.10000000149},{""page_index"":1,""viewing_time"":6085.19999999553}]","12477","","","","","","","","","","","","","","","","","","","","","","","",""
"pit-trial","145","976685","0.0-25.0","battery-v0.2","","""event"",""trial"",""time""
""fullscreenenter"",""1"",""3600""
","
","
","""event"",""trial"",""time""
""fullscreenenter"",""1"",""3600""
","
","","","1115.5999999940395","","","25","18229","6903","m","elianto","#f73b6a7A","-1"," ","0","0","[1966.8000000044703]","1","2","","","18229","21","0","4","lose","no-go","1"
"pit-trial","146","980704","0.0-26.0","battery-v0.2","","""event"",""trial"",""time""
""fullscreenenter"",""1"",""3600""
","
","
","""event"",""trial"",""time""
""fullscreenenter"",""1"",""3600""
","
","","","1162.1000000014901","","","25","18229","6903","r","elianto","#3366ff99"," "," ","1","+10","[2013.7999999970198]","1","2","","","18229","22","1","1","win","go","0"
"pit-trial","147","985561","0.0-27.0","battery-v0.2","","""event"",""trial"",""time""
""fullscreenenter"",""1"",""3600""
","
","
","""event"",""trial"",""time""
""fullscreenenter"",""1"",""3600""
","
","","","-1","","","25","18229","6903","h","elianto","#f73b6a7A"," ","-1","0","-10","[]","0","2","","","18229","23","3","3","lose","go","0"
"pit-trial","148","990419","0.0-28.0","battery-v0.2","","""event"",""trial"",""time""
""fullscreenenter"",""1"",""3600""
","
","
","""event"",""trial"",""time""
""fullscreenenter"",""1"",""3600""
","
","","","-1","","","25","18229","6903","y","elianto","#f73b6a7A","-1","-1","1","0","[]","0","2","","","18229","24","2","4","lose","no-go","0"
"pit-trial","149","994174","0.0-29.0","battery-v0.2","","""event"",""trial"",""time""
""fullscreenenter"",""1"",""3600""
","
","
","""event"",""trial"",""time""
""fullscreenenter"",""1"",""3600""
","
","","","898.5","","","25","18229","6903","r","elianto","#3366ff99"," "," ","1","0","[1750.4000000059605]","1","2","","","18229","25","1","1","win","go","1"
"pit-trial","150","998197","0.0-30.0","battery-v0.2","","""event"",""trial"",""time""
""fullscreenenter"",""1"",""3600""
","
","
","""event"",""trial"",""time""
""fullscreenenter"",""1"",""3600""
","
","","","1166.6000000014901","","","25","18229","6903","y","elianto","#f73b6a7A","-1"," ","0","-10","[2017.2999999970198]","1","2","","","18229","26","2","4","lose","no-go","0"
"pit-trial","151","1001840","0.0-31.0","battery-v0.2","","""event"",""trial"",""time""
""fullscreenenter"",""1"",""3600""
","
","
","""event"",""trial"",""time""
""fullscreenenter"",""1"",""3600""
","
","","","785.2999999970198","","","25","18229","6903","h","elianto","#f73b6a7A"," "," ","1","-10","[1637.1999999955297]","1","2","","","18229","27","3","3","lose","go","1"
"pit-trial","152","1005590","0.0-32.0","battery-v0.2","","""event"",""trial"",""time""
""fullscreenenter"",""1"",""3600""
","
","
","""event"",""trial"",""time""
""fullscreenenter"",""1"",""3600""
","
","","","894","","","25","18229","6903","m","elianto","#f73b6a7A","-1"," ","0","-10","[1744.6999999955297]","1","2","","","18229","28","0","4","lose","no-go","0"
"pit-trial","153","1009249","0.0-33.0","battery-v0.2","","""event"",""trial"",""time""
""fullscreenenter"",""1"",""3600""
","
","
","""event"",""trial"",""time""
""fullscreenenter"",""1"",""3600""
","
","","","802.6999999955297","","","25","18229","6903","r","elianto","#3366ff99"," "," ","1","+10","[1653.8999999985099]","1","2","","","18229","29","1","1","win","go","0"
"pit-trial","154","1012954","0.0-34.0","battery-v0.2","","""event"",""trial"",""time""
""fullscreenenter"",""1"",""3600""
","
","
","""event"",""trial"",""time""
""fullscreenenter"",""1"",""3600""
","
","","","847.5","","","25","18229","6903","h","elianto","#f73b6a7A"," "," ","1","0","[1699.1999999955297]","1","2","","","18229","30","3","3","lose","go","0"
"pit-trial","155","1017812","0.0-35.0","battery-v0.2","","""event"",""trial"",""time""
""fullscreenenter"",""1"",""3600""
","
","
","""event"",""trial"",""time""
""fullscreenenter"",""1"",""3600""
","
","","","-1","","","25","18229","6903","m","elianto","#f73b6a7A","-1","-1","1","0","[]","0","2","","","18229","31","0","4","lose","no-go","0"
"pit-trial","156","1022666","0.0-36.0","battery-v0.2","","""event"",""trial"",""time""
""fullscreenenter"",""1"",""3600""
","
","
","""event"",""trial"",""time""
""fullscreenenter"",""1"",""3600""
","
","","","-1","","","25","18229","6903","y","elianto","#f73b6a7A","-1","-1","1","0","[]","0","2","","","18229","32","2","4","lose","no-go","0"
"pit-trial","157","1026273","0.0-37.0","battery-v0.2","","""event"",""trial"",""time""
""fullscreenenter"",""1"",""3600""
","
","
","""event"",""trial"",""time""
""fullscreenenter"",""1"",""3600""
","
","","","750.5","","","25","18229","6903","h","elianto","#f73b6a7A"," "," ","1","0","[1601.7999999970198]","1","2","","","18229","33","3","3","lose","go","0"
"pit-trial","158","1031131","0.0-38.0","battery-v0.2","","""event"",""trial"",""time""
""fullscreenenter"",""1"",""3600""
","
","
","""event"",""trial"",""time""
""fullscreenenter"",""1"",""3600""
","
","","","-1","","","25","18229","6903","m","elianto","#f73b6a7A","-1","-1","1","-10","[]","0","2","","","18229","34","0","4","lose","no-go","1"
"pit-trial","159","1035987","0.0-39.0","battery-v0.2","","""event"",""trial"",""time""
""fullscreenenter"",""1"",""3600""
","
","
","""event"",""trial"",""time""
""fullscreenenter"",""1"",""3600""
","
","","","-1","","","25","18229","6903","y","elianto","#f73b6a7A","-1","-1","1","-10","[]","0","2","","","18229","35","2","4","lose","no-go","1"
"pit-trial","160","1039743","0.0-40.0","battery-v0.2","","""event"",""trial"",""time""
""fullscreenenter"",""1"",""3600""
","
","
","""event"",""trial"",""time""
""fullscreenenter"",""1"",""3600""
","
","","","900.3999999985099","","","25","18229","6903","r","elianto","#3366ff99"," "," ","1","+10","[1750.3999999985099]","1","2","","","18229","36","1","1","win","go","0"
"pit-trial","161","1044600","0.0-41.0","battery-v0.2","","""event"",""trial"",""time""
""fullscreenenter"",""1"",""3600""
","
","
","""event"",""trial"",""time""
""fullscreenenter"",""1"",""3600""
","
","","","-1","","","25","18229","6903","m","elianto","#f73b6a7A","-1","-1","1","0","[]","0","2","","","18229","37","0","4","lose","no-go","0"
"pit-trial","162","1048309","0.0-42.0","battery-v0.2","","""event"",""trial"",""time""
""fullscreenenter"",""1"",""3600""
","
","
","""event"",""trial"",""time""
""fullscreenenter"",""1"",""3600""
","
","","","852.3000000044703","","","25","18229","6903","r","elianto","#3366ff99"," "," ","1","+10","[1703.5]","1","2","","","18229","38","1","1","win","go","0"
"pit-trial","163","1053164","0.0-43.0","battery-v0.2","","""event"",""trial"",""time""
""fullscreenenter"",""1"",""3600""
","
","
","""event"",""trial"",""time""
""fullscreenenter"",""1"",""3600""
","
","","","-1","","","25","18229","6903","y","elianto","#f73b6a7A","-1","-1","1","0","[]","0","2","","","18229","39","2","4","lose","no-go","0"
"pit-trial","164","1057490","0.0-44.0","battery-v0.2","","""event"",""trial"",""time""
""fullscreenenter"",""1"",""3600""
","
","
","""event"",""trial"",""time""
""fullscreenenter"",""1"",""3600""
","
","","","1468.5","","","25","18229","6903","h","elianto","#f73b6a7A"," "," ","1","0","[2320.0999999940395]","1","2","","","18229","40","3","3","lose","go","0"
"pit-trial","165","1062064","0.0-45.0","battery-v0.2","","""event"",""trial"",""time""
""fullscreenenter"",""1"",""3600""
","
","
","""event"",""trial"",""time""
""fullscreenenter"",""1"",""3600""
","
","","","1717.5","","","25","18229","6903","h","elianto","#f73b6a7A"," "," ","1","0","[2568.1999999955297]","1","2","","","18229","41","3","3","lose","go","0"
"pit-trial","166","1065469","0.0-46.0","battery-v0.2","","""event"",""trial"",""time""
""fullscreenenter"",""1"",""3600""
","
","
","""event"",""trial"",""time""
""fullscreenenter"",""1"",""3600""
","
","","","548.6000000014901","","","25","18229","6903","r","elianto","#3366ff99"," "," ","1","0","[1399.5]","1","2","","","18229","42","1","1","win","go","1"
"pit-trial","167","1070327","0.0-47.0","battery-v0.2","","""event"",""trial"",""time""
""fullscreenenter"",""1"",""3600""
","
","
","""event"",""trial"",""time""
""fullscreenenter"",""1"",""3600""
","
","","","-1","","","25","18229","6903","y","elianto","#f73b6a7A","-1","-1","1","0","[]","0","2","","","18229","43","2","4","lose","no-go","0"
"pit-trial","168","1075185","0.0-48.0","battery-v0.2","","""event"",""trial"",""time""
""fullscreenenter"",""1"",""3600""
","
","
","""event"",""trial"",""time""
""fullscreenenter"",""1"",""3600""
","
","","","-1","","","25","18229","6903","m","elianto","#f73b6a7A","-1","-1","1","0","[]","0","2","","","18229","44","0","4","lose","no-go","0"
"pit-trial","169","1078789","0.0-49.0","battery-v0.2","","""event"",""trial"",""time""
""fullscreenenter"",""1"",""3600""
","
","
","""event"",""trial"",""time""
""fullscreenenter"",""1"",""3600""
","
","","","747.7000000029802","","","25","18229","6903","h","elianto","#f73b6a7A"," "," ","1","0","[1598.6000000014901]","1","2","","","18229","45","3","3","lose","go","0"
"pit-trial","170","1083646","0.0-50.0","battery-v0.2","","""event"",""trial"",""time""
""fullscreenenter"",""1"",""3600""
","
","
","""event"",""trial"",""time""
""fullscreenenter"",""1"",""3600""
","
","","","-1","","","25","18229","6903","y","elianto","#f73b6a7A","-1","-1","1","-10","[]","0","2","","","18229","46","2","4","lose","no-go","1"
"pit-trial","171","1087340","0.0-51.0","battery-v0.2","","""event"",""trial"",""time""
""fullscreenenter"",""1"",""3600""
","
","
","""event"",""trial"",""time""
""fullscreenenter"",""1"",""3600""
","
","","","835.3999999985099","","","25","18229","6903","m","elianto","#f73b6a7A","-1"," ","0","-10","[1687.0999999940395]","1","2","","","18229","47","0","4","lose","no-go","0"
"pit-trial","172","1091256","0.0-52.0","battery-v0.2","","""event"",""trial"",""time""
""fullscreenenter"",""1"",""3600""
","
","
","""event"",""trial"",""time""
""fullscreenenter"",""1"",""3600""
","
","","","1059.6000000014901","","","25","18229","6903","z","elianto","#3366ff99","-1"," ","0","0","[1910.2999999970198]","1","2","","","18229","48","4","2","win","no-go","0"
"pit-trial","173","1094795","0.0-53.0","battery-v0.2","","""event"",""trial"",""time""
""fullscreenenter"",""1"",""3600""
","
","
","""event"",""trial"",""time""
""fullscreenenter"",""1"",""3600""
","
","","","682.2000000029802","","","25","18229","6903","r","elianto","#3366ff99"," "," ","1","+10","[1532.6999999955297]","1","2","","","18229","49","1","1","win","go","0"
"pit-trial","174","1098259","0.0-54.0","battery-v0.2","","""event"",""trial"",""time""
""fullscreenenter"",""1"",""3600""
","
","
","""event"",""trial"",""time""
""fullscreenenter"",""1"",""3600""
","
","","","607.7999999970198","","","25","18229","6903","h","elianto","#f73b6a7A"," "," ","1","0","[1459.3999999985099]","1","2","","","18229","50","3","3","lose","go","0"
"pit-trial","175","1103113","0.0-55.0","battery-v0.2","","""event"",""trial"",""time""
""fullscreenenter"",""1"",""3600""
","
","
","""event"",""trial"",""time""
""fullscreenenter"",""1"",""3600""
","
","","","-1","","","25","18229","6903","z","elianto","#3366ff99","-1","-1","1","+10","[]","0","2","","","18229","51","4","2","win","no-go","0"
"pit-trial","176","1107971","0.0-56.0","battery-v0.2","","""event"",""trial"",""time""
""fullscreenenter"",""1"",""3600""
","
","
","""event"",""trial"",""time""
""fullscreenenter"",""1"",""3600""
","
","","","-1","","","25","18229","6903","m","elianto","#f73b6a7A","-1","-1","1","0","[]","0","2","","","18229","52","0","4","lose","no-go","0"
"pit-trial","177","1112828","0.0-57.0","battery-v0.2","","""event"",""trial"",""time""
""fullscreenenter"",""1"",""3600""
","
","
","""event"",""trial"",""time""
""fullscreenenter"",""1"",""3600""
","
","","","-1","","","25","18229","6903","y","elianto","#f73b6a7A","-1","-1","1","0","[]","0","2","","","18229","53","2","4","lose","no-go","0"
"pit-trial","178","1117685","0.0-58.0","battery-v0.2","","""event"",""trial"",""time""
""fullscreenenter"",""1"",""3600""
","
","
","""event"",""trial"",""time""
""fullscreenenter"",""1"",""3600""
","
","","","-1","","","25","18229","6903","z","elianto","#3366ff99","-1","-1","1","+10","[]","0","2","","","18229","54","4","2","win","no-go","0"
"pit-trial","179","1122542","0.0-59.0","battery-v0.2","","""event"",""trial"",""time""
""fullscreenenter"",""1"",""3600""
","
","
","""event"",""trial"",""time""
""fullscreenenter"",""1"",""3600""
","
","","","-1","","","25","18229","6903","m","elianto","#f73b6a7A","-1","-1","1","0","[]","0","2","","","18229","55","0","4","lose","no-go","0"
"pit-trial","180","1126417","0.0-60.0","battery-v0.2","","""event"",""trial"",""time""
""fullscreenenter"",""1"",""3600""
","
","
","""event"",""trial"",""time""
""fullscreenenter"",""1"",""3600""
","
","","","1018.5","","","25","18229","6903","r","elianto","#3366ff99"," "," ","1","+10","[1869]","1","2","","","18229","56","1","1","win","go","0"
"pit-trial","181","1129939","0.0-61.0","battery-v0.2","","""event"",""trial"",""time""
""fullscreenenter"",""1"",""3600""
","
","
","""event"",""trial"",""time""
""fullscreenenter"",""1"",""3600""
","
","","","664.1999999955297","","","25","18229","6903","h","elianto","#f73b6a7A"," "," ","1","-10","[1515.7000000029802]","1","2","","","18229","57","3","3","lose","go","1"
"pit-trial","182","1133480","0.0-62.0","battery-v0.2","","""event"",""trial"",""time""
""fullscreenenter"",""1"",""3600""
","
","
","""event"",""trial"",""time""
""fullscreenenter"",""1"",""3600""
","
","","","683.7000000029802","","","25","18229","6903","r","elianto","#3366ff99"," "," ","1","+10","[1535.2999999970198]","1","2","","","18229","58","1","1","win","go","0"
"pit-trial","183","1138339","0.0-63.0","battery-v0.2","","""event"",""trial"",""time""
""fullscreenenter"",""1"",""3600""
","
","
","""event"",""trial"",""time""
""fullscreenenter"",""1"",""3600""
","
","","","-1","","","25","18229","6903","m","elianto","#f73b6a7A","-1","-1","1","-10","[]","0","2","","","18229","59","0","4","lose","no-go","1"
"pit-trial","184","1143195","0.0-64.0","battery-v0.2","","""event"",""trial"",""time""
""fullscreenenter"",""1"",""3600""
","
","
","""event"",""trial"",""time""
""fullscreenenter"",""1"",""3600""
","
","","","-1","","","25","18229","6903","z","elianto","#3366ff99","-1","-1","1","+10","[]","0","2","","","18229","60","4","2","win","no-go","0"
"pit-trial","185","1146603","0.0-65.0","battery-v0.2","","""event"",""trial"",""time""
""fullscreenenter"",""1"",""3600""
","
","
","""event"",""trial"",""time""
""fullscreenenter"",""1"",""3600""
","
","","","551.1000000014901","","","25","18229","6903","r","elianto","#3366ff99"," "," ","1","+10","[1402.5]","1","2","","","18229","61","1","1","win","go","0"
"pit-trial","186","1151459","0.0-66.0","battery-v0.2","","""event"",""trial"",""time""
""fullscreenenter"",""1"",""3600""
","
","
","""event"",""trial"",""time""
""fullscreenenter"",""1"",""3600""
","
","","","-1","","","25","18229","6903","z","elianto","#3366ff99","-1","-1","1","+10","[]","0","2","","","18229","62","4","2","win","no-go","0"
"pit-trial","187","1154988","0.0-67.0","battery-v0.2","","""event"",""trial"",""time""
""fullscreenenter"",""1"",""3600""
","
","
","""event"",""trial"",""time""
""fullscreenenter"",""1"",""3600""
","
","","","674.2999999970198","","","25","18229","6903","h","elianto","#f73b6a7A"," "," ","1","0","[1525.5999999940395]","1","2","","","18229","63","3","3","lose","go","0"
"pit-trial","188","1159846","0.0-68.0","battery-v0.2","","""event"",""trial"",""time""
""fullscreenenter"",""1"",""3600""
","
","
","""event"",""trial"",""time""
""fullscreenenter"",""1"",""3600""
","
","","","-1","","","25","18229","6903","y","elianto","#f73b6a7A","-1","-1","1","0","[]","0","2","","","18229","64","2","4","lose","no-go","0"
"pit-trial","189","1164702","0.0-69.0","battery-v0.2","","""event"",""trial"",""time""
""fullscreenenter"",""1"",""3600""
","
","
","""event"",""trial"",""time""
""fullscreenenter"",""1"",""3600""
","
","","","-1","","","25","18229","6903","z","elianto","#3366ff99","-1","-1","1","0","[]","0","2","","","18229","65","4","2","win","no-go","1"
"pit-trial","190","1168265","0.0-70.0","battery-v0.2","","""event"",""trial"",""time""
""fullscreenenter"",""1"",""3600""
","
","
","""event"",""trial"",""time""
""fullscreenenter"",""1"",""3600""
","
","","","707.7000000029802","","","25","18229","6903","h","elianto","#f73b6a7A"," "," ","1","0","[1559.3999999985099]","1","2","","","18229","66","3","3","lose","go","0"
"pit-trial","191","1171759","0.0-71.0","battery-v0.2","","""event"",""trial"",""time""
""fullscreenenter"",""1"",""3600""
","
","
","""event"",""trial"",""time""
""fullscreenenter"",""1"",""3600""
","
","","","636.6000000014901","","","25","18229","6903","r","elianto","#3366ff99"," "," ","1","0","[1488.5]","1","2","","","18229","67","1","1","win","go","1"
"pit-trial","192","1176616","0.0-72.0","battery-v0.2","","""event"",""trial"",""time""
""fullscreenenter"",""1"",""3600""
","
","
","""event"",""trial"",""time""
""fullscreenenter"",""1"",""3600""
","
","","","-1","","","25","18229","6903","y","elianto","#f73b6a7A","-1","-1","1","0","[]","0","2","","","18229","68","2","4","lose","no-go","0"
"pit-trial","193","1180199","0.0-73.0","battery-v0.2","","""event"",""trial"",""time""
""fullscreenenter"",""1"",""3600""
","
","
","""event"",""trial"",""time""
""fullscreenenter"",""1"",""3600""
","
","","","724.8999999985099","","","25","18229","6903","r","elianto","#3366ff99"," "," ","1","+10","[1576.5]","1","2","","","18229","69","1","1","win","go","0"
"pit-trial","194","1183640","0.0-74.0","battery-v0.2","","""event"",""trial"",""time""
""fullscreenenter"",""1"",""3600""
","
","
","""event"",""trial"",""time""
""fullscreenenter"",""1"",""3600""
","
","","","583.8999999985099","","","25","18229","6903","h","elianto","#f73b6a7A"," "," ","1","0","[1435.1000000014901]","1","2","","","18229","70","3","3","lose","go","0"
"pit-trial","195","1187779","0.0-75.0","battery-v0.2","","""event"",""trial"",""time""
""fullscreenenter"",""1"",""3600""
","
","
","""event"",""trial"",""time""
""fullscreenenter"",""1"",""3600""
","
","","","1282.7999999970198","","","25","18229","6903","c","elianto","#3366ff99"," "," ","1","0","[2133.3000000044703]","1","2","","","18229","71","5","1","win","go","1"
"pit-trial","196","1192636","0.0-76.0","battery-v0.2","","""event"",""trial"",""time""
""fullscreenenter"",""1"",""3600""
","
","
","""event"",""trial"",""time""
""fullscreenenter"",""1"",""3600""
","
","","","-1","","","25","18229","6903","z","elianto","#3366ff99","-1","-1","1","0","[]","0","2","","","18229","72","4","2","win","no-go","1"
"pit-trial","197","1196885","0.0-77.0","battery-v0.2","","""event"",""trial"",""time""
""fullscreenenter"",""1"",""3600""
","
","
","""event"",""trial"",""time""
""fullscreenenter"",""1"",""3600""
","
","","","1392.9000000059605","","","25","18229","6903","z","elianto","#3366ff99","-1"," ","0","0","[2243.60000000149]","1","2","","","18229","73","4","2","win","no-go","0"
"pit-trial","198","1200556","0.0-78.0","battery-v0.2","","""event"",""trial"",""time""
""fullscreenenter"",""1"",""3600""
","
","
","""event"",""trial"",""time""
""fullscreenenter"",""1"",""3600""
","
","","","813.2000000029802","","","25","18229","6903","h","elianto","#f73b6a7A"," "," ","1","0","[1664.7000000029802]","1","2","","","18229","74","3","3","lose","go","0"
"pit-trial","199","1203978","0.0-79.0","battery-v0.2","","""event"",""trial"",""time""
""fullscreenenter"",""1"",""3600""
","
","
","""event"",""trial"",""time""
""fullscreenenter"",""1"",""3600""
","
","","","566.1000000014901","","","25","18229","6903","r","elianto","#3366ff99"," "," ","1","+10","[1416.8000000044703]","1","2","","","18229","75","1","1","win","go","0"
"pit-trial","200","1208834","0.0-80.0","battery-v0.2","","""event"",""trial"",""time""
""fullscreenenter"",""1"",""3600""
","
","
","""event"",""trial"",""time""
""fullscreenenter"",""1"",""3600""
","
","","","-1","","","25","18229","6903","c","elianto","#3366ff99"," ","-1","0","+10","[]","0","2","","","18229","76","5","1","win","go","1"
"pit-trial","201","1213688","0.0-81.0","battery-v0.2","","""event"",""trial"",""time""
""fullscreenenter"",""1"",""3600""
","
","
","""event"",""trial"",""time""
""fullscreenenter"",""1"",""3600""
","
","","","-1","","","25","18229","6903","b","elianto","#f73b6a7A","-1","-1","1","-10","[]","0","2","","","18229","77","6","4","lose","no-go","1"
"pit-trial","202","1218546","0.0-82.0","battery-v0.2","","""event"",""trial"",""time""
""fullscreenenter"",""1"",""3600""
","
","
","""event"",""trial"",""time""
""fullscreenenter"",""1"",""3600""
","
","","","-1","","","25","18229","6903","c","elianto","#3366ff99"," ","-1","0","0","[]","0","2","","","18229","78","5","1","win","go","0"
"pit-trial","203","1222188","0.0-83.0","battery-v0.2","","""event"",""trial"",""time""
""fullscreenenter"",""1"",""3600""
","
","
","""event"",""trial"",""time""
""fullscreenenter"",""1"",""3600""
","
","","","788.6999999955297","","","25","18229","6903","h","elianto","#f73b6a7A"," "," ","1","0","[1640]","1","2","","","18229","79","3","3","lose","go","0"
"pit-trial","204","1227046","0.0-84.0","battery-v0.2","","""event"",""trial"",""time""
""fullscreenenter"",""1"",""3600""
","
","
","""event"",""trial"",""time""
""fullscreenenter"",""1"",""3600""
","
","","","-1","","","25","18229","6903","z","elianto","#3366ff99","-1","-1","1","+10","[]","0","2","","","18229","80","4","2","win","no-go","0"
"pit-trial","205","1231903","0.0-85.0","battery-v0.2","","""event"",""trial"",""time""
""fullscreenenter"",""1"",""3600""
","
","
","""event"",""trial"",""time""
""fullscreenenter"",""1"",""3600""
","
","","","-1","","","25","18229","6903","z","elianto","#3366ff99","-1","-1","1","+10","[]","0","2","","","18229","81","4","2","win","no-go","0"
"pit-trial","206","1236760","0.0-86.0","battery-v0.2","","""event"",""trial"",""time""
""fullscreenenter"",""1"",""3600""
","
","
","""event"",""trial"",""time""
""fullscreenenter"",""1"",""3600""
","
","","","-1","","","25","18229","6903","c","elianto","#3366ff99"," ","-1","0","+10","[]","0","2","","","18229","82","5","1","win","go","1"
"pit-trial","207","1241617","0.0-87.0","battery-v0.2","","""event"",""trial"",""time""
""fullscreenenter"",""1"",""3600""
","
","
","""event"",""trial"",""time""
""fullscreenenter"",""1"",""3600""
","
","","","-1","","","25","18229","6903","t","elianto","#f73b6a7A"," ","-1","0","-10","[]","0","2","","","18229","83","7","3","lose","go","0"
"pit-trial","208","1246474","0.0-88.0","battery-v0.2","","""event"",""trial"",""time""
""fullscreenenter"",""1"",""3600""
","
","
","""event"",""trial"",""time""
""fullscreenenter"",""1"",""3600""
","
","","","-1","","","25","18229","6903","b","elianto","#f73b6a7A","-1","-1","1","0","[]","0","2","","","18229","84","6","4","lose","no-go","0"
"pit-trial","209","1250330","0.0-89.0","battery-v0.2","","""event"",""trial"",""time""
""fullscreenenter"",""1"",""3600""
","
","
","""event"",""trial"",""time""
""fullscreenenter"",""1"",""3600""
","
","","","999.2999999970198","","","25","18229","6903","t","elianto","#f73b6a7A"," "," ","1","0","[1849.3999999985099]","1","2","","","18229","85","7","3","lose","go","0"
"pit-trial","210","1255187","0.0-90.0","battery-v0.2","","""event"",""trial"",""time""
""fullscreenenter"",""1"",""3600""
","
","
","""event"",""trial"",""time""
""fullscreenenter"",""1"",""3600""
","
","","","-1","","","25","18229","6903","b","elianto","#f73b6a7A","-1","-1","1","0","[]","0","2","","","18229","86","6","4","lose","no-go","0"
"pit-trial","211","1260044","0.0-91.0","battery-v0.2","","""event"",""trial"",""time""
""fullscreenenter"",""1"",""3600""
","
","
","""event"",""trial"",""time""
""fullscreenenter"",""1"",""3600""
","
","","","-1","","","25","18229","6903","z","elianto","#3366ff99","-1","-1","1","+10","[]","0","2","","","18229","87","4","2","win","no-go","0"
"pit-trial","212","1264902","0.0-92.0","battery-v0.2","","""event"",""trial"",""time""
""fullscreenenter"",""1"",""3600""
","
","
","""event"",""trial"",""time""
""fullscreenenter"",""1"",""3600""
","
","","","-1","","","25","18229","6903","c","elianto","#3366ff99"," ","-1","0","0","[2870.89999999851]","1","2","","","18229","88","5","1","win","go","0"
"pit-trial","213","1268598","0.0-93.0","battery-v0.2","","""event"",""trial"",""time""
""fullscreenenter"",""1"",""3600""
","
","
","""event"",""trial"",""time""
""fullscreenenter"",""1"",""3600""
","
","","","841","","","25","18229","6903","z","elianto","#3366ff99","-1"," ","0","0","[1691.3999999985099]","1","2","","","18229","89","4","2","win","no-go","0"
"pit-trial","214","1272283","0.0-94.0","battery-v0.2","","""event"",""trial"",""time""
""fullscreenenter"",""1"",""3600""
","
","
","""event"",""trial"",""time""
""fullscreenenter"",""1"",""3600""
","
","","","831.2999999970198","","","25","18229","6903","c","elianto","#3366ff99"," "," ","1","+10","[1682.7999999970198]","1","2","","","18229","90","5","1","win","go","0"
"pit-trial","215","1275844","0.0-95.0","battery-v0.2","","""event"",""trial"",""time""
""fullscreenenter"",""1"",""3600""
","
","
","""event"",""trial"",""time""
""fullscreenenter"",""1"",""3600""
","
","","","705.3999999985099","","","25","18229","6903","t","elianto","#f73b6a7A"," "," ","1","0","[1557.6000000014901]","1","2","","","18229","91","7","3","lose","go","0"
"pit-trial","216","1280088","0.0-96.0","battery-v0.2","","""event"",""trial"",""time""
""fullscreenenter"",""1"",""3600""
","
","
","""event"",""trial"",""time""
""fullscreenenter"",""1"",""3600""
","
","","","1387.1000000014901","","","25","18229","6903","b","elianto","#f73b6a7A","-1"," ","0","0","[2238.60000000149]","1","2","","","18229","92","6","4","lose","no-go","1"
"pit-trial","217","1283749","0.0-97.0","battery-v0.2","","""event"",""trial"",""time""
""fullscreenenter"",""1"",""3600""
","
","
","""event"",""trial"",""time""
""fullscreenenter"",""1"",""3600""
","
","","","803.1999999955297","","","25","18229","6903","t","elianto","#f73b6a7A"," "," ","1","-10","[1654.2000000029802]","1","2","","","18229","93","7","3","lose","go","1"
"pit-trial","218","1288606","0.0-98.0","battery-v0.2","","""event"",""trial"",""time""
""fullscreenenter"",""1"",""3600""
","
","
","""event"",""trial"",""time""
""fullscreenenter"",""1"",""3600""
","
","","","-1","","","25","18229","6903","f","elianto","#3366ff99","-1","-1","1","0","[]","0","2","","","18229","94","8","2","win","no-go","1"
"pit-trial","219","1292285","0.0-99.0","battery-v0.2","","""event"",""trial"",""time""
""fullscreenenter"",""1"",""3600""
","
","
","""event"",""trial"",""time""
""fullscreenenter"",""1"",""3600""
","
","","","821.6999999955297","","","25","18229","6903","c","elianto","#3366ff99"," "," ","1","+10","[1672.7999999970198]","1","2","","","18229","95","5","1","win","go","0"
"pit-trial","220","1295884","0.0-100.0","battery-v0.2","","""event"",""trial"",""time""
""fullscreenenter"",""1"",""3600""
","
","
","""event"",""trial"",""time""
""fullscreenenter"",""1"",""3600""
","
","","","741.7000000029802","","","25","18229","6903","b","elianto","#f73b6a7A","-1"," ","0","-10","[1593.2000000029802]","1","2","","","18229","96","6","4","lose","no-go","0"
"pit-trial","221","1299425","0.0-101.0","battery-v0.2","","""event"",""trial"",""time""
""fullscreenenter"",""1"",""3600""
","
","
","""event"",""trial"",""time""
""fullscreenenter"",""1"",""3600""
","
","","","683.9000000059605","","","25","18229","6903","t","elianto","#f73b6a7A"," "," ","1","0","[1535.4000000059605]","1","2","","","18229","97","7","3","lose","go","0"
"pit-trial","222","1302920","0.0-102.0","battery-v0.2","","""event"",""trial"",""time""
""fullscreenenter"",""1"",""3600""
","
","
","""event"",""trial"",""time""
""fullscreenenter"",""1"",""3600""
","
","","","637.8999999985099","","","25","18229","6903","c","elianto","#3366ff99"," "," ","1","+10","[1489.1000000014901]","1","2","","","18229","98","5","1","win","go","0"
"pit-trial","223","1307777","0.0-103.0","battery-v0.2","","""event"",""trial"",""time""
""fullscreenenter"",""1"",""3600""
","
","
","""event"",""trial"",""time""
""fullscreenenter"",""1"",""3600""
","
","","","-1","","","25","18229","6903","b","elianto","#f73b6a7A","-1","-1","1","0","[]","0","2","","","18229","99","6","4","lose","no-go","0"
"pit-trial","224","1312294","0.0-104.0","battery-v0.2","","""event"",""trial"",""time""
""fullscreenenter"",""1"",""3600""
","
","
","""event"",""trial"",""time""
""fullscreenenter"",""1"",""3600""
","
","","","1659.7000000029802","","","25","18229","6903","f","elianto","#3366ff99","-1"," ","0","0","[2510.8000000044703]","1","2","","","18229","100","8","2","win","no-go","0"
"pit-trial","225","1315864","0.0-105.0","battery-v0.2","","""event"",""trial"",""time""
""fullscreenenter"",""1"",""3600""
","
","
","""event"",""trial"",""time""
""fullscreenenter"",""1"",""3600""
","
","","","713.7000000029802","","","25","18229","6903","c","elianto","#3366ff99"," "," ","1","+10","[1564.7000000029802]","1","2","","","18229","101","5","1","win","go","0"
"pit-trial","226","1320470","0.0-106.0","battery-v0.2","","""event"",""trial"",""time""
""fullscreenenter"",""1"",""3600""
","
","
","""event"",""trial"",""time""
""fullscreenenter"",""1"",""3600""
","
","","","1747.2999999970198","","","25","18229","6903","n","elianto","#3366ff99","-1"," ","0","+10","[2598.89999999851]","1","2","","","18229","102","9","2","win","no-go","1"
"pit-trial","227","1325327","0.0-107.0","battery-v0.2","","""event"",""trial"",""time""
""fullscreenenter"",""1"",""3600""
","
","
","""event"",""trial"",""time""
""fullscreenenter"",""1"",""3600""
","
","","","-1","","","25","18229","6903","b","elianto","#f73b6a7A","-1","-1","1","0","[]","0","2","","","18229","103","6","4","lose","no-go","0"
"pit-trial","228","1330183","0.0-108.0","battery-v0.2","","""event"",""trial"",""time""
""fullscreenenter"",""1"",""3600""
","
","
","""event"",""trial"",""time""
""fullscreenenter"",""1"",""3600""
","
","","","-1","","","25","18229","6903","f","elianto","#3366ff99","-1","-1","1","+10","[]","0","2","","","18229","104","8","2","win","no-go","0"
"pit-trial","229","1335040","0.0-109.0","battery-v0.2","","""event"",""trial"",""time""
""fullscreenenter"",""1"",""3600""
","
","
","""event"",""trial"",""time""
""fullscreenenter"",""1"",""3600""
","
","","","-1","","","25","18229","6903","b","elianto","#f73b6a7A","-1","-1","1","0","[]","0","2","","","18229","105","6","4","lose","no-go","0"
"pit-trial","230","1339064","0.0-110.0","battery-v0.2","","""event"",""trial"",""time""
""fullscreenenter"",""1"",""3600""
","
","
","""event"",""trial"",""time""
""fullscreenenter"",""1"",""3600""
","
","","","1168.1000000014901","","","25","18229","6903","n","elianto","#3366ff99","-1"," ","0","0","[2018.3000000044703]","1","2","","","18229","106","9","2","win","no-go","0"
"pit-trial","231","1342412","0.0-111.0","battery-v0.2","","""event"",""trial"",""time""
""fullscreenenter"",""1"",""3600""
","
","
","""event"",""trial"",""time""
""fullscreenenter"",""1"",""3600""
","
","","","495.40000000596046","","","25","18229","6903","c","elianto","#3366ff99"," "," ","1","+10","[1345.8000000044703]","1","2","","","18229","107","5","1","win","go","0"
"pit-trial","232","1347270","0.0-112.0","battery-v0.2","","""event"",""trial"",""time""
""fullscreenenter"",""1"",""3600""
","
","
","""event"",""trial"",""time""
""fullscreenenter"",""1"",""3600""
","
","","","-1","","","25","18229","6903","f","elianto","#3366ff99","-1","-1","1","0","[]","0","2","","","18229","108","8","2","win","no-go","1"
"pit-trial","233","1351187","0.0-113.0","battery-v0.2","","""event"",""trial"",""time""
""fullscreenenter"",""1"",""3600""
","
","
","""event"",""trial"",""time""
""fullscreenenter"",""1"",""3600""
","
","","","1060.6000000014901","","","25","18229","6903","c","elianto","#3366ff99"," "," ","1","+10","[1911.6999999955297]","1","2","","","18229","109","5","1","win","go","0"
"pit-trial","234","1355195","0.0-114.0","battery-v0.2","","""event"",""trial"",""time""
""fullscreenenter"",""1"",""3600""
","
","
","""event"",""trial"",""time""
""fullscreenenter"",""1"",""3600""
","
","","","1150.3999999985099","","","25","18229","6903","f","elianto","#3366ff99","-1"," ","0","0","[2001.5]","1","2","","","18229","110","8","2","win","no-go","0"
"pit-trial","235","1359423","0.0-115.0","battery-v0.2","","""event"",""trial"",""time""
""fullscreenenter"",""1"",""3600""
","
","
","""event"",""trial"",""time""
""fullscreenenter"",""1"",""3600""
","
","","","1370.1000000014901","","","25","18229","6903","n","elianto","#3366ff99","-1"," ","0","0","[2221.60000000149]","1","2","","","18229","111","9","2","win","no-go","0"
"pit-trial","236","1364280","0.0-116.0","battery-v0.2","","""event"",""trial"",""time""
""fullscreenenter"",""1"",""3600""
","
","
","""event"",""trial"",""time""
""fullscreenenter"",""1"",""3600""
","
","","","-1","","","25","18229","6903","b","elianto","#f73b6a7A","-1","-1","1","0","[]","0","2","","","18229","112","6","4","lose","no-go","0"
"pit-trial","237","1368004","0.0-117.0","battery-v0.2","","""event"",""trial"",""time""
""fullscreenenter"",""1"",""3600""
","
","
","""event"",""trial"",""time""
""fullscreenenter"",""1"",""3600""
","
","","","866.1000000014901","","","25","18229","6903","t","elianto","#f73b6a7A"," "," ","1","0","[1718.1000000014901]","1","2","","","18229","113","7","3","lose","go","0"
"pit-trial","238","1372860","0.0-118.0","battery-v0.2","","""event"",""trial"",""time""
""fullscreenenter"",""1"",""3600""
","
","
","""event"",""trial"",""time""
""fullscreenenter"",""1"",""3600""
","
","","","-1","","","25","18229","6903","f","elianto","#3366ff99","-1","-1","1","+10","[]","0","2","","","18229","114","8","2","win","no-go","0"
"pit-trial","239","1376673","0.0-119.0","battery-v0.2","","""event"",""trial"",""time""
""fullscreenenter"",""1"",""3600""
","
","
","""event"",""trial"",""time""
""fullscreenenter"",""1"",""3600""
","
","","","957.3000000044703","","","25","18229","6903","c","elianto","#3366ff99"," "," ","1","+10","[1808.3999999985099]","1","2","","","18229","115","5","1","win","go","0"
"pit-trial","240","1381531","0.0-120.0","battery-v0.2","","""event"",""trial"",""time""
""fullscreenenter"",""1"",""3600""
","
","
","""event"",""trial"",""time""
""fullscreenenter"",""1"",""3600""
","
","","","-1","","","25","18229","6903","n","elianto","#3366ff99","-1","-1","1","0","[]","0","2","","","18229","116","9","2","win","no-go","1"
"pit-trial","241","1386389","0.0-121.0","battery-v0.2","","""event"",""trial"",""time""
""fullscreenenter"",""1"",""3600""
","
","
","""event"",""trial"",""time""
""fullscreenenter"",""1"",""3600""
","
","","","-1","","","25","18229","6903","b","elianto","#f73b6a7A","-1","-1","1","-10","[]","0","2","","","18229","117","6","4","lose","no-go","1"
"pit-trial","242","1391245","0.0-122.0","battery-v0.2","","""event"",""trial"",""time""
""fullscreenenter"",""1"",""3600""
","
","
","""event"",""trial"",""time""
""fullscreenenter"",""1"",""3600""
","
","","","-1","","","25","18229","6903","f","elianto","#3366ff99","-1","-1","1","+10","[]","0","2","","","18229","118","8","2","win","no-go","0"
"pit-trial","243","1396083","0.0-123.0","battery-v0.2","","""event"",""trial"",""time""
""fullscreenenter"",""1"",""3600""
","
","
","""event"",""trial"",""time""
""fullscreenenter"",""1"",""3600""
","
","","","1984.8999999985099","","","25","18229","6903","n","elianto","#3366ff99","-1"," ","0","0","[2835.5]","1","2","","","18229","119","9","2","win","no-go","0"
"pit-trial","244","1399459","0.0-124.0","battery-v0.2","","""event"",""trial"",""time""
""fullscreenenter"",""1"",""3600""
","
","
","""event"",""trial"",""time""
""fullscreenenter"",""1"",""3600""
","
","","","517.5999999940395","","","25","18229","6903","c","elianto","#3366ff99"," "," ","1","+10","[1369.1999999955297]","1","2","","","18229","120","5","1","win","go","0"
"pit-trial","245","1404316","0.0-125.0","battery-v0.2","","""event"",""trial"",""time""
""fullscreenenter"",""1"",""3600""
","
","
","""event"",""trial"",""time""
""fullscreenenter"",""1"",""3600""
","
","","","-1","","","25","18229","6903","n","elianto","#3366ff99","-1","-1","1","+10","[]","0","2","","","18229","121","9","2","win","no-go","0"
"pit-trial","246","1408654","0.0-126.0","battery-v0.2","","""event"",""trial"",""time""
""fullscreenenter"",""1"",""3600""
","
","
","""event"",""trial"",""time""
""fullscreenenter"",""1"",""3600""
","
","","","1481.2000000029802","","","25","18229","6903","c","elianto","#3366ff99"," "," ","1","+10","[2333.10000000149]","1","2","","","18229","122","5","1","win","go","0"
"pit-trial","247","1413512","0.0-127.0","battery-v0.2","","""event"",""trial"",""time""
""fullscreenenter"",""1"",""3600""
","
","
","""event"",""trial"",""time""
""fullscreenenter"",""1"",""3600""
","
","","","-1","","","25","18229","6903","f","elianto","#3366ff99","-1","-1","1","+10","[]","0","2","","","18229","123","8","2","win","no-go","0"
"pit-trial","248","1417024","0.0-128.0","battery-v0.2","","""event"",""trial"",""time""
""fullscreenenter"",""1"",""3600""
","
","
","""event"",""trial"",""time""
""fullscreenenter"",""1"",""3600""
","
","","","654.5","","","25","18229","6903","t","elianto","#f73b6a7A"," "," ","1","0","[1506.2999999970198]","1","2","","","18229","124","7","3","lose","go","0"
"pit-trial","249","1421882","0.0-129.0","battery-v0.2","","""event"",""trial"",""time""
""fullscreenenter"",""1"",""3600""
","
","
","""event"",""trial"",""time""
""fullscreenenter"",""1"",""3600""
","
","","","-1","","","25","18229","6903","n","elianto","#3366ff99","-1","-1","1","+10","[]","0","2","","","18229","125","9","2","win","no-go","0"
"pit-trial","250","1426739","0.0-130.0","battery-v0.2","","""event"",""trial"",""time""
""fullscreenenter"",""1"",""3600""
","
","
","""event"",""trial"",""time""
""fullscreenenter"",""1"",""3600""
","
","","","-1","","","25","18229","6903","f","elianto","#3366ff99","-1","-1","1","0","[]","0","2","","","18229","126","8","2","win","no-go","1"
"pit-trial","251","1431596","0.0-131.0","battery-v0.2","","""event"",""trial"",""time""
""fullscreenenter"",""1"",""3600""
","
","
","""event"",""trial"",""time""
""fullscreenenter"",""1"",""3600""
","
","","","-1","","","25","18229","6903","b","elianto","#f73b6a7A","-1","-1","1","0","[]","0","2","","","18229","127","6","4","lose","no-go","0"
"pit-trial","252","1435293","0.0-132.0","battery-v0.2","","""event"",""trial"",""time""
""fullscreenenter"",""1"",""3600""
","
","
","""event"",""trial"",""time""
""fullscreenenter"",""1"",""3600""
","
","","","839.3999999985099","","","25","18229","6903","t","elianto","#f73b6a7A"," "," ","1","0","[1691.1000000014901]","1","2","","","18229","128","7","3","lose","go","0"
"pit-trial","253","1438730","0.0-133.0","battery-v0.2","","""event"",""trial"",""time""
""fullscreenenter"",""1"",""3600""
","
","
","""event"",""trial"",""time""
""fullscreenenter"",""1"",""3600""
","
","","","579","","","25","18229","6903","t","elianto","#f73b6a7A"," "," ","1","0","[1429.7999999970198]","1","2","","","18229","129","7","3","lose","go","0"
"pit-trial","254","1443587","0.0-134.0","battery-v0.2","","""event"",""trial"",""time""
""fullscreenenter"",""1"",""3600""
","
","
","""event"",""trial"",""time""
""fullscreenenter"",""1"",""3600""
","
","","","-1","","","25","18229","6903","n","elianto","#3366ff99","-1","-1","1","+10","[]","0","2","","","18229","130","9","2","win","no-go","0"
"pit-trial","255","1448444","0.0-135.0","battery-v0.2","","""event"",""trial"",""time""
""fullscreenenter"",""1"",""3600""
","
","
","""event"",""trial"",""time""
""fullscreenenter"",""1"",""3600""
","
","","","-1","","","25","18229","6903","b","elianto","#f73b6a7A","-1","-1","1","-10","[]","0","2","","","18229","131","6","4","lose","no-go","1"
"pit-trial","256","1452107","0.0-136.0","battery-v0.2","","""event"",""trial"",""time""
""fullscreenenter"",""1"",""3600""
","
","
","""event"",""trial"",""time""
""fullscreenenter"",""1"",""3600""
","
","","","807.6000000014901","","","25","18229","6903","f","elianto","#3366ff99","-1"," ","0","0","[1658.2999999970198]","1","2","","","18229","132","8","2","win","no-go","0"
"pit-trial","257","1456099","0.0-137.0","battery-v0.2","","""event"",""trial"",""time""
""fullscreenenter"",""1"",""3600""
","
","
","""event"",""trial"",""time""
""fullscreenenter"",""1"",""3600""
","
","","","1134.2999999970198","","","25","18229","6903","t","elianto","#f73b6a7A"," "," ","1","0","[1985.5]","1","2","","","18229","133","7","3","lose","go","0"
"pit-trial","258","1460879","0.0-138.0","battery-v0.2","","""event"",""trial"",""time""
""fullscreenenter"",""1"",""3600""
","
","
","""event"",""trial"",""time""
""fullscreenenter"",""1"",""3600""
","
","","","1922.7000000029802","","","25","18229","6903","f","elianto","#3366ff99","-1"," ","0","+10","[2774.7000000029802]","1","2","","","18229","134","8","2","win","no-go","1"
"pit-trial","259","1465737","0.0-139.0","battery-v0.2","","""event"",""trial"",""time""
""fullscreenenter"",""1"",""3600""
","
","
","""event"",""trial"",""time""
""fullscreenenter"",""1"",""3600""
","
","","","-1","","","25","18229","6903","b","elianto","#f73b6a7A","-1","-1","1","0","[]","0","2","","","18229","135","6","4","lose","no-go","0"
"pit-trial","260","1470592","0.0-140.0","battery-v0.2","","""event"",""trial"",""time""
""fullscreenenter"",""1"",""3600""
","
","
","""event"",""trial"",""time""
""fullscreenenter"",""1"",""3600""
","
","","","-1","","","25","18229","6903","n","elianto","#3366ff99","-1","-1","1","+10","[]","0","2","","","18229","136","9","2","win","no-go","0"
"pit-trial","261","1475449","0.0-141.0","battery-v0.2","","""event"",""trial"",""time""
""fullscreenenter"",""1"",""3600""
","
","
","""event"",""trial"",""time""
""fullscreenenter"",""1"",""3600""
","
","","","-1","","","25","18229","6903","f","elianto","#3366ff99","-1","-1","1","+10","[]","0","2","","","18229","137","8","2","win","no-go","0"
"pit-trial","262","1480306","0.0-142.0","battery-v0.2","","""event"",""trial"",""time""
""fullscreenenter"",""1"",""3600""
","
","
","""event"",""trial"",""time""
""fullscreenenter"",""1"",""3600""
","
","","","-1","","","25","18229","6903","n","elianto","#3366ff99","-1","-1","1","+10","[]","0","2","","","18229","138","9","2","win","no-go","0"
"pit-trial","263","1485164","0.0-143.0","battery-v0.2","","""event"",""trial"",""time""
""fullscreenenter"",""1"",""3600""
","
","
","""event"",""trial"",""time""
""fullscreenenter"",""1"",""3600""
","
","","","-1","","","25","18229","6903","b","elianto","#f73b6a7A","-1","-1","1","0","[]","0","2","","","18229","139","6","4","lose","no-go","0"
"pit-trial","264","1488618","0.0-144.0","battery-v0.2","","""event"",""trial"",""time""
""fullscreenenter"",""1"",""3600""
","
","
","""event"",""trial"",""time""
""fullscreenenter"",""1"",""3600""
","
","","","596.5","","","25","18229","6903","t","elianto","#f73b6a7A"," "," ","1","0","[1448.1999999955297]","1","2","","","18229","140","7","3","lose","go","0"
"pit-instructions","265","1955835","0.0-145.0","battery-v0.2","","""event"",""trial"",""time""
""fullscreenenter"",""1"",""3600""
","
","
","""event"",""trial"",""time""
""fullscreenenter"",""1"",""3600""
","
","","[{""page_index"":0,""viewing_time"":458776},{""page_index"":1,""viewing_time"":8419.79999999702}]","467196.299999997","","","","","","","","","","","","","","","","","","","","","","","",""
