"trial_type","trial_index","time_elapsed","internal_node_id","task_version","subject_id","interactions","blur_events","focus_events","fullscreenenter_events","fullscreenexit_events","success","view_history","rt","responses","num_errors","age","subject","participantId","rune","rune_set","hex","correct","choice","accuracy","outcome","keys","total_keys","block","practice","value","sub","trial","stimulus","robot","valence","action","sham"
"pavlovia","0","6","0.0-0.0","battery-v0.2","","""event"",""trial"",""time""
""fullscreenenter"",""1"",""4482""
","
","
","""event"",""trial"",""time""
""fullscreenenter"",""1"",""4482""
","
","","","","","","","","","","","","","","","","","","","","","","","","","","",""
"fullscreen","1","5474","0.0-1.0","battery-v0.2","","""event"",""trial"",""time""
""fullscreenenter"",""1"",""4482""
","
","
","""event"",""trial"",""time""
""fullscreenenter"",""1"",""4482""
","
","true","","","","","","","","","","","","","","","","","","","","","","","","","",""
"pit-instructions","2","12095","0.0-2.0-0.0","battery-v0.2","","""event"",""trial"",""time""
""fullscreenenter"",""1"",""4482""
","
","
","""event"",""trial"",""time""
""fullscreenenter"",""1"",""4482""
","
","","[{""page_index"":0,""viewing_time"":6616.599999904633}]","6616.899999976158","","","","","","","","","","","","","","","","","","","","","","","",""
"pit-comprehension","3","24080","0.0-2.0-1.0-0.0","battery-v0.2","","""event"",""trial"",""time""
""fullscreenenter"",""1"",""4482""
","
","
","""event"",""trial"",""time""
""fullscreenenter"",""1"",""4482""
","
","","","11981.800000071526","[""shark""]","0","14","6346","3746","","","","","","","","","","","","","","","","","","",""
"pit-instructions","4","26695","0.0-2.0-1.0-1.0","battery-v0.2","","""event"",""trial"",""time""
""fullscreenenter"",""1"",""4482""
","
","
","""event"",""trial"",""time""
""fullscreenenter"",""1"",""4482""
","
","","[{""page_index"":0,""viewing_time"":2608.0999999046326}]","2608.399999976158","","","","","","","","","","","","","","","","","","","","","","","",""
"pit-comprehension","5","29760","0.0-2.0-2.0-0.0","battery-v0.2","","""event"",""trial"",""time""
""fullscreenenter"",""1"",""4482""
","
","
","""event"",""trial"",""time""
""fullscreenenter"",""1"",""4482""
","
","","","3062.5","[""tiger""]","0","14","6346","3746","","","","","","","","","","","","","","","","","","",""
"pit-instructions","6","34151","0.0-2.0-2.0-1.0","battery-v0.2","","""event"",""trial"",""time""
""fullscreenenter"",""1"",""4482""
","
","
","""event"",""trial"",""time""
""fullscreenenter"",""1"",""4482""
","
","","[{""page_index"":0,""viewing_time"":4389.199999928474}]","4389.399999976158","","","","","","","","","","","","","","","","","","","","","","","",""
"pit-instructions","7","138880","0.0-2.0-3.0","battery-v0.2","","""event"",""trial"",""time""
""fullscreenenter"",""1"",""4482""
","
","
","""event"",""trial"",""time""
""fullscreenenter"",""1"",""4482""
","
","","[{""page_index"":0,""viewing_time"":8165.300000071526},{""page_index"":1,""viewing_time"":7640.699999928474},{""page_index"":2,""viewing_time"":6719.700000047684},{""page_index"":3,""viewing_time"":5960.299999952316},{""page_index"":4,""viewing_time"":6912.900000095367},{""page_index"":5,""viewing_time"":6519.099999904633},{""page_index"":6,""viewing_time"":8304},{""page_index"":7,""viewing_time"":7087.900000095367},{""page_index"":8,""viewing_time"":7119.899999976158},{""page_index"":9,""viewing_time"":11104.199999928474},{""page_index"":10,""viewing_time"":7111.600000023842},{""page_index"":11,""viewing_time"":8703.899999976158},{""page_index"":12,""viewing_time"":6800.300000071526},{""page_index"":13,""viewing_time"":6576}]","104726.30000007153","","","","","","","","","","","","","","","","","","","","","","","",""
"pit-trial","8","142571","0.0-2.0-4.0-0.0","battery-v0.2","","""event"",""trial"",""time""
""fullscreenenter"",""1"",""4482""
","
","
","""event"",""trial"",""time""
""fullscreenenter"",""1"",""4482""
","
","","","824.1000000238419","","","14","6346","3746","&#9784;","elianto","#FFFFF080"," "," ","1","&#10004","[1686.7000000476837]","1","0","0","","","","","","","",""
"pit-trial","9","146171","0.0-2.0-4.1-0.1","battery-v0.2","","""event"",""trial"",""time""
""fullscreenenter"",""1"",""4482""
","
","
","""event"",""trial"",""time""
""fullscreenenter"",""1"",""4482""
","
","","","726.8999999761581","","","14","6346","3746","&#9784;","elianto","#FFFFF080"," "," ","1","&#10004","[1579.1999999284744]","1","0","0","","","","","","","",""
"pit-trial","10","149781","0.0-2.0-4.2-0.2","battery-v0.2","","""event"",""trial"",""time""
""fullscreenenter"",""1"",""4482""
","
","
","""event"",""trial"",""time""
""fullscreenenter"",""1"",""4482""
","
","","","741.4000000953674","","","14","6346","3746","&#9784;","elianto","#FFFFF080"," "," ","1","&#10004","[1594]","1","0","0","","","","","","","",""
"pit-trial","11","153221","0.0-2.0-4.3-0.3","battery-v0.2","","""event"",""trial"",""time""
""fullscreenenter"",""1"",""4482""
","
","
","""event"",""trial"",""time""
""fullscreenenter"",""1"",""4482""
","
","","","565","","","14","6346","3746","&#9784;","elianto","#FFFFF080"," "," ","1","&#10004","[1424.6000000238419]","1","0","0","","","","","","","",""
"pit-trial","12","156651","0.0-2.0-4.4-0.4","battery-v0.2","","""event"",""trial"",""time""
""fullscreenenter"",""1"",""4482""
","
","
","""event"",""trial"",""time""
""fullscreenenter"",""1"",""4482""
","
","","","571.5","","","14","6346","3746","&#9784;","elianto","#FFFFF080"," "," ","1","&#10004","[1424.7000000476837]","1","0","0","","","","","","","",""
"pit-instructions","13","182543","0.0-2.0-5.0","battery-v0.2","","""event"",""trial"",""time""
""fullscreenenter"",""1"",""4482""
","
","
","""event"",""trial"",""time""
""fullscreenenter"",""1"",""4482""
","
","","[{""page_index"":0,""viewing_time"":6080.600000023842},{""page_index"":1,""viewing_time"":7056.600000023842},{""page_index"":2,""viewing_time"":6144.099999904633},{""page_index"":3,""viewing_time"":6607.800000071526}]","25889.399999976158","","","","","","","","","","","","","","","","","","","","","","","",""
"pit-trial","14","187440","0.0-2.0-6.0-0.0","battery-v0.2","","""event"",""trial"",""time""
""fullscreenenter"",""1"",""4482""
","
","
","""event"",""trial"",""time""
""fullscreenenter"",""1"",""4482""
","
","","","-1","","","14","6346","3746","&#9854;","elianto","#FFFFF080","-1","-1","1","&#10004","[]","0","0","1","","","","","","","",""
"pit-trial","15","192330","0.0-2.0-6.1-0.1","battery-v0.2","","""event"",""trial"",""time""
""fullscreenenter"",""1"",""4482""
","
","
","""event"",""trial"",""time""
""fullscreenenter"",""1"",""4482""
","
","","","-1","","","14","6346","3746","&#9854;","elianto","#FFFFF080","-1","-1","1","&#10004","[]","0","0","1","","","","","","","",""
"pit-trial","16","197211","0.0-2.0-6.2-0.2","battery-v0.2","","""event"",""trial"",""time""
""fullscreenenter"",""1"",""4482""
","
","
","""event"",""trial"",""time""
""fullscreenenter"",""1"",""4482""
","
","","","-1","","","14","6346","3746","&#9854;","elianto","#FFFFF080","-1","-1","1","&#10004","[]","0","0","1","","","","","","","",""
"pit-trial","17","202101","0.0-2.0-6.3-0.3","battery-v0.2","","""event"",""trial"",""time""
""fullscreenenter"",""1"",""4482""
","
","
","""event"",""trial"",""time""
""fullscreenenter"",""1"",""4482""
","
","","","-1","","","14","6346","3746","&#9854;","elianto","#FFFFF080","-1","-1","1","&#10004","[]","0","0","1","","","","","","","",""
"pit-trial","18","206990","0.0-2.0-6.4-0.4","battery-v0.2","","""event"",""trial"",""time""
""fullscreenenter"",""1"",""4482""
","
","
","""event"",""trial"",""time""
""fullscreenenter"",""1"",""4482""
","
","","","-1","","","14","6346","3746","&#9854;","elianto","#FFFFF080","-1","-1","1","&#10004","[]","0","0","1","","","","","","","",""
"pit-instructions","19","330503","0.0-2.0-7.0","battery-v0.2","","""event"",""trial"",""time""
""fullscreenenter"",""1"",""4482""
","
","
","""event"",""trial"",""time""
""fullscreenenter"",""1"",""4482""
","
","","[{""page_index"":0,""viewing_time"":7740.399999976158},{""page_index"":1,""viewing_time"":8520.100000023842},{""page_index"":2,""viewing_time"":7624},{""page_index"":3,""viewing_time"":6663.899999976158},{""page_index"":4,""viewing_time"":5728.299999952316},{""page_index"":5,""viewing_time"":5447.800000071526},{""page_index"":6,""viewing_time"":5072},{""page_index"":7,""viewing_time"":8215.599999904633},{""page_index"":8,""viewing_time"":7448.200000047684},{""page_index"":9,""viewing_time"":6544.200000047684},{""page_index"":10,""viewing_time"":6728.599999904633},{""page_index"":11,""viewing_time"":4431.400000095367},{""page_index"":12,""viewing_time"":7023.699999928474},{""page_index"":13,""viewing_time"":7536.200000047684},{""page_index"":14,""viewing_time"":7008.299999952316},{""page_index"":15,""viewing_time"":6695.5},{""page_index"":16,""viewing_time"":6416.200000047684},{""page_index"":17,""viewing_time"":8663.899999976158}]","123508.79999995232","","","","","","","","","","","","","","","","","","","","","","","",""
"pit-trial","20","334001","0.0-2.0-8.0-0.0","battery-v0.2","","""event"",""trial"",""time""
""fullscreenenter"",""1"",""4482""
","
","
","""event"",""trial"",""time""
""fullscreenenter"",""1"",""4482""
","
","","","618.6000000238419","","","14","6346","3746","&#9776;","elianto","#3366ff99"," "," ","1","+10","[1473.6000000238419]","1","0","1","","","","","","","",""
"pit-trial","21","337341","0.0-2.0-8.0-1.0","battery-v0.2","","""event"",""trial"",""time""
""fullscreenenter"",""1"",""4482""
","
","
","""event"",""trial"",""time""
""fullscreenenter"",""1"",""4482""
","
","","","476","","","14","6346","3746","&#9776;","elianto","#3366ff99"," "," ","1","+10","[1333.1999999284744]","1","0","1","","","","","","","",""
"pit-trial","22","340631","0.0-2.0-8.0-2.0","battery-v0.2","","""event"",""trial"",""time""
""fullscreenenter"",""1"",""4482""
","
","
","""event"",""trial"",""time""
""fullscreenenter"",""1"",""4482""
","
","","","422.59999990463257","","","14","6346","3746","&#9776;","elianto","#3366ff99"," "," ","1","+10","[1272.8999999761581]","1","0","1","","","","","","","",""
"pit-trial","23","343811","0.0-2.0-8.0-3.0","battery-v0.2","","""event"",""trial"",""time""
""fullscreenenter"",""1"",""4482""
","
","
","""event"",""trial"",""time""
""fullscreenenter"",""1"",""4482""
","
","","","306.6999999284744","","","14","6346","3746","&#9776;","elianto","#3366ff99"," "," ","1","0","[1167.1999999284744]","1","0","1","","","","","","","",""
"pit-trial","24","347051","0.0-2.0-8.0-4.0","battery-v0.2","","""event"",""trial"",""time""
""fullscreenenter"",""1"",""4482""
","
","
","""event"",""trial"",""time""
""fullscreenenter"",""1"",""4482""
","
","","","371.2000000476837","","","14","6346","3746","&#9776;","elianto","#3366ff99"," "," ","1","+10","[1221.3000000715256]","1","0","1","","","","","","","",""
"pit-trial","25","350861","0.0-2.0-8.1-0.1","battery-v0.2","","""event"",""trial"",""time""
""fullscreenenter"",""1"",""4482""
","
","
","""event"",""trial"",""time""
""fullscreenenter"",""1"",""4482""
","
","","","930.1000000238419","","","14","6346","3746","&#9776;","elianto","#3366ff99"," "," ","1","+10","[1785.8999999761581]","1","0","1","","","","","","","",""
"pit-trial","26","354911","0.0-2.0-8.1-1.1","battery-v0.2","","""event"",""trial"",""time""
""fullscreenenter"",""1"",""4482""
","
","
","""event"",""trial"",""time""
""fullscreenenter"",""1"",""4482""
","
","","","1177.2999999523163","","","14","6346","3746","&#9776;","elianto","#3366ff99"," "," ","1","+10","[2040.7999999523163]","1","0","1","","","","","","","",""
"pit-trial","27","358531","0.0-2.0-8.1-2.1","battery-v0.2","","""event"",""trial"",""time""
""fullscreenenter"",""1"",""4482""
","
","
","""event"",""trial"",""time""
""fullscreenenter"",""1"",""4482""
","
","","","746.1999999284744","","","14","6346","3746","&#9776;","elianto","#3366ff99"," "," ","1","+10","[1609.7000000476837]","1","0","1","","","","","","","",""
"pit-trial","28","362266","0.0-2.0-8.1-3.1","battery-v0.2","","""event"",""trial"",""time""
""fullscreenenter"",""1"",""4482""
","
","
","""event"",""trial"",""time""
""fullscreenenter"",""1"",""4482""
","
","","","868.5","","","14","6346","3746","&#9776;","elianto","#3366ff99"," "," ","1","0","[1731.8999999761581]","1","0","1","","","","","","","",""
"pit-trial","29","365611","0.0-2.0-8.1-4.1","battery-v0.2","","""event"",""trial"",""time""
""fullscreenenter"",""1"",""4482""
","
","
","""event"",""trial"",""time""
""fullscreenenter"",""1"",""4482""
","
","","","485.60000002384186","","","14","6346","3746","&#9776;","elianto","#3366ff99"," "," ","1","+10","[1339.8999999761581]","1","0","1","","","","","","","",""
"pit-trial","30","369122","0.0-2.0-8.2-0.2","battery-v0.2","","""event"",""trial"",""time""
""fullscreenenter"",""1"",""4482""
","
","
","""event"",""trial"",""time""
""fullscreenenter"",""1"",""4482""
","
","","","649.7999999523163","","","14","6346","3746","&#9776;","elianto","#3366ff99"," "," ","1","+10","[1501.5]","1","0","1","","","","","","","",""
"pit-trial","31","372809","0.0-2.0-8.2-1.2","battery-v0.2","","""event"",""trial"",""time""
""fullscreenenter"",""1"",""4482""
","
","
","""event"",""trial"",""time""
""fullscreenenter"",""1"",""4482""
","
","","","830.7999999523163","","","14","6346","3746","&#9776;","elianto","#3366ff99"," "," ","1","+10","[1682.1999999284744]","1","0","1","","","","","","","",""
"pit-trial","32","376298","0.0-2.0-8.2-2.2","battery-v0.2","","""event"",""trial"",""time""
""fullscreenenter"",""1"",""4482""
","
","
","""event"",""trial"",""time""
""fullscreenenter"",""1"",""4482""
","
","","","633.1000000238419","","","14","6346","3746","&#9776;","elianto","#3366ff99"," "," ","1","+10","[1483.5]","1","0","1","","","","","","","",""
"pit-trial","33","379730","0.0-2.0-8.2-3.2","battery-v0.2","","""event"",""trial"",""time""
""fullscreenenter"",""1"",""4482""
","
","
","""event"",""trial"",""time""
""fullscreenenter"",""1"",""4482""
","
","","","567.2999999523163","","","14","6346","3746","&#9776;","elianto","#3366ff99"," "," ","1","0","[1421.6000000238419]","1","0","1","","","","","","","",""
"pit-trial","34","383066","0.0-2.0-8.2-4.2","battery-v0.2","","""event"",""trial"",""time""
""fullscreenenter"",""1"",""4482""
","
","
","""event"",""trial"",""time""
""fullscreenenter"",""1"",""4482""
","
","","","476.89999997615814","","","14","6346","3746","&#9776;","elianto","#3366ff99"," "," ","1","+10","[1331.3999999761581]","1","0","1","","","","","","","",""
"call-function","35","383067","0.0-2.0-9.0","battery-v0.2","","""event"",""trial"",""time""
""fullscreenenter"",""1"",""4482""
","
","
","""event"",""trial"",""time""
""fullscreenenter"",""1"",""4482""
","
","","","","","","","","","","","","","","","","","","","","","","","","","","",""
"pit-instructions","36","424935","0.0-2.0-10.0","battery-v0.2","","""event"",""trial"",""time""
""fullscreenenter"",""1"",""4482""
","
","
","""event"",""trial"",""time""
""fullscreenenter"",""1"",""4482""
","
","","[{""page_index"":0,""viewing_time"":5938.600000023842},{""page_index"":1,""viewing_time"":8416.100000023842},{""page_index"":2,""viewing_time"":10200},{""page_index"":3,""viewing_time"":9816},{""page_index"":4,""viewing_time"":7496}]","41867.10000002384","","","","","","","","","","","","","","","","","","","","","","","",""
"pit-trial","37","429814","0.0-2.0-11.0-0.0","battery-v0.2","","""event"",""trial"",""time""
""fullscreenenter"",""1"",""4482""
","
","
","""event"",""trial"",""time""
""fullscreenenter"",""1"",""4482""
","
","","","-1","","","14","6346","3746","&#9761;","elianto","#3366ff99","-1","-1","1","+10","[]","0","0","2","","","","","","","",""
"pit-trial","38","434685","0.0-2.0-11.0-1.0","battery-v0.2","","""event"",""trial"",""time""
""fullscreenenter"",""1"",""4482""
","
","
","""event"",""trial"",""time""
""fullscreenenter"",""1"",""4482""
","
","","","-1","","","14","6346","3746","&#9761;","elianto","#3366ff99","-1","-1","1","+10","[]","0","0","2","","","","","","","",""
"pit-trial","39","439564","0.0-2.0-11.0-2.0","battery-v0.2","","""event"",""trial"",""time""
""fullscreenenter"",""1"",""4482""
","
","
","""event"",""trial"",""time""
""fullscreenenter"",""1"",""4482""
","
","","","-1","","","14","6346","3746","&#9761;","elianto","#3366ff99","-1","-1","1","+10","[]","0","0","2","","","","","","","",""
"pit-trial","40","444441","0.0-2.0-11.0-3.0","battery-v0.2","","""event"",""trial"",""time""
""fullscreenenter"",""1"",""4482""
","
","
","""event"",""trial"",""time""
""fullscreenenter"",""1"",""4482""
","
","","","-1","","","14","6346","3746","&#9761;","elianto","#3366ff99","-1","-1","1","0","[]","0","0","2","","","","","","","",""
"pit-trial","41","449315","0.0-2.0-11.0-4.0","battery-v0.2","","""event"",""trial"",""time""
""fullscreenenter"",""1"",""4482""
","
","
","""event"",""trial"",""time""
""fullscreenenter"",""1"",""4482""
","
","","","-1","","","14","6346","3746","&#9761;","elianto","#3366ff99","-1","-1","1","+10","[]","0","0","2","","","","","","","",""
"pit-trial","42","454194","0.0-2.0-11.1-0.1","battery-v0.2","","""event"",""trial"",""time""
""fullscreenenter"",""1"",""4482""
","
","
","""event"",""trial"",""time""
""fullscreenenter"",""1"",""4482""
","
","","","-1","","","14","6346","3746","&#9761;","elianto","#3366ff99","-1","-1","1","+10","[]","0","0","2","","","","","","","",""
"pit-trial","43","459058","0.0-2.0-11.1-1.1","battery-v0.2","","""event"",""trial"",""time""
""fullscreenenter"",""1"",""4482""
","
","
","""event"",""trial"",""time""
""fullscreenenter"",""1"",""4482""
","
","","","-1","","","14","6346","3746","&#9761;","elianto","#3366ff99","-1","-1","1","+10","[]","0","0","2","","","","","","","",""
"pit-trial","44","463921","0.0-2.0-11.1-2.1","battery-v0.2","","""event"",""trial"",""time""
""fullscreenenter"",""1"",""4482""
","
","
","""event"",""trial"",""time""
""fullscreenenter"",""1"",""4482""
","
","","","-1","","","14","6346","3746","&#9761;","elianto","#3366ff99","-1","-1","1","+10","[]","0","0","2","","","","","","","",""
"pit-trial","45","468786","0.0-2.0-11.1-3.1","battery-v0.2","","""event"",""trial"",""time""
""fullscreenenter"",""1"",""4482""
","
","
","""event"",""trial"",""time""
""fullscreenenter"",""1"",""4482""
","
","","","-1","","","14","6346","3746","&#9761;","elianto","#3366ff99","-1","-1","1","0","[]","0","0","2","","","","","","","",""
"pit-trial","46","473649","0.0-2.0-11.1-4.1","battery-v0.2","","""event"",""trial"",""time""
""fullscreenenter"",""1"",""4482""
","
","
","""event"",""trial"",""time""
""fullscreenenter"",""1"",""4482""
","
","","","-1","","","14","6346","3746","&#9761;","elianto","#3366ff99","-1","-1","1","+10","[]","0","0","2","","","","","","","",""
"pit-trial","47","478514","0.0-2.0-11.2-0.2","battery-v0.2","","""event"",""trial"",""time""
""fullscreenenter"",""1"",""4482""
","
","
","""event"",""trial"",""time""
""fullscreenenter"",""1"",""4482""
","
","","","-1","","","14","6346","3746","&#9761;","elianto","#3366ff99","-1","-1","1","+10","[]","0","0","2","","","","","","","",""
"pit-trial","48","483377","0.0-2.0-11.2-1.2","battery-v0.2","","""event"",""trial"",""time""
""fullscreenenter"",""1"",""4482""
","
","
","""event"",""trial"",""time""
""fullscreenenter"",""1"",""4482""
","
","","","-1","","","14","6346","3746","&#9761;","elianto","#3366ff99","-1","-1","1","+10","[]","0","0","2","","","","","","","",""
"pit-trial","49","488242","0.0-2.0-11.2-2.2","battery-v0.2","","""event"",""trial"",""time""
""fullscreenenter"",""1"",""4482""
","
","
","""event"",""trial"",""time""
""fullscreenenter"",""1"",""4482""
","
","","","-1","","","14","6346","3746","&#9761;","elianto","#3366ff99","-1","-1","1","+10","[]","0","0","2","","","","","","","",""
"pit-trial","50","493106","0.0-2.0-11.2-3.2","battery-v0.2","","""event"",""trial"",""time""
""fullscreenenter"",""1"",""4482""
","
","
","""event"",""trial"",""time""
""fullscreenenter"",""1"",""4482""
","
","","","-1","","","14","6346","3746","&#9761;","elianto","#3366ff99","-1","-1","1","0","[]","0","0","2","","","","","","","",""
"pit-trial","51","497970","0.0-2.0-11.2-4.2","battery-v0.2","","""event"",""trial"",""time""
""fullscreenenter"",""1"",""4482""
","
","
","""event"",""trial"",""time""
""fullscreenenter"",""1"",""4482""
","
","","","-1","","","14","6346","3746","&#9761;","elianto","#3366ff99","-1","-1","1","+10","[]","0","0","2","","","","","","","",""
"pit-trial","52","502834","0.0-2.0-11.3-0.3","battery-v0.2","","""event"",""trial"",""time""
""fullscreenenter"",""1"",""4482""
","
","
","""event"",""trial"",""time""
""fullscreenenter"",""1"",""4482""
","
","","","-1","","","14","6346","3746","&#9761;","elianto","#3366ff99","-1","-1","1","+10","[]","0","0","2","","","","","","","",""
"pit-trial","53","507698","0.0-2.0-11.3-1.3","battery-v0.2","","""event"",""trial"",""time""
""fullscreenenter"",""1"",""4482""
","
","
","""event"",""trial"",""time""
""fullscreenenter"",""1"",""4482""
","
","","","-1","","","14","6346","3746","&#9761;","elianto","#3366ff99","-1","-1","1","+10","[]","0","0","2","","","","","","","",""
"pit-trial","54","512563","0.0-2.0-11.3-2.3","battery-v0.2","","""event"",""trial"",""time""
""fullscreenenter"",""1"",""4482""
","
","
","""event"",""trial"",""time""
""fullscreenenter"",""1"",""4482""
","
","","","-1","","","14","6346","3746","&#9761;","elianto","#3366ff99","-1","-1","1","+10","[]","0","0","2","","","","","","","",""
"pit-trial","55","517426","0.0-2.0-11.3-3.3","battery-v0.2","","""event"",""trial"",""time""
""fullscreenenter"",""1"",""4482""
","
","
","""event"",""trial"",""time""
""fullscreenenter"",""1"",""4482""
","
","","","-1","","","14","6346","3746","&#9761;","elianto","#3366ff99","-1","-1","1","0","[]","0","0","2","","","","","","","",""
"pit-trial","56","522291","0.0-2.0-11.3-4.3","battery-v0.2","","""event"",""trial"",""time""
""fullscreenenter"",""1"",""4482""
","
","
","""event"",""trial"",""time""
""fullscreenenter"",""1"",""4482""
","
","","","-1","","","14","6346","3746","&#9761;","elianto","#3366ff99","-1","-1","1","+10","[]","0","0","2","","","","","","","",""
"call-function","57","522293","0.0-2.0-12.0","battery-v0.2","","""event"",""trial"",""time""
""fullscreenenter"",""1"",""4482""
","
","
","""event"",""trial"",""time""
""fullscreenenter"",""1"",""4482""
","
","","","","","","","","","","","","","","","","","","","","","","","","","","",""
"pit-instructions","58","558942","0.0-2.0-13.0","battery-v0.2","","""event"",""trial"",""time""
""fullscreenenter"",""1"",""4482""
","
","
","""event"",""trial"",""time""
""fullscreenenter"",""1"",""4482""
","
","","[{""page_index"":0,""viewing_time"":5984.600000023842},{""page_index"":1,""viewing_time"":9888.299999952316},{""page_index"":2,""viewing_time"":4319.700000047684},{""page_index"":3,""viewing_time"":11112.099999904633},{""page_index"":4,""viewing_time"":5343.800000071526}]","36648.799999952316","","","","","","","","","","","","","","","","","","","","","","","",""
"pit-trial","59","562348","0.0-2.0-14.0-0.0","battery-v0.2","","""event"",""trial"",""time""
""fullscreenenter"",""1"",""4482""
","
","
","""event"",""trial"",""time""
""fullscreenenter"",""1"",""4482""
","
","","","532.8999999761581","","","14","6346","3746","&#9826;","elianto","#f73b6a7A","-1"," ","0","-10","[1383.3999999761581]","1","0","3","","","","","","","",""
"pit-trial","60","565528","0.0-2.0-14.0-1.0","battery-v0.2","","""event"",""trial"",""time""
""fullscreenenter"",""1"",""4482""
","
","
","""event"",""trial"",""time""
""fullscreenenter"",""1"",""4482""
","
","","","301.7999999523163","","","14","6346","3746","&#9826;","elianto","#f73b6a7A","-1"," ","0","-10","[1161.1000000238419]","1","0","3","","","","","","","",""
"pit-trial","61","570418","0.0-2.0-14.0-2.0","battery-v0.2","","""event"",""trial"",""time""
""fullscreenenter"",""1"",""4482""
","
","
","""event"",""trial"",""time""
""fullscreenenter"",""1"",""4482""
","
","","","-1","","","14","6346","3746","&#9826;","elianto","#f73b6a7A","-1","-1","1","0","[]","0","0","3","","","","","","","",""
"pit-trial","62","575288","0.0-2.0-14.0-3.0","battery-v0.2","","""event"",""trial"",""time""
""fullscreenenter"",""1"",""4482""
","
","
","""event"",""trial"",""time""
""fullscreenenter"",""1"",""4482""
","
","","","-1","","","14","6346","3746","&#9826;","elianto","#f73b6a7A","-1","-1","1","-10","[]","0","0","3","","","","","","","",""
"pit-trial","63","580157","0.0-2.0-14.0-4.0","battery-v0.2","","""event"",""trial"",""time""
""fullscreenenter"",""1"",""4482""
","
","
","""event"",""trial"",""time""
""fullscreenenter"",""1"",""4482""
","
","","","-1","","","14","6346","3746","&#9826;","elianto","#f73b6a7A","-1","-1","1","0","[]","0","0","3","","","","","","","",""
"pit-trial","64","585058","0.0-2.0-14.1-0.1","battery-v0.2","","""event"",""trial"",""time""
""fullscreenenter"",""1"",""4482""
","
","
","""event"",""trial"",""time""
""fullscreenenter"",""1"",""4482""
","
","","","-1","","","14","6346","3746","&#9826;","elianto","#f73b6a7A","-1","-1","1","0","[]","0","0","3","","","","","","","",""
"pit-trial","65","589930","0.0-2.0-14.1-1.1","battery-v0.2","","""event"",""trial"",""time""
""fullscreenenter"",""1"",""4482""
","
","
","""event"",""trial"",""time""
""fullscreenenter"",""1"",""4482""
","
","","","-1","","","14","6346","3746","&#9826;","elianto","#f73b6a7A","-1","-1","1","0","[]","0","0","3","","","","","","","",""
"pit-trial","66","594794","0.0-2.0-14.1-2.1","battery-v0.2","","""event"",""trial"",""time""
""fullscreenenter"",""1"",""4482""
","
","
","""event"",""trial"",""time""
""fullscreenenter"",""1"",""4482""
","
","","","-1","","","14","6346","3746","&#9826;","elianto","#f73b6a7A","-1","-1","1","0","[]","0","0","3","","","","","","","",""
"pit-trial","67","599658","0.0-2.0-14.1-3.1","battery-v0.2","","""event"",""trial"",""time""
""fullscreenenter"",""1"",""4482""
","
","
","""event"",""trial"",""time""
""fullscreenenter"",""1"",""4482""
","
","","","-1","","","14","6346","3746","&#9826;","elianto","#f73b6a7A","-1","-1","1","-10","[]","0","0","3","","","","","","","",""
"pit-trial","68","604522","0.0-2.0-14.1-4.1","battery-v0.2","","""event"",""trial"",""time""
""fullscreenenter"",""1"",""4482""
","
","
","""event"",""trial"",""time""
""fullscreenenter"",""1"",""4482""
","
","","","-1","","","14","6346","3746","&#9826;","elianto","#f73b6a7A","-1","-1","1","0","[]","0","0","3","","","","","","","",""
"pit-trial","69","609386","0.0-2.0-14.2-0.2","battery-v0.2","","""event"",""trial"",""time""
""fullscreenenter"",""1"",""4482""
","
","
","""event"",""trial"",""time""
""fullscreenenter"",""1"",""4482""
","
","","","-1","","","14","6346","3746","&#9826;","elianto","#f73b6a7A","-1","-1","1","0","[]","0","0","3","","","","","","","",""
"pit-trial","70","614250","0.0-2.0-14.2-1.2","battery-v0.2","","""event"",""trial"",""time""
""fullscreenenter"",""1"",""4482""
","
","
","""event"",""trial"",""time""
""fullscreenenter"",""1"",""4482""
","
","","","-1","","","14","6346","3746","&#9826;","elianto","#f73b6a7A","-1","-1","1","0","[]","0","0","3","","","","","","","",""
"pit-trial","71","619113","0.0-2.0-14.2-2.2","battery-v0.2","","""event"",""trial"",""time""
""fullscreenenter"",""1"",""4482""
","
","
","""event"",""trial"",""time""
""fullscreenenter"",""1"",""4482""
","
","","","-1","","","14","6346","3746","&#9826;","elianto","#f73b6a7A","-1","-1","1","0","[]","0","0","3","","","","","","","",""
"pit-trial","72","623978","0.0-2.0-14.2-3.2","battery-v0.2","","""event"",""trial"",""time""
""fullscreenenter"",""1"",""4482""
","
","
","""event"",""trial"",""time""
""fullscreenenter"",""1"",""4482""
","
","","","-1","","","14","6346","3746","&#9826;","elianto","#f73b6a7A","-1","-1","1","-10","[]","0","0","3","","","","","","","",""
"pit-trial","73","628842","0.0-2.0-14.2-4.2","battery-v0.2","","""event"",""trial"",""time""
""fullscreenenter"",""1"",""4482""
","
","
","""event"",""trial"",""time""
""fullscreenenter"",""1"",""4482""
","
","","","-1","","","14","6346","3746","&#9826;","elianto","#f73b6a7A","-1","-1","1","0","[]","0","0","3","","","","","","","",""
"pit-trial","74","633705","0.0-2.0-14.3-0.3","battery-v0.2","","""event"",""trial"",""time""
""fullscreenenter"",""1"",""4482""
","
","
","""event"",""trial"",""time""
""fullscreenenter"",""1"",""4482""
","
","","","-1","","","14","6346","3746","&#9826;","elianto","#f73b6a7A","-1","-1","1","0","[]","0","0","3","","","","","","","",""
"pit-trial","75","638570","0.0-2.0-14.3-1.3","battery-v0.2","","""event"",""trial"",""time""
""fullscreenenter"",""1"",""4482""
","
","
","""event"",""trial"",""time""
""fullscreenenter"",""1"",""4482""
","
","","","-1","","","14","6346","3746","&#9826;","elianto","#f73b6a7A","-1","-1","1","0","[]","0","0","3","","","","","","","",""
"pit-trial","76","643434","0.0-2.0-14.3-2.3","battery-v0.2","","""event"",""trial"",""time""
""fullscreenenter"",""1"",""4482""
","
","
","""event"",""trial"",""time""
""fullscreenenter"",""1"",""4482""
","
","","","-1","","","14","6346","3746","&#9826;","elianto","#f73b6a7A","-1","-1","1","0","[]","0","0","3","","","","","","","",""
"pit-trial","77","648298","0.0-2.0-14.3-3.3","battery-v0.2","","""event"",""trial"",""time""
""fullscreenenter"",""1"",""4482""
","
","
","""event"",""trial"",""time""
""fullscreenenter"",""1"",""4482""
","
","","","-1","","","14","6346","3746","&#9826;","elianto","#f73b6a7A","-1","-1","1","-10","[]","0","0","3","","","","","","","",""
"pit-trial","78","653162","0.0-2.0-14.3-4.3","battery-v0.2","","""event"",""trial"",""time""
""fullscreenenter"",""1"",""4482""
","
","
","""event"",""trial"",""time""
""fullscreenenter"",""1"",""4482""
","
","","","-1","","","14","6346","3746","&#9826;","elianto","#f73b6a7A","-1","-1","1","0","[]","0","0","3","","","","","","","",""
"call-function","79","653164","0.0-2.0-15.0","battery-v0.2","","""event"",""trial"",""time""
""fullscreenenter"",""1"",""4482""
","
","
","""event"",""trial"",""time""
""fullscreenenter"",""1"",""4482""
","
","","","","","","","","","","","","","","","","","","","","","","","","","","",""
"pit-instructions","80","682495","0.0-2.0-16.0","battery-v0.2","","""event"",""trial"",""time""
""fullscreenenter"",""1"",""4482""
","
","
","""event"",""trial"",""time""
""fullscreenenter"",""1"",""4482""
","
","","[{""page_index"":0,""viewing_time"":6776.699999928474},{""page_index"":1,""viewing_time"":10208.600000023842},{""page_index"":2,""viewing_time"":6879.899999976158},{""page_index"":3,""viewing_time"":5463.800000071526}]","29329.299999952316","","","","","","","","","","","","","","","","","","","","","","","",""
"pit-trial","81","686514","0.0-2.0-17.0-0.0","battery-v0.2","","""event"",""trial"",""time""
""fullscreenenter"",""1"",""4482""
","
","
","""event"",""trial"",""time""
""fullscreenenter"",""1"",""4482""
","
","","","1141.8999999761581","","","14","6346","3746","&#9789;","elianto","#f73b6a7A"," "," ","1","0","[2007]","1","0","4","","","","","","","",""
"pit-trial","82","689725","0.0-2.0-17.0-1.0","battery-v0.2","","""event"",""trial"",""time""
""fullscreenenter"",""1"",""4482""
","
","
","""event"",""trial"",""time""
""fullscreenenter"",""1"",""4482""
","
","","","343.2000000476837","","","14","6346","3746","&#9789;","elianto","#f73b6a7A"," "," ","1","0","[1203.6000000238419]","1","0","4","","","","","","","",""
"pit-trial","83","692924","0.0-2.0-17.0-2.0","battery-v0.2","","""event"",""trial"",""time""
""fullscreenenter"",""1"",""4482""
","
","
","""event"",""trial"",""time""
""fullscreenenter"",""1"",""4482""
","
","","","326.10000002384186","","","14","6346","3746","&#9789;","elianto","#f73b6a7A"," "," ","1","0","[1176.3000000715256]","1","0","4","","","","","","","",""
"pit-trial","84","696403","0.0-2.0-17.0-3.0","battery-v0.2","","""event"",""trial"",""time""
""fullscreenenter"",""1"",""4482""
","
","
","""event"",""trial"",""time""
""fullscreenenter"",""1"",""4482""
","
","","","615.7999999523163","","","14","6346","3746","&#9789;","elianto","#f73b6a7A"," "," ","1","-10","[1469.3999999761581]","1","0","4","","","","","","","",""
"pit-trial","85","699594","0.0-2.0-17.0-4.0","battery-v0.2","","""event"",""trial"",""time""
""fullscreenenter"",""1"",""4482""
","
","
","""event"",""trial"",""time""
""fullscreenenter"",""1"",""4482""
","
","","","316.09999990463257","","","14","6346","3746","&#9789;","elianto","#f73b6a7A"," "," ","1","0","[1170]","1","0","4","","","","","","","",""
"pit-trial","86","702854","0.0-2.0-17.1-0.1","battery-v0.2","","""event"",""trial"",""time""
""fullscreenenter"",""1"",""4482""
","
","
","""event"",""trial"",""time""
""fullscreenenter"",""1"",""4482""
","
","","","386.40000009536743","","","14","6346","3746","&#9789;","elianto","#f73b6a7A"," "," ","1","0","[1242.4000000953674]","1","0","4","","","","","","","",""
"pit-trial","87","706284","0.0-2.0-17.1-1.1","battery-v0.2","","""event"",""trial"",""time""
""fullscreenenter"",""1"",""4482""
","
","
","""event"",""trial"",""time""
""fullscreenenter"",""1"",""4482""
","
","","","569.5","","","14","6346","3746","&#9789;","elianto","#f73b6a7A"," "," ","1","0","[1422.7000000476837]","1","0","4","","","","","","","",""
"pit-trial","88","709704","0.0-2.0-17.1-2.1","battery-v0.2","","""event"",""trial"",""time""
""fullscreenenter"",""1"",""4482""
","
","
","""event"",""trial"",""time""
""fullscreenenter"",""1"",""4482""
","
","","","547.6000000238419","","","14","6346","3746","&#9789;","elianto","#f73b6a7A"," "," ","1","0","[1404.8000000715256]","1","0","4","","","","","","","",""
"pit-trial","89","713083","0.0-2.0-17.1-3.1","battery-v0.2","","""event"",""trial"",""time""
""fullscreenenter"",""1"",""4482""
","
","
","""event"",""trial"",""time""
""fullscreenenter"",""1"",""4482""
","
","","","519.8000000715256","","","14","6346","3746","&#9789;","elianto","#f73b6a7A"," "," ","1","-10","[1373.6000000238419]","1","0","4","","","","","","","",""
"pit-trial","90","716362","0.0-2.0-17.1-4.1","battery-v0.2","","""event"",""trial"",""time""
""fullscreenenter"",""1"",""4482""
","
","
","""event"",""trial"",""time""
""fullscreenenter"",""1"",""4482""
","
","","","420.60000002384186","","","14","6346","3746","&#9789;","elianto","#f73b6a7A"," "," ","1","0","[1274.1000000238419]","1","0","4","","","","","","","",""
"pit-trial","91","719955","0.0-2.0-17.2-0.2","battery-v0.2","","""event"",""trial"",""time""
""fullscreenenter"",""1"",""4482""
","
","
","""event"",""trial"",""time""
""fullscreenenter"",""1"",""4482""
","
","","","729.8999999761581","","","14","6346","3746","&#9789;","elianto","#f73b6a7A"," "," ","1","0","[1584.1000000238419]","1","0","4","","","","","","","",""
"pit-trial","92","723595","0.0-2.0-17.2-1.2","battery-v0.2","","""event"",""trial"",""time""
""fullscreenenter"",""1"",""4482""
","
","
","""event"",""trial"",""time""
""fullscreenenter"",""1"",""4482""
","
","","","781.5999999046326","","","14","6346","3746","&#9789;","elianto","#f73b6a7A"," "," ","1","0","[322.10000002384186,1634.5]","2","0","4","","","","","","","",""
"pit-trial","93","726874","0.0-2.0-17.2-2.2","battery-v0.2","","""event"",""trial"",""time""
""fullscreenenter"",""1"",""4482""
","
","
","""event"",""trial"",""time""
""fullscreenenter"",""1"",""4482""
","
","","","421.39999997615814","","","14","6346","3746","&#9789;","elianto","#f73b6a7A"," "," ","1","0","[1274.5]","1","0","4","","","","","","","",""
"pit-trial","94","730467","0.0-2.0-17.2-3.2","battery-v0.2","","""event"",""trial"",""time""
""fullscreenenter"",""1"",""4482""
","
","
","""event"",""trial"",""time""
""fullscreenenter"",""1"",""4482""
","
","","","730.1000000238419","","","14","6346","3746","&#9789;","elianto","#f73b6a7A"," "," ","1","-10","[1581.7999999523163]","1","0","4","","","","","","","",""
"pit-trial","95","733835","0.0-2.0-17.2-4.2","battery-v0.2","","""event"",""trial"",""time""
""fullscreenenter"",""1"",""4482""
","
","
","""event"",""trial"",""time""
""fullscreenenter"",""1"",""4482""
","
","","","509.3000000715256","","","14","6346","3746","&#9789;","elianto","#f73b6a7A"," "," ","1","0","[1362.8000000715256]","1","0","4","","","","","","","",""
"pit-trial","96","737259","0.0-2.0-17.3-0.3","battery-v0.2","","""event"",""trial"",""time""
""fullscreenenter"",""1"",""4482""
","
","
","""event"",""trial"",""time""
""fullscreenenter"",""1"",""4482""
","
","","","565.8999999761581","","","14","6346","3746","&#9789;","elianto","#f73b6a7A"," "," ","1","0","[1417.5]","1","0","4","","","","","","","",""
"pit-trial","97","740914","0.0-2.0-17.3-1.3","battery-v0.2","","""event"",""trial"",""time""
""fullscreenenter"",""1"",""4482""
","
","
","""event"",""trial"",""time""
""fullscreenenter"",""1"",""4482""
","
","","","795.7000000476837","","","14","6346","3746","&#9789;","elianto","#f73b6a7A"," "," ","1","0","[1645.7000000476837]","1","0","4","","","","","","","",""
"pit-trial","98","744890","0.0-2.0-17.3-2.3","battery-v0.2","","""event"",""trial"",""time""
""fullscreenenter"",""1"",""4482""
","
","
","""event"",""trial"",""time""
""fullscreenenter"",""1"",""4482""
","
","","","1116.8999999761581","","","14","6346","3746","&#9789;","elianto","#f73b6a7A"," "," ","1","0","[1971.3000000715256]","1","0","4","","","","","","","",""
"pit-trial","99","748426","0.0-2.0-17.3-3.3","battery-v0.2","","""event"",""trial"",""time""
""fullscreenenter"",""1"",""4482""
","
","
","""event"",""trial"",""time""
""fullscreenenter"",""1"",""4482""
","
","","","678.3000000715256","","","14","6346","3746","&#9789;","elianto","#f73b6a7A"," "," ","1","-10","[1531.5]","1","0","4","","","","","","","",""
"pit-trial","100","751697","0.0-2.0-17.3-4.3","battery-v0.2","","""event"",""trial"",""time""
""fullscreenenter"",""1"",""4482""
","
","
","""event"",""trial"",""time""
""fullscreenenter"",""1"",""4482""
","
","","","409.1999999284744","","","14","6346","3746","&#9789;","elianto","#f73b6a7A"," "," ","1","0","[1262.2999999523163]","1","0","4","","","","","","","",""
"call-function","101","751698","0.0-2.0-18.0","battery-v0.2","","""event"",""trial"",""time""
""fullscreenenter"",""1"",""4482""
","
","
","""event"",""trial"",""time""
""fullscreenenter"",""1"",""4482""
","
","","","","","","","","","","","","","","","","","","","","","","","","","","",""
"pit-instructions","102","828743","0.0-2.0-19.0","battery-v0.2","","""event"",""trial"",""time""
""fullscreenenter"",""1"",""4482""
","
","
","""event"",""trial"",""time""
""fullscreenenter"",""1"",""4482""
","
","","[{""page_index"":0,""viewing_time"":6546.800000071526},{""page_index"":1,""viewing_time"":7648.5},{""page_index"":2,""viewing_time"":15744.099999904633},{""page_index"":3,""viewing_time"":7888.600000023842},{""page_index"":4,""viewing_time"":8839.5},{""page_index"":5,""viewing_time"":8311.600000023842},{""page_index"":6,""viewing_time"":9064.299999952316},{""page_index"":7,""viewing_time"":8000.100000023842},{""page_index"":8,""viewing_time"":4999.899999976158}]","77043.89999997616","","","","","","","","","","","","","","","","","","","","","","","",""
"pit-comprehension","103","834255","0.0-2.0-20.0-0.0","battery-v0.2","","""event"",""trial"",""time""
""fullscreenenter"",""1"",""4482""
","
","
","""event"",""trial"",""time""
""fullscreenenter"",""1"",""4482""
","
","","","5509.600000023842","[""SPACE""]","0","14","6346","3746","","","","","","","","","","","","","","","","","","",""
"pit-instructions","104","837446","0.0-2.0-20.0-1.0","battery-v0.2","","""event"",""trial"",""time""
""fullscreenenter"",""1"",""4482""
","
","
","""event"",""trial"",""time""
""fullscreenenter"",""1"",""4482""
","
","","[{""page_index"":0,""viewing_time"":3169}]","3169.1999999284744","","","","","","","","","","","","","","","","","","","","","","","",""
"pit-comprehension","105","844487","0.0-2.0-21.0-0.0","battery-v0.2","","""event"",""trial"",""time""
""fullscreenenter"",""1"",""4482""
","
","
","""event"",""trial"",""time""
""fullscreenenter"",""1"",""4482""
","
","","","7039.299999952316","[""10""]","0","14","6346","3746","","","","","","","","","","","","","","","","","","",""
"pit-instructions","106","846087","0.0-2.0-21.0-1.0","battery-v0.2","","""event"",""trial"",""time""
""fullscreenenter"",""1"",""4482""
","
","
","""event"",""trial"",""time""
""fullscreenenter"",""1"",""4482""
","
","","[{""page_index"":0,""viewing_time"":1578.3999999761581}]","1578.6000000238419","","","","","","","","","","","","","","","","","","","","","","","",""
"pit-comprehension","107","852855","0.0-2.0-22.0-0.0","battery-v0.2","","""event"",""trial"",""time""
""fullscreenenter"",""1"",""4482""
","
","
","""event"",""trial"",""time""
""fullscreenenter"",""1"",""4482""
","
","","","6765.899999976158","[""0""]","0","14","6346","3746","","","","","","","","","","","","","","","","","","",""
"pit-instructions","108","854447","0.0-2.0-22.0-1.0","battery-v0.2","","""event"",""trial"",""time""
""fullscreenenter"",""1"",""4482""
","
","
","""event"",""trial"",""time""
""fullscreenenter"",""1"",""4482""
","
","","[{""page_index"":0,""viewing_time"":1570.5}]","1570.8999999761581","","","","","","","","","","","","","","","","","","","","","","","",""
"pit-comprehension","109","863039","0.0-2.0-23.0-0.0","battery-v0.2","","""event"",""trial"",""time""
""fullscreenenter"",""1"",""4482""
","
","
","""event"",""trial"",""time""
""fullscreenenter"",""1"",""4482""
","
","","","8590.100000023842","[""True""]","0","14","6346","3746","","","","","","","","","","","","","","","","","","",""
"pit-instructions","110","864607","0.0-2.0-23.0-1.0","battery-v0.2","","""event"",""trial"",""time""
""fullscreenenter"",""1"",""4482""
","
","
","""event"",""trial"",""time""
""fullscreenenter"",""1"",""4482""
","
","","[{""page_index"":0,""viewing_time"":1546}]","1546.3000000715256","","","","","","","","","","","","","","","","","","","","","","","",""
"pit-comprehension","111","873199","0.0-2.0-24.0-0.0","battery-v0.2","","""event"",""trial"",""time""
""fullscreenenter"",""1"",""4482""
","
","
","""event"",""trial"",""time""
""fullscreenenter"",""1"",""4482""
","
","","","8590.100000023842","[""True""]","0","14","6346","3746","","","","","","","","","","","","","","","","","","",""
"pit-instructions","112","874783","0.0-2.0-24.0-1.0","battery-v0.2","","""event"",""trial"",""time""
""fullscreenenter"",""1"",""4482""
","
","
","""event"",""trial"",""time""
""fullscreenenter"",""1"",""4482""
","
","","[{""page_index"":0,""viewing_time"":1561.8999999761581}]","1562.2000000476837","","","","","","","","","","","","","","","","","","","","","","","",""
"pit-comprehension","113","881663","0.0-2.0-25.0-0.0","battery-v0.2","","""event"",""trial"",""time""
""fullscreenenter"",""1"",""4482""
","
","
","""event"",""trial"",""time""
""fullscreenenter"",""1"",""4482""
","
","","","6877.899999976158","[""True""]","0","14","6346","3746","","","","","","","","","","","","","","","","","","",""
"pit-instructions","114","883166","0.0-2.0-25.0-1.0","battery-v0.2","","""event"",""trial"",""time""
""fullscreenenter"",""1"",""4482""
","
","
","""event"",""trial"",""time""
""fullscreenenter"",""1"",""4482""
","
","","[{""page_index"":0,""viewing_time"":1480.2999999523163}]","1480.6000000238419","","","","","","","","","","","","","","","","","","","","","","","",""
"pit-comprehension","115","889294","0.0-2.0-26.0-0.0","battery-v0.2","","""event"",""trial"",""time""
""fullscreenenter"",""1"",""4482""
","
","
","""event"",""trial"",""time""
""fullscreenenter"",""1"",""4482""
","
","","","6126.399999976158","[""False""]","0","14","6346","3746","","","","","","","","","","","","","","","","","","",""
"pit-instructions","116","891254","0.0-2.0-26.0-1.0","battery-v0.2","","""event"",""trial"",""time""
""fullscreenenter"",""1"",""4482""
","
","
","""event"",""trial"",""time""
""fullscreenenter"",""1"",""4482""
","
","","[{""page_index"":0,""viewing_time"":1938.3999999761581}]","1938.5999999046326","","","","","","","","","","","","","","","","","","","","","","","",""
"pit-instructions","117","909559","0.0-3.0","battery-v0.2","","""event"",""trial"",""time""
""fullscreenenter"",""1"",""4482""
","
","
","""event"",""trial"",""time""
""fullscreenenter"",""1"",""4482""
","
","","[{""page_index"":0,""viewing_time"":4951.199999928474},{""page_index"":1,""viewing_time"":5439.800000071526},{""page_index"":2,""viewing_time"":7912.699999928474}]","18304.100000023842","","","","","","","","","","","","","","","","","","","","","","","",""
"pit-trial","118","913142","0.0-4.0","battery-v0.2","","""event"",""trial"",""time""
""fullscreenenter"",""1"",""4482""
","
","
","""event"",""trial"",""time""
""fullscreenenter"",""1"",""4482""
","
","","","705.2999999523163","","","14","6346","3746","&#9730;","elianto","#3366ff99"," "," ","1","+10","[1564.7999999523163]","1","1","","","6346","1","1","1","win","go","0"
"pit-trial","119","916742","0.0-5.0","battery-v0.2","","""event"",""trial"",""time""
""fullscreenenter"",""1"",""4482""
","
","
","""event"",""trial"",""time""
""fullscreenenter"",""1"",""4482""
","
","","","731.8999999761581","","","14","6346","3746","&#9733;","elianto","#3366ff99","-1"," ","0","0","[1582.2000000476837]","1","1","","","6346","2","2","2","win","no-go","0"
"pit-trial","120","920652","0.0-6.0","battery-v0.2","","""event"",""trial"",""time""
""fullscreenenter"",""1"",""4482""
","
","
","""event"",""trial"",""time""
""fullscreenenter"",""1"",""4482""
","
","","","1036.6000000238419","","","14","6346","3746","&#9752;","elianto","#f73b6a7A"," "," ","1","0","[1887.2999999523163]","1","1","","","6346","3","3","3","lose","go","0"
"pit-trial","121","924342","0.0-7.0","battery-v0.2","","""event"",""trial"",""time""
""fullscreenenter"",""1"",""4482""
","
","
","""event"",""trial"",""time""
""fullscreenenter"",""1"",""4482""
","
","","","805.2000000476837","","","14","6346","3746","&#9728;","elianto","#f73b6a7A","-1"," ","0","0","[1659.8999999761581]","1","1","","","6346","4","0","4","lose","no-go","1"
"pit-trial","122","928122","0.0-8.0","battery-v0.2","","""event"",""trial"",""time""
""fullscreenenter"",""1"",""4482""
","
","
","""event"",""trial"",""time""
""fullscreenenter"",""1"",""4482""
","
","","","909","","","14","6346","3746","&#9752;","elianto","#f73b6a7A"," "," ","1","0","[1759.2999999523163]","1","1","","","6346","5","3","3","lose","go","0"
"pit-trial","123","931832","0.0-9.0","battery-v0.2","","""event"",""trial"",""time""
""fullscreenenter"",""1"",""4482""
","
","
","""event"",""trial"",""time""
""fullscreenenter"",""1"",""4482""
","
","","","836.1999999284744","","","14","6346","3746","&#9730;","elianto","#3366ff99"," "," ","1","0","[1690.4000000953674]","1","1","","","6346","6","1","1","win","go","1"
"pit-trial","124","935742","0.0-10.0","battery-v0.2","","""event"",""trial"",""time""
""fullscreenenter"",""1"",""4482""
","
","
","""event"",""trial"",""time""
""fullscreenenter"",""1"",""4482""
","
","","","1041.6999999284744","","","14","6346","3746","&#9728;","elianto","#f73b6a7A","-1"," ","0","-10","[1902.5]","1","1","","","6346","7","0","4","lose","no-go","0"
"pit-trial","125","939355","0.0-11.0","battery-v0.2","","""event"",""trial"",""time""
""fullscreenenter"",""1"",""4482""
","
","
","""event"",""trial"",""time""
""fullscreenenter"",""1"",""4482""
","
","","","756.2999999523163","","","14","6346","3746","&#9733;","elianto","#3366ff99","-1"," ","0","0","[1606.6999999284744]","1","1","","","6346","8","2","2","win","no-go","0"
"pit-trial","126","943338","0.0-12.0","battery-v0.2","","""event"",""trial"",""time""
""fullscreenenter"",""1"",""4482""
","
","
","""event"",""trial"",""time""
""fullscreenenter"",""1"",""4482""
","
","","","1126.1999999284744","","","14","6346","3746","&#9752;","elianto","#f73b6a7A"," "," ","1","0","[1978.2999999523163]","1","1","","","6346","9","3","3","lose","go","0"
"pit-trial","127","948202","0.0-13.0","battery-v0.2","","""event"",""trial"",""time""
""fullscreenenter"",""1"",""4482""
","
","
","""event"",""trial"",""time""
""fullscreenenter"",""1"",""4482""
","
","","","-1","","","14","6346","3746","&#9728;","elianto","#f73b6a7A","-1","-1","1","-10","[]","0","1","","","6346","10","0","4","lose","no-go","1"
"pit-trial","128","951898","0.0-14.0","battery-v0.2","","""event"",""trial"",""time""
""fullscreenenter"",""1"",""4482""
","
","
","""event"",""trial"",""time""
""fullscreenenter"",""1"",""4482""
","
","","","838.8999999761581","","","14","6346","3746","&#9733;","elianto","#3366ff99","-1"," ","0","0","[1693.3999999761581]","1","1","","","6346","11","2","2","win","no-go","0"
"pit-trial","129","956762","0.0-15.0","battery-v0.2","","""event"",""trial"",""time""
""fullscreenenter"",""1"",""4482""
","
","
","""event"",""trial"",""time""
""fullscreenenter"",""1"",""4482""
","
","","","-1","","","14","6346","3746","&#9730;","elianto","#3366ff99"," ","-1","0","+10","[]","0","1","","","6346","12","1","1","win","go","1"
"pit-trial","130","961018","0.0-16.0","battery-v0.2","","""event"",""trial"",""time""
""fullscreenenter"",""1"",""4482""
","
","
","""event"",""trial"",""time""
""fullscreenenter"",""1"",""4482""
","
","","","1395.7999999523163","","","14","6346","3746","&#9752;","elianto","#f73b6a7A"," "," ","1","0","[2250.399999976158]","1","1","","","6346","13","3","3","lose","go","0"
"pit-trial","131","965883","0.0-17.0","battery-v0.2","","""event"",""trial"",""time""
""fullscreenenter"",""1"",""4482""
","
","
","""event"",""trial"",""time""
""fullscreenenter"",""1"",""4482""
","
","","","-1","","","14","6346","3746","&#9730;","elianto","#3366ff99"," ","-1","0","0","[]","0","1","","","6346","14","1","1","win","go","0"
"pit-trial","132","970747","0.0-18.0","battery-v0.2","","""event"",""trial"",""time""
""fullscreenenter"",""1"",""4482""
","
","
","""event"",""trial"",""time""
""fullscreenenter"",""1"",""4482""
","
","","","-1","","","14","6346","3746","&#9728;","elianto","#f73b6a7A","-1","-1","1","0","[]","0","1","","","6346","15","0","4","lose","no-go","0"
"pit-trial","133","974467","0.0-19.0","battery-v0.2","","""event"",""trial"",""time""
""fullscreenenter"",""1"",""4482""
","
","
","""event"",""trial"",""time""
""fullscreenenter"",""1"",""4482""
","
","","","856","","","14","6346","3746","&#9733;","elianto","#3366ff99","-1"," ","0","0","[1709]","1","1","","","6346","16","2","2","win","no-go","0"
"pit-trial","134","979331","0.0-20.0","battery-v0.2","","""event"",""trial"",""time""
""fullscreenenter"",""1"",""4482""
","
","
","""event"",""trial"",""time""
""fullscreenenter"",""1"",""4482""
","
","","","-1","","","14","6346","3746","&#9728;","elianto","#f73b6a7A","-1","-1","1","0","[]","0","1","","","6346","17","0","4","lose","no-go","0"
"pit-trial","135","983595","0.0-21.0","battery-v0.2","","""event"",""trial"",""time""
""fullscreenenter"",""1"",""4482""
","
","
","""event"",""trial"",""time""
""fullscreenenter"",""1"",""4482""
","
","","","1404.9000000953674","","","14","6346","3746","&#9752;","elianto","#f73b6a7A"," "," ","1","0","[2258.600000023842]","1","1","","","6346","18","3","3","lose","go","0"
"pit-trial","136","988458","0.0-22.0","battery-v0.2","","""event"",""trial"",""time""
""fullscreenenter"",""1"",""4482""
","
","
","""event"",""trial"",""time""
""fullscreenenter"",""1"",""4482""
","
","","","-1","","","14","6346","3746","&#9733;","elianto","#3366ff99","-1","-1","1","+10","[]","0","1","","","6346","19","2","2","win","no-go","0"
"pit-trial","137","993322","0.0-23.0","battery-v0.2","","""event"",""trial"",""time""
""fullscreenenter"",""1"",""4482""
","
","
","""event"",""trial"",""time""
""fullscreenenter"",""1"",""4482""
","
","","","-1","","","14","6346","3746","&#9730;","elianto","#3366ff99"," ","-1","0","0","[]","0","1","","","6346","20","1","1","win","go","0"
"pit-instructions","138","1006766","0.0-24.0","battery-v0.2","","""event"",""trial"",""time""
""fullscreenenter"",""1"",""4482""
","
","
","""event"",""trial"",""time""
""fullscreenenter"",""1"",""4482""
","
","","[{""page_index"":0,""viewing_time"":5898.099999904633},{""page_index"":1,""viewing_time"":7544}]","13442.599999904633","","","","","","","","","","","","","","","","","","","","","","","",""
"pit-trial","139","1010457","0.0-25.0","battery-v0.2","","""event"",""trial"",""time""
""fullscreenenter"",""1"",""4482""
","
","
","""event"",""trial"",""time""
""fullscreenenter"",""1"",""4482""
","
","","","829.1000000238419","","","14","6346","3746","n","elianto","#f73b6a7A","-1"," ","0","-10","[1686.8000000715256]","1","2","","","6346","21","0","4","lose","no-go","0"
"pit-trial","140","1014187","0.0-26.0","battery-v0.2","","""event"",""trial"",""time""
""fullscreenenter"",""1"",""4482""
","
","
","""event"",""trial"",""time""
""fullscreenenter"",""1"",""4482""
","
","","","859.7000000476837","","","14","6346","3746","b","elianto","#f73b6a7A"," "," ","1","0","[1709.7000000476837]","1","2","","","6346","22","3","3","lose","go","0"
"pit-trial","141","1018147","0.0-27.0","battery-v0.2","","""event"",""trial"",""time""
""fullscreenenter"",""1"",""4482""
","
","
","""event"",""trial"",""time""
""fullscreenenter"",""1"",""4482""
","
","","","1093.0999999046326","","","14","6346","3746","t","elianto","#f73b6a7A","-1"," ","0","-10","[1945.5999999046326]","1","2","","","6346","23","2","4","lose","no-go","0"
"pit-trial","142","1021967","0.0-28.0","battery-v0.2","","""event"",""trial"",""time""
""fullscreenenter"",""1"",""4482""
","
","
","""event"",""trial"",""time""
""fullscreenenter"",""1"",""4482""
","
","","","948.1000000238419","","","14","6346","3746","f","elianto","#3366ff99"," "," ","1","+10","[1810.1000000238419]","1","2","","","6346","24","1","1","win","go","0"
"pit-trial","143","1026357","0.0-29.0","battery-v0.2","","""event"",""trial"",""time""
""fullscreenenter"",""1"",""4482""
","
","
","""event"",""trial"",""time""
""fullscreenenter"",""1"",""4482""
","
","","","1520.7999999523163","","","14","6346","3746","n","elianto","#f73b6a7A","-1"," ","0","-10","[2376.9000000953674]","1","2","","","6346","25","0","4","lose","no-go","0"
"pit-trial","144","1030157","0.0-30.0","battery-v0.2","","""event"",""trial"",""time""
""fullscreenenter"",""1"",""4482""
","
","
","""event"",""trial"",""time""
""fullscreenenter"",""1"",""4482""
","
","","","924.2000000476837","","","14","6346","3746","f","elianto","#3366ff99"," "," ","1","+10","[1775.8000000715256]","1","2","","","6346","26","1","1","win","go","0"
"pit-trial","145","1034357","0.0-31.0","battery-v0.2","","""event"",""trial"",""time""
""fullscreenenter"",""1"",""4482""
","
","
","""event"",""trial"",""time""
""fullscreenenter"",""1"",""4482""
","
","","","1334.1000000238419","","","14","6346","3746","t","elianto","#f73b6a7A","-1"," ","0","-10","[2184.2000000476837]","1","2","","","6346","27","2","4","lose","no-go","0"
"pit-trial","146","1039218","0.0-32.0","battery-v0.2","","""event"",""trial"",""time""
""fullscreenenter"",""1"",""4482""
","
","
","""event"",""trial"",""time""
""fullscreenenter"",""1"",""4482""
","
","","","-1","","","14","6346","3746","b","elianto","#f73b6a7A"," ","-1","0","-10","[]","0","2","","","6346","28","3","3","lose","go","0"
"pit-trial","147","1043714","0.0-33.0","battery-v0.2","","""event"",""trial"",""time""
""fullscreenenter"",""1"",""4482""
","
","
","""event"",""trial"",""time""
""fullscreenenter"",""1"",""4482""
","
","","","1632.9000000953674","","","14","6346","3746","t","elianto","#f73b6a7A","-1"," ","0","-10","[2486.8000000715256]","1","2","","","6346","29","2","4","lose","no-go","0"
"pit-trial","148","1047754","0.0-34.0","battery-v0.2","","""event"",""trial"",""time""
""fullscreenenter"",""1"",""4482""
","
","
","""event"",""trial"",""time""
""fullscreenenter"",""1"",""4482""
","
","","","1180.8999999761581","","","14","6346","3746","b","elianto","#f73b6a7A"," "," ","1","0","[2034.6999999284744]","1","2","","","6346","30","3","3","lose","go","0"
"pit-trial","149","1051562","0.0-35.0","battery-v0.2","","""event"",""trial"",""time""
""fullscreenenter"",""1"",""4482""
","
","
","""event"",""trial"",""time""
""fullscreenenter"",""1"",""4482""
","
","","","947.3999999761581","","","14","6346","3746","n","elianto","#f73b6a7A","-1"," ","0","-10","[1802.3999999761581]","1","2","","","6346","31","0","4","lose","no-go","0"
"pit-trial","150","1055346","0.0-36.0","battery-v0.2","","""event"",""trial"",""time""
""fullscreenenter"",""1"",""4482""
","
","
","""event"",""trial"",""time""
""fullscreenenter"",""1"",""4482""
","
","","","921.1000000238419","","","14","6346","3746","f","elianto","#3366ff99"," "," ","1","0","[1773.8999999761581]","1","2","","","6346","32","1","1","win","go","1"
"pit-trial","151","1060210","0.0-37.0","battery-v0.2","","""event"",""trial"",""time""
""fullscreenenter"",""1"",""4482""
","
","
","""event"",""trial"",""time""
""fullscreenenter"",""1"",""4482""
","
","","","-1","","","14","6346","3746","t","elianto","#f73b6a7A","-1","-1","1","-10","[]","0","2","","","6346","33","2","4","lose","no-go","1"
"pit-trial","152","1065075","0.0-38.0","battery-v0.2","","""event"",""trial"",""time""
""fullscreenenter"",""1"",""4482""
","
","
","""event"",""trial"",""time""
""fullscreenenter"",""1"",""4482""
","
","","","-1","","","14","6346","3746","n","elianto","#f73b6a7A","-1","-1","1","-10","[]","0","2","","","6346","34","0","4","lose","no-go","1"
"pit-trial","153","1069123","0.0-39.0","battery-v0.2","","""event"",""trial"",""time""
""fullscreenenter"",""1"",""4482""
","
","
","""event"",""trial"",""time""
""fullscreenenter"",""1"",""4482""
","
","","","1187","","","14","6346","3746","b","elianto","#f73b6a7A"," "," ","1","0","[2037.3000000715256]","1","2","","","6346","35","3","3","lose","go","0"
"pit-trial","154","1073771","0.0-40.0","battery-v0.2","","""event"",""trial"",""time""
""fullscreenenter"",""1"",""4482""
","
","
","""event"",""trial"",""time""
""fullscreenenter"",""1"",""4482""
","
","","","1789.2000000476837","","","14","6346","3746","f","elianto","#3366ff99"," "," ","1","+10","[2641.899999976158]","1","2","","","6346","36","1","1","win","go","0"
"pit-trial","155","1077434","0.0-41.0","battery-v0.2","","""event"",""trial"",""time""
""fullscreenenter"",""1"",""4482""
","
","
","""event"",""trial"",""time""
""fullscreenenter"",""1"",""4482""
","
","","","805.3999999761581","","","14","6346","3746","b","elianto","#f73b6a7A"," "," ","1","0","[1657.6999999284744]","1","2","","","6346","37","3","3","lose","go","0"
"pit-trial","156","1081058","0.0-42.0","battery-v0.2","","""event"",""trial"",""time""
""fullscreenenter"",""1"",""4482""
","
","
","""event"",""trial"",""time""
""fullscreenenter"",""1"",""4482""
","
","","","760.3000000715256","","","14","6346","3746","f","elianto","#3366ff99"," "," ","1","+10","[1614.6000000238419]","1","2","","","6346","38","1","1","win","go","0"
"pit-trial","157","1085922","0.0-43.0","battery-v0.2","","""event"",""trial"",""time""
""fullscreenenter"",""1"",""4482""
","
","
","""event"",""trial"",""time""
""fullscreenenter"",""1"",""4482""
","
","","","-1","","","14","6346","3746","n","elianto","#f73b6a7A","-1","-1","1","-10","[]","0","2","","","6346","39","0","4","lose","no-go","1"
"pit-trial","158","1090787","0.0-44.0","battery-v0.2","","""event"",""trial"",""time""
""fullscreenenter"",""1"",""4482""
","
","
","""event"",""trial"",""time""
""fullscreenenter"",""1"",""4482""
","
","","","-1","","","14","6346","3746","t","elianto","#f73b6a7A","-1","-1","1","0","[]","0","2","","","6346","40","2","4","lose","no-go","0"
"pit-trial","159","1094435","0.0-45.0","battery-v0.2","","""event"",""trial"",""time""
""fullscreenenter"",""1"",""4482""
","
","
","""event"",""trial"",""time""
""fullscreenenter"",""1"",""4482""
","
","","","783.7000000476837","","","14","6346","3746","f","elianto","#3366ff99"," "," ","1","+10","[1636.7000000476837]","1","2","","","6346","41","1","1","win","go","0"
"pit-trial","160","1099298","0.0-46.0","battery-v0.2","","""event"",""trial"",""time""
""fullscreenenter"",""1"",""4482""
","
","
","""event"",""trial"",""time""
""fullscreenenter"",""1"",""4482""
","
","","","-1","","","14","6346","3746","n","elianto","#f73b6a7A","-1","-1","1","0","[]","0","2","","","6346","42","0","4","lose","no-go","0"
"pit-trial","161","1103418","0.0-47.0","battery-v0.2","","""event"",""trial"",""time""
""fullscreenenter"",""1"",""4482""
","
","
","""event"",""trial"",""time""
""fullscreenenter"",""1"",""4482""
","
","","","1261.6000000238419","","","14","6346","3746","b","elianto","#f73b6a7A"," "," ","1","-10","[2114.899999976158]","1","2","","","6346","43","3","3","lose","go","1"
"pit-trial","162","1108282","0.0-48.0","battery-v0.2","","""event"",""trial"",""time""
""fullscreenenter"",""1"",""4482""
","
","
","""event"",""trial"",""time""
""fullscreenenter"",""1"",""4482""
","
","","","-1","","","14","6346","3746","t","elianto","#f73b6a7A","-1","-1","1","0","[]","0","2","","","6346","44","2","4","lose","no-go","0"
"pit-trial","163","1112627","0.0-49.0","battery-v0.2","","""event"",""trial"",""time""
""fullscreenenter"",""1"",""4482""
","
","
","""event"",""trial"",""time""
""fullscreenenter"",""1"",""4482""
","
","","","1479.6000000238419","","","14","6346","3746","c","elianto","#3366ff99","-1"," ","0","0","[2333.600000023842]","1","2","","","6346","45","4","2","win","no-go","0"
"pit-trial","164","1116394","0.0-50.0","battery-v0.2","","""event"",""trial"",""time""
""fullscreenenter"",""1"",""4482""
","
","
","""event"",""trial"",""time""
""fullscreenenter"",""1"",""4482""
","
","","","909.3999999761581","","","14","6346","3746","n","elianto","#f73b6a7A","-1"," ","0","-10","[1761.1000000238419]","1","2","","","6346","46","0","4","lose","no-go","0"
"pit-trial","165","1120778","0.0-51.0","battery-v0.2","","""event"",""trial"",""time""
""fullscreenenter"",""1"",""4482""
","
","
","""event"",""trial"",""time""
""fullscreenenter"",""1"",""4482""
","
","","","1525.2999999523163","","","14","6346","3746","t","elianto","#f73b6a7A","-1"," ","0","0","[2379]","1","2","","","6346","47","2","4","lose","no-go","1"
"pit-trial","166","1125089","0.0-52.0","battery-v0.2","","""event"",""trial"",""time""
""fullscreenenter"",""1"",""4482""
","
","
","""event"",""trial"",""time""
""fullscreenenter"",""1"",""4482""
","
","","","1448.7000000476837","","","14","6346","3746","b","elianto","#f73b6a7A"," "," ","1","-10","[2301.2000000476837]","1","2","","","6346","48","3","3","lose","go","1"
"pit-trial","167","1129953","0.0-53.0","battery-v0.2","","""event"",""trial"",""time""
""fullscreenenter"",""1"",""4482""
","
","
","""event"",""trial"",""time""
""fullscreenenter"",""1"",""4482""
","
","","","-1","","","14","6346","3746","n","elianto","#f73b6a7A","-1","-1","1","0","[]","0","2","","","6346","49","0","4","lose","no-go","0"
"pit-trial","168","1133722","0.0-54.0","battery-v0.2","","""event"",""trial"",""time""
""fullscreenenter"",""1"",""4482""
","
","
","""event"",""trial"",""time""
""fullscreenenter"",""1"",""4482""
","
","","","909.6999999284744","","","14","6346","3746","f","elianto","#3366ff99"," "," ","1","+10","[1762.2999999523163]","1","2","","","6346","50","1","1","win","go","0"
"pit-trial","169","1137697","0.0-55.0","battery-v0.2","","""event"",""trial"",""time""
""fullscreenenter"",""1"",""4482""
","
","
","""event"",""trial"",""time""
""fullscreenenter"",""1"",""4482""
","
","","","1114.6000000238419","","","14","6346","3746","b","elianto","#f73b6a7A"," "," ","1","0","[1966.2000000476837]","1","2","","","6346","51","3","3","lose","go","0"
"pit-trial","170","1141754","0.0-56.0","battery-v0.2","","""event"",""trial"",""time""
""fullscreenenter"",""1"",""4482""
","
","
","""event"",""trial"",""time""
""fullscreenenter"",""1"",""4482""
","
","","","1196.5","","","14","6346","3746","c","elianto","#3366ff99","-1"," ","0","0","[2051]","1","2","","","6346","52","4","2","win","no-go","0"
"pit-trial","171","1146618","0.0-57.0","battery-v0.2","","""event"",""trial"",""time""
""fullscreenenter"",""1"",""4482""
","
","
","""event"",""trial"",""time""
""fullscreenenter"",""1"",""4482""
","
","","","-1","","","14","6346","3746","t","elianto","#f73b6a7A","-1","-1","1","0","[]","0","2","","","6346","53","2","4","lose","no-go","0"
"pit-trial","172","1151482","0.0-58.0","battery-v0.2","","""event"",""trial"",""time""
""fullscreenenter"",""1"",""4482""
","
","
","""event"",""trial"",""time""
""fullscreenenter"",""1"",""4482""
","
","","","-1","","","14","6346","3746","c","elianto","#3366ff99","-1","-1","1","+10","[]","0","2","","","6346","54","4","2","win","no-go","0"
"pit-trial","173","1155122","0.0-59.0","battery-v0.2","","""event"",""trial"",""time""
""fullscreenenter"",""1"",""4482""
","
","
","""event"",""trial"",""time""
""fullscreenenter"",""1"",""4482""
","
","","","775.5","","","14","6346","3746","f","elianto","#3366ff99"," "," ","1","+10","[1629.2000000476837]","1","2","","","6346","55","1","1","win","go","0"
"pit-trial","174","1159986","0.0-60.0","battery-v0.2","","""event"",""trial"",""time""
""fullscreenenter"",""1"",""4482""
","
","
","""event"",""trial"",""time""
""fullscreenenter"",""1"",""4482""
","
","","","-1","","","14","6346","3746","n","elianto","#f73b6a7A","-1","-1","1","0","[]","0","2","","","6346","56","0","4","lose","no-go","0"
"pit-trial","175","1164850","0.0-61.0","battery-v0.2","","""event"",""trial"",""time""
""fullscreenenter"",""1"",""4482""
","
","
","""event"",""trial"",""time""
""fullscreenenter"",""1"",""4482""
","
","","","-1","","","14","6346","3746","n","elianto","#f73b6a7A","-1","-1","1","0","[]","0","2","","","6346","57","0","4","lose","no-go","0"
"pit-trial","176","1168634","0.0-62.0","battery-v0.2","","""event"",""trial"",""time""
""fullscreenenter"",""1"",""4482""
","
","
","""event"",""trial"",""time""
""fullscreenenter"",""1"",""4482""
","
","","","926.1000000238419","","","14","6346","3746","b","elianto","#f73b6a7A"," "," ","1","0","[1779.3999999761581]","1","2","","","6346","58","3","3","lose","go","0"
"pit-trial","177","1172331","0.0-63.0","battery-v0.2","","""event"",""trial"",""time""
""fullscreenenter"",""1"",""4482""
","
","
","""event"",""trial"",""time""
""fullscreenenter"",""1"",""4482""
","
","","","836.9000000953674","","","14","6346","3746","f","elianto","#3366ff99"," "," ","1","+10","[1690]","1","2","","","6346","59","1","1","win","go","0"
"pit-trial","178","1177194","0.0-64.0","battery-v0.2","","""event"",""trial"",""time""
""fullscreenenter"",""1"",""4482""
","
","
","""event"",""trial"",""time""
""fullscreenenter"",""1"",""4482""
","
","","","-1","","","14","6346","3746","c","elianto","#3366ff99","-1","-1","1","+10","[]","0","2","","","6346","60","4","2","win","no-go","0"
"pit-trial","179","1180961","0.0-65.0","battery-v0.2","","""event"",""trial"",""time""
""fullscreenenter"",""1"",""4482""
","
","
","""event"",""trial"",""time""
""fullscreenenter"",""1"",""4482""
","
","","","903.7000000476837","","","14","6346","3746","b","elianto","#f73b6a7A"," "," ","1","0","[1757.1000000238419]","1","2","","","6346","61","3","3","lose","go","0"
"pit-trial","180","1185825","0.0-66.0","battery-v0.2","","""event"",""trial"",""time""
""fullscreenenter"",""1"",""4482""
","
","
","""event"",""trial"",""time""
""fullscreenenter"",""1"",""4482""
","
","","","-1","","","14","6346","3746","c","elianto","#3366ff99","-1","-1","1","+10","[]","0","2","","","6346","62","4","2","win","no-go","0"
"pit-trial","181","1190690","0.0-67.0","battery-v0.2","","""event"",""trial"",""time""
""fullscreenenter"",""1"",""4482""
","
","
","""event"",""trial"",""time""
""fullscreenenter"",""1"",""4482""
","
","","","-1","","","14","6346","3746","t","elianto","#f73b6a7A","-1","-1","1","-10","[]","0","2","","","6346","63","2","4","lose","no-go","1"
"pit-trial","182","1194385","0.0-68.0","battery-v0.2","","""event"",""trial"",""time""
""fullscreenenter"",""1"",""4482""
","
","
","""event"",""trial"",""time""
""fullscreenenter"",""1"",""4482""
","
","","","836","","","14","6346","3746","f","elianto","#3366ff99"," "," ","1","+10","[1686.3999999761581]","1","2","","","6346","64","1","1","win","go","0"
"pit-trial","183","1198043","0.0-69.0","battery-v0.2","","""event"",""trial"",""time""
""fullscreenenter"",""1"",""4482""
","
","
","""event"",""trial"",""time""
""fullscreenenter"",""1"",""4482""
","
","","","798.1999999284744","","","14","6346","3746","b","elianto","#f73b6a7A"," "," ","1","0","[1652.1999999284744]","1","2","","","6346","65","3","3","lose","go","0"
"pit-trial","184","1201770","0.0-70.0","battery-v0.2","","""event"",""trial"",""time""
""fullscreenenter"",""1"",""4482""
","
","
","""event"",""trial"",""time""
""fullscreenenter"",""1"",""4482""
","
","","","869.1000000238419","","","14","6346","3746","f","elianto","#3366ff99"," "," ","1","+10","[1720.7000000476837]","1","2","","","6346","66","1","1","win","go","0"
"pit-trial","185","1206634","0.0-71.0","battery-v0.2","","""event"",""trial"",""time""
""fullscreenenter"",""1"",""4482""
","
","
","""event"",""trial"",""time""
""fullscreenenter"",""1"",""4482""
","
","","","-1","","","14","6346","3746","t","elianto","#f73b6a7A","-1","-1","1","-10","[]","0","2","","","6346","67","2","4","lose","no-go","1"
"pit-trial","186","1211497","0.0-72.0","battery-v0.2","","""event"",""trial"",""time""
""fullscreenenter"",""1"",""4482""
","
","
","""event"",""trial"",""time""
""fullscreenenter"",""1"",""4482""
","
","","","-1","","","14","6346","3746","c","elianto","#3366ff99","-1","-1","1","0","[]","0","2","","","6346","68","4","2","win","no-go","1"
"pit-trial","187","1216362","0.0-73.0","battery-v0.2","","""event"",""trial"",""time""
""fullscreenenter"",""1"",""4482""
","
","
","""event"",""trial"",""time""
""fullscreenenter"",""1"",""4482""
","
","","","-1","","","14","6346","3746","c","elianto","#3366ff99","-1","-1","1","+10","[]","0","2","","","6346","69","4","2","win","no-go","0"
"pit-trial","188","1220242","0.0-74.0","battery-v0.2","","""event"",""trial"",""time""
""fullscreenenter"",""1"",""4482""
","
","
","""event"",""trial"",""time""
""fullscreenenter"",""1"",""4482""
","
","","","1015.2999999523163","","","14","6346","3746","f","elianto","#3366ff99"," "," ","1","+10","[1869.6999999284744]","1","2","","","6346","70","1","1","win","go","0"
"pit-trial","189","1224602","0.0-75.0","battery-v0.2","","""event"",""trial"",""time""
""fullscreenenter"",""1"",""4482""
","
","
","""event"",""trial"",""time""
""fullscreenenter"",""1"",""4482""
","
","","","1503.1999999284744","","","14","6346","3746","z","elianto","#3366ff99"," "," ","1","0","[2354]","1","2","","","6346","71","5","1","win","go","1"
"pit-trial","190","1228682","0.0-76.0","battery-v0.2","","""event"",""trial"",""time""
""fullscreenenter"",""1"",""4482""
","
","
","""event"",""trial"",""time""
""fullscreenenter"",""1"",""4482""
","
","","","1221","","","14","6346","3746","b","elianto","#f73b6a7A"," "," ","1","0","[2074.5]","1","2","","","6346","72","3","3","lose","go","0"
"pit-trial","191","1232930","0.0-77.0","battery-v0.2","","""event"",""trial"",""time""
""fullscreenenter"",""1"",""4482""
","
","
","""event"",""trial"",""time""
""fullscreenenter"",""1"",""4482""
","
","","","1383.9000000953674","","","14","6346","3746","f","elianto","#3366ff99"," "," ","1","0","[2238.100000023842]","1","2","","","6346","73","1","1","win","go","1"
"pit-trial","192","1237794","0.0-78.0","battery-v0.2","","""event"",""trial"",""time""
""fullscreenenter"",""1"",""4482""
","
","
","""event"",""trial"",""time""
""fullscreenenter"",""1"",""4482""
","
","","","-1","","","14","6346","3746","c","elianto","#3366ff99","-1","-1","1","0","[]","0","2","","","6346","74","4","2","win","no-go","1"
"pit-trial","193","1241610","0.0-79.0","battery-v0.2","","""event"",""trial"",""time""
""fullscreenenter"",""1"",""4482""
","
","
","""event"",""trial"",""time""
""fullscreenenter"",""1"",""4482""
","
","","","956.7000000476837","","","14","6346","3746","b","elianto","#f73b6a7A"," "," ","1","0","[1810.2000000476837]","1","2","","","6346","75","3","3","lose","go","0"
"pit-trial","194","1246474","0.0-80.0","battery-v0.2","","""event"",""trial"",""time""
""fullscreenenter"",""1"",""4482""
","
","
","""event"",""trial"",""time""
""fullscreenenter"",""1"",""4482""
","
","","","-1","","","14","6346","3746","z","elianto","#3366ff99"," ","-1","0","0","[]","0","2","","","6346","76","5","1","win","go","0"
"pit-trial","195","1251339","0.0-81.0","battery-v0.2","","""event"",""trial"",""time""
""fullscreenenter"",""1"",""4482""
","
","
","""event"",""trial"",""time""
""fullscreenenter"",""1"",""4482""
","
","","","-1","","","14","6346","3746","c","elianto","#3366ff99","-1","-1","1","+10","[]","0","2","","","6346","77","4","2","win","no-go","0"
"pit-trial","196","1256202","0.0-82.0","battery-v0.2","","""event"",""trial"",""time""
""fullscreenenter"",""1"",""4482""
","
","
","""event"",""trial"",""time""
""fullscreenenter"",""1"",""4482""
","
","","","-1","","","14","6346","3746","z","elianto","#3366ff99"," ","-1","0","+10","[]","0","2","","","6346","78","5","1","win","go","1"
"pit-trial","197","1260683","0.0-83.0","battery-v0.2","","""event"",""trial"",""time""
""fullscreenenter"",""1"",""4482""
","
","
","""event"",""trial"",""time""
""fullscreenenter"",""1"",""4482""
","
","","","1622.3999999761581","","","14","6346","3746","h","elianto","#f73b6a7A","-1"," ","0","-10","[2476.100000023842]","1","2","","","6346","79","6","4","lose","no-go","0"
"pit-trial","198","1264665","0.0-84.0","battery-v0.2","","""event"",""trial"",""time""
""fullscreenenter"",""1"",""4482""
","
","
","""event"",""trial"",""time""
""fullscreenenter"",""1"",""4482""
","
","","","1125.0999999046326","","","14","6346","3746","b","elianto","#f73b6a7A"," "," ","1","-10","[1977.7999999523163]","1","2","","","6346","80","3","3","lose","go","1"
"pit-trial","199","1269531","0.0-85.0","battery-v0.2","","""event"",""trial"",""time""
""fullscreenenter"",""1"",""4482""
","
","
","""event"",""trial"",""time""
""fullscreenenter"",""1"",""4482""
","
","","","-1","","","14","6346","3746","h","elianto","#f73b6a7A","-1","-1","1","0","[]","0","2","","","6346","81","6","4","lose","no-go","0"
"pit-trial","200","1274394","0.0-86.0","battery-v0.2","","""event"",""trial"",""time""
""fullscreenenter"",""1"",""4482""
","
","
","""event"",""trial"",""time""
""fullscreenenter"",""1"",""4482""
","
","","","-1","","","14","6346","3746","c","elianto","#3366ff99","-1","-1","1","+10","[]","0","2","","","6346","82","4","2","win","no-go","0"
"pit-trial","201","1279258","0.0-87.0","battery-v0.2","","""event"",""trial"",""time""
""fullscreenenter"",""1"",""4482""
","
","
","""event"",""trial"",""time""
""fullscreenenter"",""1"",""4482""
","
","","","-1","","","14","6346","3746","y","elianto","#f73b6a7A"," ","-1","0","-10","[]","0","2","","","6346","83","7","3","lose","go","0"
"pit-trial","202","1284123","0.0-88.0","battery-v0.2","","""event"",""trial"",""time""
""fullscreenenter"",""1"",""4482""
","
","
","""event"",""trial"",""time""
""fullscreenenter"",""1"",""4482""
","
","","","-1","","","14","6346","3746","z","elianto","#3366ff99"," ","-1","0","0","[]","0","2","","","6346","84","5","1","win","go","0"
"pit-trial","203","1288723","0.0-89.0","battery-v0.2","","""event"",""trial"",""time""
""fullscreenenter"",""1"",""4482""
","
","
","""event"",""trial"",""time""
""fullscreenenter"",""1"",""4482""
","
","","","1735.9000000953674","","","14","6346","3746","y","elianto","#f73b6a7A"," "," ","1","0","[2588.5]","1","2","","","6346","85","7","3","lose","go","0"
"pit-trial","204","1293586","0.0-90.0","battery-v0.2","","""event"",""trial"",""time""
""fullscreenenter"",""1"",""4482""
","
","
","""event"",""trial"",""time""
""fullscreenenter"",""1"",""4482""
","
","","","-1","","","14","6346","3746","h","elianto","#f73b6a7A","-1","-1","1","0","[]","0","2","","","6346","86","6","4","lose","no-go","0"
"pit-trial","205","1298451","0.0-91.0","battery-v0.2","","""event"",""trial"",""time""
""fullscreenenter"",""1"",""4482""
","
","
","""event"",""trial"",""time""
""fullscreenenter"",""1"",""4482""
","
","","","-1","","","14","6346","3746","z","elianto","#3366ff99"," ","-1","0","0","[]","0","2","","","6346","87","5","1","win","go","0"
"pit-trial","206","1303314","0.0-92.0","battery-v0.2","","""event"",""trial"",""time""
""fullscreenenter"",""1"",""4482""
","
","
","""event"",""trial"",""time""
""fullscreenenter"",""1"",""4482""
","
","","","-1","","","14","6346","3746","c","elianto","#3366ff99","-1","-1","1","0","[]","0","2","","","6346","88","4","2","win","no-go","1"
"pit-trial","207","1307019","0.0-93.0","battery-v0.2","","""event"",""trial"",""time""
""fullscreenenter"",""1"",""4482""
","
","
","""event"",""trial"",""time""
""fullscreenenter"",""1"",""4482""
","
","","","841.8000000715256","","","14","6346","3746","y","elianto","#f73b6a7A"," "," ","1","0","[1701.3999999761581]","1","2","","","6346","89","7","3","lose","go","0"
"pit-trial","208","1311883","0.0-94.0","battery-v0.2","","""event"",""trial"",""time""
""fullscreenenter"",""1"",""4482""
","
","
","""event"",""trial"",""time""
""fullscreenenter"",""1"",""4482""
","
","","","-1","","","14","6346","3746","c","elianto","#3366ff99","-1","-1","1","+10","[]","0","2","","","6346","90","4","2","win","no-go","0"
"pit-trial","209","1316171","0.0-95.0","battery-v0.2","","""event"",""trial"",""time""
""fullscreenenter"",""1"",""4482""
","
","
","""event"",""trial"",""time""
""fullscreenenter"",""1"",""4482""
","
","","","1428.5","","","14","6346","3746","z","elianto","#3366ff99"," "," ","1","0","[2282.3000000715256]","1","2","","","6346","91","5","1","win","go","1"
"pit-trial","210","1321034","0.0-96.0","battery-v0.2","","""event"",""trial"",""time""
""fullscreenenter"",""1"",""4482""
","
","
","""event"",""trial"",""time""
""fullscreenenter"",""1"",""4482""
","
","","","-1","","","14","6346","3746","h","elianto","#f73b6a7A","-1","-1","1","0","[]","0","2","","","6346","92","6","4","lose","no-go","0"
"pit-trial","211","1325346","0.0-97.0","battery-v0.2","","""event"",""trial"",""time""
""fullscreenenter"",""1"",""4482""
","
","
","""event"",""trial"",""time""
""fullscreenenter"",""1"",""4482""
","
","","","1447.2000000476837","","","14","6346","3746","r","elianto","#3366ff99","-1"," ","0","0","[2302.5]","1","2","","","6346","93","8","2","win","no-go","0"
"pit-trial","212","1330210","0.0-98.0","battery-v0.2","","""event"",""trial"",""time""
""fullscreenenter"",""1"",""4482""
","
","
","""event"",""trial"",""time""
""fullscreenenter"",""1"",""4482""
","
","","","-1","","","14","6346","3746","h","elianto","#f73b6a7A","-1","-1","1","-10","[]","0","2","","","6346","94","6","4","lose","no-go","1"
"pit-trial","213","1333915","0.0-99.0","battery-v0.2","","""event"",""trial"",""time""
""fullscreenenter"",""1"",""4482""
","
","
","""event"",""trial"",""time""
""fullscreenenter"",""1"",""4482""
","
","","","844.5","","","14","6346","3746","z","elianto","#3366ff99"," "," ","1","+10","[1698]","1","2","","","6346","95","5","1","win","go","0"
"pit-trial","214","1338482","0.0-100.0","battery-v0.2","","""event"",""trial"",""time""
""fullscreenenter"",""1"",""4482""
","
","
","""event"",""trial"",""time""
""fullscreenenter"",""1"",""4482""
","
","","","1704.2000000476837","","","14","6346","3746","y","elianto","#f73b6a7A"," "," ","1","0","[2557.3000000715256]","1","2","","","6346","96","7","3","lose","go","0"
"pit-trial","215","1342762","0.0-101.0","battery-v0.2","","""event"",""trial"",""time""
""fullscreenenter"",""1"",""4482""
","
","
","""event"",""trial"",""time""
""fullscreenenter"",""1"",""4482""
","
","","","1421","","","14","6346","3746","h","elianto","#f73b6a7A","-1"," ","0","-10","[2274.8000000715256]","1","2","","","6346","97","6","4","lose","no-go","0"
"pit-trial","216","1346491","0.0-102.0","battery-v0.2","","""event"",""trial"",""time""
""fullscreenenter"",""1"",""4482""
","
","
","""event"",""trial"",""time""
""fullscreenenter"",""1"",""4482""
","
","","","868.5","","","14","6346","3746","z","elianto","#3366ff99"," "," ","1","+10","[1723.5]","1","2","","","6346","98","5","1","win","go","0"
"pit-trial","217","1351355","0.0-103.0","battery-v0.2","","""event"",""trial"",""time""
""fullscreenenter"",""1"",""4482""
","
","
","""event"",""trial"",""time""
""fullscreenenter"",""1"",""4482""
","
","","","-1","","","14","6346","3746","r","elianto","#3366ff99","-1","-1","1","+10","[]","0","2","","","6346","99","8","2","win","no-go","0"
"pit-trial","218","1355442","0.0-104.0","battery-v0.2","","""event"",""trial"",""time""
""fullscreenenter"",""1"",""4482""
","
","
","""event"",""trial"",""time""
""fullscreenenter"",""1"",""4482""
","
","","","1225.0999999046326","","","14","6346","3746","y","elianto","#f73b6a7A"," "," ","1","0","[2076.2999999523163]","1","2","","","6346","100","7","3","lose","go","0"
"pit-trial","219","1360306","0.0-105.0","battery-v0.2","","""event"",""trial"",""time""
""fullscreenenter"",""1"",""4482""
","
","
","""event"",""trial"",""time""
""fullscreenenter"",""1"",""4482""
","
","","","-1","","","14","6346","3746","h","elianto","#f73b6a7A","-1","-1","1","0","[]","0","2","","","6346","101","6","4","lose","no-go","0"
"pit-trial","220","1364411","0.0-106.0","battery-v0.2","","""event"",""trial"",""time""
""fullscreenenter"",""1"",""4482""
","
","
","""event"",""trial"",""time""
""fullscreenenter"",""1"",""4482""
","
","","","1245.7999999523163","","","14","6346","3746","m","elianto","#3366ff99","-1"," ","0","0","[2098.600000023842]","1","2","","","6346","102","9","2","win","no-go","0"
"pit-trial","221","1368892","0.0-107.0","battery-v0.2","","""event"",""trial"",""time""
""fullscreenenter"",""1"",""4482""
","
","
","""event"",""trial"",""time""
""fullscreenenter"",""1"",""4482""
","
","","","1621.2000000476837","","","14","6346","3746","r","elianto","#3366ff99","-1"," ","0","0","[2474.399999976158]","1","2","","","6346","103","8","2","win","no-go","0"
"pit-trial","222","1372843","0.0-108.0","battery-v0.2","","""event"",""trial"",""time""
""fullscreenenter"",""1"",""4482""
","
","
","""event"",""trial"",""time""
""fullscreenenter"",""1"",""4482""
","
","","","1094.2999999523163","","","14","6346","3746","z","elianto","#3366ff99"," "," ","1","+10","[1945.4000000953674]","1","2","","","6346","104","5","1","win","go","0"
"pit-trial","223","1377707","0.0-109.0","battery-v0.2","","""event"",""trial"",""time""
""fullscreenenter"",""1"",""4482""
","
","
","""event"",""trial"",""time""
""fullscreenenter"",""1"",""4482""
","
","","","-1","","","14","6346","3746","r","elianto","#3366ff99","-1","-1","1","+10","[]","0","2","","","6346","105","8","2","win","no-go","0"
"pit-trial","224","1382570","0.0-110.0","battery-v0.2","","""event"",""trial"",""time""
""fullscreenenter"",""1"",""4482""
","
","
","""event"",""trial"",""time""
""fullscreenenter"",""1"",""4482""
","
","","","-1","","","14","6346","3746","h","elianto","#f73b6a7A","-1","-1","1","0","[]","0","2","","","6346","106","6","4","lose","no-go","0"
"pit-trial","225","1386306","0.0-111.0","battery-v0.2","","""event"",""trial"",""time""
""fullscreenenter"",""1"",""4482""
","
","
","""event"",""trial"",""time""
""fullscreenenter"",""1"",""4482""
","
","","","872.3999999761581","","","14","6346","3746","z","elianto","#3366ff99"," "," ","1","+10","[1725.3999999761581]","1","2","","","6346","107","5","1","win","go","0"
"pit-trial","226","1391171","0.0-112.0","battery-v0.2","","""event"",""trial"",""time""
""fullscreenenter"",""1"",""4482""
","
","
","""event"",""trial"",""time""
""fullscreenenter"",""1"",""4482""
","
","","","-1","","","14","6346","3746","m","elianto","#3366ff99","-1","-1","1","+10","[]","0","2","","","6346","108","9","2","win","no-go","0"
"pit-trial","227","1394955","0.0-113.0","battery-v0.2","","""event"",""trial"",""time""
""fullscreenenter"",""1"",""4482""
","
","
","""event"",""trial"",""time""
""fullscreenenter"",""1"",""4482""
","
","","","925.3999999761581","","","14","6346","3746","z","elianto","#3366ff99"," "," ","1","+10","[1778]","1","2","","","6346","109","5","1","win","go","0"
"pit-trial","228","1399818","0.0-114.0","battery-v0.2","","""event"",""trial"",""time""
""fullscreenenter"",""1"",""4482""
","
","
","""event"",""trial"",""time""
""fullscreenenter"",""1"",""4482""
","
","","","-1","","","14","6346","3746","r","elianto","#3366ff99","-1","-1","1","0","[]","0","2","","","6346","110","8","2","win","no-go","1"
"pit-trial","229","1404681","0.0-115.0","battery-v0.2","","""event"",""trial"",""time""
""fullscreenenter"",""1"",""4482""
","
","
","""event"",""trial"",""time""
""fullscreenenter"",""1"",""4482""
","
","","","-1","","","14","6346","3746","m","elianto","#3366ff99","-1","-1","1","+10","[]","0","2","","","6346","111","9","2","win","no-go","0"
"pit-trial","230","1409545","0.0-116.0","battery-v0.2","","""event"",""trial"",""time""
""fullscreenenter"",""1"",""4482""
","
","
","""event"",""trial"",""time""
""fullscreenenter"",""1"",""4482""
","
","","","-1","","","14","6346","3746","h","elianto","#f73b6a7A","-1","-1","1","0","[]","0","2","","","6346","112","6","4","lose","no-go","0"
"pit-trial","231","1413169","0.0-117.0","battery-v0.2","","""event"",""trial"",""time""
""fullscreenenter"",""1"",""4482""
","
","
","""event"",""trial"",""time""
""fullscreenenter"",""1"",""4482""
","
","","","760.1999999284744","","","14","6346","3746","z","elianto","#3366ff99"," "," ","1","+10","[1614.5]","1","2","","","6346","113","5","1","win","go","0"
"pit-trial","232","1417274","0.0-118.0","battery-v0.2","","""event"",""trial"",""time""
""fullscreenenter"",""1"",""4482""
","
","
","""event"",""trial"",""time""
""fullscreenenter"",""1"",""4482""
","
","","","1245.2000000476837","","","14","6346","3746","y","elianto","#f73b6a7A"," "," ","1","0","[2098.5]","1","2","","","6346","114","7","3","lose","go","0"
"pit-trial","233","1422137","0.0-119.0","battery-v0.2","","""event"",""trial"",""time""
""fullscreenenter"",""1"",""4482""
","
","
","""event"",""trial"",""time""
""fullscreenenter"",""1"",""4482""
","
","","","-1","","","14","6346","3746","m","elianto","#3366ff99","-1","-1","1","+10","[]","0","2","","","6346","115","9","2","win","no-go","0"
"pit-trial","234","1427001","0.0-120.0","battery-v0.2","","""event"",""trial"",""time""
""fullscreenenter"",""1"",""4482""
","
","
","""event"",""trial"",""time""
""fullscreenenter"",""1"",""4482""
","
","","","-1","","","14","6346","3746","r","elianto","#3366ff99","-1","-1","1","+10","[]","0","2","","","6346","116","8","2","win","no-go","0"
"pit-trial","235","1431866","0.0-121.0","battery-v0.2","","""event"",""trial"",""time""
""fullscreenenter"",""1"",""4482""
","
","
","""event"",""trial"",""time""
""fullscreenenter"",""1"",""4482""
","
","","","-1","","","14","6346","3746","m","elianto","#3366ff99","-1","-1","1","+10","[]","0","2","","","6346","117","9","2","win","no-go","0"
"pit-trial","236","1436730","0.0-122.0","battery-v0.2","","""event"",""trial"",""time""
""fullscreenenter"",""1"",""4482""
","
","
","""event"",""trial"",""time""
""fullscreenenter"",""1"",""4482""
","
","","","-1","","","14","6346","3746","h","elianto","#f73b6a7A","-1","-1","1","0","[]","0","2","","","6346","118","6","4","lose","no-go","0"
"pit-trial","237","1440322","0.0-123.0","battery-v0.2","","""event"",""trial"",""time""
""fullscreenenter"",""1"",""4482""
","
","
","""event"",""trial"",""time""
""fullscreenenter"",""1"",""4482""
","
","","","727.6000000238419","","","14","6346","3746","z","elianto","#3366ff99"," "," ","1","+10","[1581]","1","2","","","6346","119","5","1","win","go","0"
"pit-trial","238","1445186","0.0-124.0","battery-v0.2","","""event"",""trial"",""time""
""fullscreenenter"",""1"",""4482""
","
","
","""event"",""trial"",""time""
""fullscreenenter"",""1"",""4482""
","
","","","-1","","","14","6346","3746","r","elianto","#3366ff99","-1","-1","1","+10","[]","0","2","","","6346","120","8","2","win","no-go","0"
"pit-trial","239","1450051","0.0-125.0","battery-v0.2","","""event"",""trial"",""time""
""fullscreenenter"",""1"",""4482""
","
","
","""event"",""trial"",""time""
""fullscreenenter"",""1"",""4482""
","
","","","-1","","","14","6346","3746","r","elianto","#3366ff99","-1","-1","1","0","[]","0","2","","","6346","121","8","2","win","no-go","1"
"pit-trial","240","1453938","0.0-126.0","battery-v0.2","","""event"",""trial"",""time""
""fullscreenenter"",""1"",""4482""
","
","
","""event"",""trial"",""time""
""fullscreenenter"",""1"",""4482""
","
","","","1024","","","14","6346","3746","y","elianto","#f73b6a7A"," "," ","1","0","[1876.1000000238419]","1","2","","","6346","122","7","3","lose","go","0"
"pit-trial","241","1458801","0.0-127.0","battery-v0.2","","""event"",""trial"",""time""
""fullscreenenter"",""1"",""4482""
","
","
","""event"",""trial"",""time""
""fullscreenenter"",""1"",""4482""
","
","","","-1","","","14","6346","3746","m","elianto","#3366ff99","-1","-1","1","+10","[]","0","2","","","6346","123","9","2","win","no-go","0"
"pit-trial","242","1462538","0.0-128.0","battery-v0.2","","""event"",""trial"",""time""
""fullscreenenter"",""1"",""4482""
","
","
","""event"",""trial"",""time""
""fullscreenenter"",""1"",""4482""
","
","","","876.8999999761581","","","14","6346","3746","z","elianto","#3366ff99"," "," ","1","+10","[1730.0999999046326]","1","2","","","6346","124","5","1","win","go","0"
"pit-trial","243","1467403","0.0-129.0","battery-v0.2","","""event"",""trial"",""time""
""fullscreenenter"",""1"",""4482""
","
","
","""event"",""trial"",""time""
""fullscreenenter"",""1"",""4482""
","
","","","-1","","","14","6346","3746","m","elianto","#3366ff99","-1","-1","1","+10","[]","0","2","","","6346","125","9","2","win","no-go","0"
"pit-trial","244","1472267","0.0-130.0","battery-v0.2","","""event"",""trial"",""time""
""fullscreenenter"",""1"",""4482""
","
","
","""event"",""trial"",""time""
""fullscreenenter"",""1"",""4482""
","
","","","-1","","","14","6346","3746","h","elianto","#f73b6a7A","-1","-1","1","0","[]","0","2","","","6346","126","6","4","lose","no-go","0"
"pit-trial","245","1475938","0.0-131.0","battery-v0.2","","""event"",""trial"",""time""
""fullscreenenter"",""1"",""4482""
","
","
","""event"",""trial"",""time""
""fullscreenenter"",""1"",""4482""
","
","","","807.8999999761581","","","14","6346","3746","y","elianto","#f73b6a7A"," "," ","1","0","[1661.1000000238419]","1","2","","","6346","127","7","3","lose","go","0"
"pit-trial","246","1480802","0.0-132.0","battery-v0.2","","""event"",""trial"",""time""
""fullscreenenter"",""1"",""4482""
","
","
","""event"",""trial"",""time""
""fullscreenenter"",""1"",""4482""
","
","","","-1","","","14","6346","3746","r","elianto","#3366ff99","-1","-1","1","+10","[]","0","2","","","6346","128","8","2","win","no-go","0"
"pit-trial","247","1485675","0.0-133.0","battery-v0.2","","""event"",""trial"",""time""
""fullscreenenter"",""1"",""4482""
","
","
","""event"",""trial"",""time""
""fullscreenenter"",""1"",""4482""
","
","","","-1","","","14","6346","3746","h","elianto","#f73b6a7A","-1","-1","1","0","[]","0","2","","","6346","129","6","4","lose","no-go","0"
"pit-trial","248","1490538","0.0-134.0","battery-v0.2","","""event"",""trial"",""time""
""fullscreenenter"",""1"",""4482""
","
","
","""event"",""trial"",""time""
""fullscreenenter"",""1"",""4482""
","
","","","-1","","","14","6346","3746","r","elianto","#3366ff99","-1","-1","1","+10","[]","0","2","","","6346","130","8","2","win","no-go","0"
"pit-trial","249","1495402","0.0-135.0","battery-v0.2","","""event"",""trial"",""time""
""fullscreenenter"",""1"",""4482""
","
","
","""event"",""trial"",""time""
""fullscreenenter"",""1"",""4482""
","
","","","-1","","","14","6346","3746","m","elianto","#3366ff99","-1","-1","1","+10","[]","0","2","","","6346","131","9","2","win","no-go","0"
"pit-trial","250","1499235","0.0-136.0","battery-v0.2","","""event"",""trial"",""time""
""fullscreenenter"",""1"",""4482""
","
","
","""event"",""trial"",""time""
""fullscreenenter"",""1"",""4482""
","
","","","968","","","14","6346","3746","y","elianto","#f73b6a7A"," "," ","1","0","[1822.1999999284744]","1","2","","","6346","132","7","3","lose","go","0"
"pit-trial","251","1504098","0.0-137.0","battery-v0.2","","""event"",""trial"",""time""
""fullscreenenter"",""1"",""4482""
","
","
","""event"",""trial"",""time""
""fullscreenenter"",""1"",""4482""
","
","","","-1","","","14","6346","3746","r","elianto","#3366ff99","-1","-1","1","+10","[]","0","2","","","6346","133","8","2","win","no-go","0"
"pit-trial","252","1507819","0.0-138.0","battery-v0.2","","""event"",""trial"",""time""
""fullscreenenter"",""1"",""4482""
","
","
","""event"",""trial"",""time""
""fullscreenenter"",""1"",""4482""
","
","","","861.2999999523163","","","14","6346","3746","y","elianto","#f73b6a7A"," "," ","1","0","[1715]","1","2","","","6346","134","7","3","lose","go","0"
"pit-trial","253","1512683","0.0-139.0","battery-v0.2","","""event"",""trial"",""time""
""fullscreenenter"",""1"",""4482""
","
","
","""event"",""trial"",""time""
""fullscreenenter"",""1"",""4482""
","
","","","-1","","","14","6346","3746","m","elianto","#3366ff99","-1","-1","1","0","[]","0","2","","","6346","135","9","2","win","no-go","1"
"pit-trial","254","1517547","0.0-140.0","battery-v0.2","","""event"",""trial"",""time""
""fullscreenenter"",""1"",""4482""
","
","
","""event"",""trial"",""time""
""fullscreenenter"",""1"",""4482""
","
","","","-1","","","14","6346","3746","h","elianto","#f73b6a7A","-1","-1","1","-10","[]","0","2","","","6346","136","6","4","lose","no-go","1"
"pit-trial","255","1522411","0.0-141.0","battery-v0.2","","""event"",""trial"",""time""
""fullscreenenter"",""1"",""4482""
","
","
","""event"",""trial"",""time""
""fullscreenenter"",""1"",""4482""
","
","","","-1","","","14","6346","3746","r","elianto","#3366ff99","-1","-1","1","0","[]","0","2","","","6346","137","8","2","win","no-go","1"
"pit-trial","256","1525996","0.0-142.0","battery-v0.2","","""event"",""trial"",""time""
""fullscreenenter"",""1"",""4482""
","
","
","""event"",""trial"",""time""
""fullscreenenter"",""1"",""4482""
","
","","","726.1000000238419","","","14","6346","3746","y","elianto","#f73b6a7A"," "," ","1","0","[1579]","1","2","","","6346","138","7","3","lose","go","0"
"pit-trial","257","1530859","0.0-143.0","battery-v0.2","","""event"",""trial"",""time""
""fullscreenenter"",""1"",""4482""
","
","
","""event"",""trial"",""time""
""fullscreenenter"",""1"",""4482""
","
","","","-1","","","14","6346","3746","m","elianto","#3366ff99","-1","-1","1","+10","[]","0","2","","","6346","139","9","2","win","no-go","0"
"pit-trial","258","1535723","0.0-144.0","battery-v0.2","","""event"",""trial"",""time""
""fullscreenenter"",""1"",""4482""
","
","
","""event"",""trial"",""time""
""fullscreenenter"",""1"",""4482""
","
","","","-1","","","14","6346","3746","h","elianto","#f73b6a7A","-1","-1","1","-10","[]","0","2","","","6346","140","6","4","lose","no-go","1"
"pit-instructions","259","1779550","0.0-145.0","battery-v0.2","","""event"",""trial"",""time""
""fullscreenenter"",""1"",""4482""
","
","
","""event"",""trial"",""time""
""fullscreenenter"",""1"",""4482""
","
","","[{""page_index"":0,""viewing_time"":234648.5},{""page_index"":1,""viewing_time"":9176.600000023842}]","243825.5","","","","","","","","","","","","","","","","","","","","","","","",""
"pit-trial","260","1783584","0.0-146.0","battery-v0.2","","""event"",""trial"",""time""
""fullscreenenter"",""1"",""4482""
","
","
","""event"",""trial"",""time""
""fullscreenenter"",""1"",""4482""
","
","","","1152.7999999523163","","","14","6346","3746","a","elianto","#f73b6a7A"," "," ","1","0","[2008]","1","3","","","6346","141","2","3","lose","go","0"
"pit-trial","261","1788474","0.0-147.0","battery-v0.2","","""event"",""trial"",""time""
""fullscreenenter"",""1"",""4482""
","
","
","""event"",""trial"",""time""
""fullscreenenter"",""1"",""4482""
","
","","","-1","","","14","6346","3746","g","elianto","#f73b6a7A","-1","-1","1","0","[]","0","3","","","6346","142","3","4","lose","no-go","0"
"pit-trial","262","1792624","0.0-148.0","battery-v0.2","","""event"",""trial"",""time""
""fullscreenenter"",""1"",""4482""
","
","
","""event"",""trial"",""time""
""fullscreenenter"",""1"",""4482""
","
","","","1286.5999999046326","","","14","6346","3746","u","elianto","#f73b6a7A"," "," ","1","0","[2137]","1","3","","","6346","143","0","3","lose","go","0"
"pit-trial","263","1796574","0.0-149.0","battery-v0.2","","""event"",""trial"",""time""
""fullscreenenter"",""1"",""4482""
","
","
","""event"",""trial"",""time""
""fullscreenenter"",""1"",""4482""
","
","","","1077.3000000715256","","","14","6346","3746","l","elianto","#3366ff99","-1"," ","0","0","[1942.3000000715256]","1","3","","","6346","144","1","2","win","no-go","0"
"pit-trial","264","1800454","0.0-150.0","battery-v0.2","","""event"",""trial"",""time""
""fullscreenenter"",""1"",""4482""
","
","
","""event"",""trial"",""time""
""fullscreenenter"",""1"",""4482""
","
","","","996.6999999284744","","","14","6346","3746","a","elianto","#f73b6a7A"," "," ","1","0","[1861.2999999523163]","1","3","","","6346","145","2","3","lose","go","0"
"pit-trial","265","1805334","0.0-151.0","battery-v0.2","","""event"",""trial"",""time""
""fullscreenenter"",""1"",""4482""
","
","
","""event"",""trial"",""time""
""fullscreenenter"",""1"",""4482""
","
","","","-1","","","14","6346","3746","l","elianto","#3366ff99","-1","-1","1","+10","[]","0","3","","","6346","146","1","2","win","no-go","0"
"pit-trial","266","1810210","0.0-152.0","battery-v0.2","","""event"",""trial"",""time""
""fullscreenenter"",""1"",""4482""
","
","
","""event"",""trial"",""time""
""fullscreenenter"",""1"",""4482""
","
","","","-1","","","14","6346","3746","g","elianto","#f73b6a7A","-1","-1","1","0","[]","0","3","","","6346","147","3","4","lose","no-go","0"
"pit-trial","267","1814065","0.0-153.0","battery-v0.2","","""event"",""trial"",""time""
""fullscreenenter"",""1"",""4482""
","
","
","""event"",""trial"",""time""
""fullscreenenter"",""1"",""4482""
","
","","","992.6000000238419","","","14","6346","3746","u","elianto","#f73b6a7A"," "," ","1","0","[1845.4000000953674]","1","3","","","6346","148","0","3","lose","go","0"
