"trial_type","trial_index","time_elapsed","internal_node_id","task_version","subject_id","interactions","blur_events","focus_events","fullscreenenter_events","fullscreenexit_events","success","view_history","rt","responses","num_errors","age","subject","participantId","rune","rune_set","hex","correct","choice","accuracy","outcome","keys","total_keys","block","practice","value","sub","trial","stimulus","robot","valence","action","sham"
"pavlovia","0","6","0.0-0.0","battery-v0.2","","""event"",""trial"",""time""
""fullscreenenter"",""1"",""1608""
","
","
","""event"",""trial"",""time""
""fullscreenenter"",""1"",""1608""
","
","","","","","","","","","","","","","","","","","","","","","","","","","","",""
"fullscreen","1","2595","0.0-1.0","battery-v0.2","","""event"",""trial"",""time""
""fullscreenenter"",""1"",""1608""
""fullscreenexit"",""2"",""3500""
","
","
","""event"",""trial"",""time""
""fullscreenenter"",""1"",""1608""
","""event"",""trial"",""time""
""fullscreenexit"",""2"",""3500""
","true","","","","","","","","","","","","","","","","","","","","","","","","","",""
"pit-instructions","2","10787","0.0-2.0-0.0","battery-v0.2","","""event"",""trial"",""time""
""fullscreenenter"",""1"",""1608""
""fullscreenexit"",""2"",""3500""
","
","
","""event"",""trial"",""time""
""fullscreenenter"",""1"",""1608""
","""event"",""trial"",""time""
""fullscreenexit"",""2"",""3500""
","","[{""page_index"":0,""viewing_time"":8189.300000071526}]","8189.900000095367","","","","","","","","","","","","","","","","","","","","","","","",""
"pit-comprehension","3","13939","0.0-2.0-1.0-0.0","battery-v0.2","","""event"",""trial"",""time""
""fullscreenenter"",""1"",""1608""
""fullscreenexit"",""2"",""3500""
","
","
","""event"",""trial"",""time""
""fullscreenenter"",""1"",""1608""
","""event"",""trial"",""time""
""fullscreenexit"",""2"",""3500""
","","","3148.3000000715256","[""shark""]","0","15","4115","2558","","","","","","","","","","","","","","","","","","",""
"pit-instructions","4","19531","0.0-2.0-1.0-1.0","battery-v0.2","","""event"",""trial"",""time""
""fullscreenenter"",""1"",""1608""
""fullscreenexit"",""2"",""3500""
","
","
","""event"",""trial"",""time""
""fullscreenenter"",""1"",""1608""
","""event"",""trial"",""time""
""fullscreenexit"",""2"",""3500""
","","[{""page_index"":0,""viewing_time"":5583.699999928474}]","5584.100000023842","","","","","","","","","","","","","","","","","","","","","","","",""
"pit-comprehension","5","23843","0.0-2.0-2.0-0.0","battery-v0.2","","""event"",""trial"",""time""
""fullscreenenter"",""1"",""1608""
""fullscreenexit"",""2"",""3500""
","
","
","""event"",""trial"",""time""
""fullscreenenter"",""1"",""1608""
","""event"",""trial"",""time""
""fullscreenexit"",""2"",""3500""
","","","4307.700000047684","[""tiger""]","0","15","4115","2558","","","","","","","","","","","","","","","","","","",""
"pit-instructions","6","24931","0.0-2.0-2.0-1.0","battery-v0.2","","""event"",""trial"",""time""
""fullscreenenter"",""1"",""1608""
""fullscreenexit"",""2"",""3500""
","
","
","""event"",""trial"",""time""
""fullscreenenter"",""1"",""1608""
","""event"",""trial"",""time""
""fullscreenexit"",""2"",""3500""
","","[{""page_index"":0,""viewing_time"":1084.0999999046326}]","1084.3999999761581","","","","","","","","","","","","","","","","","","","","","","","",""
"pit-instructions","7","116916","0.0-2.0-3.0","battery-v0.2","","""event"",""trial"",""time""
""fullscreenenter"",""1"",""1608""
""fullscreenexit"",""2"",""3500""
","
","
","""event"",""trial"",""time""
""fullscreenenter"",""1"",""1608""
","""event"",""trial"",""time""
""fullscreenexit"",""2"",""3500""
","","[{""page_index"":0,""viewing_time"":9748.600000023842},{""page_index"":1,""viewing_time"":5264.199999928474},{""page_index"":2,""viewing_time"":6360.100000023842},{""page_index"":3,""viewing_time"":5423.700000047684},{""page_index"":4,""viewing_time"":5512},{""page_index"":5,""viewing_time"":5472.299999952316},{""page_index"":6,""viewing_time"":6095.800000071526},{""page_index"":7,""viewing_time"":6472},{""page_index"":8,""viewing_time"":6904.099999904633},{""page_index"":9,""viewing_time"":8480.200000047684},{""page_index"":10,""viewing_time"":7271.600000023842},{""page_index"":11,""viewing_time"":6992.399999976158},{""page_index"":12,""viewing_time"":7023.799999952316},{""page_index"":13,""viewing_time"":4960.400000095367}]","91981.60000002384","","","","","","","","","","","","","","","","","","","","","","","",""
"pit-trial","8","120161","0.0-2.0-4.0-0.0","battery-v0.2","","""event"",""trial"",""time""
""fullscreenenter"",""1"",""1608""
""fullscreenexit"",""2"",""3500""
","
","
","""event"",""trial"",""time""
""fullscreenenter"",""1"",""1608""
","""event"",""trial"",""time""
""fullscreenexit"",""2"",""3500""
","","","381.10000002384186","","","15","4115","2558","&#9784;","elianto","#FFFFF080"," "," ","1","&#10004","[1233.5]","1","0","0","","","","","","","",""
"pit-trial","9","123221","0.0-2.0-4.1-0.1","battery-v0.2","","""event"",""trial"",""time""
""fullscreenenter"",""1"",""1608""
""fullscreenexit"",""2"",""3500""
","
","
","""event"",""trial"",""time""
""fullscreenenter"",""1"",""1608""
","""event"",""trial"",""time""
""fullscreenexit"",""2"",""3500""
","","","189.30000007152557","","","15","4115","2558","&#9784;","elianto","#FFFFF080"," "," ","1","&#10004","[1044.2000000476837]","1","0","0","","","","","","","",""
"pit-trial","10","126451","0.0-2.0-4.2-0.2","battery-v0.2","","""event"",""trial"",""time""
""fullscreenenter"",""1"",""1608""
""fullscreenexit"",""2"",""3500""
","
","
","""event"",""trial"",""time""
""fullscreenenter"",""1"",""1608""
","""event"",""trial"",""time""
""fullscreenexit"",""2"",""3500""
","","","357.3000000715256","","","15","4115","2558","&#9784;","elianto","#FFFFF080"," "," ","1","&#10004","[1209]","1","0","0","","","","","","","",""
"pit-trial","11","129730","0.0-2.0-4.3-0.3","battery-v0.2","","""event"",""trial"",""time""
""fullscreenenter"",""1"",""1608""
""fullscreenexit"",""2"",""3500""
","
","
","""event"",""trial"",""time""
""fullscreenenter"",""1"",""1608""
","""event"",""trial"",""time""
""fullscreenexit"",""2"",""3500""
","","","404.7999999523163","","","15","4115","2558","&#9784;","elianto","#FFFFF080"," "," ","1","&#10004","[1260]","1","0","0","","","","","","","",""
"pit-trial","12","133321","0.0-2.0-4.4-0.4","battery-v0.2","","""event"",""trial"",""time""
""fullscreenenter"",""1"",""1608""
""fullscreenexit"",""2"",""3500""
","
","
","""event"",""trial"",""time""
""fullscreenenter"",""1"",""1608""
","""event"",""trial"",""time""
""fullscreenexit"",""2"",""3500""
","","","719.5","","","15","4115","2558","&#9784;","elianto","#FFFFF080"," "," ","1","&#10004","[1573.0999999046326]","1","0","0","","","","","","","",""
"pit-instructions","13","157020","0.0-2.0-5.0","battery-v0.2","","""event"",""trial"",""time""
""fullscreenenter"",""1"",""1608""
""fullscreenexit"",""2"",""3500""
","
","
","""event"",""trial"",""time""
""fullscreenenter"",""1"",""1608""
","""event"",""trial"",""time""
""fullscreenexit"",""2"",""3500""
","","[{""page_index"":0,""viewing_time"":7564.800000071526},{""page_index"":1,""viewing_time"":5968.100000023842},{""page_index"":2,""viewing_time"":4616.099999904633},{""page_index"":3,""viewing_time"":5544.400000095367}]","23693.700000047684","","","","","","","","","","","","","","","","","","","","","","","",""
"pit-trial","14","161891","0.0-2.0-6.0-0.0","battery-v0.2","","""event"",""trial"",""time""
""fullscreenenter"",""1"",""1608""
""fullscreenexit"",""2"",""3500""
","
","
","""event"",""trial"",""time""
""fullscreenenter"",""1"",""1608""
","""event"",""trial"",""time""
""fullscreenexit"",""2"",""3500""
","","","-1","","","15","4115","2558","&#9854;","elianto","#FFFFF080","-1","-1","1","&#10004","[]","0","0","1","","","","","","","",""
"pit-trial","15","166770","0.0-2.0-6.1-0.1","battery-v0.2","","""event"",""trial"",""time""
""fullscreenenter"",""1"",""1608""
""fullscreenexit"",""2"",""3500""
","
","
","""event"",""trial"",""time""
""fullscreenenter"",""1"",""1608""
","""event"",""trial"",""time""
""fullscreenexit"",""2"",""3500""
","","","-1","","","15","4115","2558","&#9854;","elianto","#FFFFF080","-1","-1","1","&#10004","[]","0","0","1","","","","","","","",""
"pit-trial","16","171661","0.0-2.0-6.2-0.2","battery-v0.2","","""event"",""trial"",""time""
""fullscreenenter"",""1"",""1608""
""fullscreenexit"",""2"",""3500""
","
","
","""event"",""trial"",""time""
""fullscreenenter"",""1"",""1608""
","""event"",""trial"",""time""
""fullscreenexit"",""2"",""3500""
","","","-1","","","15","4115","2558","&#9854;","elianto","#FFFFF080","-1","-1","1","&#10004","[]","0","0","1","","","","","","","",""
"pit-trial","17","176551","0.0-2.0-6.3-0.3","battery-v0.2","","""event"",""trial"",""time""
""fullscreenenter"",""1"",""1608""
""fullscreenexit"",""2"",""3500""
","
","
","""event"",""trial"",""time""
""fullscreenenter"",""1"",""1608""
","""event"",""trial"",""time""
""fullscreenexit"",""2"",""3500""
","","","-1","","","15","4115","2558","&#9854;","elianto","#FFFFF080","-1","-1","1","&#10004","[]","0","0","1","","","","","","","",""
"pit-trial","18","181441","0.0-2.0-6.4-0.4","battery-v0.2","","""event"",""trial"",""time""
""fullscreenenter"",""1"",""1608""
""fullscreenexit"",""2"",""3500""
""blur"",""19"",""236261""
""focus"",""19"",""279121""
","""event"",""trial"",""time""
""blur"",""19"",""236261""
","""event"",""trial"",""time""
""focus"",""19"",""279121""
","""event"",""trial"",""time""
""fullscreenenter"",""1"",""1608""
","""event"",""trial"",""time""
""fullscreenexit"",""2"",""3500""
","","","-1","","","15","4115","2558","&#9854;","elianto","#FFFFF080","-1","-1","1","&#10004","[]","0","0","1","","","","","","","",""
"pit-instructions","19","380779","0.0-2.0-7.0","battery-v0.2","","""event"",""trial"",""time""
""fullscreenenter"",""1"",""1608""
""fullscreenexit"",""2"",""3500""
""blur"",""19"",""236261""
""focus"",""19"",""279121""
","""event"",""trial"",""time""
""blur"",""19"",""236261""
","""event"",""trial"",""time""
""focus"",""19"",""279121""
","""event"",""trial"",""time""
""fullscreenenter"",""1"",""1608""
","""event"",""trial"",""time""
""fullscreenexit"",""2"",""3500""
","","[{""page_index"":0,""viewing_time"":7350.700000047684},{""page_index"":1,""viewing_time"":92088.5},{""page_index"":2,""viewing_time"":5823.899999976158},{""page_index"":3,""viewing_time"":5799.600000023842},{""page_index"":4,""viewing_time"":5143.799999952316},{""page_index"":5,""viewing_time"":5432.100000023842},{""page_index"":6,""viewing_time"":4096.399999976158},{""page_index"":7,""viewing_time"":7951.600000023842},{""page_index"":8,""viewing_time"":6320.299999952316},{""page_index"":9,""viewing_time"":6368.300000071526},{""page_index"":10,""viewing_time"":7215.299999952316},{""page_index"":11,""viewing_time"":4176.399999976158},{""page_index"":12,""viewing_time"":6840.200000047684},{""page_index"":13,""viewing_time"":8503.700000047684},{""page_index"":14,""viewing_time"":6712.099999904633},{""page_index"":15,""viewing_time"":6263.400000095367},{""page_index"":16,""viewing_time"":6560.399999976158},{""page_index"":17,""viewing_time"":6687.899999976158}]","199335","","","","","","","","","","","","","","","","","","","","","","","",""
"pit-trial","20","384618","0.0-2.0-8.0-0.0","battery-v0.2","","""event"",""trial"",""time""
""fullscreenenter"",""1"",""1608""
""fullscreenexit"",""2"",""3500""
""blur"",""19"",""236261""
""focus"",""19"",""279121""
","""event"",""trial"",""time""
""blur"",""19"",""236261""
","""event"",""trial"",""time""
""focus"",""19"",""279121""
","""event"",""trial"",""time""
""fullscreenenter"",""1"",""1608""
","""event"",""trial"",""time""
""fullscreenexit"",""2"",""3500""
","","","963.2000000476837","","","15","4115","2558","&#9776;","elianto","#3366ff99"," "," ","1","+10","[1815.6000000238419]","1","0","1","","","","","","","",""
"pit-trial","21","387891","0.0-2.0-8.0-1.0","battery-v0.2","","""event"",""trial"",""time""
""fullscreenenter"",""1"",""1608""
""fullscreenexit"",""2"",""3500""
""blur"",""19"",""236261""
""focus"",""19"",""279121""
","""event"",""trial"",""time""
""blur"",""19"",""236261""
","""event"",""trial"",""time""
""focus"",""19"",""279121""
","""event"",""trial"",""time""
""fullscreenenter"",""1"",""1608""
","""event"",""trial"",""time""
""fullscreenexit"",""2"",""3500""
","","","395.10000002384186","","","15","4115","2558","&#9776;","elianto","#3366ff99"," "," ","1","+10","[1250.1000000238419]","1","0","1","","","","","","","",""
"pit-trial","22","391160","0.0-2.0-8.0-2.0","battery-v0.2","","""event"",""trial"",""time""
""fullscreenenter"",""1"",""1608""
""fullscreenexit"",""2"",""3500""
""blur"",""19"",""236261""
""focus"",""19"",""279121""
","""event"",""trial"",""time""
""blur"",""19"",""236261""
","""event"",""trial"",""time""
""focus"",""19"",""279121""
","""event"",""trial"",""time""
""fullscreenenter"",""1"",""1608""
","""event"",""trial"",""time""
""fullscreenexit"",""2"",""3500""
","","","398","","","15","4115","2558","&#9776;","elianto","#3366ff99"," "," ","1","+10","[1248.8000000715256]","1","0","1","","","","","","","",""
"pit-trial","23","394310","0.0-2.0-8.0-3.0","battery-v0.2","","""event"",""trial"",""time""
""fullscreenenter"",""1"",""1608""
""fullscreenexit"",""2"",""3500""
""blur"",""19"",""236261""
""focus"",""19"",""279121""
","""event"",""trial"",""time""
""blur"",""19"",""236261""
","""event"",""trial"",""time""
""focus"",""19"",""279121""
","""event"",""trial"",""time""
""fullscreenenter"",""1"",""1608""
","""event"",""trial"",""time""
""fullscreenexit"",""2"",""3500""
","","","283.89999997615814","","","15","4115","2558","&#9776;","elianto","#3366ff99"," "," ","1","0","[1140.6000000238419]","1","0","1","","","","","","","",""
"pit-trial","24","399210","0.0-2.0-8.0-4.0","battery-v0.2","","""event"",""trial"",""time""
""fullscreenenter"",""1"",""1608""
""fullscreenexit"",""2"",""3500""
""blur"",""19"",""236261""
""focus"",""19"",""279121""
","""event"",""trial"",""time""
""blur"",""19"",""236261""
","""event"",""trial"",""time""
""focus"",""19"",""279121""
","""event"",""trial"",""time""
""fullscreenenter"",""1"",""1608""
","""event"",""trial"",""time""
""fullscreenexit"",""2"",""3500""
","","","-1","","","15","4115","2558","&#9776;","elianto","#3366ff99"," ","-1","0","0","[]","0","0","1","","","","","","","",""
"pit-trial","25","404091","0.0-2.0-8.1-0.1","battery-v0.2","","""event"",""trial"",""time""
""fullscreenenter"",""1"",""1608""
""fullscreenexit"",""2"",""3500""
""blur"",""19"",""236261""
""focus"",""19"",""279121""
","""event"",""trial"",""time""
""blur"",""19"",""236261""
","""event"",""trial"",""time""
""focus"",""19"",""279121""
","""event"",""trial"",""time""
""fullscreenenter"",""1"",""1608""
","""event"",""trial"",""time""
""fullscreenexit"",""2"",""3500""
","","","-1","","","15","4115","2558","&#9776;","elianto","#3366ff99"," ","-1","0","0","[]","0","0","1","","","","","","","",""
"pit-trial","26","408971","0.0-2.0-8.1-1.1","battery-v0.2","","""event"",""trial"",""time""
""fullscreenenter"",""1"",""1608""
""fullscreenexit"",""2"",""3500""
""blur"",""19"",""236261""
""focus"",""19"",""279121""
","""event"",""trial"",""time""
""blur"",""19"",""236261""
","""event"",""trial"",""time""
""focus"",""19"",""279121""
","""event"",""trial"",""time""
""fullscreenenter"",""1"",""1608""
","""event"",""trial"",""time""
""fullscreenexit"",""2"",""3500""
","","","-1","","","15","4115","2558","&#9776;","elianto","#3366ff99"," ","-1","0","0","[]","0","0","1","","","","","","","",""
"pit-trial","27","413835","0.0-2.0-8.1-2.1","battery-v0.2","","""event"",""trial"",""time""
""fullscreenenter"",""1"",""1608""
""fullscreenexit"",""2"",""3500""
""blur"",""19"",""236261""
""focus"",""19"",""279121""
","""event"",""trial"",""time""
""blur"",""19"",""236261""
","""event"",""trial"",""time""
""focus"",""19"",""279121""
","""event"",""trial"",""time""
""fullscreenenter"",""1"",""1608""
","""event"",""trial"",""time""
""fullscreenexit"",""2"",""3500""
","","","-1","","","15","4115","2558","&#9776;","elianto","#3366ff99"," ","-1","0","0","[]","0","0","1","","","","","","","",""
"pit-trial","28","418699","0.0-2.0-8.1-3.1","battery-v0.2","","""event"",""trial"",""time""
""fullscreenenter"",""1"",""1608""
""fullscreenexit"",""2"",""3500""
""blur"",""19"",""236261""
""focus"",""19"",""279121""
","""event"",""trial"",""time""
""blur"",""19"",""236261""
","""event"",""trial"",""time""
""focus"",""19"",""279121""
","""event"",""trial"",""time""
""fullscreenenter"",""1"",""1608""
","""event"",""trial"",""time""
""fullscreenexit"",""2"",""3500""
","","","-1","","","15","4115","2558","&#9776;","elianto","#3366ff99"," ","-1","0","+10","[]","0","0","1","","","","","","","",""
"pit-trial","29","422132","0.0-2.0-8.1-4.1","battery-v0.2","","""event"",""trial"",""time""
""fullscreenenter"",""1"",""1608""
""fullscreenexit"",""2"",""3500""
""blur"",""19"",""236261""
""focus"",""19"",""279121""
","""event"",""trial"",""time""
""blur"",""19"",""236261""
","""event"",""trial"",""time""
""focus"",""19"",""279121""
","""event"",""trial"",""time""
""fullscreenenter"",""1"",""1608""
","""event"",""trial"",""time""
""fullscreenexit"",""2"",""3500""
","","","567.6999999284744","","","15","4115","2558","&#9776;","elianto","#3366ff99"," "," ","1","+10","[1421.2999999523163]","1","0","1","","","","","","","",""
"pit-trial","30","425451","0.0-2.0-8.2-0.2","battery-v0.2","","""event"",""trial"",""time""
""fullscreenenter"",""1"",""1608""
""fullscreenexit"",""2"",""3500""
""blur"",""19"",""236261""
""focus"",""19"",""279121""
","""event"",""trial"",""time""
""blur"",""19"",""236261""
","""event"",""trial"",""time""
""focus"",""19"",""279121""
","""event"",""trial"",""time""
""fullscreenenter"",""1"",""1608""
","""event"",""trial"",""time""
""fullscreenexit"",""2"",""3500""
","","","457","","","15","4115","2558","&#9776;","elianto","#3366ff99"," "," ","1","+10","[1309.2999999523163]","1","0","1","","","","","","","",""
"pit-trial","31","428732","0.0-2.0-8.2-1.2","battery-v0.2","","""event"",""trial"",""time""
""fullscreenenter"",""1"",""1608""
""fullscreenexit"",""2"",""3500""
""blur"",""19"",""236261""
""focus"",""19"",""279121""
","""event"",""trial"",""time""
""blur"",""19"",""236261""
","""event"",""trial"",""time""
""focus"",""19"",""279121""
","""event"",""trial"",""time""
""fullscreenenter"",""1"",""1608""
","""event"",""trial"",""time""
""fullscreenexit"",""2"",""3500""
","","","417.6999999284744","","","15","4115","2558","&#9776;","elianto","#3366ff99"," "," ","1","+10","[1270.8999999761581]","1","0","1","","","","","","","",""
"pit-trial","32","432341","0.0-2.0-8.2-2.2","battery-v0.2","","""event"",""trial"",""time""
""fullscreenenter"",""1"",""1608""
""fullscreenexit"",""2"",""3500""
""blur"",""19"",""236261""
""focus"",""19"",""279121""
","""event"",""trial"",""time""
""blur"",""19"",""236261""
","""event"",""trial"",""time""
""focus"",""19"",""279121""
","""event"",""trial"",""time""
""fullscreenenter"",""1"",""1608""
","""event"",""trial"",""time""
""fullscreenexit"",""2"",""3500""
","","","746","","","15","4115","2558","&#9776;","elianto","#3366ff99"," "," ","1","+10","[1599.7000000476837]","1","0","1","","","","","","","",""
"pit-trial","33","435692","0.0-2.0-8.2-3.2","battery-v0.2","","""event"",""trial"",""time""
""fullscreenenter"",""1"",""1608""
""fullscreenexit"",""2"",""3500""
""blur"",""19"",""236261""
""focus"",""19"",""279121""
","""event"",""trial"",""time""
""blur"",""19"",""236261""
","""event"",""trial"",""time""
""focus"",""19"",""279121""
","""event"",""trial"",""time""
""fullscreenenter"",""1"",""1608""
","""event"",""trial"",""time""
""fullscreenexit"",""2"",""3500""
","","","481.60000002384186","","","15","4115","2558","&#9776;","elianto","#3366ff99"," "," ","1","0","[1338.6000000238419]","1","0","1","","","","","","","",""
"pit-trial","34","440557","0.0-2.0-8.2-4.2","battery-v0.2","","""event"",""trial"",""time""
""fullscreenenter"",""1"",""1608""
""fullscreenexit"",""2"",""3500""
""blur"",""19"",""236261""
""focus"",""19"",""279121""
","""event"",""trial"",""time""
""blur"",""19"",""236261""
","""event"",""trial"",""time""
""focus"",""19"",""279121""
","""event"",""trial"",""time""
""fullscreenenter"",""1"",""1608""
","""event"",""trial"",""time""
""fullscreenexit"",""2"",""3500""
","","","-1","","","15","4115","2558","&#9776;","elianto","#3366ff99"," ","-1","0","0","[]","0","0","1","","","","","","","",""
"call-function","35","440560","0.0-2.0-9.0","battery-v0.2","","""event"",""trial"",""time""
""fullscreenenter"",""1"",""1608""
""fullscreenexit"",""2"",""3500""
""blur"",""19"",""236261""
""focus"",""19"",""279121""
","""event"",""trial"",""time""
""blur"",""19"",""236261""
","""event"",""trial"",""time""
""focus"",""19"",""279121""
","""event"",""trial"",""time""
""fullscreenenter"",""1"",""1608""
","""event"",""trial"",""time""
""fullscreenexit"",""2"",""3500""
","","","","","","","","","","","","","","","","","","","","","","","","","","",""
"pit-instructions","36","479443","0.0-2.0-10.0","battery-v0.2","","""event"",""trial"",""time""
""fullscreenenter"",""1"",""1608""
""fullscreenexit"",""2"",""3500""
""blur"",""19"",""236261""
""focus"",""19"",""279121""
","""event"",""trial"",""time""
""blur"",""19"",""236261""
","""event"",""trial"",""time""
""focus"",""19"",""279121""
","""event"",""trial"",""time""
""fullscreenenter"",""1"",""1608""
","""event"",""trial"",""time""
""fullscreenexit"",""2"",""3500""
","","[{""page_index"":0,""viewing_time"":6002.399999976158},{""page_index"":1,""viewing_time"":7000.299999952316},{""page_index"":2,""viewing_time"":9520.100000023842},{""page_index"":3,""viewing_time"":8503.799999952316},{""page_index"":4,""viewing_time"":7855.800000071526}]","38882.699999928474","","","","","","","","","","","","","","","","","","","","","","","",""
"pit-trial","37","483140","0.0-2.0-11.0-0.0","battery-v0.2","","""event"",""trial"",""time""
""fullscreenenter"",""1"",""1608""
""fullscreenexit"",""2"",""3500""
""blur"",""19"",""236261""
""focus"",""19"",""279121""
","""event"",""trial"",""time""
""blur"",""19"",""236261""
","""event"",""trial"",""time""
""focus"",""19"",""279121""
","""event"",""trial"",""time""
""fullscreenenter"",""1"",""1608""
","""event"",""trial"",""time""
""fullscreenexit"",""2"",""3500""
","","","825","","","15","4115","2558","&#9761;","elianto","#3366ff99","-1"," ","0","0","[1678.3000000715256]","1","0","2","","","","","","","",""
"pit-trial","38","486420","0.0-2.0-11.0-1.0","battery-v0.2","","""event"",""trial"",""time""
""fullscreenenter"",""1"",""1608""
""fullscreenexit"",""2"",""3500""
""blur"",""19"",""236261""
""focus"",""19"",""279121""
","""event"",""trial"",""time""
""blur"",""19"",""236261""
","""event"",""trial"",""time""
""focus"",""19"",""279121""
","""event"",""trial"",""time""
""fullscreenenter"",""1"",""1608""
","""event"",""trial"",""time""
""fullscreenexit"",""2"",""3500""
","","","419.39999997615814","","","15","4115","2558","&#9761;","elianto","#3366ff99","-1"," ","0","0","[1270.3999999761581]","1","0","2","","","","","","","",""
"pit-trial","39","489710","0.0-2.0-11.0-2.0","battery-v0.2","","""event"",""trial"",""time""
""fullscreenenter"",""1"",""1608""
""fullscreenexit"",""2"",""3500""
""blur"",""19"",""236261""
""focus"",""19"",""279121""
","""event"",""trial"",""time""
""blur"",""19"",""236261""
","""event"",""trial"",""time""
""focus"",""19"",""279121""
","""event"",""trial"",""time""
""fullscreenenter"",""1"",""1608""
","""event"",""trial"",""time""
""fullscreenexit"",""2"",""3500""
","","","417.40000009536743","","","15","4115","2558","&#9761;","elianto","#3366ff99","-1"," ","0","0","[1270.2000000476837]","1","0","2","","","","","","","",""
"pit-trial","40","492842","0.0-2.0-11.0-3.0","battery-v0.2","","""event"",""trial"",""time""
""fullscreenenter"",""1"",""1608""
""fullscreenexit"",""2"",""3500""
""blur"",""19"",""236261""
""focus"",""19"",""279121""
","""event"",""trial"",""time""
""blur"",""19"",""236261""
","""event"",""trial"",""time""
""focus"",""19"",""279121""
","""event"",""trial"",""time""
""fullscreenenter"",""1"",""1608""
","""event"",""trial"",""time""
""fullscreenexit"",""2"",""3500""
","","","257.7000000476837","","","15","4115","2558","&#9761;","elianto","#3366ff99","-1"," ","0","+10","[1108.6999999284744]","1","0","2","","","","","","","",""
"pit-trial","41","496140","0.0-2.0-11.0-4.0","battery-v0.2","","""event"",""trial"",""time""
""fullscreenenter"",""1"",""1608""
""fullscreenexit"",""2"",""3500""
""blur"",""19"",""236261""
""focus"",""19"",""279121""
","""event"",""trial"",""time""
""blur"",""19"",""236261""
","""event"",""trial"",""time""
""focus"",""19"",""279121""
","""event"",""trial"",""time""
""fullscreenenter"",""1"",""1608""
","""event"",""trial"",""time""
""fullscreenexit"",""2"",""3500""
","","","439.3000000715256","","","15","4115","2558","&#9761;","elianto","#3366ff99","-1"," ","0","0","[1289.3999999761581]","1","0","2","","","","","","","",""
"pit-trial","42","499430","0.0-2.0-11.1-0.1","battery-v0.2","","""event"",""trial"",""time""
""fullscreenenter"",""1"",""1608""
""fullscreenexit"",""2"",""3500""
""blur"",""19"",""236261""
""focus"",""19"",""279121""
","""event"",""trial"",""time""
""blur"",""19"",""236261""
","""event"",""trial"",""time""
""focus"",""19"",""279121""
","""event"",""trial"",""time""
""fullscreenenter"",""1"",""1608""
","""event"",""trial"",""time""
""fullscreenexit"",""2"",""3500""
","","","428.7999999523163","","","15","4115","2558","&#9761;","elianto","#3366ff99","-1"," ","0","0","[1279]","1","0","2","","","","","","","",""
"pit-trial","43","502551","0.0-2.0-11.1-1.1","battery-v0.2","","""event"",""trial"",""time""
""fullscreenenter"",""1"",""1608""
""fullscreenexit"",""2"",""3500""
""blur"",""19"",""236261""
""focus"",""19"",""279121""
","""event"",""trial"",""time""
""blur"",""19"",""236261""
","""event"",""trial"",""time""
""focus"",""19"",""279121""
","""event"",""trial"",""time""
""fullscreenenter"",""1"",""1608""
","""event"",""trial"",""time""
""fullscreenexit"",""2"",""3500""
","","","250.80000007152557","","","15","4115","2558","&#9761;","elianto","#3366ff99","-1"," ","0","0","[1107.2000000476837]","1","0","2","","","","","","","",""
"pit-trial","44","505560","0.0-2.0-11.1-2.1","battery-v0.2","","""event"",""trial"",""time""
""fullscreenenter"",""1"",""1608""
""fullscreenexit"",""2"",""3500""
""blur"",""19"",""236261""
""focus"",""19"",""279121""
","""event"",""trial"",""time""
""blur"",""19"",""236261""
","""event"",""trial"",""time""
""focus"",""19"",""279121""
","""event"",""trial"",""time""
""fullscreenenter"",""1"",""1608""
","""event"",""trial"",""time""
""fullscreenexit"",""2"",""3500""
","","","132.89999997615814","","","15","4115","2558","&#9761;","elianto","#3366ff99","-1"," ","0","0","[989.6999999284744]","1","0","2","","","","","","","",""
"pit-trial","45","508660","0.0-2.0-11.1-3.1","battery-v0.2","","""event"",""trial"",""time""
""fullscreenenter"",""1"",""1608""
""fullscreenexit"",""2"",""3500""
""blur"",""19"",""236261""
""focus"",""19"",""279121""
","""event"",""trial"",""time""
""blur"",""19"",""236261""
","""event"",""trial"",""time""
""focus"",""19"",""279121""
","""event"",""trial"",""time""
""fullscreenenter"",""1"",""1608""
","""event"",""trial"",""time""
""fullscreenexit"",""2"",""3500""
","","","234","","","15","4115","2558","&#9761;","elianto","#3366ff99","-1"," ","0","+10","[1084.7000000476837]","1","0","2","","","","","","","",""
"pit-trial","46","511851","0.0-2.0-11.1-4.1","battery-v0.2","","""event"",""trial"",""time""
""fullscreenenter"",""1"",""1608""
""fullscreenexit"",""2"",""3500""
""blur"",""19"",""236261""
""focus"",""19"",""279121""
","""event"",""trial"",""time""
""blur"",""19"",""236261""
","""event"",""trial"",""time""
""focus"",""19"",""279121""
","""event"",""trial"",""time""
""fullscreenenter"",""1"",""1608""
","""event"",""trial"",""time""
""fullscreenexit"",""2"",""3500""
","","","333.5","","","15","4115","2558","&#9761;","elianto","#3366ff99","-1"," ","0","0","[1185.7999999523163]","1","0","2","","","","","","","",""
"pit-trial","47","515011","0.0-2.0-11.2-0.2","battery-v0.2","","""event"",""trial"",""time""
""fullscreenenter"",""1"",""1608""
""fullscreenexit"",""2"",""3500""
""blur"",""19"",""236261""
""focus"",""19"",""279121""
","""event"",""trial"",""time""
""blur"",""19"",""236261""
","""event"",""trial"",""time""
""focus"",""19"",""279121""
","""event"",""trial"",""time""
""fullscreenenter"",""1"",""1608""
","""event"",""trial"",""time""
""fullscreenexit"",""2"",""3500""
","","","300.89999997615814","","","15","4115","2558","&#9761;","elianto","#3366ff99","-1"," ","0","0","[1151.8999999761581]","1","0","2","","","","","","","",""
"pit-trial","48","518051","0.0-2.0-11.2-1.2","battery-v0.2","","""event"",""trial"",""time""
""fullscreenenter"",""1"",""1608""
""fullscreenexit"",""2"",""3500""
""blur"",""19"",""236261""
""focus"",""19"",""279121""
","""event"",""trial"",""time""
""blur"",""19"",""236261""
","""event"",""trial"",""time""
""focus"",""19"",""279121""
","""event"",""trial"",""time""
""fullscreenenter"",""1"",""1608""
","""event"",""trial"",""time""
""fullscreenexit"",""2"",""3500""
","","","180.60000002384186","","","15","4115","2558","&#9761;","elianto","#3366ff99","-1"," ","0","0","[1034]","1","0","2","","","","","","","",""
"pit-trial","49","521171","0.0-2.0-11.2-2.2","battery-v0.2","","""event"",""trial"",""time""
""fullscreenenter"",""1"",""1608""
""fullscreenexit"",""2"",""3500""
""blur"",""19"",""236261""
""focus"",""19"",""279121""
","""event"",""trial"",""time""
""blur"",""19"",""236261""
","""event"",""trial"",""time""
""focus"",""19"",""279121""
","""event"",""trial"",""time""
""fullscreenenter"",""1"",""1608""
","""event"",""trial"",""time""
""fullscreenexit"",""2"",""3500""
","","","262.5","","","15","4115","2558","&#9761;","elianto","#3366ff99","-1"," ","0","0","[1115.7000000476837]","1","0","2","","","","","","","",""
"pit-trial","50","524244","0.0-2.0-11.2-3.2","battery-v0.2","","""event"",""trial"",""time""
""fullscreenenter"",""1"",""1608""
""fullscreenexit"",""2"",""3500""
""blur"",""19"",""236261""
""focus"",""19"",""279121""
","""event"",""trial"",""time""
""blur"",""19"",""236261""
","""event"",""trial"",""time""
""focus"",""19"",""279121""
","""event"",""trial"",""time""
""fullscreenenter"",""1"",""1608""
","""event"",""trial"",""time""
""fullscreenexit"",""2"",""3500""
","","","215.80000007152557","","","15","4115","2558","&#9761;","elianto","#3366ff99","-1"," ","0","+10","[1068.5]","1","0","2","","","","","","","",""
"pit-trial","51","527283","0.0-2.0-11.2-4.2","battery-v0.2","","""event"",""trial"",""time""
""fullscreenenter"",""1"",""1608""
""fullscreenexit"",""2"",""3500""
""blur"",""19"",""236261""
""focus"",""19"",""279121""
","""event"",""trial"",""time""
""blur"",""19"",""236261""
","""event"",""trial"",""time""
""focus"",""19"",""279121""
","""event"",""trial"",""time""
""fullscreenenter"",""1"",""1608""
","""event"",""trial"",""time""
""fullscreenexit"",""2"",""3500""
","","","175.5","","","15","4115","2558","&#9761;","elianto","#3366ff99","-1"," ","0","0","[1027.0999999046326]","1","0","2","","","","","","","",""
"pit-trial","52","530643","0.0-2.0-11.3-0.3","battery-v0.2","","""event"",""trial"",""time""
""fullscreenenter"",""1"",""1608""
""fullscreenexit"",""2"",""3500""
""blur"",""19"",""236261""
""focus"",""19"",""279121""
","""event"",""trial"",""time""
""blur"",""19"",""236261""
","""event"",""trial"",""time""
""focus"",""19"",""279121""
","""event"",""trial"",""time""
""fullscreenenter"",""1"",""1608""
","""event"",""trial"",""time""
""fullscreenexit"",""2"",""3500""
","","","495.5","","","15","4115","2558","&#9761;","elianto","#3366ff99","-1"," ","0","0","[1348.6000000238419]","1","0","2","","","","","","","",""
"pit-trial","53","533739","0.0-2.0-11.3-1.3","battery-v0.2","","""event"",""trial"",""time""
""fullscreenenter"",""1"",""1608""
""fullscreenexit"",""2"",""3500""
""blur"",""19"",""236261""
""focus"",""19"",""279121""
","""event"",""trial"",""time""
""blur"",""19"",""236261""
","""event"",""trial"",""time""
""focus"",""19"",""279121""
","""event"",""trial"",""time""
""fullscreenenter"",""1"",""1608""
","""event"",""trial"",""time""
""fullscreenexit"",""2"",""3500""
","","","224.10000002384186","","","15","4115","2558","&#9761;","elianto","#3366ff99","-1"," ","0","0","[1082.2000000476837]","1","0","2","","","","","","","",""
"pit-trial","54","537155","0.0-2.0-11.3-2.3","battery-v0.2","","""event"",""trial"",""time""
""fullscreenenter"",""1"",""1608""
""fullscreenexit"",""2"",""3500""
""blur"",""19"",""236261""
""focus"",""19"",""279121""
","""event"",""trial"",""time""
""blur"",""19"",""236261""
","""event"",""trial"",""time""
""focus"",""19"",""279121""
","""event"",""trial"",""time""
""fullscreenenter"",""1"",""1608""
","""event"",""trial"",""time""
""fullscreenexit"",""2"",""3500""
","","","555.0999999046326","","","15","4115","2558","&#9761;","elianto","#3366ff99","-1"," ","0","0","[1405.8999999761581]","1","0","2","","","","","","","",""
"pit-trial","55","542019","0.0-2.0-11.3-3.3","battery-v0.2","","""event"",""trial"",""time""
""fullscreenenter"",""1"",""1608""
""fullscreenexit"",""2"",""3500""
""blur"",""19"",""236261""
""focus"",""19"",""279121""
","""event"",""trial"",""time""
""blur"",""19"",""236261""
","""event"",""trial"",""time""
""focus"",""19"",""279121""
","""event"",""trial"",""time""
""fullscreenenter"",""1"",""1608""
","""event"",""trial"",""time""
""fullscreenexit"",""2"",""3500""
","","","-1","","","15","4115","2558","&#9761;","elianto","#3366ff99","-1","-1","1","0","[]","0","0","2","","","","","","","",""
"pit-trial","56","546884","0.0-2.0-11.3-4.3","battery-v0.2","","""event"",""trial"",""time""
""fullscreenenter"",""1"",""1608""
""fullscreenexit"",""2"",""3500""
""blur"",""19"",""236261""
""focus"",""19"",""279121""
","""event"",""trial"",""time""
""blur"",""19"",""236261""
","""event"",""trial"",""time""
""focus"",""19"",""279121""
","""event"",""trial"",""time""
""fullscreenenter"",""1"",""1608""
","""event"",""trial"",""time""
""fullscreenexit"",""2"",""3500""
","","","-1","","","15","4115","2558","&#9761;","elianto","#3366ff99","-1","-1","1","+10","[]","0","0","2","","","","","","","",""
"call-function","57","546887","0.0-2.0-12.0","battery-v0.2","","""event"",""trial"",""time""
""fullscreenenter"",""1"",""1608""
""fullscreenexit"",""2"",""3500""
""blur"",""19"",""236261""
""focus"",""19"",""279121""
","""event"",""trial"",""time""
""blur"",""19"",""236261""
","""event"",""trial"",""time""
""focus"",""19"",""279121""
","""event"",""trial"",""time""
""fullscreenenter"",""1"",""1608""
","""event"",""trial"",""time""
""fullscreenexit"",""2"",""3500""
","","","","","","","","","","","","","","","","","","","","","","","","","","",""
"pit-instructions","58","584659","0.0-2.0-13.0","battery-v0.2","","""event"",""trial"",""time""
""fullscreenenter"",""1"",""1608""
""fullscreenexit"",""2"",""3500""
""blur"",""19"",""236261""
""focus"",""19"",""279121""
","""event"",""trial"",""time""
""blur"",""19"",""236261""
","""event"",""trial"",""time""
""focus"",""19"",""279121""
","""event"",""trial"",""time""
""fullscreenenter"",""1"",""1608""
","""event"",""trial"",""time""
""fullscreenexit"",""2"",""3500""
","","[{""page_index"":0,""viewing_time"":5052.299999952316},{""page_index"":1,""viewing_time"":6623.300000071526},{""page_index"":2,""viewing_time"":4663.699999928474},{""page_index"":3,""viewing_time"":16592.700000047684},{""page_index"":4,""viewing_time"":4840.199999928474}]","37772.699999928474","","","","","","","","","","","","","","","","","","","","","","","",""
"pit-trial","59","589546","0.0-2.0-14.0-0.0","battery-v0.2","","""event"",""trial"",""time""
""fullscreenenter"",""1"",""1608""
""fullscreenexit"",""2"",""3500""
""blur"",""19"",""236261""
""focus"",""19"",""279121""
","""event"",""trial"",""time""
""blur"",""19"",""236261""
","""event"",""trial"",""time""
""focus"",""19"",""279121""
","""event"",""trial"",""time""
""fullscreenenter"",""1"",""1608""
","""event"",""trial"",""time""
""fullscreenexit"",""2"",""3500""
","","","-1","","","15","4115","2558","&#9826;","elianto","#f73b6a7A","-1","-1","1","0","[]","0","0","3","","","","","","","",""
"pit-trial","60","594438","0.0-2.0-14.0-1.0","battery-v0.2","","""event"",""trial"",""time""
""fullscreenenter"",""1"",""1608""
""fullscreenexit"",""2"",""3500""
""blur"",""19"",""236261""
""focus"",""19"",""279121""
","""event"",""trial"",""time""
""blur"",""19"",""236261""
","""event"",""trial"",""time""
""focus"",""19"",""279121""
","""event"",""trial"",""time""
""fullscreenenter"",""1"",""1608""
","""event"",""trial"",""time""
""fullscreenexit"",""2"",""3500""
","","","-1","","","15","4115","2558","&#9826;","elianto","#f73b6a7A","-1","-1","1","0","[]","0","0","3","","","","","","","",""
"pit-trial","61","599328","0.0-2.0-14.0-2.0","battery-v0.2","","""event"",""trial"",""time""
""fullscreenenter"",""1"",""1608""
""fullscreenexit"",""2"",""3500""
""blur"",""19"",""236261""
""focus"",""19"",""279121""
","""event"",""trial"",""time""
""blur"",""19"",""236261""
","""event"",""trial"",""time""
""focus"",""19"",""279121""
","""event"",""trial"",""time""
""fullscreenenter"",""1"",""1608""
","""event"",""trial"",""time""
""fullscreenexit"",""2"",""3500""
","","","-1","","","15","4115","2558","&#9826;","elianto","#f73b6a7A","-1","-1","1","0","[]","0","0","3","","","","","","","",""
"pit-trial","62","603318","0.0-2.0-14.0-3.0","battery-v0.2","","""event"",""trial"",""time""
""fullscreenenter"",""1"",""1608""
""fullscreenexit"",""2"",""3500""
""blur"",""19"",""236261""
""focus"",""19"",""279121""
","""event"",""trial"",""time""
""blur"",""19"",""236261""
","""event"",""trial"",""time""
""focus"",""19"",""279121""
","""event"",""trial"",""time""
""fullscreenenter"",""1"",""1608""
","""event"",""trial"",""time""
""fullscreenexit"",""2"",""3500""
","","","1115.5","","","15","4115","2558","&#9826;","elianto","#f73b6a7A","-1"," ","0","0","[1969.2000000476837]","1","0","3","","","","","","","",""
"pit-trial","63","606639","0.0-2.0-14.0-4.0","battery-v0.2","","""event"",""trial"",""time""
""fullscreenenter"",""1"",""1608""
""fullscreenexit"",""2"",""3500""
""blur"",""19"",""236261""
""focus"",""19"",""279121""
","""event"",""trial"",""time""
""blur"",""19"",""236261""
","""event"",""trial"",""time""
""focus"",""19"",""279121""
","""event"",""trial"",""time""
""fullscreenenter"",""1"",""1608""
","""event"",""trial"",""time""
""fullscreenexit"",""2"",""3500""
","","","453.39999997615814","","","15","4115","2558","&#9826;","elianto","#f73b6a7A","-1"," ","0","-10","[1305.8999999761581]","1","0","3","","","","","","","",""
"pit-trial","64","611528","0.0-2.0-14.1-0.1","battery-v0.2","","""event"",""trial"",""time""
""fullscreenenter"",""1"",""1608""
""fullscreenexit"",""2"",""3500""
""blur"",""19"",""236261""
""focus"",""19"",""279121""
","""event"",""trial"",""time""
""blur"",""19"",""236261""
","""event"",""trial"",""time""
""focus"",""19"",""279121""
","""event"",""trial"",""time""
""fullscreenenter"",""1"",""1608""
","""event"",""trial"",""time""
""fullscreenexit"",""2"",""3500""
","","","-1","","","15","4115","2558","&#9826;","elianto","#f73b6a7A","-1","-1","1","0","[]","0","0","3","","","","","","","",""
"pit-trial","65","616403","0.0-2.0-14.1-1.1","battery-v0.2","","""event"",""trial"",""time""
""fullscreenenter"",""1"",""1608""
""fullscreenexit"",""2"",""3500""
""blur"",""19"",""236261""
""focus"",""19"",""279121""
","""event"",""trial"",""time""
""blur"",""19"",""236261""
","""event"",""trial"",""time""
""focus"",""19"",""279121""
","""event"",""trial"",""time""
""fullscreenenter"",""1"",""1608""
","""event"",""trial"",""time""
""fullscreenexit"",""2"",""3500""
","","","-1","","","15","4115","2558","&#9826;","elianto","#f73b6a7A","-1","-1","1","0","[]","0","0","3","","","","","","","",""
"pit-trial","66","621277","0.0-2.0-14.1-2.1","battery-v0.2","","""event"",""trial"",""time""
""fullscreenenter"",""1"",""1608""
""fullscreenexit"",""2"",""3500""
""blur"",""19"",""236261""
""focus"",""19"",""279121""
","""event"",""trial"",""time""
""blur"",""19"",""236261""
","""event"",""trial"",""time""
""focus"",""19"",""279121""
","""event"",""trial"",""time""
""fullscreenenter"",""1"",""1608""
","""event"",""trial"",""time""
""fullscreenexit"",""2"",""3500""
","","","-1","","","15","4115","2558","&#9826;","elianto","#f73b6a7A","-1","-1","1","0","[]","0","0","3","","","","","","","",""
"pit-trial","67","626146","0.0-2.0-14.1-3.1","battery-v0.2","","""event"",""trial"",""time""
""fullscreenenter"",""1"",""1608""
""fullscreenexit"",""2"",""3500""
""blur"",""19"",""236261""
""focus"",""19"",""279121""
","""event"",""trial"",""time""
""blur"",""19"",""236261""
","""event"",""trial"",""time""
""focus"",""19"",""279121""
","""event"",""trial"",""time""
""fullscreenenter"",""1"",""1608""
","""event"",""trial"",""time""
""fullscreenexit"",""2"",""3500""
","","","-1","","","15","4115","2558","&#9826;","elianto","#f73b6a7A","-1","-1","1","-10","[]","0","0","3","","","","","","","",""
"pit-trial","68","631011","0.0-2.0-14.1-4.1","battery-v0.2","","""event"",""trial"",""time""
""fullscreenenter"",""1"",""1608""
""fullscreenexit"",""2"",""3500""
""blur"",""19"",""236261""
""focus"",""19"",""279121""
","""event"",""trial"",""time""
""blur"",""19"",""236261""
","""event"",""trial"",""time""
""focus"",""19"",""279121""
","""event"",""trial"",""time""
""fullscreenenter"",""1"",""1608""
","""event"",""trial"",""time""
""fullscreenexit"",""2"",""3500""
","","","-1","","","15","4115","2558","&#9826;","elianto","#f73b6a7A","-1","-1","1","0","[]","0","0","3","","","","","","","",""
"pit-trial","69","635875","0.0-2.0-14.2-0.2","battery-v0.2","","""event"",""trial"",""time""
""fullscreenenter"",""1"",""1608""
""fullscreenexit"",""2"",""3500""
""blur"",""19"",""236261""
""focus"",""19"",""279121""
","""event"",""trial"",""time""
""blur"",""19"",""236261""
","""event"",""trial"",""time""
""focus"",""19"",""279121""
","""event"",""trial"",""time""
""fullscreenenter"",""1"",""1608""
","""event"",""trial"",""time""
""fullscreenexit"",""2"",""3500""
","","","-1","","","15","4115","2558","&#9826;","elianto","#f73b6a7A","-1","-1","1","0","[]","0","0","3","","","","","","","",""
"pit-trial","70","640739","0.0-2.0-14.2-1.2","battery-v0.2","","""event"",""trial"",""time""
""fullscreenenter"",""1"",""1608""
""fullscreenexit"",""2"",""3500""
""blur"",""19"",""236261""
""focus"",""19"",""279121""
","""event"",""trial"",""time""
""blur"",""19"",""236261""
","""event"",""trial"",""time""
""focus"",""19"",""279121""
","""event"",""trial"",""time""
""fullscreenenter"",""1"",""1608""
","""event"",""trial"",""time""
""fullscreenexit"",""2"",""3500""
","","","-1","","","15","4115","2558","&#9826;","elianto","#f73b6a7A","-1","-1","1","0","[]","0","0","3","","","","","","","",""
"pit-trial","71","645603","0.0-2.0-14.2-2.2","battery-v0.2","","""event"",""trial"",""time""
""fullscreenenter"",""1"",""1608""
""fullscreenexit"",""2"",""3500""
""blur"",""19"",""236261""
""focus"",""19"",""279121""
","""event"",""trial"",""time""
""blur"",""19"",""236261""
","""event"",""trial"",""time""
""focus"",""19"",""279121""
","""event"",""trial"",""time""
""fullscreenenter"",""1"",""1608""
","""event"",""trial"",""time""
""fullscreenexit"",""2"",""3500""
","","","-1","","","15","4115","2558","&#9826;","elianto","#f73b6a7A","-1","-1","1","0","[]","0","0","3","","","","","","","",""
"pit-trial","72","650211","0.0-2.0-14.2-3.2","battery-v0.2","","""event"",""trial"",""time""
""fullscreenenter"",""1"",""1608""
""fullscreenexit"",""2"",""3500""
""blur"",""19"",""236261""
""focus"",""19"",""279121""
","""event"",""trial"",""time""
""blur"",""19"",""236261""
","""event"",""trial"",""time""
""focus"",""19"",""279121""
","""event"",""trial"",""time""
""fullscreenenter"",""1"",""1608""
","""event"",""trial"",""time""
""fullscreenexit"",""2"",""3500""
","","","1745.2999999523163","","","15","4115","2558","&#9826;","elianto","#f73b6a7A","-1"," ","0","0","[2598.8000000715256]","1","0","3","","","","","","","",""
"pit-trial","73","653987","0.0-2.0-14.2-4.2","battery-v0.2","","""event"",""trial"",""time""
""fullscreenenter"",""1"",""1608""
""fullscreenexit"",""2"",""3500""
""blur"",""19"",""236261""
""focus"",""19"",""279121""
","""event"",""trial"",""time""
""blur"",""19"",""236261""
","""event"",""trial"",""time""
""focus"",""19"",""279121""
","""event"",""trial"",""time""
""fullscreenenter"",""1"",""1608""
","""event"",""trial"",""time""
""fullscreenexit"",""2"",""3500""
","","","912.7000000476837","","","15","4115","2558","&#9826;","elianto","#f73b6a7A","-1"," ","0","-10","[1766.9000000953674]","1","0","3","","","","","","","",""
"pit-trial","74","657179","0.0-2.0-14.3-0.3","battery-v0.2","","""event"",""trial"",""time""
""fullscreenenter"",""1"",""1608""
""fullscreenexit"",""2"",""3500""
""blur"",""19"",""236261""
""focus"",""19"",""279121""
","""event"",""trial"",""time""
""blur"",""19"",""236261""
","""event"",""trial"",""time""
""focus"",""19"",""279121""
","""event"",""trial"",""time""
""fullscreenenter"",""1"",""1608""
","""event"",""trial"",""time""
""fullscreenexit"",""2"",""3500""
","","","330.5","","","15","4115","2558","&#9826;","elianto","#f73b6a7A","-1"," ","0","-10","[1182.7999999523163]","1","0","3","","","","","","","",""
"pit-trial","75","660228","0.0-2.0-14.3-1.3","battery-v0.2","","""event"",""trial"",""time""
""fullscreenenter"",""1"",""1608""
""fullscreenexit"",""2"",""3500""
""blur"",""19"",""236261""
""focus"",""19"",""279121""
","""event"",""trial"",""time""
""blur"",""19"",""236261""
","""event"",""trial"",""time""
""focus"",""19"",""279121""
","""event"",""trial"",""time""
""fullscreenenter"",""1"",""1608""
","""event"",""trial"",""time""
""fullscreenexit"",""2"",""3500""
","","","186.70000004768372","","","15","4115","2558","&#9826;","elianto","#f73b6a7A","-1"," ","0","-10","[1039.7000000476837]","1","0","3","","","","","","","",""
"pit-trial","76","665093","0.0-2.0-14.3-2.3","battery-v0.2","","""event"",""trial"",""time""
""fullscreenenter"",""1"",""1608""
""fullscreenexit"",""2"",""3500""
""blur"",""19"",""236261""
""focus"",""19"",""279121""
","""event"",""trial"",""time""
""blur"",""19"",""236261""
","""event"",""trial"",""time""
""focus"",""19"",""279121""
","""event"",""trial"",""time""
""fullscreenenter"",""1"",""1608""
","""event"",""trial"",""time""
""fullscreenexit"",""2"",""3500""
","","","-1","","","15","4115","2558","&#9826;","elianto","#f73b6a7A","-1","-1","1","0","[]","0","0","3","","","","","","","",""
"pit-trial","77","669963","0.0-2.0-14.3-3.3","battery-v0.2","","""event"",""trial"",""time""
""fullscreenenter"",""1"",""1608""
""fullscreenexit"",""2"",""3500""
""blur"",""19"",""236261""
""focus"",""19"",""279121""
","""event"",""trial"",""time""
""blur"",""19"",""236261""
","""event"",""trial"",""time""
""focus"",""19"",""279121""
","""event"",""trial"",""time""
""fullscreenenter"",""1"",""1608""
","""event"",""trial"",""time""
""fullscreenexit"",""2"",""3500""
","","","-1","","","15","4115","2558","&#9826;","elianto","#f73b6a7A","-1","-1","1","-10","[]","0","0","3","","","","","","","",""
"pit-trial","78","674828","0.0-2.0-14.3-4.3","battery-v0.2","","""event"",""trial"",""time""
""fullscreenenter"",""1"",""1608""
""fullscreenexit"",""2"",""3500""
""blur"",""19"",""236261""
""focus"",""19"",""279121""
","""event"",""trial"",""time""
""blur"",""19"",""236261""
","""event"",""trial"",""time""
""focus"",""19"",""279121""
","""event"",""trial"",""time""
""fullscreenenter"",""1"",""1608""
","""event"",""trial"",""time""
""fullscreenexit"",""2"",""3500""
","","","-1","","","15","4115","2558","&#9826;","elianto","#f73b6a7A","-1","-1","1","0","[]","0","0","3","","","","","","","",""
"call-function","79","674832","0.0-2.0-15.0","battery-v0.2","","""event"",""trial"",""time""
""fullscreenenter"",""1"",""1608""
""fullscreenexit"",""2"",""3500""
""blur"",""19"",""236261""
""focus"",""19"",""279121""
""blur"",""80"",""692084""
""focus"",""80"",""1134057""
""blur"",""80"",""1169395""
""focus"",""80"",""3715523""
","""event"",""trial"",""time""
""blur"",""19"",""236261""
""blur"",""80"",""692084""
""blur"",""80"",""1169395""
","""event"",""trial"",""time""
""focus"",""19"",""279121""
""focus"",""80"",""1134057""
""focus"",""80"",""3715523""
","""event"",""trial"",""time""
""fullscreenenter"",""1"",""1608""
","""event"",""trial"",""time""
""fullscreenexit"",""2"",""3500""
","","","","","","","","","","","","","","","","","","","","","","","","","","",""
"pit-instructions","80","3716899","0.0-2.0-16.0","battery-v0.2","","""event"",""trial"",""time""
""fullscreenenter"",""1"",""1608""
""fullscreenexit"",""2"",""3500""
""blur"",""19"",""236261""
""focus"",""19"",""279121""
""blur"",""80"",""692084""
""focus"",""80"",""1134057""
""blur"",""80"",""1169395""
""focus"",""80"",""3715523""
","""event"",""trial"",""time""
""blur"",""19"",""236261""
""blur"",""80"",""692084""
""blur"",""80"",""1169395""
","""event"",""trial"",""time""
""focus"",""19"",""279121""
""focus"",""80"",""1134057""
""focus"",""80"",""3715523""
","""event"",""trial"",""time""
""fullscreenenter"",""1"",""1608""
","""event"",""trial"",""time""
""fullscreenexit"",""2"",""3500""
","","[{""page_index"":0,""viewing_time"":6618.5},{""page_index"":1,""viewing_time"":8064.699999928474},{""page_index"":2,""viewing_time"":445935.89999997616},{""page_index"":3,""viewing_time"":2581668.4000000954}]","3042288.2999999523","","","","","","","","","","","","","","","","","","","","","","","",""
"pit-trial","81","3721782","0.0-2.0-17.0-0.0","battery-v0.2","","""event"",""trial"",""time""
""fullscreenenter"",""1"",""1608""
""fullscreenexit"",""2"",""3500""
""blur"",""19"",""236261""
""focus"",""19"",""279121""
""blur"",""80"",""692084""
""focus"",""80"",""1134057""
""blur"",""80"",""1169395""
""focus"",""80"",""3715523""
","""event"",""trial"",""time""
""blur"",""19"",""236261""
""blur"",""80"",""692084""
""blur"",""80"",""1169395""
","""event"",""trial"",""time""
""focus"",""19"",""279121""
""focus"",""80"",""1134057""
""focus"",""80"",""3715523""
","""event"",""trial"",""time""
""fullscreenenter"",""1"",""1608""
","""event"",""trial"",""time""
""fullscreenexit"",""2"",""3500""
","","","-1","","","15","4115","2558","&#9789;","elianto","#f73b6a7A"," ","-1","0","-10","[3416.7999999523163]","1","0","4","","","","","","","",""
"pit-trial","82","3726647","0.0-2.0-17.0-1.0","battery-v0.2","","""event"",""trial"",""time""
""fullscreenenter"",""1"",""1608""
""fullscreenexit"",""2"",""3500""
""blur"",""19"",""236261""
""focus"",""19"",""279121""
""blur"",""80"",""692084""
""focus"",""80"",""1134057""
""blur"",""80"",""1169395""
""focus"",""80"",""3715523""
","""event"",""trial"",""time""
""blur"",""19"",""236261""
""blur"",""80"",""692084""
""blur"",""80"",""1169395""
","""event"",""trial"",""time""
""focus"",""19"",""279121""
""focus"",""80"",""1134057""
""focus"",""80"",""3715523""
","""event"",""trial"",""time""
""fullscreenenter"",""1"",""1608""
","""event"",""trial"",""time""
""fullscreenexit"",""2"",""3500""
","","","-1","","","15","4115","2558","&#9789;","elianto","#f73b6a7A"," ","-1","0","-10","[]","0","0","4","","","","","","","",""
"pit-trial","83","3731509","0.0-2.0-17.0-2.0","battery-v0.2","","""event"",""trial"",""time""
""fullscreenenter"",""1"",""1608""
""fullscreenexit"",""2"",""3500""
""blur"",""19"",""236261""
""focus"",""19"",""279121""
""blur"",""80"",""692084""
""focus"",""80"",""1134057""
""blur"",""80"",""1169395""
""focus"",""80"",""3715523""
","""event"",""trial"",""time""
""blur"",""19"",""236261""
""blur"",""80"",""692084""
""blur"",""80"",""1169395""
","""event"",""trial"",""time""
""focus"",""19"",""279121""
""focus"",""80"",""1134057""
""focus"",""80"",""3715523""
","""event"",""trial"",""time""
""fullscreenenter"",""1"",""1608""
","""event"",""trial"",""time""
""fullscreenexit"",""2"",""3500""
","","","-1","","","15","4115","2558","&#9789;","elianto","#f73b6a7A"," ","-1","0","-10","[]","0","0","4","","","","","","","",""
"pit-trial","84","3736375","0.0-2.0-17.0-3.0","battery-v0.2","","""event"",""trial"",""time""
""fullscreenenter"",""1"",""1608""
""fullscreenexit"",""2"",""3500""
""blur"",""19"",""236261""
""focus"",""19"",""279121""
""blur"",""80"",""692084""
""focus"",""80"",""1134057""
""blur"",""80"",""1169395""
""focus"",""80"",""3715523""
","""event"",""trial"",""time""
""blur"",""19"",""236261""
""blur"",""80"",""692084""
""blur"",""80"",""1169395""
","""event"",""trial"",""time""
""focus"",""19"",""279121""
""focus"",""80"",""1134057""
""focus"",""80"",""3715523""
","""event"",""trial"",""time""
""fullscreenenter"",""1"",""1608""
","""event"",""trial"",""time""
""fullscreenexit"",""2"",""3500""
","","","-1","","","15","4115","2558","&#9789;","elianto","#f73b6a7A"," ","-1","0","0","[]","0","0","4","","","","","","","",""
"pit-trial","85","3741237","0.0-2.0-17.0-4.0","battery-v0.2","","""event"",""trial"",""time""
""fullscreenenter"",""1"",""1608""
""fullscreenexit"",""2"",""3500""
""blur"",""19"",""236261""
""focus"",""19"",""279121""
""blur"",""80"",""692084""
""focus"",""80"",""1134057""
""blur"",""80"",""1169395""
""focus"",""80"",""3715523""
","""event"",""trial"",""time""
""blur"",""19"",""236261""
""blur"",""80"",""692084""
""blur"",""80"",""1169395""
","""event"",""trial"",""time""
""focus"",""19"",""279121""
""focus"",""80"",""1134057""
""focus"",""80"",""3715523""
","""event"",""trial"",""time""
""fullscreenenter"",""1"",""1608""
","""event"",""trial"",""time""
""fullscreenexit"",""2"",""3500""
","","","-1","","","15","4115","2558","&#9789;","elianto","#f73b6a7A"," ","-1","0","-10","[]","0","0","4","","","","","","","",""
"pit-trial","86","3746109","0.0-2.0-17.1-0.1","battery-v0.2","","""event"",""trial"",""time""
""fullscreenenter"",""1"",""1608""
""fullscreenexit"",""2"",""3500""
""blur"",""19"",""236261""
""focus"",""19"",""279121""
""blur"",""80"",""692084""
""focus"",""80"",""1134057""
""blur"",""80"",""1169395""
""focus"",""80"",""3715523""
","""event"",""trial"",""time""
""blur"",""19"",""236261""
""blur"",""80"",""692084""
""blur"",""80"",""1169395""
","""event"",""trial"",""time""
""focus"",""19"",""279121""
""focus"",""80"",""1134057""
""focus"",""80"",""3715523""
","""event"",""trial"",""time""
""fullscreenenter"",""1"",""1608""
","""event"",""trial"",""time""
""fullscreenexit"",""2"",""3500""
","","","-1","","","15","4115","2558","&#9789;","elianto","#f73b6a7A"," ","-1","0","-10","[]","0","0","4","","","","","","","",""
"pit-trial","87","3750973","0.0-2.0-17.1-1.1","battery-v0.2","","""event"",""trial"",""time""
""fullscreenenter"",""1"",""1608""
""fullscreenexit"",""2"",""3500""
""blur"",""19"",""236261""
""focus"",""19"",""279121""
""blur"",""80"",""692084""
""focus"",""80"",""1134057""
""blur"",""80"",""1169395""
""focus"",""80"",""3715523""
","""event"",""trial"",""time""
""blur"",""19"",""236261""
""blur"",""80"",""692084""
""blur"",""80"",""1169395""
","""event"",""trial"",""time""
""focus"",""19"",""279121""
""focus"",""80"",""1134057""
""focus"",""80"",""3715523""
","""event"",""trial"",""time""
""fullscreenenter"",""1"",""1608""
","""event"",""trial"",""time""
""fullscreenexit"",""2"",""3500""
","","","-1","","","15","4115","2558","&#9789;","elianto","#f73b6a7A"," ","-1","0","-10","[]","0","0","4","","","","","","","",""
"pit-trial","88","3755838","0.0-2.0-17.1-2.1","battery-v0.2","","""event"",""trial"",""time""
""fullscreenenter"",""1"",""1608""
""fullscreenexit"",""2"",""3500""
""blur"",""19"",""236261""
""focus"",""19"",""279121""
""blur"",""80"",""692084""
""focus"",""80"",""1134057""
""blur"",""80"",""1169395""
""focus"",""80"",""3715523""
","""event"",""trial"",""time""
""blur"",""19"",""236261""
""blur"",""80"",""692084""
""blur"",""80"",""1169395""
","""event"",""trial"",""time""
""focus"",""19"",""279121""
""focus"",""80"",""1134057""
""focus"",""80"",""3715523""
","""event"",""trial"",""time""
""fullscreenenter"",""1"",""1608""
","""event"",""trial"",""time""
""fullscreenexit"",""2"",""3500""
","","","-1","","","15","4115","2558","&#9789;","elianto","#f73b6a7A"," ","-1","0","-10","[]","0","0","4","","","","","","","",""
"pit-trial","89","3760701","0.0-2.0-17.1-3.1","battery-v0.2","","""event"",""trial"",""time""
""fullscreenenter"",""1"",""1608""
""fullscreenexit"",""2"",""3500""
""blur"",""19"",""236261""
""focus"",""19"",""279121""
""blur"",""80"",""692084""
""focus"",""80"",""1134057""
""blur"",""80"",""1169395""
""focus"",""80"",""3715523""
","""event"",""trial"",""time""
""blur"",""19"",""236261""
""blur"",""80"",""692084""
""blur"",""80"",""1169395""
","""event"",""trial"",""time""
""focus"",""19"",""279121""
""focus"",""80"",""1134057""
""focus"",""80"",""3715523""
","""event"",""trial"",""time""
""fullscreenenter"",""1"",""1608""
","""event"",""trial"",""time""
""fullscreenexit"",""2"",""3500""
","","","-1","","","15","4115","2558","&#9789;","elianto","#f73b6a7A"," ","-1","0","0","[]","0","0","4","","","","","","","",""
"pit-trial","90","3765566","0.0-2.0-17.1-4.1","battery-v0.2","","""event"",""trial"",""time""
""fullscreenenter"",""1"",""1608""
""fullscreenexit"",""2"",""3500""
""blur"",""19"",""236261""
""focus"",""19"",""279121""
""blur"",""80"",""692084""
""focus"",""80"",""1134057""
""blur"",""80"",""1169395""
""focus"",""80"",""3715523""
","""event"",""trial"",""time""
""blur"",""19"",""236261""
""blur"",""80"",""692084""
""blur"",""80"",""1169395""
","""event"",""trial"",""time""
""focus"",""19"",""279121""
""focus"",""80"",""1134057""
""focus"",""80"",""3715523""
","""event"",""trial"",""time""
""fullscreenenter"",""1"",""1608""
","""event"",""trial"",""time""
""fullscreenexit"",""2"",""3500""
","","","-1","","","15","4115","2558","&#9789;","elianto","#f73b6a7A"," ","-1","0","-10","[]","0","0","4","","","","","","","",""
"pit-trial","91","3770431","0.0-2.0-17.2-0.2","battery-v0.2","","""event"",""trial"",""time""
""fullscreenenter"",""1"",""1608""
""fullscreenexit"",""2"",""3500""
""blur"",""19"",""236261""
""focus"",""19"",""279121""
""blur"",""80"",""692084""
""focus"",""80"",""1134057""
""blur"",""80"",""1169395""
""focus"",""80"",""3715523""
","""event"",""trial"",""time""
""blur"",""19"",""236261""
""blur"",""80"",""692084""
""blur"",""80"",""1169395""
","""event"",""trial"",""time""
""focus"",""19"",""279121""
""focus"",""80"",""1134057""
""focus"",""80"",""3715523""
","""event"",""trial"",""time""
""fullscreenenter"",""1"",""1608""
","""event"",""trial"",""time""
""fullscreenexit"",""2"",""3500""
","","","-1","","","15","4115","2558","&#9789;","elianto","#f73b6a7A"," ","-1","0","-10","[]","0","0","4","","","","","","","",""
"pit-trial","92","3775295","0.0-2.0-17.2-1.2","battery-v0.2","","""event"",""trial"",""time""
""fullscreenenter"",""1"",""1608""
""fullscreenexit"",""2"",""3500""
""blur"",""19"",""236261""
""focus"",""19"",""279121""
""blur"",""80"",""692084""
""focus"",""80"",""1134057""
""blur"",""80"",""1169395""
""focus"",""80"",""3715523""
","""event"",""trial"",""time""
""blur"",""19"",""236261""
""blur"",""80"",""692084""
""blur"",""80"",""1169395""
","""event"",""trial"",""time""
""focus"",""19"",""279121""
""focus"",""80"",""1134057""
""focus"",""80"",""3715523""
","""event"",""trial"",""time""
""fullscreenenter"",""1"",""1608""
","""event"",""trial"",""time""
""fullscreenexit"",""2"",""3500""
","","","-1","","","15","4115","2558","&#9789;","elianto","#f73b6a7A"," ","-1","0","-10","[]","0","0","4","","","","","","","",""
"pit-trial","93","3780158","0.0-2.0-17.2-2.2","battery-v0.2","","""event"",""trial"",""time""
""fullscreenenter"",""1"",""1608""
""fullscreenexit"",""2"",""3500""
""blur"",""19"",""236261""
""focus"",""19"",""279121""
""blur"",""80"",""692084""
""focus"",""80"",""1134057""
""blur"",""80"",""1169395""
""focus"",""80"",""3715523""
","""event"",""trial"",""time""
""blur"",""19"",""236261""
""blur"",""80"",""692084""
""blur"",""80"",""1169395""
","""event"",""trial"",""time""
""focus"",""19"",""279121""
""focus"",""80"",""1134057""
""focus"",""80"",""3715523""
","""event"",""trial"",""time""
""fullscreenenter"",""1"",""1608""
","""event"",""trial"",""time""
""fullscreenexit"",""2"",""3500""
","","","-1","","","15","4115","2558","&#9789;","elianto","#f73b6a7A"," ","-1","0","-10","[]","0","0","4","","","","","","","",""
"pit-trial","94","3785022","0.0-2.0-17.2-3.2","battery-v0.2","","""event"",""trial"",""time""
""fullscreenenter"",""1"",""1608""
""fullscreenexit"",""2"",""3500""
""blur"",""19"",""236261""
""focus"",""19"",""279121""
""blur"",""80"",""692084""
""focus"",""80"",""1134057""
""blur"",""80"",""1169395""
""focus"",""80"",""3715523""
","""event"",""trial"",""time""
""blur"",""19"",""236261""
""blur"",""80"",""692084""
""blur"",""80"",""1169395""
","""event"",""trial"",""time""
""focus"",""19"",""279121""
""focus"",""80"",""1134057""
""focus"",""80"",""3715523""
","""event"",""trial"",""time""
""fullscreenenter"",""1"",""1608""
","""event"",""trial"",""time""
""fullscreenexit"",""2"",""3500""
","","","-1","","","15","4115","2558","&#9789;","elianto","#f73b6a7A"," ","-1","0","0","[]","0","0","4","","","","","","","",""
"pit-trial","95","3789886","0.0-2.0-17.2-4.2","battery-v0.2","","""event"",""trial"",""time""
""fullscreenenter"",""1"",""1608""
""fullscreenexit"",""2"",""3500""
""blur"",""19"",""236261""
""focus"",""19"",""279121""
""blur"",""80"",""692084""
""focus"",""80"",""1134057""
""blur"",""80"",""1169395""
""focus"",""80"",""3715523""
","""event"",""trial"",""time""
""blur"",""19"",""236261""
""blur"",""80"",""692084""
""blur"",""80"",""1169395""
","""event"",""trial"",""time""
""focus"",""19"",""279121""
""focus"",""80"",""1134057""
""focus"",""80"",""3715523""
","""event"",""trial"",""time""
""fullscreenenter"",""1"",""1608""
","""event"",""trial"",""time""
""fullscreenexit"",""2"",""3500""
","","","-1","","","15","4115","2558","&#9789;","elianto","#f73b6a7A"," ","-1","0","-10","[]","0","0","4","","","","","","","",""
"pit-trial","96","3794749","0.0-2.0-17.3-0.3","battery-v0.2","","""event"",""trial"",""time""
""fullscreenenter"",""1"",""1608""
""fullscreenexit"",""2"",""3500""
""blur"",""19"",""236261""
""focus"",""19"",""279121""
""blur"",""80"",""692084""
""focus"",""80"",""1134057""
""blur"",""80"",""1169395""
""focus"",""80"",""3715523""
","""event"",""trial"",""time""
""blur"",""19"",""236261""
""blur"",""80"",""692084""
""blur"",""80"",""1169395""
","""event"",""trial"",""time""
""focus"",""19"",""279121""
""focus"",""80"",""1134057""
""focus"",""80"",""3715523""
","""event"",""trial"",""time""
""fullscreenenter"",""1"",""1608""
","""event"",""trial"",""time""
""fullscreenexit"",""2"",""3500""
","","","-1","","","15","4115","2558","&#9789;","elianto","#f73b6a7A"," ","-1","0","-10","[]","0","0","4","","","","","","","",""
"pit-trial","97","3799613","0.0-2.0-17.3-1.3","battery-v0.2","","""event"",""trial"",""time""
""fullscreenenter"",""1"",""1608""
""fullscreenexit"",""2"",""3500""
""blur"",""19"",""236261""
""focus"",""19"",""279121""
""blur"",""80"",""692084""
""focus"",""80"",""1134057""
""blur"",""80"",""1169395""
""focus"",""80"",""3715523""
","""event"",""trial"",""time""
""blur"",""19"",""236261""
""blur"",""80"",""692084""
""blur"",""80"",""1169395""
","""event"",""trial"",""time""
""focus"",""19"",""279121""
""focus"",""80"",""1134057""
""focus"",""80"",""3715523""
","""event"",""trial"",""time""
""fullscreenenter"",""1"",""1608""
","""event"",""trial"",""time""
""fullscreenexit"",""2"",""3500""
","","","-1","","","15","4115","2558","&#9789;","elianto","#f73b6a7A"," ","-1","0","-10","[]","0","0","4","","","","","","","",""
"pit-trial","98","3804478","0.0-2.0-17.3-2.3","battery-v0.2","","""event"",""trial"",""time""
""fullscreenenter"",""1"",""1608""
""fullscreenexit"",""2"",""3500""
""blur"",""19"",""236261""
""focus"",""19"",""279121""
""blur"",""80"",""692084""
""focus"",""80"",""1134057""
""blur"",""80"",""1169395""
""focus"",""80"",""3715523""
","""event"",""trial"",""time""
""blur"",""19"",""236261""
""blur"",""80"",""692084""
""blur"",""80"",""1169395""
","""event"",""trial"",""time""
""focus"",""19"",""279121""
""focus"",""80"",""1134057""
""focus"",""80"",""3715523""
","""event"",""trial"",""time""
""fullscreenenter"",""1"",""1608""
","""event"",""trial"",""time""
""fullscreenexit"",""2"",""3500""
","","","-1","","","15","4115","2558","&#9789;","elianto","#f73b6a7A"," ","-1","0","-10","[]","0","0","4","","","","","","","",""
"pit-trial","99","3809352","0.0-2.0-17.3-3.3","battery-v0.2","","""event"",""trial"",""time""
""fullscreenenter"",""1"",""1608""
""fullscreenexit"",""2"",""3500""
""blur"",""19"",""236261""
""focus"",""19"",""279121""
""blur"",""80"",""692084""
""focus"",""80"",""1134057""
""blur"",""80"",""1169395""
""focus"",""80"",""3715523""
","""event"",""trial"",""time""
""blur"",""19"",""236261""
""blur"",""80"",""692084""
""blur"",""80"",""1169395""
","""event"",""trial"",""time""
""focus"",""19"",""279121""
""focus"",""80"",""1134057""
""focus"",""80"",""3715523""
","""event"",""trial"",""time""
""fullscreenenter"",""1"",""1608""
","""event"",""trial"",""time""
""fullscreenexit"",""2"",""3500""
","","","-1","","","15","4115","2558","&#9789;","elianto","#f73b6a7A"," ","-1","0","0","[]","0","0","4","","","","","","","",""
"pit-trial","100","3813223","0.0-2.0-17.3-4.3","battery-v0.2","","""event"",""trial"",""time""
""fullscreenenter"",""1"",""1608""
""fullscreenexit"",""2"",""3500""
""blur"",""19"",""236261""
""focus"",""19"",""279121""
""blur"",""80"",""692084""
""focus"",""80"",""1134057""
""blur"",""80"",""1169395""
""focus"",""80"",""3715523""
","""event"",""trial"",""time""
""blur"",""19"",""236261""
""blur"",""80"",""692084""
""blur"",""80"",""1169395""
","""event"",""trial"",""time""
""focus"",""19"",""279121""
""focus"",""80"",""1134057""
""focus"",""80"",""3715523""
","""event"",""trial"",""time""
""fullscreenenter"",""1"",""1608""
","""event"",""trial"",""time""
""fullscreenexit"",""2"",""3500""
","","","1007.6999999284744","","","15","4115","2558","&#9789;","elianto","#f73b6a7A"," "," ","1","0","[1858.6999999284744]","1","0","4","","","","","","","",""
"call-function","101","3813227","0.0-2.0-18.0","battery-v0.2","","""event"",""trial"",""time""
""fullscreenenter"",""1"",""1608""
""fullscreenexit"",""2"",""3500""
""blur"",""19"",""236261""
""focus"",""19"",""279121""
""blur"",""80"",""692084""
""focus"",""80"",""1134057""
""blur"",""80"",""1169395""
""focus"",""80"",""3715523""
","""event"",""trial"",""time""
""blur"",""19"",""236261""
""blur"",""80"",""692084""
""blur"",""80"",""1169395""
","""event"",""trial"",""time""
""focus"",""19"",""279121""
""focus"",""80"",""1134057""
""focus"",""80"",""3715523""
","""event"",""trial"",""time""
""fullscreenenter"",""1"",""1608""
","""event"",""trial"",""time""
""fullscreenexit"",""2"",""3500""
","","","","","","","","","","","","","","","","","","","","","","","","","","",""
"pit-instructions","102","3881667","0.0-2.0-19.0","battery-v0.2","","""event"",""trial"",""time""
""fullscreenenter"",""1"",""1608""
""fullscreenexit"",""2"",""3500""
""blur"",""19"",""236261""
""focus"",""19"",""279121""
""blur"",""80"",""692084""
""focus"",""80"",""1134057""
""blur"",""80"",""1169395""
""focus"",""80"",""3715523""
","""event"",""trial"",""time""
""blur"",""19"",""236261""
""blur"",""80"",""692084""
""blur"",""80"",""1169395""
","""event"",""trial"",""time""
""focus"",""19"",""279121""
""focus"",""80"",""1134057""
""focus"",""80"",""3715523""
","""event"",""trial"",""time""
""fullscreenenter"",""1"",""1608""
","""event"",""trial"",""time""
""fullscreenexit"",""2"",""3500""
","","[{""page_index"":0,""viewing_time"":9342.399999976158},{""page_index"":1,""viewing_time"":6784.700000047684},{""page_index"":2,""viewing_time"":9384.299999952316},{""page_index"":3,""viewing_time"":7031.300000071526},{""page_index"":4,""viewing_time"":7895.699999928474},{""page_index"":5,""viewing_time"":8127.899999976158},{""page_index"":6,""viewing_time"":8433.400000095367},{""page_index"":7,""viewing_time"":7703.399999976158},{""page_index"":8,""viewing_time"":3735.899999976158}]","68439.5","","","","","","","","","","","","","","","","","","","","","","","",""
"pit-comprehension","103","3886131","0.0-2.0-20.0-0.0","battery-v0.2","","""event"",""trial"",""time""
""fullscreenenter"",""1"",""1608""
""fullscreenexit"",""2"",""3500""
""blur"",""19"",""236261""
""focus"",""19"",""279121""
""blur"",""80"",""692084""
""focus"",""80"",""1134057""
""blur"",""80"",""1169395""
""focus"",""80"",""3715523""
","""event"",""trial"",""time""
""blur"",""19"",""236261""
""blur"",""80"",""692084""
""blur"",""80"",""1169395""
","""event"",""trial"",""time""
""focus"",""19"",""279121""
""focus"",""80"",""1134057""
""focus"",""80"",""3715523""
","""event"",""trial"",""time""
""fullscreenenter"",""1"",""1608""
","""event"",""trial"",""time""
""fullscreenexit"",""2"",""3500""
","","","4457.899999976158","[""SPACE""]","0","15","4115","2558","","","","","","","","","","","","","","","","","","",""
"pit-instructions","104","3891484","0.0-2.0-20.0-1.0","battery-v0.2","","""event"",""trial"",""time""
""fullscreenenter"",""1"",""1608""
""fullscreenexit"",""2"",""3500""
""blur"",""19"",""236261""
""focus"",""19"",""279121""
""blur"",""80"",""692084""
""focus"",""80"",""1134057""
""blur"",""80"",""1169395""
""focus"",""80"",""3715523""
","""event"",""trial"",""time""
""blur"",""19"",""236261""
""blur"",""80"",""692084""
""blur"",""80"",""1169395""
","""event"",""trial"",""time""
""focus"",""19"",""279121""
""focus"",""80"",""1134057""
""focus"",""80"",""3715523""
","""event"",""trial"",""time""
""fullscreenenter"",""1"",""1608""
","""event"",""trial"",""time""
""fullscreenexit"",""2"",""3500""
","","[{""page_index"":0,""viewing_time"":5320.700000047684}]","5321.700000047684","","","","","","","","","","","","","","","","","","","","","","","",""
"pit-comprehension","105","3898284","0.0-2.0-21.0-0.0","battery-v0.2","","""event"",""trial"",""time""
""fullscreenenter"",""1"",""1608""
""fullscreenexit"",""2"",""3500""
""blur"",""19"",""236261""
""focus"",""19"",""279121""
""blur"",""80"",""692084""
""focus"",""80"",""1134057""
""blur"",""80"",""1169395""
""focus"",""80"",""3715523""
","""event"",""trial"",""time""
""blur"",""19"",""236261""
""blur"",""80"",""692084""
""blur"",""80"",""1169395""
","""event"",""trial"",""time""
""focus"",""19"",""279121""
""focus"",""80"",""1134057""
""focus"",""80"",""3715523""
","""event"",""trial"",""time""
""fullscreenenter"",""1"",""1608""
","""event"",""trial"",""time""
""fullscreenexit"",""2"",""3500""
","","","6797","[""10""]","0","15","4115","2558","","","","","","","","","","","","","","","","","","",""
"pit-instructions","106","3902620","0.0-2.0-21.0-1.0","battery-v0.2","","""event"",""trial"",""time""
""fullscreenenter"",""1"",""1608""
""fullscreenexit"",""2"",""3500""
""blur"",""19"",""236261""
""focus"",""19"",""279121""
""blur"",""80"",""692084""
""focus"",""80"",""1134057""
""blur"",""80"",""1169395""
""focus"",""80"",""3715523""
","""event"",""trial"",""time""
""blur"",""19"",""236261""
""blur"",""80"",""692084""
""blur"",""80"",""1169395""
","""event"",""trial"",""time""
""focus"",""19"",""279121""
""focus"",""80"",""1134057""
""focus"",""80"",""3715523""
","""event"",""trial"",""time""
""fullscreenenter"",""1"",""1608""
","""event"",""trial"",""time""
""fullscreenexit"",""2"",""3500""
","","[{""page_index"":0,""viewing_time"":4308.399999976158}]","4308.5","","","","","","","","","","","","","","","","","","","","","","","",""
"pit-comprehension","107","3909156","0.0-2.0-22.0-0.0","battery-v0.2","","""event"",""trial"",""time""
""fullscreenenter"",""1"",""1608""
""fullscreenexit"",""2"",""3500""
""blur"",""19"",""236261""
""focus"",""19"",""279121""
""blur"",""80"",""692084""
""focus"",""80"",""1134057""
""blur"",""80"",""1169395""
""focus"",""80"",""3715523""
","""event"",""trial"",""time""
""blur"",""19"",""236261""
""blur"",""80"",""692084""
""blur"",""80"",""1169395""
","""event"",""trial"",""time""
""focus"",""19"",""279121""
""focus"",""80"",""1134057""
""focus"",""80"",""3715523""
","""event"",""trial"",""time""
""fullscreenenter"",""1"",""1608""
","""event"",""trial"",""time""
""fullscreenexit"",""2"",""3500""
","","","6532.899999976158","[""-10""]","1","15","4115","2558","","","","","","","","","","","","","","","","","","",""
"pit-instructions","108","3911531","0.0-2.0-22.0-1.0","battery-v0.2","","""event"",""trial"",""time""
""fullscreenenter"",""1"",""1608""
""fullscreenexit"",""2"",""3500""
""blur"",""19"",""236261""
""focus"",""19"",""279121""
""blur"",""80"",""692084""
""focus"",""80"",""1134057""
""blur"",""80"",""1169395""
""focus"",""80"",""3715523""
","""event"",""trial"",""time""
""blur"",""19"",""236261""
""blur"",""80"",""692084""
""blur"",""80"",""1169395""
","""event"",""trial"",""time""
""focus"",""19"",""279121""
""focus"",""80"",""1134057""
""focus"",""80"",""3715523""
","""event"",""trial"",""time""
""fullscreenenter"",""1"",""1608""
","""event"",""trial"",""time""
""fullscreenexit"",""2"",""3500""
","","[{""page_index"":0,""viewing_time"":2345.899999976158}]","2346.0999999046326","","","","","","","","","","","","","","","","","","","","","","","",""
"pit-instructions","109","3912323","0.0-2.0-22.0-2.0-0.0","battery-v0.2","","""event"",""trial"",""time""
""fullscreenenter"",""1"",""1608""
""fullscreenexit"",""2"",""3500""
""blur"",""19"",""236261""
""focus"",""19"",""279121""
""blur"",""80"",""692084""
""focus"",""80"",""1134057""
""blur"",""80"",""1169395""
""focus"",""80"",""3715523""
","""event"",""trial"",""time""
""blur"",""19"",""236261""
""blur"",""80"",""692084""
""blur"",""80"",""1169395""
","""event"",""trial"",""time""
""focus"",""19"",""279121""
""focus"",""80"",""1134057""
""focus"",""80"",""3715523""
","""event"",""trial"",""time""
""fullscreenenter"",""1"",""1608""
","""event"",""trial"",""time""
""fullscreenexit"",""2"",""3500""
","","[{""page_index"":0,""viewing_time"":789.6999999284744}]","789.7999999523163","","","","","","","","","","","","","","","","","","","","","","","",""
"pit-comprehension","110","3918747","0.0-2.0-22.1-0.1","battery-v0.2","","""event"",""trial"",""time""
""fullscreenenter"",""1"",""1608""
""fullscreenexit"",""2"",""3500""
""blur"",""19"",""236261""
""focus"",""19"",""279121""
""blur"",""80"",""692084""
""focus"",""80"",""1134057""
""blur"",""80"",""1169395""
""focus"",""80"",""3715523""
","""event"",""trial"",""time""
""blur"",""19"",""236261""
""blur"",""80"",""692084""
""blur"",""80"",""1169395""
","""event"",""trial"",""time""
""focus"",""19"",""279121""
""focus"",""80"",""1134057""
""focus"",""80"",""3715523""
","""event"",""trial"",""time""
""fullscreenenter"",""1"",""1608""
","""event"",""trial"",""time""
""fullscreenexit"",""2"",""3500""
","","","6421.300000071526","[""0""]","0","15","4115","2558","","","","","","","","","","","","","","","","","","",""
"pit-instructions","111","3921291","0.0-2.0-22.1-1.1","battery-v0.2","","""event"",""trial"",""time""
""fullscreenenter"",""1"",""1608""
""fullscreenexit"",""2"",""3500""
""blur"",""19"",""236261""
""focus"",""19"",""279121""
""blur"",""80"",""692084""
""focus"",""80"",""1134057""
""blur"",""80"",""1169395""
""focus"",""80"",""3715523""
","""event"",""trial"",""time""
""blur"",""19"",""236261""
""blur"",""80"",""692084""
""blur"",""80"",""1169395""
","""event"",""trial"",""time""
""focus"",""19"",""279121""
""focus"",""80"",""1134057""
""focus"",""80"",""3715523""
","""event"",""trial"",""time""
""fullscreenenter"",""1"",""1608""
","""event"",""trial"",""time""
""fullscreenexit"",""2"",""3500""
","","[{""page_index"":0,""viewing_time"":2515.100000023842}]","2515.399999976158","","","","","","","","","","","","","","","","","","","","","","","",""
"pit-comprehension","112","3930492","0.0-2.0-23.0-0.0","battery-v0.2","","""event"",""trial"",""time""
""fullscreenenter"",""1"",""1608""
""fullscreenexit"",""2"",""3500""
""blur"",""19"",""236261""
""focus"",""19"",""279121""
""blur"",""80"",""692084""
""focus"",""80"",""1134057""
""blur"",""80"",""1169395""
""focus"",""80"",""3715523""
","""event"",""trial"",""time""
""blur"",""19"",""236261""
""blur"",""80"",""692084""
""blur"",""80"",""1169395""
","""event"",""trial"",""time""
""focus"",""19"",""279121""
""focus"",""80"",""1134057""
""focus"",""80"",""3715523""
","""event"",""trial"",""time""
""fullscreenenter"",""1"",""1608""
","""event"",""trial"",""time""
""fullscreenexit"",""2"",""3500""
","","","9198.399999976158","[""False""]","1","15","4115","2558","","","","","","","","","","","","","","","","","","",""
"pit-instructions","113","3932875","0.0-2.0-23.0-1.0","battery-v0.2","","""event"",""trial"",""time""
""fullscreenenter"",""1"",""1608""
""fullscreenexit"",""2"",""3500""
""blur"",""19"",""236261""
""focus"",""19"",""279121""
""blur"",""80"",""692084""
""focus"",""80"",""1134057""
""blur"",""80"",""1169395""
""focus"",""80"",""3715523""
","""event"",""trial"",""time""
""blur"",""19"",""236261""
""blur"",""80"",""692084""
""blur"",""80"",""1169395""
","""event"",""trial"",""time""
""focus"",""19"",""279121""
""focus"",""80"",""1134057""
""focus"",""80"",""3715523""
","""event"",""trial"",""time""
""fullscreenenter"",""1"",""1608""
","""event"",""trial"",""time""
""fullscreenexit"",""2"",""3500""
","","[{""page_index"":0,""viewing_time"":2351.399999976158}]","2351.600000023842","","","","","","","","","","","","","","","","","","","","","","","",""
"pit-instructions","114","3937179","0.0-2.0-23.0-2.0-0.0","battery-v0.2","","""event"",""trial"",""time""
""fullscreenenter"",""1"",""1608""
""fullscreenexit"",""2"",""3500""
""blur"",""19"",""236261""
""focus"",""19"",""279121""
""blur"",""80"",""692084""
""focus"",""80"",""1134057""
""blur"",""80"",""1169395""
""focus"",""80"",""3715523""
","""event"",""trial"",""time""
""blur"",""19"",""236261""
""blur"",""80"",""692084""
""blur"",""80"",""1169395""
","""event"",""trial"",""time""
""focus"",""19"",""279121""
""focus"",""80"",""1134057""
""focus"",""80"",""3715523""
","""event"",""trial"",""time""
""fullscreenenter"",""1"",""1608""
","""event"",""trial"",""time""
""fullscreenexit"",""2"",""3500""
","","[{""page_index"":0,""viewing_time"":4301.799999952316}]","4302","","","","","","","","","","","","","","","","","","","","","","","",""
"pit-comprehension","115","3945587","0.0-2.0-23.1-0.1","battery-v0.2","","""event"",""trial"",""time""
""fullscreenenter"",""1"",""1608""
""fullscreenexit"",""2"",""3500""
""blur"",""19"",""236261""
""focus"",""19"",""279121""
""blur"",""80"",""692084""
""focus"",""80"",""1134057""
""blur"",""80"",""1169395""
""focus"",""80"",""3715523""
","""event"",""trial"",""time""
""blur"",""19"",""236261""
""blur"",""80"",""692084""
""blur"",""80"",""1169395""
","""event"",""trial"",""time""
""focus"",""19"",""279121""
""focus"",""80"",""1134057""
""focus"",""80"",""3715523""
","""event"",""trial"",""time""
""fullscreenenter"",""1"",""1608""
","""event"",""trial"",""time""
""fullscreenexit"",""2"",""3500""
","","","8405.600000023842","[""True""]","0","15","4115","2558","","","","","","","","","","","","","","","","","","",""
"pit-instructions","116","3947227","0.0-2.0-23.1-1.1","battery-v0.2","","""event"",""trial"",""time""
""fullscreenenter"",""1"",""1608""
""fullscreenexit"",""2"",""3500""
""blur"",""19"",""236261""
""focus"",""19"",""279121""
""blur"",""80"",""692084""
""focus"",""80"",""1134057""
""blur"",""80"",""1169395""
""focus"",""80"",""3715523""
","""event"",""trial"",""time""
""blur"",""19"",""236261""
""blur"",""80"",""692084""
""blur"",""80"",""1169395""
","""event"",""trial"",""time""
""focus"",""19"",""279121""
""focus"",""80"",""1134057""
""focus"",""80"",""3715523""
","""event"",""trial"",""time""
""fullscreenenter"",""1"",""1608""
","""event"",""trial"",""time""
""fullscreenexit"",""2"",""3500""
","","[{""page_index"":0,""viewing_time"":1610.6000000238419}]","1610.8999999761581","","","","","","","","","","","","","","","","","","","","","","","",""
"pit-comprehension","117","3954620","0.0-2.0-24.0-0.0","battery-v0.2","","""event"",""trial"",""time""
""fullscreenenter"",""1"",""1608""
""fullscreenexit"",""2"",""3500""
""blur"",""19"",""236261""
""focus"",""19"",""279121""
""blur"",""80"",""692084""
""focus"",""80"",""1134057""
""blur"",""80"",""1169395""
""focus"",""80"",""3715523""
","""event"",""trial"",""time""
""blur"",""19"",""236261""
""blur"",""80"",""692084""
""blur"",""80"",""1169395""
","""event"",""trial"",""time""
""focus"",""19"",""279121""
""focus"",""80"",""1134057""
""focus"",""80"",""3715523""
","""event"",""trial"",""time""
""fullscreenenter"",""1"",""1608""
","""event"",""trial"",""time""
""fullscreenexit"",""2"",""3500""
","","","7389.799999952316","[""True""]","0","15","4115","2558","","","","","","","","","","","","","","","","","","",""
"pit-instructions","118","3957626","0.0-2.0-24.0-1.0","battery-v0.2","","""event"",""trial"",""time""
""fullscreenenter"",""1"",""1608""
""fullscreenexit"",""2"",""3500""
""blur"",""19"",""236261""
""focus"",""19"",""279121""
""blur"",""80"",""692084""
""focus"",""80"",""1134057""
""blur"",""80"",""1169395""
""focus"",""80"",""3715523""
","""event"",""trial"",""time""
""blur"",""19"",""236261""
""blur"",""80"",""692084""
""blur"",""80"",""1169395""
","""event"",""trial"",""time""
""focus"",""19"",""279121""
""focus"",""80"",""1134057""
""focus"",""80"",""3715523""
","""event"",""trial"",""time""
""fullscreenenter"",""1"",""1608""
","""event"",""trial"",""time""
""fullscreenexit"",""2"",""3500""
","","[{""page_index"":0,""viewing_time"":2975.600000023842}]","2975.7999999523163","","","","","","","","","","","","","","","","","","","","","","","",""
"pit-comprehension","119","3964059","0.0-2.0-25.0-0.0","battery-v0.2","","""event"",""trial"",""time""
""fullscreenenter"",""1"",""1608""
""fullscreenexit"",""2"",""3500""
""blur"",""19"",""236261""
""focus"",""19"",""279121""
""blur"",""80"",""692084""
""focus"",""80"",""1134057""
""blur"",""80"",""1169395""
""focus"",""80"",""3715523""
","""event"",""trial"",""time""
""blur"",""19"",""236261""
""blur"",""80"",""692084""
""blur"",""80"",""1169395""
","""event"",""trial"",""time""
""focus"",""19"",""279121""
""focus"",""80"",""1134057""
""focus"",""80"",""3715523""
","""event"",""trial"",""time""
""fullscreenenter"",""1"",""1608""
","""event"",""trial"",""time""
""fullscreenexit"",""2"",""3500""
","","","6429.899999976158","[""True""]","0","15","4115","2558","","","","","","","","","","","","","","","","","","",""
"pit-instructions","120","3967970","0.0-2.0-25.0-1.0","battery-v0.2","","""event"",""trial"",""time""
""fullscreenenter"",""1"",""1608""
""fullscreenexit"",""2"",""3500""
""blur"",""19"",""236261""
""focus"",""19"",""279121""
""blur"",""80"",""692084""
""focus"",""80"",""1134057""
""blur"",""80"",""1169395""
""focus"",""80"",""3715523""
","""event"",""trial"",""time""
""blur"",""19"",""236261""
""blur"",""80"",""692084""
""blur"",""80"",""1169395""
","""event"",""trial"",""time""
""focus"",""19"",""279121""
""focus"",""80"",""1134057""
""focus"",""80"",""3715523""
","""event"",""trial"",""time""
""fullscreenenter"",""1"",""1608""
","""event"",""trial"",""time""
""fullscreenexit"",""2"",""3500""
","","[{""page_index"":0,""viewing_time"":3879.2000000476837}]","3879.5","","","","","","","","","","","","","","","","","","","","","","","",""
"pit-comprehension","121","3975219","0.0-2.0-26.0-0.0","battery-v0.2","","""event"",""trial"",""time""
""fullscreenenter"",""1"",""1608""
""fullscreenexit"",""2"",""3500""
""blur"",""19"",""236261""
""focus"",""19"",""279121""
""blur"",""80"",""692084""
""focus"",""80"",""1134057""
""blur"",""80"",""1169395""
""focus"",""80"",""3715523""
","""event"",""trial"",""time""
""blur"",""19"",""236261""
""blur"",""80"",""692084""
""blur"",""80"",""1169395""
","""event"",""trial"",""time""
""focus"",""19"",""279121""
""focus"",""80"",""1134057""
""focus"",""80"",""3715523""
","""event"",""trial"",""time""
""fullscreenenter"",""1"",""1608""
","""event"",""trial"",""time""
""fullscreenexit"",""2"",""3500""
","","","7245.600000023842","[""False""]","0","15","4115","2558","","","","","","","","","","","","","","","","","","",""
"pit-instructions","122","3977395","0.0-2.0-26.0-1.0","battery-v0.2","","""event"",""trial"",""time""
""fullscreenenter"",""1"",""1608""
""fullscreenexit"",""2"",""3500""
""blur"",""19"",""236261""
""focus"",""19"",""279121""
""blur"",""80"",""692084""
""focus"",""80"",""1134057""
""blur"",""80"",""1169395""
""focus"",""80"",""3715523""
","""event"",""trial"",""time""
""blur"",""19"",""236261""
""blur"",""80"",""692084""
""blur"",""80"",""1169395""
","""event"",""trial"",""time""
""focus"",""19"",""279121""
""focus"",""80"",""1134057""
""focus"",""80"",""3715523""
","""event"",""trial"",""time""
""fullscreenenter"",""1"",""1608""
","""event"",""trial"",""time""
""fullscreenexit"",""2"",""3500""
","","[{""page_index"":0,""viewing_time"":2142.4000000953674}]","2142.600000023842","","","","","","","","","","","","","","","","","","","","","","","",""
"pit-instructions","123","3994154","0.0-3.0","battery-v0.2","","""event"",""trial"",""time""
""fullscreenenter"",""1"",""1608""
""fullscreenexit"",""2"",""3500""
""blur"",""19"",""236261""
""focus"",""19"",""279121""
""blur"",""80"",""692084""
""focus"",""80"",""1134057""
""blur"",""80"",""1169395""
""focus"",""80"",""3715523""
","""event"",""trial"",""time""
""blur"",""19"",""236261""
""blur"",""80"",""692084""
""blur"",""80"",""1169395""
","""event"",""trial"",""time""
""focus"",""19"",""279121""
""focus"",""80"",""1134057""
""focus"",""80"",""3715523""
","""event"",""trial"",""time""
""fullscreenenter"",""1"",""1608""
","""event"",""trial"",""time""
""fullscreenexit"",""2"",""3500""
","","[{""page_index"":0,""viewing_time"":3917.5},{""page_index"":1,""viewing_time"":5983.800000071526},{""page_index"":2,""viewing_time"":6856.199999928474}]","16757.700000047684","","","","","","","","","","","","","","","","","","","","","","","",""
"pit-trial","124","3997668","0.0-4.0","battery-v0.2","","""event"",""trial"",""time""
""fullscreenenter"",""1"",""1608""
""fullscreenexit"",""2"",""3500""
""blur"",""19"",""236261""
""focus"",""19"",""279121""
""blur"",""80"",""692084""
""focus"",""80"",""1134057""
""blur"",""80"",""1169395""
""focus"",""80"",""3715523""
","""event"",""trial"",""time""
""blur"",""19"",""236261""
""blur"",""80"",""692084""
""blur"",""80"",""1169395""
","""event"",""trial"",""time""
""focus"",""19"",""279121""
""focus"",""80"",""1134057""
""focus"",""80"",""3715523""
","""event"",""trial"",""time""
""fullscreenenter"",""1"",""1608""
","""event"",""trial"",""time""
""fullscreenexit"",""2"",""3500""
","","","632.2999999523163","","","15","4115","2558","&#9730;","elianto","#3366ff99"," "," ","1","+10","[1483.8999999761581]","1","1","","","4115","1","1","1","win","go","0"
"pit-trial","125","4001290","0.0-5.0","battery-v0.2","","""event"",""trial"",""time""
""fullscreenenter"",""1"",""1608""
""fullscreenexit"",""2"",""3500""
""blur"",""19"",""236261""
""focus"",""19"",""279121""
""blur"",""80"",""692084""
""focus"",""80"",""1134057""
""blur"",""80"",""1169395""
""focus"",""80"",""3715523""
","""event"",""trial"",""time""
""blur"",""19"",""236261""
""blur"",""80"",""692084""
""blur"",""80"",""1169395""
","""event"",""trial"",""time""
""focus"",""19"",""279121""
""focus"",""80"",""1134057""
""focus"",""80"",""3715523""
","""event"",""trial"",""time""
""fullscreenenter"",""1"",""1608""
","""event"",""trial"",""time""
""fullscreenexit"",""2"",""3500""
","","","752.4000000953674","","","15","4115","2558","&#9733;","elianto","#3366ff99","-1"," ","0","0","[1608.1000000238419]","1","1","","","4115","2","2","2","win","no-go","0"
"pit-trial","126","4006170","0.0-6.0","battery-v0.2","","""event"",""trial"",""time""
""fullscreenenter"",""1"",""1608""
""fullscreenexit"",""2"",""3500""
""blur"",""19"",""236261""
""focus"",""19"",""279121""
""blur"",""80"",""692084""
""focus"",""80"",""1134057""
""blur"",""80"",""1169395""
""focus"",""80"",""3715523""
","""event"",""trial"",""time""
""blur"",""19"",""236261""
""blur"",""80"",""692084""
""blur"",""80"",""1169395""
","""event"",""trial"",""time""
""focus"",""19"",""279121""
""focus"",""80"",""1134057""
""focus"",""80"",""3715523""
","""event"",""trial"",""time""
""fullscreenenter"",""1"",""1608""
","""event"",""trial"",""time""
""fullscreenexit"",""2"",""3500""
","","","-1","","","15","4115","2558","&#9752;","elianto","#f73b6a7A"," ","-1","0","-10","[]","0","1","","","4115","3","3","3","lose","go","0"
"pit-trial","127","4011040","0.0-7.0","battery-v0.2","","""event"",""trial"",""time""
""fullscreenenter"",""1"",""1608""
""fullscreenexit"",""2"",""3500""
""blur"",""19"",""236261""
""focus"",""19"",""279121""
""blur"",""80"",""692084""
""focus"",""80"",""1134057""
""blur"",""80"",""1169395""
""focus"",""80"",""3715523""
","""event"",""trial"",""time""
""blur"",""19"",""236261""
""blur"",""80"",""692084""
""blur"",""80"",""1169395""
","""event"",""trial"",""time""
""focus"",""19"",""279121""
""focus"",""80"",""1134057""
""focus"",""80"",""3715523""
","""event"",""trial"",""time""
""fullscreenenter"",""1"",""1608""
","""event"",""trial"",""time""
""fullscreenexit"",""2"",""3500""
","","","-1","","","15","4115","2558","&#9728;","elianto","#f73b6a7A","-1","-1","1","0","[]","0","1","","","4115","4","0","4","lose","no-go","0"
"pit-trial","128","4015930","0.0-8.0","battery-v0.2","","""event"",""trial"",""time""
""fullscreenenter"",""1"",""1608""
""fullscreenexit"",""2"",""3500""
""blur"",""19"",""236261""
""focus"",""19"",""279121""
""blur"",""80"",""692084""
""focus"",""80"",""1134057""
""blur"",""80"",""1169395""
""focus"",""80"",""3715523""
","""event"",""trial"",""time""
""blur"",""19"",""236261""
""blur"",""80"",""692084""
""blur"",""80"",""1169395""
","""event"",""trial"",""time""
""focus"",""19"",""279121""
""focus"",""80"",""1134057""
""focus"",""80"",""3715523""
","""event"",""trial"",""time""
""fullscreenenter"",""1"",""1608""
","""event"",""trial"",""time""
""fullscreenexit"",""2"",""3500""
","","","-1","","","15","4115","2558","&#9728;","elianto","#f73b6a7A","-1","-1","1","0","[]","0","1","","","4115","5","0","4","lose","no-go","0"
"pit-trial","129","4019711","0.0-9.0","battery-v0.2","","""event"",""trial"",""time""
""fullscreenenter"",""1"",""1608""
""fullscreenexit"",""2"",""3500""
""blur"",""19"",""236261""
""focus"",""19"",""279121""
""blur"",""80"",""692084""
""focus"",""80"",""1134057""
""blur"",""80"",""1169395""
""focus"",""80"",""3715523""
","""event"",""trial"",""time""
""blur"",""19"",""236261""
""blur"",""80"",""692084""
""blur"",""80"",""1169395""
","""event"",""trial"",""time""
""focus"",""19"",""279121""
""focus"",""80"",""1134057""
""focus"",""80"",""3715523""
","""event"",""trial"",""time""
""fullscreenenter"",""1"",""1608""
","""event"",""trial"",""time""
""fullscreenexit"",""2"",""3500""
","","","905.3999999761581","","","15","4115","2558","&#9730;","elianto","#3366ff99"," "," ","1","+10","[1757.2000000476837]","1","1","","","4115","6","1","1","win","go","0"
"pit-trial","130","4024580","0.0-10.0","battery-v0.2","","""event"",""trial"",""time""
""fullscreenenter"",""1"",""1608""
""fullscreenexit"",""2"",""3500""
""blur"",""19"",""236261""
""focus"",""19"",""279121""
""blur"",""80"",""692084""
""focus"",""80"",""1134057""
""blur"",""80"",""1169395""
""focus"",""80"",""3715523""
","""event"",""trial"",""time""
""blur"",""19"",""236261""
""blur"",""80"",""692084""
""blur"",""80"",""1169395""
","""event"",""trial"",""time""
""focus"",""19"",""279121""
""focus"",""80"",""1134057""
""focus"",""80"",""3715523""
","""event"",""trial"",""time""
""fullscreenenter"",""1"",""1608""
","""event"",""trial"",""time""
""fullscreenexit"",""2"",""3500""
","","","-1","","","15","4115","2558","&#9752;","elianto","#f73b6a7A"," ","-1","0","0","[]","0","1","","","4115","7","3","3","lose","go","1"
"pit-trial","131","4029445","0.0-11.0","battery-v0.2","","""event"",""trial"",""time""
""fullscreenenter"",""1"",""1608""
""fullscreenexit"",""2"",""3500""
""blur"",""19"",""236261""
""focus"",""19"",""279121""
""blur"",""80"",""692084""
""focus"",""80"",""1134057""
""blur"",""80"",""1169395""
""focus"",""80"",""3715523""
","""event"",""trial"",""time""
""blur"",""19"",""236261""
""blur"",""80"",""692084""
""blur"",""80"",""1169395""
","""event"",""trial"",""time""
""focus"",""19"",""279121""
""focus"",""80"",""1134057""
""focus"",""80"",""3715523""
","""event"",""trial"",""time""
""fullscreenenter"",""1"",""1608""
","""event"",""trial"",""time""
""fullscreenexit"",""2"",""3500""
","","","-1","","","15","4115","2558","&#9733;","elianto","#3366ff99","-1","-1","1","+10","[2993.7000000476837]","1","1","","","4115","8","2","2","win","no-go","0"
"pit-trial","132","4032870","0.0-12.0","battery-v0.2","","""event"",""trial"",""time""
""fullscreenenter"",""1"",""1608""
""fullscreenexit"",""2"",""3500""
""blur"",""19"",""236261""
""focus"",""19"",""279121""
""blur"",""80"",""692084""
""focus"",""80"",""1134057""
""blur"",""80"",""1169395""
""focus"",""80"",""3715523""
","""event"",""trial"",""time""
""blur"",""19"",""236261""
""blur"",""80"",""692084""
""blur"",""80"",""1169395""
","""event"",""trial"",""time""
""focus"",""19"",""279121""
""focus"",""80"",""1134057""
""focus"",""80"",""3715523""
","""event"",""trial"",""time""
""fullscreenenter"",""1"",""1608""
","""event"",""trial"",""time""
""fullscreenexit"",""2"",""3500""
","","","566.5","","","15","4115","2558","&#9733;","elianto","#3366ff99","-1"," ","0","0","[1419.1000000238419]","1","1","","","4115","9","2","2","win","no-go","0"
"pit-trial","133","4037735","0.0-13.0","battery-v0.2","","""event"",""trial"",""time""
""fullscreenenter"",""1"",""1608""
""fullscreenexit"",""2"",""3500""
""blur"",""19"",""236261""
""focus"",""19"",""279121""
""blur"",""80"",""692084""
""focus"",""80"",""1134057""
""blur"",""80"",""1169395""
""focus"",""80"",""3715523""
","""event"",""trial"",""time""
""blur"",""19"",""236261""
""blur"",""80"",""692084""
""blur"",""80"",""1169395""
","""event"",""trial"",""time""
""focus"",""19"",""279121""
""focus"",""80"",""1134057""
""focus"",""80"",""3715523""
","""event"",""trial"",""time""
""fullscreenenter"",""1"",""1608""
","""event"",""trial"",""time""
""fullscreenexit"",""2"",""3500""
","","","-1","","","15","4115","2558","&#9752;","elianto","#f73b6a7A"," ","-1","0","-10","[]","0","1","","","4115","10","3","3","lose","go","0"
"pit-trial","134","4041678","0.0-14.0","battery-v0.2","","""event"",""trial"",""time""
""fullscreenenter"",""1"",""1608""
""fullscreenexit"",""2"",""3500""
""blur"",""19"",""236261""
""focus"",""19"",""279121""
""blur"",""80"",""692084""
""focus"",""80"",""1134057""
""blur"",""80"",""1169395""
""focus"",""80"",""3715523""
","""event"",""trial"",""time""
""blur"",""19"",""236261""
""blur"",""80"",""692084""
""blur"",""80"",""1169395""
","""event"",""trial"",""time""
""focus"",""19"",""279121""
""focus"",""80"",""1134057""
""focus"",""80"",""3715523""
","""event"",""trial"",""time""
""fullscreenenter"",""1"",""1608""
","""event"",""trial"",""time""
""fullscreenexit"",""2"",""3500""
","","","1087","","","15","4115","2558","&#9730;","elianto","#3366ff99"," "," ","1","0","[1938.7999999523163]","1","1","","","4115","11","1","1","win","go","1"
"pit-trial","135","4046550","0.0-15.0","battery-v0.2","","""event"",""trial"",""time""
""fullscreenenter"",""1"",""1608""
""fullscreenexit"",""2"",""3500""
""blur"",""19"",""236261""
""focus"",""19"",""279121""
""blur"",""80"",""692084""
""focus"",""80"",""1134057""
""blur"",""80"",""1169395""
""focus"",""80"",""3715523""
","""event"",""trial"",""time""
""blur"",""19"",""236261""
""blur"",""80"",""692084""
""blur"",""80"",""1169395""
","""event"",""trial"",""time""
""focus"",""19"",""279121""
""focus"",""80"",""1134057""
""focus"",""80"",""3715523""
","""event"",""trial"",""time""
""fullscreenenter"",""1"",""1608""
","""event"",""trial"",""time""
""fullscreenexit"",""2"",""3500""
","","","-1","","","15","4115","2558","&#9728;","elianto","#f73b6a7A","-1","-1","1","-10","[]","0","1","","","4115","12","0","4","lose","no-go","1"
"pit-trial","136","4051414","0.0-16.0","battery-v0.2","","""event"",""trial"",""time""
""fullscreenenter"",""1"",""1608""
""fullscreenexit"",""2"",""3500""
""blur"",""19"",""236261""
""focus"",""19"",""279121""
""blur"",""80"",""692084""
""focus"",""80"",""1134057""
""blur"",""80"",""1169395""
""focus"",""80"",""3715523""
","""event"",""trial"",""time""
""blur"",""19"",""236261""
""blur"",""80"",""692084""
""blur"",""80"",""1169395""
","""event"",""trial"",""time""
""focus"",""19"",""279121""
""focus"",""80"",""1134057""
""focus"",""80"",""3715523""
","""event"",""trial"",""time""
""fullscreenenter"",""1"",""1608""
","""event"",""trial"",""time""
""fullscreenexit"",""2"",""3500""
","","","-1","","","15","4115","2558","&#9728;","elianto","#f73b6a7A","-1","-1","1","-10","[]","0","1","","","4115","13","0","4","lose","no-go","1"
"pit-trial","137","4054910","0.0-17.0","battery-v0.2","","""event"",""trial"",""time""
""fullscreenenter"",""1"",""1608""
""fullscreenexit"",""2"",""3500""
""blur"",""19"",""236261""
""focus"",""19"",""279121""
""blur"",""80"",""692084""
""focus"",""80"",""1134057""
""blur"",""80"",""1169395""
""focus"",""80"",""3715523""
","""event"",""trial"",""time""
""blur"",""19"",""236261""
""blur"",""80"",""692084""
""blur"",""80"",""1169395""
","""event"",""trial"",""time""
""focus"",""19"",""279121""
""focus"",""80"",""1134057""
""focus"",""80"",""3715523""
","""event"",""trial"",""time""
""fullscreenenter"",""1"",""1608""
