"trial_type","trial_index","time_elapsed","internal_node_id","task_version","subject_id","interactions","blur_events","focus_events","fullscreenenter_events","fullscreenexit_events","success","view_history","rt","responses","num_errors","age","subject","participantId","rune","rune_set","hex","correct","choice","accuracy","outcome","keys","total_keys","block","practice","value","sub","trial","stimulus","robot","valence","action","sham"
"pavlovia","0","6","0.0-0.0","battery-v0.2","","""event"",""trial"",""time""
""fullscreenenter"",""1"",""3211""
","
","
","""event"",""trial"",""time""
""fullscreenenter"",""1"",""3211""
","
","","","","","","","","","","","","","","","","","","","","","","","","","","",""
"fullscreen","1","4193","0.0-1.0","battery-v0.2","","""event"",""trial"",""time""
""fullscreenenter"",""1"",""3211""
""blur"",""2"",""8717""
""focus"",""2"",""13137""
","""event"",""trial"",""time""
""blur"",""2"",""8717""
","""event"",""trial"",""time""
""focus"",""2"",""13137""
","""event"",""trial"",""time""
""fullscreenenter"",""1"",""3211""
","
","true","","","","","","","","","","","","","","","","","","","","","","","","","",""
"pit-instructions","2","18020","0.0-2.0-0.0","battery-v0.2","","""event"",""trial"",""time""
""fullscreenenter"",""1"",""3211""
""blur"",""2"",""8717""
""focus"",""2"",""13137""
","""event"",""trial"",""time""
""blur"",""2"",""8717""
","""event"",""trial"",""time""
""focus"",""2"",""13137""
","""event"",""trial"",""time""
""fullscreenenter"",""1"",""3211""
","
","","[{""page_index"":0,""viewing_time"":13820.39999999851}]","13821.5","","","","","","","","","","","","","","","","","","","","","","","",""
"pit-comprehension","3","20951","0.0-2.0-1.0-0.0","battery-v0.2","","""event"",""trial"",""time""
""fullscreenenter"",""1"",""3211""
""blur"",""2"",""8717""
""focus"",""2"",""13137""
","""event"",""trial"",""time""
""blur"",""2"",""8717""
","""event"",""trial"",""time""
""focus"",""2"",""13137""
","""event"",""trial"",""time""
""fullscreenenter"",""1"",""3211""
","
","","","2927.7000000029802","[""shark""]","0","20","9990","3793","","","","","","","","","","","","","","","","","","",""
"pit-instructions","4","22119","0.0-2.0-1.0-1.0","battery-v0.2","","""event"",""trial"",""time""
""fullscreenenter"",""1"",""3211""
""blur"",""2"",""8717""
""focus"",""2"",""13137""
","""event"",""trial"",""time""
""blur"",""2"",""8717""
","""event"",""trial"",""time""
""focus"",""2"",""13137""
","""event"",""trial"",""time""
""fullscreenenter"",""1"",""3211""
","
","","[{""page_index"":0,""viewing_time"":1158.1000000014901}]","1159","","","","","","","","","","","","","","","","","","","","","","","",""
"pit-comprehension","5","25201","0.0-2.0-2.0-0.0","battery-v0.2","","""event"",""trial"",""time""
""fullscreenenter"",""1"",""3211""
""blur"",""2"",""8717""
""focus"",""2"",""13137""
","""event"",""trial"",""time""
""blur"",""2"",""8717""
","""event"",""trial"",""time""
""focus"",""2"",""13137""
","""event"",""trial"",""time""
""fullscreenenter"",""1"",""3211""
","
","","","3077.60000000149","[""tiger""]","0","20","9990","3793","","","","","","","","","","","","","","","","","","",""
"pit-instructions","6","26351","0.0-2.0-2.0-1.0","battery-v0.2","","""event"",""trial"",""time""
""fullscreenenter"",""1"",""3211""
""blur"",""2"",""8717""
""focus"",""2"",""13137""
","""event"",""trial"",""time""
""blur"",""2"",""8717""
","""event"",""trial"",""time""
""focus"",""2"",""13137""
","""event"",""trial"",""time""
""fullscreenenter"",""1"",""3211""
","
","","[{""page_index"":0,""viewing_time"":1147}]","1147.6000000014901","","","","","","","","","","","","","","","","","","","","","","","",""
"pit-instructions","7","130495","0.0-2.0-3.0","battery-v0.2","","""event"",""trial"",""time""
""fullscreenenter"",""1"",""3211""
""blur"",""2"",""8717""
""focus"",""2"",""13137""
","""event"",""trial"",""time""
""blur"",""2"",""8717""
","""event"",""trial"",""time""
""focus"",""2"",""13137""
","""event"",""trial"",""time""
""fullscreenenter"",""1"",""3211""
","
","","[{""page_index"":0,""viewing_time"":9797.89999999851},{""page_index"":1,""viewing_time"":6450},{""page_index"":2,""viewing_time"":7949.4000000059605},{""page_index"":3,""viewing_time"":7183.5},{""page_index"":4,""viewing_time"":6183.89999999851},{""page_index"":5,""viewing_time"":6999.69999999553},{""page_index"":6,""viewing_time"":7183.80000000447},{""page_index"":7,""viewing_time"":7549.89999999851},{""page_index"":8,""viewing_time"":7117.29999999702},{""page_index"":9,""viewing_time"":7783.20000000298},{""page_index"":10,""viewing_time"":8864.5},{""page_index"":11,""viewing_time"":9213.79999999702},{""page_index"":12,""viewing_time"":6508.70000000298},{""page_index"":13,""viewing_time"":5358.29999999702}]","104144.70000000298","","","","","","","","","","","","","","","","","","","","","","","",""
"pit-trial","8","134047","0.0-2.0-4.0-0.0","battery-v0.2","","""event"",""trial"",""time""
""fullscreenenter"",""1"",""3211""
""blur"",""2"",""8717""
""focus"",""2"",""13137""
","""event"",""trial"",""time""
""blur"",""2"",""8717""
","""event"",""trial"",""time""
""focus"",""2"",""13137""
","""event"",""trial"",""time""
""fullscreenenter"",""1"",""3211""
","
","","","680.4000000059605","","","20","9990","3793","&#9784;","elianto","#FFFFF080"," "," ","1","&#10004","[1539.8999999985099]","1","0","0","","","","","","","",""
"pit-trial","9","137551","0.0-2.0-4.1-0.1","battery-v0.2","","""event"",""trial"",""time""
""fullscreenenter"",""1"",""3211""
""blur"",""2"",""8717""
""focus"",""2"",""13137""
","""event"",""trial"",""time""
""blur"",""2"",""8717""
","""event"",""trial"",""time""
""focus"",""2"",""13137""
","""event"",""trial"",""time""
""fullscreenenter"",""1"",""3211""
","
","","","635.5","","","20","9990","3793","&#9784;","elianto","#FFFFF080"," "," ","1","&#10004","[1495.3999999985099]","1","0","0","","","","","","","",""
"pit-trial","10","140934","0.0-2.0-4.2-0.2","battery-v0.2","","""event"",""trial"",""time""
""fullscreenenter"",""1"",""3211""
""blur"",""2"",""8717""
""focus"",""2"",""13137""
","""event"",""trial"",""time""
""blur"",""2"",""8717""
","""event"",""trial"",""time""
""focus"",""2"",""13137""
","""event"",""trial"",""time""
""fullscreenenter"",""1"",""3211""
","
","","","516.7000000029802","","","20","9990","3793","&#9784;","elianto","#FFFFF080"," "," ","1","&#10004","[1373.2000000029802]","1","0","0","","","","","","","",""
"pit-trial","11","144214","0.0-2.0-4.3-0.3","battery-v0.2","","""event"",""trial"",""time""
""fullscreenenter"",""1"",""3211""
""blur"",""2"",""8717""
""focus"",""2"",""13137""
","""event"",""trial"",""time""
""blur"",""2"",""8717""
","""event"",""trial"",""time""
""focus"",""2"",""13137""
","""event"",""trial"",""time""
""fullscreenenter"",""1"",""3211""
","
","","","419.3999999985099","","","20","9990","3793","&#9784;","elianto","#FFFFF080"," "," ","1","&#10004","[1274.8999999985099]","1","0","0","","","","","","","",""
"pit-trial","12","147526","0.0-2.0-4.4-0.4","battery-v0.2","","""event"",""trial"",""time""
""fullscreenenter"",""1"",""3211""
""blur"",""2"",""8717""
""focus"",""2"",""13137""
","""event"",""trial"",""time""
""blur"",""2"",""8717""
","""event"",""trial"",""time""
""focus"",""2"",""13137""
","""event"",""trial"",""time""
""fullscreenenter"",""1"",""3211""
","
","","","453.5","","","20","9990","3793","&#9784;","elianto","#FFFFF080"," "," ","1","&#10004","[1305.6999999955297]","1","0","0","","","","","","","",""
"pit-instructions","13","169994","0.0-2.0-5.0","battery-v0.2","","""event"",""trial"",""time""
""fullscreenenter"",""1"",""3211""
""blur"",""2"",""8717""
""focus"",""2"",""13137""
","""event"",""trial"",""time""
""blur"",""2"",""8717""
","""event"",""trial"",""time""
""focus"",""2"",""13137""
","""event"",""trial"",""time""
""fullscreenenter"",""1"",""3211""
","
","","[{""page_index"":0,""viewing_time"":5268.10000000149},{""page_index"":1,""viewing_time"":5750.39999999851},{""page_index"":2,""viewing_time"":5791.70000000298},{""page_index"":3,""viewing_time"":5653.29999999702}]","22464.39999999851","","","","","","","","","","","","","","","","","","","","","","","",""
"pit-trial","14","174862","0.0-2.0-6.0-0.0","battery-v0.2","","""event"",""trial"",""time""
""fullscreenenter"",""1"",""3211""
""blur"",""2"",""8717""
""focus"",""2"",""13137""
","""event"",""trial"",""time""
""blur"",""2"",""8717""
","""event"",""trial"",""time""
""focus"",""2"",""13137""
","""event"",""trial"",""time""
""fullscreenenter"",""1"",""3211""
","
","","","-1","","","20","9990","3793","&#9854;","elianto","#FFFFF080","-1","-1","1","&#10004","[]","0","0","1","","","","","","","",""
"pit-trial","15","179725","0.0-2.0-6.1-0.1","battery-v0.2","","""event"",""trial"",""time""
""fullscreenenter"",""1"",""3211""
""blur"",""2"",""8717""
""focus"",""2"",""13137""
","""event"",""trial"",""time""
""blur"",""2"",""8717""
","""event"",""trial"",""time""
""focus"",""2"",""13137""
","""event"",""trial"",""time""
""fullscreenenter"",""1"",""3211""
","
","","","-1","","","20","9990","3793","&#9854;","elianto","#FFFFF080","-1","-1","1","&#10004","[]","0","0","1","","","","","","","",""
"pit-trial","16","184589","0.0-2.0-6.2-0.2","battery-v0.2","","""event"",""trial"",""time""
""fullscreenenter"",""1"",""3211""
""blur"",""2"",""8717""
""focus"",""2"",""13137""
","""event"",""trial"",""time""
""blur"",""2"",""8717""
","""event"",""trial"",""time""
""focus"",""2"",""13137""
","""event"",""trial"",""time""
""fullscreenenter"",""1"",""3211""
","
","","","-1","","","20","9990","3793","&#9854;","elianto","#FFFFF080","-1","-1","1","&#10004","[]","0","0","1","","","","","","","",""
"pit-trial","17","189452","0.0-2.0-6.3-0.3","battery-v0.2","","""event"",""trial"",""time""
""fullscreenenter"",""1"",""3211""
""blur"",""2"",""8717""
""focus"",""2"",""13137""
","""event"",""trial"",""time""
""blur"",""2"",""8717""
","""event"",""trial"",""time""
""focus"",""2"",""13137""
","""event"",""trial"",""time""
""fullscreenenter"",""1"",""3211""
","
","","","-1","","","20","9990","3793","&#9854;","elianto","#FFFFF080","-1","-1","1","&#10004","[]","0","0","1","","","","","","","",""
"pit-trial","18","194317","0.0-2.0-6.4-0.4","battery-v0.2","","""event"",""trial"",""time""
""fullscreenenter"",""1"",""3211""
""blur"",""2"",""8717""
""focus"",""2"",""13137""
","""event"",""trial"",""time""
""blur"",""2"",""8717""
","""event"",""trial"",""time""
""focus"",""2"",""13137""
","""event"",""trial"",""time""
""fullscreenenter"",""1"",""3211""
","
","","","-1","","","20","9990","3793","&#9854;","elianto","#FFFFF080","-1","-1","1","&#10004","[]","0","0","1","","","","","","","",""
"pit-instructions","19","314931","0.0-2.0-7.0","battery-v0.2","","""event"",""trial"",""time""
""fullscreenenter"",""1"",""3211""
""blur"",""2"",""8717""
""focus"",""2"",""13137""
","""event"",""trial"",""time""
""blur"",""2"",""8717""
","""event"",""trial"",""time""
""focus"",""2"",""13137""
","""event"",""trial"",""time""
""fullscreenenter"",""1"",""3211""
","
","","[{""page_index"":0,""viewing_time"":6576.30000000447},{""page_index"":1,""viewing_time"":7616.39999999851},{""page_index"":2,""viewing_time"":6524.69999999553},{""page_index"":3,""viewing_time"":6825.10000000149},{""page_index"":4,""viewing_time"":6516.89999999851},{""page_index"":5,""viewing_time"":6167.30000000447},{""page_index"":6,""viewing_time"":4432.60000000149},{""page_index"":7,""viewing_time"":7917.69999999553},{""page_index"":8,""viewing_time"":6516.39999999851},{""page_index"":9,""viewing_time"":6283.5},{""page_index"":10,""viewing_time"":6234.80000000447},{""page_index"":11,""viewing_time"":5948.69999999553},{""page_index"":12,""viewing_time"":7116.9000000059605},{""page_index"":13,""viewing_time"":7800.69999999553},{""page_index"":14,""viewing_time"":8099.39999999851},{""page_index"":15,""viewing_time"":6049.70000000298},{""page_index"":16,""viewing_time"":6483.79999999702},{""page_index"":17,""viewing_time"":7500.10000000149}]","120611.80000000447","","","","","","","","","","","","","","","","","","","","","","","",""
"pit-trial","20","318347","0.0-2.0-8.0-0.0","battery-v0.2","","""event"",""trial"",""time""
""fullscreenenter"",""1"",""3211""
""blur"",""2"",""8717""
""focus"",""2"",""13137""
","""event"",""trial"",""time""
""blur"",""2"",""8717""
","""event"",""trial"",""time""
""focus"",""2"",""13137""
","""event"",""trial"",""time""
""fullscreenenter"",""1"",""3211""
","
","","","556.2999999970198","","","20","9990","3793","&#9776;","elianto","#3366ff99"," "," ","1","+10","[1408.8000000044703]","1","0","1","","","","","","","",""
"pit-trial","21","321738","0.0-2.0-8.0-1.0","battery-v0.2","","""event"",""trial"",""time""
""fullscreenenter"",""1"",""3211""
""blur"",""2"",""8717""
""focus"",""2"",""13137""
","""event"",""trial"",""time""
""blur"",""2"",""8717""
","""event"",""trial"",""time""
""focus"",""2"",""13137""
","""event"",""trial"",""time""
""fullscreenenter"",""1"",""3211""
","
","","","529","","","20","9990","3793","&#9776;","elianto","#3366ff99"," "," ","1","+10","[1381.3999999985099]","1","0","1","","","","","","","",""
"pit-trial","22","325073","0.0-2.0-8.0-2.0","battery-v0.2","","""event"",""trial"",""time""
""fullscreenenter"",""1"",""3211""
""blur"",""2"",""8717""
""focus"",""2"",""13137""
","""event"",""trial"",""time""
""blur"",""2"",""8717""
","""event"",""trial"",""time""
""focus"",""2"",""13137""
","""event"",""trial"",""time""
""fullscreenenter"",""1"",""3211""
","
","","","474.80000000447035","","","20","9990","3793","&#9776;","elianto","#3366ff99"," "," ","1","+10","[1325.8000000044703]","1","0","1","","","","","","","",""
"pit-trial","23","328346","0.0-2.0-8.0-3.0","battery-v0.2","","""event"",""trial"",""time""
""fullscreenenter"",""1"",""3211""
""blur"",""2"",""8717""
""focus"",""2"",""13137""
","""event"",""trial"",""time""
""blur"",""2"",""8717""
","""event"",""trial"",""time""
""focus"",""2"",""13137""
","""event"",""trial"",""time""
""fullscreenenter"",""1"",""3211""
","
","","","408","","","20","9990","3793","&#9776;","elianto","#3366ff99"," "," ","1","0","[1261.2000000029802]","1","0","1","","","","","","","",""
"pit-trial","24","331705","0.0-2.0-8.0-4.0","battery-v0.2","","""event"",""trial"",""time""
""fullscreenenter"",""1"",""3211""
""blur"",""2"",""8717""
""focus"",""2"",""13137""
","""event"",""trial"",""time""
""blur"",""2"",""8717""
","""event"",""trial"",""time""
""focus"",""2"",""13137""
","""event"",""trial"",""time""
""fullscreenenter"",""1"",""3211""
","
","","","501.29999999701977","","","20","9990","3793","&#9776;","elianto","#3366ff99"," "," ","1","+10","[1354.6999999955297]","1","0","1","","","","","","","",""
"pit-trial","25","335050","0.0-2.0-8.1-0.1","battery-v0.2","","""event"",""trial"",""time""
""fullscreenenter"",""1"",""3211""
""blur"",""2"",""8717""
""focus"",""2"",""13137""
","""event"",""trial"",""time""
""blur"",""2"",""8717""
","""event"",""trial"",""time""
""focus"",""2"",""13137""
","""event"",""trial"",""time""
""fullscreenenter"",""1"",""3211""
","
","","","482.6000000014901","","","20","9990","3793","&#9776;","elianto","#3366ff99"," "," ","1","+10","[1332.6999999955297]","1","0","1","","","","","","","",""
"pit-trial","26","338354","0.0-2.0-8.1-1.1","battery-v0.2","","""event"",""trial"",""time""
""fullscreenenter"",""1"",""3211""
""blur"",""2"",""8717""
""focus"",""2"",""13137""
","""event"",""trial"",""time""
""blur"",""2"",""8717""
","""event"",""trial"",""time""
""focus"",""2"",""13137""
","""event"",""trial"",""time""
""fullscreenenter"",""1"",""3211""
","
","","","441","","","20","9990","3793","&#9776;","elianto","#3366ff99"," "," ","1","+10","[1293.2000000029802]","1","0","1","","","","","","","",""
"pit-trial","27","341442","0.0-2.0-8.1-2.1","battery-v0.2","","""event"",""trial"",""time""
""fullscreenenter"",""1"",""3211""
""blur"",""2"",""8717""
""focus"",""2"",""13137""
","""event"",""trial"",""time""
""blur"",""2"",""8717""
","""event"",""trial"",""time""
""focus"",""2"",""13137""
","""event"",""trial"",""time""
""fullscreenenter"",""1"",""3211""
","
","","","227","","","20","9990","3793","&#9776;","elianto","#3366ff99"," "," ","1","+10","[1078.2999999970198]","1","0","1","","","","","","","",""
"pit-trial","28","344754","0.0-2.0-8.1-3.1","battery-v0.2","","""event"",""trial"",""time""
""fullscreenenter"",""1"",""3211""
""blur"",""2"",""8717""
""focus"",""2"",""13137""
","""event"",""trial"",""time""
""blur"",""2"",""8717""
","""event"",""trial"",""time""
""focus"",""2"",""13137""
","""event"",""trial"",""time""
""fullscreenenter"",""1"",""3211""
","
","","","448.09999999403954","","","20","9990","3793","&#9776;","elianto","#3366ff99"," "," ","1","0","[1299.2000000029802]","1","0","1","","","","","","","",""
"pit-trial","29","348145","0.0-2.0-8.1-4.1","battery-v0.2","","""event"",""trial"",""time""
""fullscreenenter"",""1"",""3211""
""blur"",""2"",""8717""
""focus"",""2"",""13137""
","""event"",""trial"",""time""
""blur"",""2"",""8717""
","""event"",""trial"",""time""
""focus"",""2"",""13137""
","""event"",""trial"",""time""
""fullscreenenter"",""1"",""3211""
","
","","","526.8999999985099","","","20","9990","3793","&#9776;","elianto","#3366ff99"," "," ","1","+10","[1378.7000000029802]","1","0","1","","","","","","","",""
"pit-trial","30","351561","0.0-2.0-8.2-0.2","battery-v0.2","","""event"",""trial"",""time""
""fullscreenenter"",""1"",""3211""
""blur"",""2"",""8717""
""focus"",""2"",""13137""
","""event"",""trial"",""time""
""blur"",""2"",""8717""
","""event"",""trial"",""time""
""focus"",""2"",""13137""
","""event"",""trial"",""time""
""fullscreenenter"",""1"",""3211""
","
","","","558.7999999970198","","","20","9990","3793","&#9776;","elianto","#3366ff99"," "," ","1","+10","[1410.8999999985099]","1","0","1","","","","","","","",""
"pit-trial","31","354929","0.0-2.0-8.2-1.2","battery-v0.2","","""event"",""trial"",""time""
""fullscreenenter"",""1"",""3211""
""blur"",""2"",""8717""
""focus"",""2"",""13137""
","""event"",""trial"",""time""
""blur"",""2"",""8717""
","""event"",""trial"",""time""
""focus"",""2"",""13137""
","""event"",""trial"",""time""
""fullscreenenter"",""1"",""3211""
","
","","","504","","","20","9990","3793","&#9776;","elianto","#3366ff99"," "," ","1","+10","[1356.2000000029802]","1","0","1","","","","","","","",""
"pit-trial","32","358234","0.0-2.0-8.2-2.2","battery-v0.2","","""event"",""trial"",""time""
""fullscreenenter"",""1"",""3211""
""blur"",""2"",""8717""
""focus"",""2"",""13137""
","""event"",""trial"",""time""
""blur"",""2"",""8717""
","""event"",""trial"",""time""
""focus"",""2"",""13137""
","""event"",""trial"",""time""
""fullscreenenter"",""1"",""3211""
","
","","","444.5","","","20","9990","3793","&#9776;","elianto","#3366ff99"," "," ","1","+10","[1297.3999999985099]","1","0","1","","","","","","","",""
"pit-trial","33","361849","0.0-2.0-8.2-3.2","battery-v0.2","","""event"",""trial"",""time""
""fullscreenenter"",""1"",""3211""
""blur"",""2"",""8717""
""focus"",""2"",""13137""
","""event"",""trial"",""time""
""blur"",""2"",""8717""
","""event"",""trial"",""time""
""focus"",""2"",""13137""
","""event"",""trial"",""time""
""fullscreenenter"",""1"",""3211""
","
","","","754.5","","","20","9990","3793","&#9776;","elianto","#3366ff99"," "," ","1","0","[1607.5999999940395]","1","0","1","","","","","","","",""
"pit-trial","34","365289","0.0-2.0-8.2-4.2","battery-v0.2","","""event"",""trial"",""time""
""fullscreenenter"",""1"",""3211""
""blur"",""2"",""8717""
""focus"",""2"",""13137""
","""event"",""trial"",""time""
""blur"",""2"",""8717""
","""event"",""trial"",""time""
""focus"",""2"",""13137""
","""event"",""trial"",""time""
""fullscreenenter"",""1"",""3211""
","
","","","574.1999999955297","","","20","9990","3793","&#9776;","elianto","#3366ff99"," "," ","1","+10","[1428.5]","1","0","1","","","","","","","",""
"call-function","35","365292","0.0-2.0-9.0","battery-v0.2","","""event"",""trial"",""time""
""fullscreenenter"",""1"",""3211""
""blur"",""2"",""8717""
""focus"",""2"",""13137""
","""event"",""trial"",""time""
""blur"",""2"",""8717""
","""event"",""trial"",""time""
""focus"",""2"",""13137""
","""event"",""trial"",""time""
""fullscreenenter"",""1"",""3211""
","
","","","","","","","","","","","","","","","","","","","","","","","","","","",""
"pit-instructions","36","405545","0.0-2.0-10.0","battery-v0.2","","""event"",""trial"",""time""
""fullscreenenter"",""1"",""3211""
""blur"",""2"",""8717""
""focus"",""2"",""13137""
","""event"",""trial"",""time""
""blur"",""2"",""8717""
","""event"",""trial"",""time""
""focus"",""2"",""13137""
","""event"",""trial"",""time""
""fullscreenenter"",""1"",""3211""
","
","","[{""page_index"":0,""viewing_time"":5802.10000000149},{""page_index"":1,""viewing_time"":7766.5999999940395},{""page_index"":2,""viewing_time"":9916.60000000149},{""page_index"":3,""viewing_time"":8866.89999999851},{""page_index"":4,""viewing_time"":7900.10000000149}]","40252.89999999851","","","","","","","","","","","","","","","","","","","","","","","",""
"pit-trial","37","408968","0.0-2.0-11.0-0.0","battery-v0.2","","""event"",""trial"",""time""
""fullscreenenter"",""1"",""3211""
""blur"",""2"",""8717""
""focus"",""2"",""13137""
","""event"",""trial"",""time""
""blur"",""2"",""8717""
","""event"",""trial"",""time""
""focus"",""2"",""13137""
","""event"",""trial"",""time""
""fullscreenenter"",""1"",""3211""
","
","","","561.8999999985099","","","20","9990","3793","&#9761;","elianto","#3366ff99","-1"," ","0","0","[1414]","1","0","2","","","","","","","",""
"pit-trial","38","412304","0.0-2.0-11.0-1.0","battery-v0.2","","""event"",""trial"",""time""
""fullscreenenter"",""1"",""3211""
""blur"",""2"",""8717""
""focus"",""2"",""13137""
","""event"",""trial"",""time""
""blur"",""2"",""8717""
","""event"",""trial"",""time""
""focus"",""2"",""13137""
","""event"",""trial"",""time""
""fullscreenenter"",""1"",""3211""
","
","","","474.3999999985099","","","20","9990","3793","&#9761;","elianto","#3366ff99","-1"," ","0","0","[1326.7000000029802]","1","0","2","","","","","","","",""
"pit-trial","39","415600","0.0-2.0-11.0-2.0","battery-v0.2","","""event"",""trial"",""time""
""fullscreenenter"",""1"",""3211""
""blur"",""2"",""8717""
""focus"",""2"",""13137""
","""event"",""trial"",""time""
""blur"",""2"",""8717""
","""event"",""trial"",""time""
""focus"",""2"",""13137""
","""event"",""trial"",""time""
""fullscreenenter"",""1"",""3211""
","
","","","434.8999999985099","","","20","9990","3793","&#9761;","elianto","#3366ff99","-1"," ","0","0","[1285.6000000014901]","1","0","2","","","","","","","",""
"pit-trial","40","418896","0.0-2.0-11.0-3.0","battery-v0.2","","""event"",""trial"",""time""
""fullscreenenter"",""1"",""3211""
""blur"",""2"",""8717""
""focus"",""2"",""13137""
","""event"",""trial"",""time""
""blur"",""2"",""8717""
","""event"",""trial"",""time""
""focus"",""2"",""13137""
","""event"",""trial"",""time""
""fullscreenenter"",""1"",""3211""
","
","","","431.6000000014901","","","20","9990","3793","&#9761;","elianto","#3366ff99","-1"," ","0","+10","[1285.2000000029802]","1","0","2","","","","","","","",""
"pit-trial","41","422239","0.0-2.0-11.0-4.0","battery-v0.2","","""event"",""trial"",""time""
""fullscreenenter"",""1"",""3211""
""blur"",""2"",""8717""
""focus"",""2"",""13137""
","""event"",""trial"",""time""
""blur"",""2"",""8717""
","""event"",""trial"",""time""
""focus"",""2"",""13137""
","""event"",""trial"",""time""
""fullscreenenter"",""1"",""3211""
","
","","","479.8999999985099","","","20","9990","3793","&#9761;","elianto","#3366ff99","-1"," ","0","0","[1331.1000000014901]","1","0","2","","","","","","","",""
"pit-trial","42","425584","0.0-2.0-11.1-0.1","battery-v0.2","","""event"",""trial"",""time""
""fullscreenenter"",""1"",""3211""
""blur"",""2"",""8717""
""focus"",""2"",""13137""
","""event"",""trial"",""time""
""blur"",""2"",""8717""
","""event"",""trial"",""time""
""focus"",""2"",""13137""
","""event"",""trial"",""time""
""fullscreenenter"",""1"",""3211""
","
","","","481.8999999985099","","","20","9990","3793","&#9761;","elianto","#3366ff99","-1"," ","0","0","[1333.7000000029802]","1","0","2","","","","","","","",""
"pit-trial","43","428799","0.0-2.0-11.1-1.1","battery-v0.2","","""event"",""trial"",""time""
""fullscreenenter"",""1"",""3211""
""blur"",""2"",""8717""
""focus"",""2"",""13137""
","""event"",""trial"",""time""
""blur"",""2"",""8717""
","""event"",""trial"",""time""
""focus"",""2"",""13137""
","""event"",""trial"",""time""
""fullscreenenter"",""1"",""3211""
","
","","","354.90000000596046","","","20","9990","3793","&#9761;","elianto","#3366ff99","-1"," ","0","0","[1206.8999999985099]","1","0","2","","","","","","","",""
"pit-trial","44","432199","0.0-2.0-11.1-2.1","battery-v0.2","","""event"",""trial"",""time""
""fullscreenenter"",""1"",""3211""
""blur"",""2"",""8717""
""focus"",""2"",""13137""
","""event"",""trial"",""time""
""blur"",""2"",""8717""
","""event"",""trial"",""time""
""focus"",""2"",""13137""
","""event"",""trial"",""time""
""fullscreenenter"",""1"",""3211""
","
","","","534.7999999970198","","","20","9990","3793","&#9761;","elianto","#3366ff99","-1"," ","0","0","[1387.3999999985099]","1","0","2","","","","","","","",""
"pit-trial","45","435311","0.0-2.0-11.1-3.1","battery-v0.2","","""event"",""trial"",""time""
""fullscreenenter"",""1"",""3211""
""blur"",""2"",""8717""
""focus"",""2"",""13137""
","""event"",""trial"",""time""
""blur"",""2"",""8717""
","""event"",""trial"",""time""
""focus"",""2"",""13137""
","""event"",""trial"",""time""
""fullscreenenter"",""1"",""3211""
","
","","","246.10000000149012","","","20","9990","3793","&#9761;","elianto","#3366ff99","-1"," ","0","+10","[1100]","1","0","2","","","","","","","",""
"pit-trial","46","438632","0.0-2.0-11.1-4.1","battery-v0.2","","""event"",""trial"",""time""
""fullscreenenter"",""1"",""3211""
""blur"",""2"",""8717""
""focus"",""2"",""13137""
","""event"",""trial"",""time""
""blur"",""2"",""8717""
","""event"",""trial"",""time""
""focus"",""2"",""13137""
","""event"",""trial"",""time""
""fullscreenenter"",""1"",""3211""
","
","","","461.3999999985099","","","20","9990","3793","&#9761;","elianto","#3366ff99","-1"," ","0","0","[1314]","1","0","2","","","","","","","",""
"pit-trial","47","441767","0.0-2.0-11.2-0.2","battery-v0.2","","""event"",""trial"",""time""
""fullscreenenter"",""1"",""3211""
""blur"",""2"",""8717""
""focus"",""2"",""13137""
","""event"",""trial"",""time""
""blur"",""2"",""8717""
","""event"",""trial"",""time""
""focus"",""2"",""13137""
","""event"",""trial"",""time""
""fullscreenenter"",""1"",""3211""
","
","","","269.5","","","20","9990","3793","&#9761;","elianto","#3366ff99","-1"," ","0","0","[1125.0999999940395]","1","0","2","","","","","","","",""
"pit-trial","48","445022","0.0-2.0-11.2-1.2","battery-v0.2","","""event"",""trial"",""time""
""fullscreenenter"",""1"",""3211""
""blur"",""2"",""8717""
""focus"",""2"",""13137""
","""event"",""trial"",""time""
""blur"",""2"",""8717""
","""event"",""trial"",""time""
""focus"",""2"",""13137""
","""event"",""trial"",""time""
""fullscreenenter"",""1"",""3211""
","
","","","392.8999999985099","","","20","9990","3793","&#9761;","elianto","#3366ff99","-1"," ","0","0","[1245.2999999970198]","1","0","2","","","","","","","",""
"pit-trial","49","448399","0.0-2.0-11.2-2.2","battery-v0.2","","""event"",""trial"",""time""
""fullscreenenter"",""1"",""3211""
""blur"",""2"",""8717""
""focus"",""2"",""13137""
","""event"",""trial"",""time""
""blur"",""2"",""8717""
","""event"",""trial"",""time""
""focus"",""2"",""13137""
","""event"",""trial"",""time""
""fullscreenenter"",""1"",""3211""
","
","","","514.3999999985099","","","20","9990","3793","&#9761;","elianto","#3366ff99","-1"," ","0","0","[1367.1000000014901]","1","0","2","","","","","","","",""
"pit-trial","50","451663","0.0-2.0-11.2-3.2","battery-v0.2","","""event"",""trial"",""time""
""fullscreenenter"",""1"",""3211""
""blur"",""2"",""8717""
""focus"",""2"",""13137""
","""event"",""trial"",""time""
""blur"",""2"",""8717""
","""event"",""trial"",""time""
""focus"",""2"",""13137""
","""event"",""trial"",""time""
""fullscreenenter"",""1"",""3211""
","
","","","406.40000000596046","","","20","9990","3793","&#9761;","elianto","#3366ff99","-1"," ","0","+10","[1258.5]","1","0","2","","","","","","","",""
"pit-trial","51","455086","0.0-2.0-11.2-4.2","battery-v0.2","","""event"",""trial"",""time""
""fullscreenenter"",""1"",""3211""
""blur"",""2"",""8717""
""focus"",""2"",""13137""
","""event"",""trial"",""time""
""blur"",""2"",""8717""
","""event"",""trial"",""time""
""focus"",""2"",""13137""
","""event"",""trial"",""time""
""fullscreenenter"",""1"",""3211""
","
","","","558.7000000029802","","","20","9990","3793","&#9761;","elianto","#3366ff99","-1"," ","0","0","[1411.7000000029802]","1","0","2","","","","","","","",""
"pit-trial","52","458351","0.0-2.0-11.3-0.3","battery-v0.2","","""event"",""trial"",""time""
""fullscreenenter"",""1"",""3211""
""blur"",""2"",""8717""
""focus"",""2"",""13137""
","""event"",""trial"",""time""
""blur"",""2"",""8717""
","""event"",""trial"",""time""
""focus"",""2"",""13137""
","""event"",""trial"",""time""
""fullscreenenter"",""1"",""3211""
","
","","","407.69999999552965","","","20","9990","3793","&#9761;","elianto","#3366ff99","-1"," ","0","0","[1258.5]","1","0","2","","","","","","","",""
"pit-trial","53","461695","0.0-2.0-11.3-1.3","battery-v0.2","","""event"",""trial"",""time""
""fullscreenenter"",""1"",""3211""
""blur"",""2"",""8717""
""focus"",""2"",""13137""
","""event"",""trial"",""time""
""blur"",""2"",""8717""
","""event"",""trial"",""time""
""focus"",""2"",""13137""
","""event"",""trial"",""time""
""fullscreenenter"",""1"",""3211""
","
","","","483.79999999701977","","","20","9990","3793","&#9761;","elianto","#3366ff99","-1"," ","0","0","[1336]","1","0","2","","","","","","","",""
"pit-trial","54","464822","0.0-2.0-11.3-2.3","battery-v0.2","","""event"",""trial"",""time""
""fullscreenenter"",""1"",""3211""
""blur"",""2"",""8717""
""focus"",""2"",""13137""
","""event"",""trial"",""time""
""blur"",""2"",""8717""
","""event"",""trial"",""time""
""focus"",""2"",""13137""
","""event"",""trial"",""time""
""fullscreenenter"",""1"",""3211""
","
","","","269.8999999985099","","","20","9990","3793","&#9761;","elianto","#3366ff99","-1"," ","0","0","[1122.5]","1","0","2","","","","","","","",""
"pit-trial","55","468119","0.0-2.0-11.3-3.3","battery-v0.2","","""event"",""trial"",""time""
""fullscreenenter"",""1"",""3211""
""blur"",""2"",""8717""
""focus"",""2"",""13137""
","""event"",""trial"",""time""
""blur"",""2"",""8717""
","""event"",""trial"",""time""
""focus"",""2"",""13137""
","""event"",""trial"",""time""
""fullscreenenter"",""1"",""3211""
","
","","","434.8999999985099","","","20","9990","3793","&#9761;","elianto","#3366ff99","-1"," ","0","+10","[1287]","1","0","2","","","","","","","",""
"pit-trial","56","471198","0.0-2.0-11.3-4.3","battery-v0.2","","""event"",""trial"",""time""
""fullscreenenter"",""1"",""3211""
""blur"",""2"",""8717""
""focus"",""2"",""13137""
","""event"",""trial"",""time""
""blur"",""2"",""8717""
","""event"",""trial"",""time""
""focus"",""2"",""13137""
","""event"",""trial"",""time""
""fullscreenenter"",""1"",""3211""
","
","","","221.29999999701977","","","20","9990","3793","&#9761;","elianto","#3366ff99","-1"," ","0","0","[1073]","1","0","2","","","","","","","",""
"call-function","57","471201","0.0-2.0-12.0","battery-v0.2","","""event"",""trial"",""time""
""fullscreenenter"",""1"",""3211""
""blur"",""2"",""8717""
""focus"",""2"",""13137""
","""event"",""trial"",""time""
""blur"",""2"",""8717""
","""event"",""trial"",""time""
""focus"",""2"",""13137""
","""event"",""trial"",""time""
""fullscreenenter"",""1"",""3211""
","
","","","","","","","","","","","","","","","","","","","","","","","","","","",""
"pit-instructions","58","509203","0.0-2.0-13.0","battery-v0.2","","""event"",""trial"",""time""
""fullscreenenter"",""1"",""3211""
""blur"",""2"",""8717""
""focus"",""2"",""13137""
","""event"",""trial"",""time""
""blur"",""2"",""8717""
","""event"",""trial"",""time""
""focus"",""2"",""13137""
","""event"",""trial"",""time""
""fullscreenenter"",""1"",""3211""
","
","","[{""page_index"":0,""viewing_time"":5224.79999999702},{""page_index"":1,""viewing_time"":7900},{""page_index"":2,""viewing_time"":9545.90000000596},{""page_index"":3,""viewing_time"":10343},{""page_index"":4,""viewing_time"":4986.39999999851}]","38001.10000000149","","","","","","","","","","","","","","","","","","","","","","","",""
"pit-trial","59","514062","0.0-2.0-14.0-0.0","battery-v0.2","","""event"",""trial"",""time""
""fullscreenenter"",""1"",""3211""
""blur"",""2"",""8717""
""focus"",""2"",""13137""
","""event"",""trial"",""time""
""blur"",""2"",""8717""
","""event"",""trial"",""time""
""focus"",""2"",""13137""
","""event"",""trial"",""time""
""fullscreenenter"",""1"",""3211""
","
","","","-1","","","20","9990","3793","&#9826;","elianto","#f73b6a7A","-1","-1","1","0","[]","0","0","3","","","","","","","",""
"pit-trial","60","518925","0.0-2.0-14.0-1.0","battery-v0.2","","""event"",""trial"",""time""
""fullscreenenter"",""1"",""3211""
""blur"",""2"",""8717""
""focus"",""2"",""13137""
","""event"",""trial"",""time""
""blur"",""2"",""8717""
","""event"",""trial"",""time""
""focus"",""2"",""13137""
","""event"",""trial"",""time""
""fullscreenenter"",""1"",""3211""
","
","","","-1","","","20","9990","3793","&#9826;","elianto","#f73b6a7A","-1","-1","1","0","[]","0","0","3","","","","","","","",""
"pit-trial","61","523789","0.0-2.0-14.0-2.0","battery-v0.2","","""event"",""trial"",""time""
""fullscreenenter"",""1"",""3211""
""blur"",""2"",""8717""
""focus"",""2"",""13137""
","""event"",""trial"",""time""
""blur"",""2"",""8717""
","""event"",""trial"",""time""
""focus"",""2"",""13137""
","""event"",""trial"",""time""
""fullscreenenter"",""1"",""3211""
","
","","","-1","","","20","9990","3793","&#9826;","elianto","#f73b6a7A","-1","-1","1","0","[]","0","0","3","","","","","","","",""
"pit-trial","62","528653","0.0-2.0-14.0-3.0","battery-v0.2","","""event"",""trial"",""time""
""fullscreenenter"",""1"",""3211""
""blur"",""2"",""8717""
""focus"",""2"",""13137""
","""event"",""trial"",""time""
""blur"",""2"",""8717""
","""event"",""trial"",""time""
""focus"",""2"",""13137""
","""event"",""trial"",""time""
""fullscreenenter"",""1"",""3211""
","
","","","-1","","","20","9990","3793","&#9826;","elianto","#f73b6a7A","-1","-1","1","-10","[]","0","0","3","","","","","","","",""
"pit-trial","63","533517","0.0-2.0-14.0-4.0","battery-v0.2","","""event"",""trial"",""time""
""fullscreenenter"",""1"",""3211""
""blur"",""2"",""8717""
""focus"",""2"",""13137""
","""event"",""trial"",""time""
""blur"",""2"",""8717""
","""event"",""trial"",""time""
""focus"",""2"",""13137""
","""event"",""trial"",""time""
""fullscreenenter"",""1"",""3211""
","
","","","-1","","","20","9990","3793","&#9826;","elianto","#f73b6a7A","-1","-1","1","0","[]","0","0","3","","","","","","","",""
"pit-trial","64","538381","0.0-2.0-14.1-0.1","battery-v0.2","","""event"",""trial"",""time""
""fullscreenenter"",""1"",""3211""
""blur"",""2"",""8717""
""focus"",""2"",""13137""
","""event"",""trial"",""time""
""blur"",""2"",""8717""
","""event"",""trial"",""time""
""focus"",""2"",""13137""
","""event"",""trial"",""time""
""fullscreenenter"",""1"",""3211""
","
","","","-1","","","20","9990","3793","&#9826;","elianto","#f73b6a7A","-1","-1","1","0","[]","0","0","3","","","","","","","",""
"pit-trial","65","541821","0.0-2.0-14.1-1.1","battery-v0.2","","""event"",""trial"",""time""
""fullscreenenter"",""1"",""3211""
""blur"",""2"",""8717""
""focus"",""2"",""13137""
","""event"",""trial"",""time""
""blur"",""2"",""8717""
","""event"",""trial"",""time""
""focus"",""2"",""13137""
","""event"",""trial"",""time""
""fullscreenenter"",""1"",""3211""
","
","","","582.5","","","20","9990","3793","&#9826;","elianto","#f73b6a7A","-1"," ","0","-10","[1434.6000000014901]","1","0","3","","","","","","","",""
"pit-trial","66","546685","0.0-2.0-14.1-2.1","battery-v0.2","","""event"",""trial"",""time""
""fullscreenenter"",""1"",""3211""
""blur"",""2"",""8717""
""focus"",""2"",""13137""
","""event"",""trial"",""time""
""blur"",""2"",""8717""
","""event"",""trial"",""time""
""focus"",""2"",""13137""
","""event"",""trial"",""time""
""fullscreenenter"",""1"",""3211""
","
","","","-1","","","20","9990","3793","&#9826;","elianto","#f73b6a7A","-1","-1","1","0","[]","0","0","3","","","","","","","",""
"pit-trial","67","551548","0.0-2.0-14.1-3.1","battery-v0.2","","""event"",""trial"",""time""
""fullscreenenter"",""1"",""3211""
""blur"",""2"",""8717""
""focus"",""2"",""13137""
","""event"",""trial"",""time""
""blur"",""2"",""8717""
","""event"",""trial"",""time""
""focus"",""2"",""13137""
","""event"",""trial"",""time""
""fullscreenenter"",""1"",""3211""
","
","","","-1","","","20","9990","3793","&#9826;","elianto","#f73b6a7A","-1","-1","1","-10","[]","0","0","3","","","","","","","",""
"pit-trial","68","556412","0.0-2.0-14.1-4.1","battery-v0.2","","""event"",""trial"",""time""
""fullscreenenter"",""1"",""3211""
""blur"",""2"",""8717""
""focus"",""2"",""13137""
","""event"",""trial"",""time""
""blur"",""2"",""8717""
","""event"",""trial"",""time""
""focus"",""2"",""13137""
","""event"",""trial"",""time""
""fullscreenenter"",""1"",""3211""
","
","","","-1","","","20","9990","3793","&#9826;","elianto","#f73b6a7A","-1","-1","1","0","[]","0","0","3","","","","","","","",""
"pit-trial","69","561277","0.0-2.0-14.2-0.2","battery-v0.2","","""event"",""trial"",""time""
""fullscreenenter"",""1"",""3211""
""blur"",""2"",""8717""
""focus"",""2"",""13137""
","""event"",""trial"",""time""
""blur"",""2"",""8717""
","""event"",""trial"",""time""
""focus"",""2"",""13137""
","""event"",""trial"",""time""
""fullscreenenter"",""1"",""3211""
","
","","","-1","","","20","9990","3793","&#9826;","elianto","#f73b6a7A","-1","-1","1","0","[]","0","0","3","","","","","","","",""
"pit-trial","70","566140","0.0-2.0-14.2-1.2","battery-v0.2","","""event"",""trial"",""time""
""fullscreenenter"",""1"",""3211""
""blur"",""2"",""8717""
""focus"",""2"",""13137""
","""event"",""trial"",""time""
""blur"",""2"",""8717""
","""event"",""trial"",""time""
""focus"",""2"",""13137""
","""event"",""trial"",""time""
""fullscreenenter"",""1"",""3211""
","
","","","-1","","","20","9990","3793","&#9826;","elianto","#f73b6a7A","-1","-1","1","0","[]","0","0","3","","","","","","","",""
"pit-trial","71","571004","0.0-2.0-14.2-2.2","battery-v0.2","","""event"",""trial"",""time""
""fullscreenenter"",""1"",""3211""
""blur"",""2"",""8717""
""focus"",""2"",""13137""
","""event"",""trial"",""time""
""blur"",""2"",""8717""
","""event"",""trial"",""time""
""focus"",""2"",""13137""
","""event"",""trial"",""time""
""fullscreenenter"",""1"",""3211""
","
","","","-1","","","20","9990","3793","&#9826;","elianto","#f73b6a7A","-1","-1","1","0","[]","0","0","3","","","","","","","",""
"pit-trial","72","574364","0.0-2.0-14.2-3.2","battery-v0.2","","""event"",""trial"",""time""
""fullscreenenter"",""1"",""3211""
""blur"",""2"",""8717""
""focus"",""2"",""13137""
","""event"",""trial"",""time""
""blur"",""2"",""8717""
","""event"",""trial"",""time""
""focus"",""2"",""13137""
","""event"",""trial"",""time""
""fullscreenenter"",""1"",""3211""
","
","","","502.59999999403954","","","20","9990","3793","&#9826;","elianto","#f73b6a7A","-1"," ","0","0","[1352.8999999985099]","1","0","3","","","","","","","",""
"pit-trial","73","579228","0.0-2.0-14.2-4.2","battery-v0.2","","""event"",""trial"",""time""
""fullscreenenter"",""1"",""3211""
""blur"",""2"",""8717""
""focus"",""2"",""13137""
","""event"",""trial"",""time""
""blur"",""2"",""8717""
","""event"",""trial"",""time""
""focus"",""2"",""13137""
","""event"",""trial"",""time""
""fullscreenenter"",""1"",""3211""
","
","","","-1","","","20","9990","3793","&#9826;","elianto","#f73b6a7A","-1","-1","1","0","[]","0","0","3","","","","","","","",""
"pit-trial","74","584091","0.0-2.0-14.3-0.3","battery-v0.2","","""event"",""trial"",""time""
""fullscreenenter"",""1"",""3211""
""blur"",""2"",""8717""
""focus"",""2"",""13137""
","""event"",""trial"",""time""
""blur"",""2"",""8717""
","""event"",""trial"",""time""
""focus"",""2"",""13137""
","""event"",""trial"",""time""
""fullscreenenter"",""1"",""3211""
","
","","","-1","","","20","9990","3793","&#9826;","elianto","#f73b6a7A","-1","-1","1","0","[]","0","0","3","","","","","","","",""
"pit-trial","75","588955","0.0-2.0-14.3-1.3","battery-v0.2","","""event"",""trial"",""time""
""fullscreenenter"",""1"",""3211""
""blur"",""2"",""8717""
""focus"",""2"",""13137""
","""event"",""trial"",""time""
""blur"",""2"",""8717""
","""event"",""trial"",""time""
""focus"",""2"",""13137""
","""event"",""trial"",""time""
""fullscreenenter"",""1"",""3211""
","
","","","-1","","","20","9990","3793","&#9826;","elianto","#f73b6a7A","-1","-1","1","0","[]","0","0","3","","","","","","","",""
"pit-trial","76","593819","0.0-2.0-14.3-2.3","battery-v0.2","","""event"",""trial"",""time""
""fullscreenenter"",""1"",""3211""
""blur"",""2"",""8717""
""focus"",""2"",""13137""
","""event"",""trial"",""time""
""blur"",""2"",""8717""
","""event"",""trial"",""time""
""focus"",""2"",""13137""
","""event"",""trial"",""time""
""fullscreenenter"",""1"",""3211""
","
","","","-1","","","20","9990","3793","&#9826;","elianto","#f73b6a7A","-1","-1","1","0","[]","0","0","3","","","","","","","",""
"pit-trial","77","598683","0.0-2.0-14.3-3.3","battery-v0.2","","""event"",""trial"",""time""
""fullscreenenter"",""1"",""3211""
""blur"",""2"",""8717""
""focus"",""2"",""13137""
","""event"",""trial"",""time""
""blur"",""2"",""8717""
","""event"",""trial"",""time""
""focus"",""2"",""13137""
","""event"",""trial"",""time""
""fullscreenenter"",""1"",""3211""
","
","","","-1","","","20","9990","3793","&#9826;","elianto","#f73b6a7A","-1","-1","1","-10","[]","0","0","3","","","","","","","",""
"pit-trial","78","603548","0.0-2.0-14.3-4.3","battery-v0.2","","""event"",""trial"",""time""
""fullscreenenter"",""1"",""3211""
""blur"",""2"",""8717""
""focus"",""2"",""13137""
","""event"",""trial"",""time""
""blur"",""2"",""8717""
","""event"",""trial"",""time""
""focus"",""2"",""13137""
","""event"",""trial"",""time""
""fullscreenenter"",""1"",""3211""
","
","","","-1","","","20","9990","3793","&#9826;","elianto","#f73b6a7A","-1","-1","1","0","[]","0","0","3","","","","","","","",""
"call-function","79","603551","0.0-2.0-15.0","battery-v0.2","","""event"",""trial"",""time""
""fullscreenenter"",""1"",""3211""
""blur"",""2"",""8717""
""focus"",""2"",""13137""
","""event"",""trial"",""time""
""blur"",""2"",""8717""
","""event"",""trial"",""time""
""focus"",""2"",""13137""
","""event"",""trial"",""time""
""fullscreenenter"",""1"",""3211""
","
","","","","","","","","","","","","","","","","","","","","","","","","","","",""
"pit-instructions","80","636064","0.0-2.0-16.0","battery-v0.2","","""event"",""trial"",""time""
""fullscreenenter"",""1"",""3211""
""blur"",""2"",""8717""
""focus"",""2"",""13137""
","""event"",""trial"",""time""
""blur"",""2"",""8717""
","""event"",""trial"",""time""
""focus"",""2"",""13137""
","""event"",""trial"",""time""
""fullscreenenter"",""1"",""3211""
","
","","[{""page_index"":0,""viewing_time"":6773},{""page_index"":1,""viewing_time"":14330.30000000447},{""page_index"":2,""viewing_time"":4942.89999999851},{""page_index"":3,""viewing_time"":6465.89999999851}]","32513.10000000149","","","","","","","","","","","","","","","","","","","","","","","",""
"pit-trial","81","639491","0.0-2.0-17.0-0.0","battery-v0.2","","""event"",""trial"",""time""
""fullscreenenter"",""1"",""3211""
""blur"",""2"",""8717""
""focus"",""2"",""13137""
","""event"",""trial"",""time""
""blur"",""2"",""8717""
","""event"",""trial"",""time""
""focus"",""2"",""13137""
","""event"",""trial"",""time""
""fullscreenenter"",""1"",""3211""
","
","","","561.7000000029802","","","20","9990","3793","&#9789;","elianto","#f73b6a7A"," "," ","1","0","[1416.7000000029802]","1","0","4","","","","","","","",""
"pit-trial","82","642555","0.0-2.0-17.0-1.0","battery-v0.2","","""event"",""trial"",""time""
""fullscreenenter"",""1"",""3211""
""blur"",""2"",""8717""
""focus"",""2"",""13137""
","""event"",""trial"",""time""
""blur"",""2"",""8717""
","""event"",""trial"",""time""
""focus"",""2"",""13137""
","""event"",""trial"",""time""
""fullscreenenter"",""1"",""3211""
","
","","","208.29999999701977","","","20","9990","3793","&#9789;","elianto","#f73b6a7A"," "," ","1","0","[1059.1000000014901]","1","0","4","","","","","","","",""
"pit-trial","83","645658","0.0-2.0-17.0-2.0","battery-v0.2","","""event"",""trial"",""time""
""fullscreenenter"",""1"",""3211""
""blur"",""2"",""8717""
""focus"",""2"",""13137""
","""event"",""trial"",""time""
""blur"",""2"",""8717""
","""event"",""trial"",""time""
""focus"",""2"",""13137""
","""event"",""trial"",""time""
""fullscreenenter"",""1"",""3211""
","
","","","243.39999999850988","","","20","9990","3793","&#9789;","elianto","#f73b6a7A"," "," ","1","0","[1094.5999999940395]","1","0","4","","","","","","","",""
"pit-trial","84","648602","0.0-2.0-17.0-3.0","battery-v0.2","","""event"",""trial"",""time""
""fullscreenenter"",""1"",""3211""
""blur"",""2"",""8717""
""focus"",""2"",""13137""
","""event"",""trial"",""time""
""blur"",""2"",""8717""
","""event"",""trial"",""time""
""focus"",""2"",""13137""
","""event"",""trial"",""time""
""fullscreenenter"",""1"",""3211""
","
","","","81.5","","","20","9990","3793","&#9789;","elianto","#f73b6a7A"," "," ","1","-10","[935.1000000014901]","1","0","4","","","","","","","",""
"pit-trial","85","651626","0.0-2.0-17.0-4.0","battery-v0.2","","""event"",""trial"",""time""
""fullscreenenter"",""1"",""3211""
""blur"",""2"",""8717""
""focus"",""2"",""13137""
","""event"",""trial"",""time""
""blur"",""2"",""8717""
","""event"",""trial"",""time""
""focus"",""2"",""13137""
","""event"",""trial"",""time""
""fullscreenenter"",""1"",""3211""
","
","","","165.39999999850988","","","20","9990","3793","&#9789;","elianto","#f73b6a7A"," "," ","1","0","[1018.6000000014901]","1","0","4","","","","","","","",""
"pit-trial","86","654602","0.0-2.0-17.1-0.1","battery-v0.2","","""event"",""trial"",""time""
""fullscreenenter"",""1"",""3211""
""blur"",""2"",""8717""
""focus"",""2"",""13137""
","""event"",""trial"",""time""
""blur"",""2"",""8717""
","""event"",""trial"",""time""
""focus"",""2"",""13137""
","""event"",""trial"",""time""
""fullscreenenter"",""1"",""3211""
","
","","","118.19999999552965","","","20","9990","3793","&#9789;","elianto","#f73b6a7A"," "," ","1","0","[970.7999999970198]","1","0","4","","","","","","","",""
"pit-trial","87","657578","0.0-2.0-17.1-1.1","battery-v0.2","","""event"",""trial"",""time""
""fullscreenenter"",""1"",""3211""
""blur"",""2"",""8717""
""focus"",""2"",""13137""
","""event"",""trial"",""time""
""blur"",""2"",""8717""
","""event"",""trial"",""time""
""focus"",""2"",""13137""
","""event"",""trial"",""time""
""fullscreenenter"",""1"",""3211""
","
","","","117.10000000149012","","","20","9990","3793","&#9789;","elianto","#f73b6a7A"," "," ","1","0","[969.5]","1","0","4","","","","","","","",""
"pit-trial","88","662442","0.0-2.0-17.1-2.1","battery-v0.2","","""event"",""trial"",""time""
""fullscreenenter"",""1"",""3211""
""blur"",""2"",""8717""
""focus"",""2"",""13137""
","""event"",""trial"",""time""
""blur"",""2"",""8717""
","""event"",""trial"",""time""
""focus"",""2"",""13137""
","""event"",""trial"",""time""
""fullscreenenter"",""1"",""3211""
","
","","","-1","","","20","9990","3793","&#9789;","elianto","#f73b6a7A"," ","-1","0","-10","[]","0","0","4","","","","","","","",""
"pit-trial","89","665698","0.0-2.0-17.1-3.1","battery-v0.2","","""event"",""trial"",""time""
""fullscreenenter"",""1"",""3211""
""blur"",""2"",""8717""
""focus"",""2"",""13137""
","""event"",""trial"",""time""
""blur"",""2"",""8717""
","""event"",""trial"",""time""
""focus"",""2"",""13137""
","""event"",""trial"",""time""
""fullscreenenter"",""1"",""3211""
","
","","","396.29999999701977","","","20","9990","3793","&#9789;","elianto","#f73b6a7A"," "," ","1","-10","[1249.3000000044703]","1","0","4","","","","","","","",""
"pit-trial","90","668905","0.0-2.0-17.1-4.1","battery-v0.2","","""event"",""trial"",""time""
""fullscreenenter"",""1"",""3211""
""blur"",""2"",""8717""
""focus"",""2"",""13137""
","""event"",""trial"",""time""
""blur"",""2"",""8717""
","""event"",""trial"",""time""
""focus"",""2"",""13137""
","""event"",""trial"",""time""
""fullscreenenter"",""1"",""3211""
","
","","","348","","","20","9990","3793","&#9789;","elianto","#f73b6a7A"," "," ","1","0","[1200]","1","0","4","","","","","","","",""
"pit-trial","91","672033","0.0-2.0-17.2-0.2","battery-v0.2","","""event"",""trial"",""time""
""fullscreenenter"",""1"",""3211""
""blur"",""2"",""8717""
""focus"",""2"",""13137""
","""event"",""trial"",""time""
""blur"",""2"",""8717""
","""event"",""trial"",""time""
""focus"",""2"",""13137""
","""event"",""trial"",""time""
""fullscreenenter"",""1"",""3211""
","
","","","264.1000000014901","","","20","9990","3793","&#9789;","elianto","#f73b6a7A"," "," ","1","0","[1116.5]","1","0","4","","","","","","","",""
"pit-trial","92","675114","0.0-2.0-17.2-1.2","battery-v0.2","","""event"",""trial"",""time""
""fullscreenenter"",""1"",""3211""
""blur"",""2"",""8717""
""focus"",""2"",""13137""
","""event"",""trial"",""time""
""blur"",""2"",""8717""
","""event"",""trial"",""time""
""focus"",""2"",""13137""
","""event"",""trial"",""time""
""fullscreenenter"",""1"",""3211""
","
","","","221.10000000149012","","","20","9990","3793","&#9789;","elianto","#f73b6a7A"," "," ","1","0","[1071.8999999985099]","1","0","4","","","","","","","",""
"pit-trial","93","678138","0.0-2.0-17.2-2.2","battery-v0.2","","""event"",""trial"",""time""
""fullscreenenter"",""1"",""3211""
""blur"",""2"",""8717""
""focus"",""2"",""13137""
","""event"",""trial"",""time""
""blur"",""2"",""8717""
","""event"",""trial"",""time""
""focus"",""2"",""13137""
","""event"",""trial"",""time""
""fullscreenenter"",""1"",""3211""
","
","","","159","","","20","9990","3793","&#9789;","elianto","#f73b6a7A"," "," ","1","0","[1010.7000000029802]","1","0","4","","","","","","","",""
"pit-trial","94","681249","0.0-2.0-17.2-3.2","battery-v0.2","","""event"",""trial"",""time""
""fullscreenenter"",""1"",""3211""
""blur"",""2"",""8717""
""focus"",""2"",""13137""
","""event"",""trial"",""time""
""blur"",""2"",""8717""
","""event"",""trial"",""time""
""focus"",""2"",""13137""
","""event"",""trial"",""time""
""fullscreenenter"",""1"",""3211""
","
","","","252.79999999701977","","","20","9990","3793","&#9789;","elianto","#f73b6a7A"," "," ","1","-10","[1104.2999999970198]","1","0","4","","","","","","","",""
"pit-trial","95","684234","0.0-2.0-17.2-4.2","battery-v0.2","","""event"",""trial"",""time""
""fullscreenenter"",""1"",""3211""
""blur"",""2"",""8717""
""focus"",""2"",""13137""
","""event"",""trial"",""time""
""blur"",""2"",""8717""
","""event"",""trial"",""time""
""focus"",""2"",""13137""
","""event"",""trial"",""time""
""fullscreenenter"",""1"",""3211""
","
","","","122.39999999850988","","","20","9990","3793","&#9789;","elianto","#f73b6a7A"," "," ","1","0","[972.5]","1","0","4","","","","","","","",""
"pit-trial","96","687297","0.0-2.0-17.3-0.3","battery-v0.2","","""event"",""trial"",""time""
""fullscreenenter"",""1"",""3211""
""blur"",""2"",""8717""
""focus"",""2"",""13137""
","""event"",""trial"",""time""
""blur"",""2"",""8717""
","""event"",""trial"",""time""
""focus"",""2"",""13137""
","""event"",""trial"",""time""
""fullscreenenter"",""1"",""3211""
","
","","","201","","","20","9990","3793","&#9789;","elianto","#f73b6a7A"," "," ","1","0","[1051.5]","1","0","4","","","","","","","",""
"pit-trial","97","690369","0.0-2.0-17.3-1.3","battery-v0.2","","""event"",""trial"",""time""
""fullscreenenter"",""1"",""3211""
""blur"",""2"",""8717""
""focus"",""2"",""13137""
","""event"",""trial"",""time""
""blur"",""2"",""8717""
","""event"",""trial"",""time""
""focus"",""2"",""13137""
","""event"",""trial"",""time""
""fullscreenenter"",""1"",""3211""
","
","","","209","","","20","9990","3793","&#9789;","elianto","#f73b6a7A"," "," ","1","0","[1061.3999999985099]","1","0","4","","","","","","","",""
"pit-trial","98","693449","0.0-2.0-17.3-2.3","battery-v0.2","","""event"",""trial"",""time""
""fullscreenenter"",""1"",""3211""
""blur"",""2"",""8717""
""focus"",""2"",""13137""
","""event"",""trial"",""time""
""blur"",""2"",""8717""
","""event"",""trial"",""time""
""focus"",""2"",""13137""
","""event"",""trial"",""time""
""fullscreenenter"",""1"",""3211""
","
","","","219.5","","","20","9990","3793","&#9789;","elianto","#f73b6a7A"," "," ","1","0","[1071.8000000044703]","1","0","4","","","","","","","",""
"pit-trial","99","696537","0.0-2.0-17.3-3.3","battery-v0.2","","""event"",""trial"",""time""
""fullscreenenter"",""1"",""3211""
""blur"",""2"",""8717""
""focus"",""2"",""13137""
","""event"",""trial"",""time""
""blur"",""2"",""8717""
","""event"",""trial"",""time""
""focus"",""2"",""13137""
","""event"",""trial"",""time""
""fullscreenenter"",""1"",""3211""
","
","","","224.80000000447035","","","20","9990","3793","&#9789;","elianto","#f73b6a7A"," "," ","1","-10","[1076.9000000059605]","1","0","4","","","","","","","",""
"pit-trial","100","699649","0.0-2.0-17.3-4.3","battery-v0.2","","""event"",""trial"",""time""
""fullscreenenter"",""1"",""3211""
""blur"",""2"",""8717""
""focus"",""2"",""13137""
","""event"",""trial"",""time""
""blur"",""2"",""8717""
","""event"",""trial"",""time""
""focus"",""2"",""13137""
","""event"",""trial"",""time""
""fullscreenenter"",""1"",""3211""
","
","","","247.60000000149012","","","20","9990","3793","&#9789;","elianto","#f73b6a7A"," "," ","1","0","[1099.8999999985099]","1","0","4","","","","","","","",""
"call-function","101","699652","0.0-2.0-18.0","battery-v0.2","","""event"",""trial"",""time""
""fullscreenenter"",""1"",""3211""
""blur"",""2"",""8717""
""focus"",""2"",""13137""
","""event"",""trial"",""time""
""blur"",""2"",""8717""
","""event"",""trial"",""time""
""focus"",""2"",""13137""
","""event"",""trial"",""time""
""fullscreenenter"",""1"",""3211""
","
","","","","","","","","","","","","","","","","","","","","","","","","","","",""
"pit-instructions","102","778702","0.0-2.0-19.0","battery-v0.2","","""event"",""trial"",""time""
""fullscreenenter"",""1"",""3211""
""blur"",""2"",""8717""
""focus"",""2"",""13137""
","""event"",""trial"",""time""
""blur"",""2"",""8717""
","""event"",""trial"",""time""
""focus"",""2"",""13137""
","""event"",""trial"",""time""
""fullscreenenter"",""1"",""3211""
","
","","[{""page_index"":0,""viewing_time"":9354.39999999851},{""page_index"":1,""viewing_time"":9236.60000000149},{""page_index"":2,""viewing_time"":15453.39999999851},{""page_index"":3,""viewing_time"":8692.90000000596},{""page_index"":4,""viewing_time"":8669.69999999553},{""page_index"":5,""viewing_time"":8127.20000000298},{""page_index"":6,""viewing_time"":8751.79999999702},{""page_index"":7,""viewing_time"":6771.5},{""page_index"":8,""viewing_time"":3992.2000000029802}]","79050.60000000149","","","","","","","","","","","","","","","","","","","","","","","",""
"pit-comprehension","103","783207","0.0-2.0-20.0-0.0","battery-v0.2","","""event"",""trial"",""time""
""fullscreenenter"",""1"",""3211""
""blur"",""2"",""8717""
""focus"",""2"",""13137""
","""event"",""trial"",""time""
""blur"",""2"",""8717""
","""event"",""trial"",""time""
""focus"",""2"",""13137""
","""event"",""trial"",""time""
""fullscreenenter"",""1"",""3211""
","
","","","4500.20000000298","[""SPACE""]","0","20","9990","3793","","","","","","","","","","","","","","","","","","",""
"pit-instructions","104","789473","0.0-2.0-20.0-1.0","battery-v0.2","","""event"",""trial"",""time""
""fullscreenenter"",""1"",""3211""
""blur"",""2"",""8717""
""focus"",""2"",""13137""
","""event"",""trial"",""time""
""blur"",""2"",""8717""
","""event"",""trial"",""time""
""focus"",""2"",""13137""
","""event"",""trial"",""time""
""fullscreenenter"",""1"",""3211""
","
","","[{""page_index"":0,""viewing_time"":6237.5}]","6238.20000000298","","","","","","","","","","","","","","","","","","","","","","","",""
"pit-comprehension","105","794674","0.0-2.0-21.0-0.0","battery-v0.2","","""event"",""trial"",""time""
""fullscreenenter"",""1"",""3211""
""blur"",""2"",""8717""
""focus"",""2"",""13137""
","""event"",""trial"",""time""
""blur"",""2"",""8717""
","""event"",""trial"",""time""
""focus"",""2"",""13137""
","""event"",""trial"",""time""
""fullscreenenter"",""1"",""3211""
","
","","","5196.19999999553","[""10""]","0","20","9990","3793","","","","","","","","","","","","","","","","","","",""
"pit-instructions","106","797339","0.0-2.0-21.0-1.0","battery-v0.2","","""event"",""trial"",""time""
""fullscreenenter"",""1"",""3211""
""blur"",""2"",""8717""
""focus"",""2"",""13137""
","""event"",""trial"",""time""
""blur"",""2"",""8717""
","""event"",""trial"",""time""
""focus"",""2"",""13137""
","""event"",""trial"",""time""
""fullscreenenter"",""1"",""3211""
","
","","[{""page_index"":0,""viewing_time"":2631.2999999970198}]","2632","","","","","","","","","","","","","","","","","","","","","","","",""
"pit-comprehension","107","803957","0.0-2.0-22.0-0.0","battery-v0.2","","""event"",""trial"",""time""
""fullscreenenter"",""1"",""3211""
""blur"",""2"",""8717""
""focus"",""2"",""13137""
","""event"",""trial"",""time""
""blur"",""2"",""8717""
","""event"",""trial"",""time""
""focus"",""2"",""13137""
","""event"",""trial"",""time""
""fullscreenenter"",""1"",""3211""
","
","","","6613.39999999851","[""-10""]","1","20","9990","3793","","","","","","","","","","","","","","","","","","",""
"pit-instructions","108","809939","0.0-2.0-22.0-1.0","battery-v0.2","","""event"",""trial"",""time""
""fullscreenenter"",""1"",""3211""
""blur"",""2"",""8717""
""focus"",""2"",""13137""
","""event"",""trial"",""time""
""blur"",""2"",""8717""
","""event"",""trial"",""time""
""focus"",""2"",""13137""
","""event"",""trial"",""time""
""fullscreenenter"",""1"",""3211""
","
","","[{""page_index"":0,""viewing_time"":5948.39999999851}]","5949.10000000149","","","","","","","","","","","","","","","","","","","","","","","",""
"pit-instructions","109","811106","0.0-2.0-22.0-2.0-0.0","battery-v0.2","","""event"",""trial"",""time""
""fullscreenenter"",""1"",""3211""
""blur"",""2"",""8717""
""focus"",""2"",""13137""
","""event"",""trial"",""time""
""blur"",""2"",""8717""
","""event"",""trial"",""time""
""focus"",""2"",""13137""
","""event"",""trial"",""time""
""fullscreenenter"",""1"",""3211""
","
","","[{""page_index"":0,""viewing_time"":1163.1999999955297}]","1163.7999999970198","","","","","","","","","","","","","","","","","","","","","","","",""
"pit-comprehension","110","817657","0.0-2.0-22.1-0.1","battery-v0.2","","""event"",""trial"",""time""
""fullscreenenter"",""1"",""3211""
""blur"",""2"",""8717""
""focus"",""2"",""13137""
","""event"",""trial"",""time""
""blur"",""2"",""8717""
","""event"",""trial"",""time""
""focus"",""2"",""13137""
","""event"",""trial"",""time""
""fullscreenenter"",""1"",""3211""
","
","","","6546.89999999851","[""0""]","0","20","9990","3793","","","","","","","","","","","","","","","","","","",""
"pit-instructions","111","821372","0.0-2.0-22.1-1.1","battery-v0.2","","""event"",""trial"",""time""
""fullscreenenter"",""1"",""3211""
""blur"",""2"",""8717""
""focus"",""2"",""13137""
","""event"",""trial"",""time""
""blur"",""2"",""8717""
","""event"",""trial"",""time""
""focus"",""2"",""13137""
","""event"",""trial"",""time""
""fullscreenenter"",""1"",""3211""
","
","","[{""page_index"":0,""viewing_time"":3680.7000000029802}]","3681.39999999851","","","","","","","","","","","","","","","","","","","","","","","",""
"pit-comprehension","112","833222","0.0-2.0-23.0-0.0","battery-v0.2","","""event"",""trial"",""time""
""fullscreenenter"",""1"",""3211""
""blur"",""2"",""8717""
""focus"",""2"",""13137""
","""event"",""trial"",""time""
""blur"",""2"",""8717""
","""event"",""trial"",""time""
""focus"",""2"",""13137""
","""event"",""trial"",""time""
""fullscreenenter"",""1"",""3211""
","
","","","11845.5","[""False""]","1","20","9990","3793","","","","","","","","","","","","","","","","","","",""
"pit-instructions","113","835588","0.0-2.0-23.0-1.0","battery-v0.2","","""event"",""trial"",""time""
""fullscreenenter"",""1"",""3211""
""blur"",""2"",""8717""
""focus"",""2"",""13137""
","""event"",""trial"",""time""
""blur"",""2"",""8717""
","""event"",""trial"",""time""
""focus"",""2"",""13137""
","""event"",""trial"",""time""
""fullscreenenter"",""1"",""3211""
","
","","[{""page_index"":0,""viewing_time"":2333.7000000029802}]","2334.3000000044703","","","","","","","","","","","","","","","","","","","","","","","",""
"pit-instructions","114","836171","0.0-2.0-23.0-2.0-0.0","battery-v0.2","","""event"",""trial"",""time""
""fullscreenenter"",""1"",""3211""
""blur"",""2"",""8717""
""focus"",""2"",""13137""
","""event"",""trial"",""time""
""blur"",""2"",""8717""
","""event"",""trial"",""time""
""focus"",""2"",""13137""
","""event"",""trial"",""time""
""fullscreenenter"",""1"",""3211""
","
","","[{""page_index"":0,""viewing_time"":579.8999999985099}]","580.1999999955297","","","","","","","","","","","","","","","","","","","","","","","",""
"pit-comprehension","115","844406","0.0-2.0-23.1-0.1","battery-v0.2","","""event"",""trial"",""time""
""fullscreenenter"",""1"",""3211""
""blur"",""2"",""8717""
""focus"",""2"",""13137""
","""event"",""trial"",""time""
""blur"",""2"",""8717""
","""event"",""trial"",""time""
""focus"",""2"",""13137""
","""event"",""trial"",""time""
""fullscreenenter"",""1"",""3211""
","
","","","8232.59999999404","[""True""]","0","20","9990","3793","","","","","","","","","","","","","","","","","","",""
"pit-instructions","116","846939","0.0-2.0-23.1-1.1","battery-v0.2","","""event"",""trial"",""time""
""fullscreenenter"",""1"",""3211""
""blur"",""2"",""8717""
""focus"",""2"",""13137""
","""event"",""trial"",""time""
""blur"",""2"",""8717""
","""event"",""trial"",""time""
""focus"",""2"",""13137""
","""event"",""trial"",""time""
""fullscreenenter"",""1"",""3211""
","
","","[{""page_index"":0,""viewing_time"":2495.39999999851}]","2496.10000000149","","","","","","","","","","","","","","","","","","","","","","","",""
"pit-comprehension","117","854406","0.0-2.0-24.0-0.0","battery-v0.2","","""event"",""trial"",""time""
""fullscreenenter"",""1"",""3211""
""blur"",""2"",""8717""
""focus"",""2"",""13137""
","""event"",""trial"",""time""
""blur"",""2"",""8717""
","""event"",""trial"",""time""
""focus"",""2"",""13137""
","""event"",""trial"",""time""
""fullscreenenter"",""1"",""3211""
","
","","","7463.60000000149","[""True""]","0","20","9990","3793","","","","","","","","","","","","","","","","","","",""
"pit-instructions","118","856271","0.0-2.0-24.0-1.0","battery-v0.2","","""event"",""trial"",""time""
""fullscreenenter"",""1"",""3211""
""blur"",""2"",""8717""
""focus"",""2"",""13137""
","""event"",""trial"",""time""
""blur"",""2"",""8717""
","""event"",""trial"",""time""
""focus"",""2"",""13137""
","""event"",""trial"",""time""
""fullscreenenter"",""1"",""3211""
","
","","[{""page_index"":0,""viewing_time"":1830}]","1830.6000000014901","","","","","","","","","","","","","","","","","","","","","","","",""
"pit-comprehension","119","862689","0.0-2.0-25.0-0.0","battery-v0.2","","""event"",""trial"",""time""
""fullscreenenter"",""1"",""3211""
""blur"",""2"",""8717""
""focus"",""2"",""13137""
","""event"",""trial"",""time""
""blur"",""2"",""8717""
","""event"",""trial"",""time""
""focus"",""2"",""13137""
","""event"",""trial"",""time""
""fullscreenenter"",""1"",""3211""
","
","","","6413.39999999851","[""True""]","0","20","9990","3793","","","","","","","","","","","","","","","","","","",""
"pit-instructions","120","864586","0.0-2.0-25.0-1.0","battery-v0.2","","""event"",""trial"",""time""
""fullscreenenter"",""1"",""3211""
""blur"",""2"",""8717""
""focus"",""2"",""13137""
","""event"",""trial"",""time""
""blur"",""2"",""8717""
","""event"",""trial"",""time""
""focus"",""2"",""13137""
","""event"",""trial"",""time""
""fullscreenenter"",""1"",""3211""
","
","","[{""page_index"":0,""viewing_time"":1861.1000000014901}]","1861.4000000059605","","","","","","","","","","","","","","","","","","","","","","","",""
"pit-comprehension","121","871273","0.0-2.0-26.0-0.0","battery-v0.2","","""event"",""trial"",""time""
""fullscreenenter"",""1"",""3211""
""blur"",""2"",""8717""
""focus"",""2"",""13137""
","""event"",""trial"",""time""
""blur"",""2"",""8717""
","""event"",""trial"",""time""
""focus"",""2"",""13137""
","""event"",""trial"",""time""
""fullscreenenter"",""1"",""3211""
","
","","","6684.60000000149","[""True""]","1","20","9990","3793","","","","","","","","","","","","","","","","","","",""
"pit-instructions","122","873689","0.0-2.0-26.0-1.0","battery-v0.2","","""event"",""trial"",""time""
""fullscreenenter"",""1"",""3211""
""blur"",""2"",""8717""
""focus"",""2"",""13137""
","""event"",""trial"",""time""
""blur"",""2"",""8717""
","""event"",""trial"",""time""
""focus"",""2"",""13137""
","""event"",""trial"",""time""
""fullscreenenter"",""1"",""3211""
","
","","[{""page_index"":0,""viewing_time"":2378.2000000029802}]","2379","","","","","","","","","","","","","","","","","","","","","","","",""
"pit-instructions","123","874621","0.0-2.0-26.0-2.0-0.0","battery-v0.2","","""event"",""trial"",""time""
""fullscreenenter"",""1"",""3211""
""blur"",""2"",""8717""
""focus"",""2"",""13137""
","""event"",""trial"",""time""
""blur"",""2"",""8717""
","""event"",""trial"",""time""
""focus"",""2"",""13137""
","""event"",""trial"",""time""
""fullscreenenter"",""1"",""3211""
","
","","[{""page_index"":0,""viewing_time"":929.3000000044703}]","929.8000000044703","","","","","","","","","","","","","","","","","","","","","","","",""
"pit-comprehension","124","879323","0.0-2.0-26.1-0.1","battery-v0.2","","""event"",""trial"",""time""
""fullscreenenter"",""1"",""3211""
""blur"",""2"",""8717""
""focus"",""2"",""13137""
","""event"",""trial"",""time""
""blur"",""2"",""8717""
","""event"",""trial"",""time""
""focus"",""2"",""13137""
","""event"",""trial"",""time""
""fullscreenenter"",""1"",""3211""
","
","","","4697.39999999851","[""False""]","0","20","9990","3793","","","","","","","","","","","","","","","","","","",""
"pit-instructions","125","881369","0.0-2.0-26.1-1.1","battery-v0.2","","""event"",""trial"",""time""
""fullscreenenter"",""1"",""3211""
""blur"",""2"",""8717""
""focus"",""2"",""13137""
","""event"",""trial"",""time""
""blur"",""2"",""8717""
","""event"",""trial"",""time""
""focus"",""2"",""13137""
","""event"",""trial"",""time""
""fullscreenenter"",""1"",""3211""
","
","","[{""page_index"":0,""viewing_time"":2010.6999999955297}]","2010.8999999985099","","","","","","","","","","","","","","","","","","","","","","","",""
"pit-instructions","126","898821","0.0-3.0","battery-v0.2","","""event"",""trial"",""time""
""fullscreenenter"",""1"",""3211""
""blur"",""2"",""8717""
""focus"",""2"",""13137""
","""event"",""trial"",""time""
""blur"",""2"",""8717""
","""event"",""trial"",""time""
""focus"",""2"",""13137""
","""event"",""trial"",""time""
""fullscreenenter"",""1"",""3211""
","
","","[{""page_index"":0,""viewing_time"":3866.1999999955297},{""page_index"":1,""viewing_time"":5316.9000000059605},{""page_index"":2,""viewing_time"":8267.09999999404}]","17450.89999999851","","","","","","","","","","","","","","","","","","","","","","","",""
"pit-trial","127","902301","0.0-4.0","battery-v0.2","","""event"",""trial"",""time""
""fullscreenenter"",""1"",""3211""
""blur"",""2"",""8717""
""focus"",""2"",""13137""
","""event"",""trial"",""time""
""blur"",""2"",""8717""
","""event"",""trial"",""time""
""focus"",""2"",""13137""
","""event"",""trial"",""time""
""fullscreenenter"",""1"",""3211""
","
","","","610.3000000044703","","","20","9990","3793","&#9728;","elianto","#f73b6a7A","-1"," ","0","-10","[1464.6000000014901]","1","1","","","9990","1","0","4","lose","no-go","0"
"pit-trial","128","905677","0.0-5.0","battery-v0.2","","""event"",""trial"",""time""
""fullscreenenter"",""1"",""3211""
""blur"",""2"",""8717""
""focus"",""2"",""13137""
","""event"",""trial"",""time""
""blur"",""2"",""8717""
","""event"",""trial"",""time""
""focus"",""2"",""13137""
","""event"",""trial"",""time""
""fullscreenenter"",""1"",""3211""
","
","","","517","","","20","9990","3793","&#9730;","elianto","#3366ff99"," "," ","1","+10","[1368.1000000014901]","1","1","","","9990","2","1","1","win","go","0"
"pit-trial","129","910540","0.0-6.0","battery-v0.2","","""event"",""trial"",""time""
""fullscreenenter"",""1"",""3211""
""blur"",""2"",""8717""
""focus"",""2"",""13137""
","""event"",""trial"",""time""
""blur"",""2"",""8717""
","""event"",""trial"",""time""
""focus"",""2"",""13137""
","""event"",""trial"",""time""
""fullscreenenter"",""1"",""3211""
","
","","","-1","","","20","9990","3793","&#9752;","elianto","#f73b6a7A"," ","-1","0","-10","[]","0","1","","","9990","3","3","3","lose","go","0"
"pit-trial","130","914060","0.0-7.0","battery-v0.2","","""event"",""trial"",""time""
""fullscreenenter"",""1"",""3211""
""blur"",""2"",""8717""
""focus"",""2"",""13137""
","""event"",""trial"",""time""
""blur"",""2"",""8717""
","""event"",""trial"",""time""
""focus"",""2"",""13137""
","""event"",""trial"",""time""
""fullscreenenter"",""1"",""3211""
","
","","","654.5","","","20","9990","3793","&#9733;","elianto","#3366ff99","-1"," ","0","0","[1507.1000000014901]","1","1","","","9990","4","2","2","win","no-go","0"
"pit-trial","131","918924","0.0-8.0","battery-v0.2","","""event"",""trial"",""time""
""fullscreenenter"",""1"",""3211""
""blur"",""2"",""8717""
""focus"",""2"",""13137""
","""event"",""trial"",""time""
""blur"",""2"",""8717""
","""event"",""trial"",""time""
""focus"",""2"",""13137""
","""event"",""trial"",""time""
""fullscreenenter"",""1"",""3211""
","
","","","-1","","","20","9990","3793","&#9728;","elianto","#f73b6a7A","-1","-1","1","-10","[]","0","1","","","9990","5","0","4","lose","no-go","1"
"pit-trial","132","922404","0.0-9.0","battery-v0.2","","""event"",""trial"",""time""
""fullscreenenter"",""1"",""3211""
""blur"",""2"",""8717""
""focus"",""2"",""13137""
","""event"",""trial"",""time""
""blur"",""2"",""8717""
","""event"",""trial"",""time""
""focus"",""2"",""13137""
","""event"",""trial"",""time""
""fullscreenenter"",""1"",""3211""
","
","","","618.6999999955297","","","20","9990","3793","&#9733;","elianto","#3366ff99","-1"," ","0","0","[1471.7000000029802]","1","1","","","9990","6","2","2","win","no-go","0"
"pit-trial","133","925892","0.0-10.0","battery-v0.2","","""event"",""trial"",""time""
""fullscreenenter"",""1"",""3211""
""blur"",""2"",""8717""
""focus"",""2"",""13137""
","""event"",""trial"",""time""
""blur"",""2"",""8717""
","""event"",""trial"",""time""
""focus"",""2"",""13137""
","""event"",""trial"",""time""
""fullscreenenter"",""1"",""3211""
","
","","","626.2000000029802","","","20","9990","3793","&#9730;","elianto","#3366ff99"," "," ","1","+10","[1478.2999999970198]","1","1","","","9990","7","1","1","win","go","0"
"pit-trial","134","930132","0.0-11.0","battery-v0.2","","""event"",""trial"",""time""
""fullscreenenter"",""1"",""3211""
""blur"",""2"",""8717""
""focus"",""2"",""13137""
","""event"",""trial"",""time""
""blur"",""2"",""8717""
","""event"",""trial"",""time""
""focus"",""2"",""13137""
","""event"",""trial"",""time""
""fullscreenenter"",""1"",""3211""
","
","","","1375","","","20","9990","3793","&#9752;","elianto","#f73b6a7A"," "," ","1","0","[2227.7000000029802]","1","1","","","9990","8","3","3","lose","go","0"
"pit-trial","135","933820","0.0-12.0","battery-v0.2","","""event"",""trial"",""time""
""fullscreenenter"",""1"",""3211""
""blur"",""2"",""8717""
""focus"",""2"",""13137""
","""event"",""trial"",""time""
""blur"",""2"",""8717""
","""event"",""trial"",""time""
""focus"",""2"",""13137""
","""event"",""trial"",""time""
""fullscreenenter"",""1"",""3211""
","
","","","826.2000000029802","","","20","9990","3793","&#9728;","elianto","#f73b6a7A","-1"," ","0","-10","[1677]","1","1","","","9990","9","0","4","lose","no-go","0"
"pit-trial","136","937636","0.0-13.0","battery-v0.2","","""event"",""trial"",""time""
""fullscreenenter"",""1"",""3211""
""blur"",""2"",""8717""
""focus"",""2"",""13137""
","""event"",""trial"",""time""
""blur"",""2"",""8717""
","""event"",""trial"",""time""
""focus"",""2"",""13137""
","""event"",""trial"",""time""
""fullscreenenter"",""1"",""3211""
","
","","","956","","","20","9990","3793","&#9752;","elianto","#f73b6a7A"," "," ","1","0","[1807.7999999970198]","1","1","","","9990","10","3","3","lose","go","0"
"pit-trial","137","941171","0.0-14.0","battery-v0.2","","""event"",""trial"",""time""
""fullscreenenter"",""1"",""3211""
""blur"",""2"",""8717""
""focus"",""2"",""13137""
","""event"",""trial"",""time""
""blur"",""2"",""8717""
","""event"",""trial"",""time""
""focus"",""2"",""13137""
","""event"",""trial"",""time""
""fullscreenenter"",""1"",""3211""
","
","","","678.5","","","20","9990","3793","&#9733;","elianto","#3366ff99","-1"," ","0","0","[1530.7000000029802]","1","1","","","9990","11","2","2","win","no-go","0"
"pit-trial","138","944763","0.0-15.0","battery-v0.2","","""event"",""trial"",""time""
""fullscreenenter"",""1"",""3211""
""blur"",""2"",""8717""
""focus"",""2"",""13137""
","""event"",""trial"",""time""
""blur"",""2"",""8717""
","""event"",""trial"",""time""
""focus"",""2"",""13137""
","""event"",""trial"",""time""
""fullscreenenter"",""1"",""3211""
","
","","","728.1999999955297","","","20","9990","3793","&#9730;","elianto","#3366ff99"," "," ","1","+10","[1580.7999999970198]","1","1","","","9990","12","1","1","win","go","0"
"pit-trial","139","949076","0.0-16.0","battery-v0.2","","""event"",""trial"",""time""
""fullscreenenter"",""1"",""3211""
""blur"",""2"",""8717""
""focus"",""2"",""13137""
","""event"",""trial"",""time""
""blur"",""2"",""8717""
","""event"",""trial"",""time""
""focus"",""2"",""13137""
","""event"",""trial"",""time""
""fullscreenenter"",""1"",""3211""
","
","","","1455.6000000014901","","","20","9990","3793","&#9728;","elianto","#f73b6a7A","-1"," ","0","-10","[2305.7999999970198]","1","1","","","9990","13","0","4","lose","no-go","0"
"pit-trial","140","952779","0.0-17.0","battery-v0.2","","""event"",""trial"",""time""
""fullscreenenter"",""1"",""3211""
""blur"",""2"",""8717""
""focus"",""2"",""13137""
","""event"",""trial"",""time""
""blur"",""2"",""8717""
","""event"",""trial"",""time""
""focus"",""2"",""13137""
","""event"",""trial"",""time""
""fullscreenenter"",""1"",""3211""
","
","","","840.7999999970198","","","20","9990","3793","&#9752;","elianto","#f73b6a7A"," "," ","1","0","[1693.1000000014901]","1","1","","","9990","14","3","3","lose","go","0"
"pit-trial","141","956411","0.0-18.0","battery-v0.2","","""event"",""trial"",""time""
""fullscreenenter"",""1"",""3211""
""blur"",""2"",""8717""
""focus"",""2"",""13137""
","""event"",""trial"",""time""
""blur"",""2"",""8717""
","""event"",""trial"",""time""
""focus"",""2"",""13137""
","""event"",""trial"",""time""
""fullscreenenter"",""1"",""3211""
","
","","","769.5999999940395","","","20","9990","3793","&#9730;","elianto","#3366ff99"," "," ","1","+10","[1619.6000000014901]","1","1","","","9990","15","1","1","win","go","0"
"pit-trial","142","960403","0.0-19.0","battery-v0.2","","""event"",""trial"",""time""
""fullscreenenter"",""1"",""3211""
""blur"",""2"",""8717""
""focus"",""2"",""13137""
","""event"",""trial"",""time""
""blur"",""2"",""8717""
","""event"",""trial"",""time""
""focus"",""2"",""13137""
","""event"",""trial"",""time""
""fullscreenenter"",""1"",""3211""
","
","","","1130.1000000014901","","","20","9990","3793","&#9733;","elianto","#3366ff99","-1"," ","0","0","[1980.7999999970198]","1","1","","","9990","16","2","2","win","no-go","0"
"pit-trial","143","964163","0.0-20.0","battery-v0.2","","""event"",""trial"",""time""
""fullscreenenter"",""1"",""3211""
""blur"",""2"",""8717""
""focus"",""2"",""13137""
","""event"",""trial"",""time""
""blur"",""2"",""8717""
","""event"",""trial"",""time""
""focus"",""2"",""13137""
","""event"",""trial"",""time""
""fullscreenenter"",""1"",""3211""
","
","","","898.7000000029802","","","20","9990","3793","&#9733;","elianto","#3366ff99","-1"," ","0","0","[1750.6000000014901]","1","1","","","9990","17","2","2","win","no-go","0"
"pit-trial","144","969027","0.0-21.0","battery-v0.2","","""event"",""trial"",""time""
""fullscreenenter"",""1"",""3211""
""blur"",""2"",""8717""
""focus"",""2"",""13137""
","""event"",""trial"",""time""
""blur"",""2"",""8717""
","""event"",""trial"",""time""
""focus"",""2"",""13137""
","""event"",""trial"",""time""
""fullscreenenter"",""1"",""3211""
","
","","","-1","","","20","9990","3793","&#9728;","elianto","#f73b6a7A","-1","-1","1","0","[]","0","1","","","9990","18","0","4","lose","no-go","0"
"pit-trial","145","972611","0.0-22.0","battery-v0.2","","""event"",""trial"",""time""
""fullscreenenter"",""1"",""3211""
""blur"",""2"",""8717""
""focus"",""2"",""13137""
","""event"",""trial"",""time""
""blur"",""2"",""8717""
","""event"",""trial"",""time""
""focus"",""2"",""13137""
","""event"",""trial"",""time""
""fullscreenenter"",""1"",""3211""
","
","","","723.8000000044703","","","20","9990","3793","&#9752;","elianto","#f73b6a7A"," "," ","1","0","[1575.7000000029802]","1","1","","","9990","19","3","3","lose","go","0"
"pit-trial","146","976450","0.0-23.0","battery-v0.2","","""event"",""trial"",""time""
""fullscreenenter"",""1"",""3211""
""blur"",""2"",""8717""
""focus"",""2"",""13137""
","""event"",""trial"",""time""
""blur"",""2"",""8717""
","""event"",""trial"",""time""
""focus"",""2"",""13137""
","""event"",""trial"",""time""
""fullscreenenter"",""1"",""3211""
","
","","","980.6000000014901","","","20","9990","3793","&#9730;","elianto","#3366ff99"," "," ","1","+10","[1831.5]","1","1","","","9990","20","1","1","win","go","0"
"pit-instructions","147","989353","0.0-24.0","battery-v0.2","","""event"",""trial"",""time""
""fullscreenenter"",""1"",""3211""
""blur"",""2"",""8717""
""focus"",""2"",""13137""
","""event"",""trial"",""time""
""blur"",""2"",""8717""
","""event"",""trial"",""time""
""focus"",""2"",""13137""
","""event"",""trial"",""time""
""fullscreenenter"",""1"",""3211""
","
","","[{""page_index"":0,""viewing_time"":5816.20000000298},{""page_index"":1,""viewing_time"":7083.0999999940395}]","12899.89999999851","","","","","","","","","","","","","","","","","","","","","","","",""
"pit-trial","148","992954","0.0-25.0","battery-v0.2","","""event"",""trial"",""time""
""fullscreenenter"",""1"",""3211""
""blur"",""2"",""8717""
""focus"",""2"",""13137""
","""event"",""trial"",""time""
""blur"",""2"",""8717""
","""event"",""trial"",""time""
""focus"",""2"",""13137""
","""event"",""trial"",""time""
""fullscreenenter"",""1"",""3211""
","
","","","743.5","","","20","9990","3793","b","elianto","#f73b6a7A"," "," ","1","0","[1594.8000000044703]","1","2","","","9990","21","3","3","lose","go","0"
"pit-trial","149","997818","0.0-26.0","battery-v0.2","","""event"",""trial"",""time""
""fullscreenenter"",""1"",""3211""
""blur"",""2"",""8717""
""focus"",""2"",""13137""
","""event"",""trial"",""time""
""blur"",""2"",""8717""
","""event"",""trial"",""time""
""focus"",""2"",""13137""
","""event"",""trial"",""time""
""fullscreenenter"",""1"",""3211""
","
","","","-1","","","20","9990","3793","t","elianto","#f73b6a7A","-1","-1","1","0","[]","0","2","","","9990","22","2","4","lose","no-go","0"
"pit-trial","150","1001482","0.0-27.0","battery-v0.2","","""event"",""trial"",""time""
""fullscreenenter"",""1"",""3211""
""blur"",""2"",""8717""
""focus"",""2"",""13137""
","""event"",""trial"",""time""
""blur"",""2"",""8717""
","""event"",""trial"",""time""
""focus"",""2"",""13137""
","""event"",""trial"",""time""
""fullscreenenter"",""1"",""3211""
","
","","","805.7000000029802","","","20","9990","3793","f","elianto","#3366ff99"," "," ","1","+10","[1657.5]","1","2","","","9990","23","1","1","win","go","0"
"pit-trial","151","1005938","0.0-28.0","battery-v0.2","","""event"",""trial"",""time""
""fullscreenenter"",""1"",""3211""
""blur"",""2"",""8717""
""focus"",""2"",""13137""
","""event"",""trial"",""time""
""blur"",""2"",""8717""
","""event"",""trial"",""time""
""focus"",""2"",""13137""
","""event"",""trial"",""time""
""fullscreenenter"",""1"",""3211""
","
","","","1592.5","","","20","9990","3793","n","elianto","#f73b6a7A","-1"," ","0","-10","[2444.7999999970198]","1","2","","","9990","24","0","4","lose","no-go","0"
"pit-trial","152","1009762","0.0-29.0","battery-v0.2","","""event"",""trial"",""time""
""fullscreenenter"",""1"",""3211""
""blur"",""2"",""8717""
""focus"",""2"",""13137""
","""event"",""trial"",""time""
""blur"",""2"",""8717""
","""event"",""trial"",""time""
""focus"",""2"",""13137""
","""event"",""trial"",""time""
""fullscreenenter"",""1"",""3211""
","
","","","964.1999999955297","","","20","9990","3793","f","elianto","#3366ff99"," "," ","1","+10","[1816]","1","2","","","9990","25","1","1","win","go","0"
"pit-trial","153","1014002","0.0-30.0","battery-v0.2","","""event"",""trial"",""time""
""fullscreenenter"",""1"",""3211""
""blur"",""2"",""8717""
""focus"",""2"",""13137""
","""event"",""trial"",""time""
""blur"",""2"",""8717""
","""event"",""trial"",""time""
""focus"",""2"",""13137""
","""event"",""trial"",""time""
""fullscreenenter"",""1"",""3211""
","
","","","1383.3999999985099","","","20","9990","3793","n","elianto","#f73b6a7A","-1"," ","0","0","[2233.7999999970198]","1","2","","","9990","26","0","4","lose","no-go","1"
"pit-trial","154","1018866","0.0-31.0","battery-v0.2","","""event"",""trial"",""time""
""fullscreenenter"",""1"",""3211""
""blur"",""2"",""8717""
""focus"",""2"",""13137""
","""event"",""trial"",""time""
""blur"",""2"",""8717""
","""event"",""trial"",""time""
""focus"",""2"",""13137""
","""event"",""trial"",""time""
""fullscreenenter"",""1"",""3211""
","
","","","-1","","","20","9990","3793","t","elianto","#f73b6a7A","-1","-1","1","0","[]","0","2","","","9990","27","2","4","lose","no-go","0"
"pit-trial","155","1023505","0.0-32.0","battery-v0.2","","""event"",""trial"",""time""
""fullscreenenter"",""1"",""3211""
""blur"",""2"",""8717""
""focus"",""2"",""13137""
","""event"",""trial"",""time""
""blur"",""2"",""8717""
","""event"",""trial"",""time""
""focus"",""2"",""13137""
","""event"",""trial"",""time""
""fullscreenenter"",""1"",""3211""
","
","","","1778.6999999955297","","","20","9990","3793","b","elianto","#f73b6a7A"," "," ","1","0","[2630.39999999851]","1","2","","","9990","28","3","3","lose","go","0"
"pit-trial","156","1027418","0.0-33.0","battery-v0.2","","""event"",""trial"",""time""
""fullscreenenter"",""1"",""3211""
""blur"",""2"",""8717""
""focus"",""2"",""13137""
","""event"",""trial"",""time""
""blur"",""2"",""8717""
","""event"",""trial"",""time""
""focus"",""2"",""13137""
","""event"",""trial"",""time""
""fullscreenenter"",""1"",""3211""
","
","","","1053.3999999985099","","","20","9990","3793","f","elianto","#3366ff99"," "," ","1","+10","[1906]","1","2","","","9990","29","1","1","win","go","0"
"pit-trial","157","1032281","0.0-34.0","battery-v0.2","","""event"",""trial"",""time""
""fullscreenenter"",""1"",""3211""
""blur"",""2"",""8717""
""focus"",""2"",""13137""
","""event"",""trial"",""time""
""blur"",""2"",""8717""
","""event"",""trial"",""time""
""focus"",""2"",""13137""
","""event"",""trial"",""time""
""fullscreenenter"",""1"",""3211""
","
","","","-1","","","20","9990","3793","t","elianto","#f73b6a7A","-1","-1","1","0","[]","0","2","","","9990","30","2","4","lose","no-go","0"
"pit-trial","158","1036793","0.0-35.0","battery-v0.2","","""event"",""trial"",""time""
""fullscreenenter"",""1"",""3211""
""blur"",""2"",""8717""
""focus"",""2"",""13137""
","""event"",""trial"",""time""
""blur"",""2"",""8717""
","""event"",""trial"",""time""
""focus"",""2"",""13137""
","""event"",""trial"",""time""
""fullscreenenter"",""1"",""3211""
","
","","","1649.2000000029802","","","20","9990","3793","b","elianto","#f73b6a7A"," "," ","1","0","[2501]","1","2","","","9990","31","3","3","lose","go","0"
"pit-trial","159","1041257","0.0-36.0","battery-v0.2","","""event"",""trial"",""time""
""fullscreenenter"",""1"",""3211""
""blur"",""2"",""8717""
""focus"",""2"",""13137""
","""event"",""trial"",""time""
""blur"",""2"",""8717""
","""event"",""trial"",""time""
""focus"",""2"",""13137""
","""event"",""trial"",""time""
""fullscreenenter"",""1"",""3211""
","
","","","1604.7999999970198","","","20","9990","3793","n","elianto","#f73b6a7A","-1"," ","0","-10","[2454.89999999851]","1","2","","","9990","32","0","4","lose","no-go","0"
"pit-trial","160","1045001","0.0-37.0","battery-v0.2","","""event"",""trial"",""time""
""fullscreenenter"",""1"",""3211""
""blur"",""2"",""8717""
""focus"",""2"",""13137""
","""event"",""trial"",""time""
""blur"",""2"",""8717""
","""event"",""trial"",""time""
""focus"",""2"",""13137""
","""event"",""trial"",""time""
""fullscreenenter"",""1"",""3211""
","
","","","880.6000000014901","","","20","9990","3793","f","elianto","#3366ff99"," "," ","1","+10","[1732.5]","1","2","","","9990","33","1","1","win","go","0"
"pit-trial","161","1048985","0.0-38.0","battery-v0.2","","""event"",""trial"",""time""
""fullscreenenter"",""1"",""3211""
""blur"",""2"",""8717""
""focus"",""2"",""13137""
","""event"",""trial"",""time""
""blur"",""2"",""8717""
","""event"",""trial"",""time""
""focus"",""2"",""13137""
","""event"",""trial"",""time""
""fullscreenenter"",""1"",""3211""
","
","","","1122.8999999985099","","","20","9990","3793","n","elianto","#f73b6a7A","-1"," ","0","-10","[1974.7999999970198]","1","2","","","9990","34","0","4","lose","no-go","0"
"pit-trial","162","1053848","0.0-39.0","battery-v0.2","","""event"",""trial"",""time""
""fullscreenenter"",""1"",""3211""
""blur"",""2"",""8717""
""focus"",""2"",""13137""
","""event"",""trial"",""time""
""blur"",""2"",""8717""
","""event"",""trial"",""time""
""focus"",""2"",""13137""
","""event"",""trial"",""time""
""fullscreenenter"",""1"",""3211""
","
","","","-1","","","20","9990","3793","t","elianto","#f73b6a7A","-1","-1","1","0","[]","0","2","","","9990","35","2","4","lose","no-go","0"
"pit-trial","163","1058049","0.0-40.0","battery-v0.2","","""event"",""trial"",""time""
""fullscreenenter"",""1"",""3211""
""blur"",""2"",""8717""
""focus"",""2"",""13137""
","""event"",""trial"",""time""
""blur"",""2"",""8717""
","""event"",""trial"",""time""
""focus"",""2"",""13137""
","""event"",""trial"",""time""
""fullscreenenter"",""1"",""3211""
","
","","","1341.0999999940395","","","20","9990","3793","b","elianto","#f73b6a7A"," "," ","1","0","[2195.9000000059605]","1","2","","","9990","36","3","3","lose","go","0"
"pit-trial","164","1061801","0.0-41.0","battery-v0.2","","""event"",""trial"",""time""
""fullscreenenter"",""1"",""3211""
""blur"",""2"",""8717""
""focus"",""2"",""13137""
","""event"",""trial"",""time""
""blur"",""2"",""8717""
","""event"",""trial"",""time""
""focus"",""2"",""13137""
","""event"",""trial"",""time""
""fullscreenenter"",""1"",""3211""
","
","","","893","","","20","9990","3793","f","elianto","#3366ff99"," "," ","1","+10","[1745.1000000014901]","1","2","","","9990","37","1","1","win","go","0"
"pit-trial","165","1066664","0.0-42.0","battery-v0.2","","""event"",""trial"",""time""
""fullscreenenter"",""1"",""3211""
""blur"",""2"",""8717""
""focus"",""2"",""13137""
","""event"",""trial"",""time""
""blur"",""2"",""8717""
","""event"",""trial"",""time""
""focus"",""2"",""13137""
","""event"",""trial"",""time""
""fullscreenenter"",""1"",""3211""
","
","","","-1","","","20","9990","3793","b","elianto","#f73b6a7A"," ","-1","0","-10","[]","0","2","","","9990","38","3","3","lose","go","0"
"pit-trial","166","1071528","0.0-43.0","battery-v0.2","","""event"",""trial"",""time""
""fullscreenenter"",""1"",""3211""
""blur"",""2"",""8717""
""focus"",""2"",""13137""
","""event"",""trial"",""time""
""blur"",""2"",""8717""
","""event"",""trial"",""time""
""focus"",""2"",""13137""
","""event"",""trial"",""time""
""fullscreenenter"",""1"",""3211""
","
","","","-1","","","20","9990","3793","t","elianto","#f73b6a7A","-1","-1","1","0","[]","0","2","","","9990","39","2","4","lose","no-go","0"
"pit-trial","167","1076392","0.0-44.0","battery-v0.2","","""event"",""trial"",""time""
""fullscreenenter"",""1"",""3211""
""blur"",""2"",""8717""
""focus"",""2"",""13137""
","""event"",""trial"",""time""
""blur"",""2"",""8717""
","""event"",""trial"",""time""
""focus"",""2"",""13137""
","""event"",""trial"",""time""
""fullscreenenter"",""1"",""3211""
","
","","","-1","","","20","9990","3793","n","elianto","#f73b6a7A","-1","-1","1","0","[]","0","2","","","9990","40","0","4","lose","no-go","0"
"pit-trial","168","1080016","0.0-45.0","battery-v0.2","","""event"",""trial"",""time""
""fullscreenenter"",""1"",""3211""
""blur"",""2"",""8717""
""focus"",""2"",""13137""
","""event"",""trial"",""time""
""blur"",""2"",""8717""
","""event"",""trial"",""time""
""focus"",""2"",""13137""
","""event"",""trial"",""time""
""fullscreenenter"",""1"",""3211""
","
","","","761.4000000059605","","","20","9990","3793","f","elianto","#3366ff99"," "," ","1","+10","[1613.3000000044703]","1","2","","","9990","41","1","1","win","go","0"
"pit-trial","169","1083969","0.0-46.0","battery-v0.2","","""event"",""trial"",""time""
""fullscreenenter"",""1"",""3211""
""blur"",""2"",""8717""
""focus"",""2"",""13137""
","""event"",""trial"",""time""
""blur"",""2"",""8717""
","""event"",""trial"",""time""
""focus"",""2"",""13137""
","""event"",""trial"",""time""
""fullscreenenter"",""1"",""3211""
","
","","","1089.0999999940395","","","20","9990","3793","b","elianto","#f73b6a7A"," "," ","1","-10","[1940.9000000059605]","1","2","","","9990","42","3","3","lose","go","1"
"pit-trial","170","1088832","0.0-47.0","battery-v0.2","","""event"",""trial"",""time""
""fullscreenenter"",""1"",""3211""
""blur"",""2"",""8717""
""focus"",""2"",""13137""
","""event"",""trial"",""time""
""blur"",""2"",""8717""
","""event"",""trial"",""time""
""focus"",""2"",""13137""
","""event"",""trial"",""time""
""fullscreenenter"",""1"",""3211""
","
","","","-1","","","20","9990","3793","t","elianto","#f73b6a7A","-1","-1","1","-10","[]","0","2","","","9990","43","2","4","lose","no-go","1"
"pit-trial","171","1093696","0.0-48.0","battery-v0.2","","""event"",""trial"",""time""
""fullscreenenter"",""1"",""3211""
""blur"",""2"",""8717""
""focus"",""2"",""13137""
","""event"",""trial"",""time""
""blur"",""2"",""8717""
","""event"",""trial"",""time""
""focus"",""2"",""13137""
","""event"",""trial"",""time""
""fullscreenenter"",""1"",""3211""
","
","","","-1","","","20","9990","3793","n","elianto","#f73b6a7A","-1","-1","1","0","[]","0","2","","","9990","44","0","4","lose","no-go","0"
"pit-trial","172","1098095","0.0-49.0","battery-v0.2","","""event"",""trial"",""time""
""fullscreenenter"",""1"",""3211""
""blur"",""2"",""8717""
""focus"",""2"",""13137""
","""event"",""trial"",""time""
""blur"",""2"",""8717""
","""event"",""trial"",""time""
""focus"",""2"",""13137""
","""event"",""trial"",""time""
""fullscreenenter"",""1"",""3211""
","
","","","1542.3000000044703","","","20","9990","3793","t","elianto","#f73b6a7A","-1"," ","0","0","[2393.8000000044703]","1","2","","","9990","45","2","4","lose","no-go","1"
"pit-trial","173","1102959","0.0-50.0","battery-v0.2","","""event"",""trial"",""time""
""fullscreenenter"",""1"",""3211""
""blur"",""2"",""8717""
""focus"",""2"",""13137""
","""event"",""trial"",""time""
""blur"",""2"",""8717""
","""event"",""trial"",""time""
""focus"",""2"",""13137""
","""event"",""trial"",""time""
""fullscreenenter"",""1"",""3211""
","
","","","-1","","","20","9990","3793","b","elianto","#f73b6a7A"," ","-1","0","0","[]","0","2","","","9990","46","3","3","lose","go","1"
"pit-trial","174","1107144","0.0-51.0","battery-v0.2","","""event"",""trial"",""time""
""fullscreenenter"",""1"",""3211""
""blur"",""2"",""8717""
""focus"",""2"",""13137""
","""event"",""trial"",""time""
""blur"",""2"",""8717""
","""event"",""trial"",""time""
""focus"",""2"",""13137""
","""event"",""trial"",""time""
""fullscreenenter"",""1"",""3211""
","
","","","1322.2999999970198","","","20","9990","3793","c","elianto","#3366ff99","-1"," ","0","0","[2173.39999999851]","1","2","","","9990","47","4","2","win","no-go","0"
"pit-trial","175","1112007","0.0-52.0","battery-v0.2","","""event"",""trial"",""time""
""fullscreenenter"",""1"",""3211""
""blur"",""2"",""8717""
""focus"",""2"",""13137""
","""event"",""trial"",""time""
""blur"",""2"",""8717""
","""event"",""trial"",""time""
""focus"",""2"",""13137""
","""event"",""trial"",""time""
""fullscreenenter"",""1"",""3211""
","
","","","-1","","","20","9990","3793","n","elianto","#f73b6a7A","-1","-1","1","0","[]","0","2","","","9990","48","0","4","lose","no-go","0"
"pit-trial","176","1116871","0.0-53.0","battery-v0.2","","""event"",""trial"",""time""
""fullscreenenter"",""1"",""3211""
""blur"",""2"",""8717""
""focus"",""2"",""13137""
","""event"",""trial"",""time""
""blur"",""2"",""8717""
","""event"",""trial"",""time""
""focus"",""2"",""13137""
","""event"",""trial"",""time""
""fullscreenenter"",""1"",""3211""
","
","","","-1","","","20","9990","3793","b","elianto","#f73b6a7A"," ","-1","0","-10","[]","0","2","","","9990","49","3","3","lose","go","0"
"pit-trial","177","1120760","0.0-54.0","battery-v0.2","","""event"",""trial"",""time""
""fullscreenenter"",""1"",""3211""
""blur"",""2"",""8717""
""focus"",""2"",""13137""
","""event"",""trial"",""time""
""blur"",""2"",""8717""
","""event"",""trial"",""time""
""focus"",""2"",""13137""
","""event"",""trial"",""time""
""fullscreenenter"",""1"",""3211""
","
","","","1028.5999999940395","","","20","9990","3793","f","elianto","#3366ff99"," "," ","1","+10","[1880.2000000029802]","1","2","","","9990","50","1","1","win","go","0"
"pit-trial","178","1125623","0.0-55.0","battery-v0.2","","""event"",""trial"",""time""
""fullscreenenter"",""1"",""3211""
""blur"",""2"",""8717""
""focus"",""2"",""13137""
","""event"",""trial"",""time""
""blur"",""2"",""8717""
","""event"",""trial"",""time""
""focus"",""2"",""13137""
","""event"",""trial"",""time""
""fullscreenenter"",""1"",""3211""
","
","","","-1","","","20","9990","3793","n","elianto","#f73b6a7A","-1","-1","1","0","[]","0","2","","","9990","51","0","4","lose","no-go","0"
"pit-trial","179","1130487","0.0-56.0","battery-v0.2","","""event"",""trial"",""time""
""fullscreenenter"",""1"",""3211""
""blur"",""2"",""8717""
""focus"",""2"",""13137""
","""event"",""trial"",""time""
""blur"",""2"",""8717""
","""event"",""trial"",""time""
""focus"",""2"",""13137""
","""event"",""trial"",""time""
""fullscreenenter"",""1"",""3211""
","
","","","-1","","","20","9990","3793","c","elianto","#3366ff99","-1","-1","1","+10","[]","0","2","","","9990","52","4","2","win","no-go","0"
"pit-trial","180","1134863","0.0-57.0","battery-v0.2","","""event"",""trial"",""time""
""fullscreenenter"",""1"",""3211""
""blur"",""2"",""8717""
""focus"",""2"",""13137""
","""event"",""trial"",""time""
""blur"",""2"",""8717""
","""event"",""trial"",""time""
""focus"",""2"",""13137""
","""event"",""trial"",""time""
""fullscreenenter"",""1"",""3211""
","
","","","1517.5","","","20","9990","3793","t","elianto","#f73b6a7A","-1"," ","0","0","[2370.60000000149]","1","2","","","9990","53","2","4","lose","no-go","1"
"pit-trial","181","1139727","0.0-58.0","battery-v0.2","","""event"",""trial"",""time""
""fullscreenenter"",""1"",""3211""
""blur"",""2"",""8717""
""focus"",""2"",""13137""
","""event"",""trial"",""time""
""blur"",""2"",""8717""
","""event"",""trial"",""time""
""focus"",""2"",""13137""
","""event"",""trial"",""time""
""fullscreenenter"",""1"",""3211""
","
","","","-1","","","20","9990","3793","n","elianto","#f73b6a7A","-1","-1","1","0","[]","0","2","","","9990","54","0","4","lose","no-go","0"
"pit-trial","182","1143342","0.0-59.0","battery-v0.2","","""event"",""trial"",""time""
""fullscreenenter"",""1"",""3211""
""blur"",""2"",""8717""
""focus"",""2"",""13137""
","""event"",""trial"",""time""
""blur"",""2"",""8717""
","""event"",""trial"",""time""
""focus"",""2"",""13137""
","""event"",""trial"",""time""
""fullscreenenter"",""1"",""3211""
","
","","","758.7000000029802","","","20","9990","3793","f","elianto","#3366ff99"," "," ","1","+10","[1608.8000000044703]","1","2","","","9990","55","1","1","win","go","0"
"pit-trial","183","1148206","0.0-60.0","battery-v0.2","","""event"",""trial"",""time""
""fullscreenenter"",""1"",""3211""
""blur"",""2"",""8717""
""focus"",""2"",""13137""
","""event"",""trial"",""time""
""blur"",""2"",""8717""
","""event"",""trial"",""time""
""focus"",""2"",""13137""
","""event"",""trial"",""time""
""fullscreenenter"",""1"",""3211""
","
","","","-1","","","20","9990","3793","c","elianto","#3366ff99","-1","-1","1","0","[]","0","2","","","9990","56","4","2","win","no-go","1"
"pit-trial","184","1152319","0.0-61.0","battery-v0.2","","""event"",""trial"",""time""
""fullscreenenter"",""1"",""3211""
""blur"",""2"",""8717""
""focus"",""2"",""13137""
","""event"",""trial"",""time""
""blur"",""2"",""8717""
","""event"",""trial"",""time""
""focus"",""2"",""13137""
","""event"",""trial"",""time""
""fullscreenenter"",""1"",""3211""
","
","","","1250.2999999970198","","","20","9990","3793","b","elianto","#f73b6a7A"," "," ","1","-10","[2102]","1","2","","","9990","57","3","3","lose","go","1"
"pit-trial","185","1157182","0.0-62.0","battery-v0.2","","""event"",""trial"",""time""
""fullscreenenter"",""1"",""3211""
""blur"",""2"",""8717""
""focus"",""2"",""13137""
","""event"",""trial"",""time""
""blur"",""2"",""8717""
","""event"",""trial"",""time""
""focus"",""2"",""13137""
","""event"",""trial"",""time""
