"trial_type","trial_index","time_elapsed","internal_node_id","task_version","subject_id","interactions","blur_events","focus_events","fullscreenenter_events","fullscreenexit_events","success","view_history","rt","responses","num_errors","age","subject","participantId","rune","rune_set","hex","correct","choice","accuracy","outcome","keys","total_keys","block","practice","value","sub","trial","stimulus","robot","valence","action","sham"
"pavlovia","0","9","0.0-0.0","battery-v0.2","","""event"",""trial"",""time""
""blur"",""1"",""2502""
""focus"",""1"",""6608""
""fullscreenenter"",""1"",""8076""
","""event"",""trial"",""time""
""blur"",""1"",""2502""
","""event"",""trial"",""time""
""focus"",""1"",""6608""
","""event"",""trial"",""time""
""fullscreenenter"",""1"",""8076""
","
","","","","","","","","","","","","","","","","","","","","","","","","","","",""
"fullscreen","1","9066","0.0-1.0","battery-v0.2","","""event"",""trial"",""time""
""blur"",""1"",""2502""
""focus"",""1"",""6608""
""fullscreenenter"",""1"",""8076""
","""event"",""trial"",""time""
""blur"",""1"",""2502""
","""event"",""trial"",""time""
""focus"",""1"",""6608""
","""event"",""trial"",""time""
""fullscreenenter"",""1"",""8076""
","
","true","","","","","","","","","","","","","","","","","","","","","","","","","",""
"pit-instructions","2","13601","0.0-2.0-0.0","battery-v0.2","","""event"",""trial"",""time""
""blur"",""1"",""2502""
""focus"",""1"",""6608""
""fullscreenenter"",""1"",""8076""
","""event"",""trial"",""time""
""blur"",""1"",""2502""
","""event"",""trial"",""time""
""focus"",""1"",""6608""
","""event"",""trial"",""time""
""fullscreenenter"",""1"",""8076""
","
","","[{""page_index"":0,""viewing_time"":4530.799999952316}]","4531.200000047684","","","","","","","","","","","","","","","","","","","","","","","",""
"pit-comprehension","3","18004","0.0-2.0-1.0-0.0","battery-v0.2","","""event"",""trial"",""time""
""blur"",""1"",""2502""
""focus"",""1"",""6608""
""fullscreenenter"",""1"",""8076""
","""event"",""trial"",""time""
""blur"",""1"",""2502""
","""event"",""trial"",""time""
""focus"",""1"",""6608""
","""event"",""trial"",""time""
""fullscreenenter"",""1"",""8076""
","
","","","4397.899999856949","[""shark""]","0","22","13621","5819","","","","","","","","","","","","","","","","","","",""
"pit-instructions","4","20827","0.0-2.0-1.0-1.0","battery-v0.2","","""event"",""trial"",""time""
""blur"",""1"",""2502""
""focus"",""1"",""6608""
""fullscreenenter"",""1"",""8076""
","""event"",""trial"",""time""
""blur"",""1"",""2502""
","""event"",""trial"",""time""
""focus"",""1"",""6608""
","""event"",""trial"",""time""
""fullscreenenter"",""1"",""8076""
","
","","[{""page_index"":0,""viewing_time"":2808.7999999523163}]","2809.100000143051","","","","","","","","","","","","","","","","","","","","","","","",""
"pit-comprehension","5","24285","0.0-2.0-2.0-0.0","battery-v0.2","","""event"",""trial"",""time""
""blur"",""1"",""2502""
""focus"",""1"",""6608""
""fullscreenenter"",""1"",""8076""
","""event"",""trial"",""time""
""blur"",""1"",""2502""
","""event"",""trial"",""time""
""focus"",""1"",""6608""
","""event"",""trial"",""time""
""fullscreenenter"",""1"",""8076""
","
","","","3453.2999999523163","[""tiger""]","0","22","13621","5819","","","","","","","","","","","","","","","","","","",""
"pit-instructions","6","25709","0.0-2.0-2.0-1.0","battery-v0.2","","""event"",""trial"",""time""
""blur"",""1"",""2502""
""focus"",""1"",""6608""
""fullscreenenter"",""1"",""8076""
","""event"",""trial"",""time""
""blur"",""1"",""2502""
","""event"",""trial"",""time""
""focus"",""1"",""6608""
","""event"",""trial"",""time""
""fullscreenenter"",""1"",""8076""
","
","","[{""page_index"":0,""viewing_time"":1420.1000001430511}]","1420.5","","","","","","","","","","","","","","","","","","","","","","","",""
"pit-instructions","7","138569","0.0-2.0-3.0","battery-v0.2","","""event"",""trial"",""time""
""blur"",""1"",""2502""
""focus"",""1"",""6608""
""fullscreenenter"",""1"",""8076""
","""event"",""trial"",""time""
""blur"",""1"",""2502""
","""event"",""trial"",""time""
""focus"",""1"",""6608""
","""event"",""trial"",""time""
""fullscreenenter"",""1"",""8076""
","
","","[{""page_index"":0,""viewing_time"":8864.900000095367},{""page_index"":1,""viewing_time"":9953.099999904633},{""page_index"":2,""viewing_time"":6606.900000095367},{""page_index"":3,""viewing_time"":9608.799999952316},{""page_index"":4,""viewing_time"":7755},{""page_index"":5,""viewing_time"":6164.899999856949},{""page_index"":6,""viewing_time"":7440.200000047684},{""page_index"":7,""viewing_time"":6305.600000143051},{""page_index"":8,""viewing_time"":7792.5},{""page_index"":9,""viewing_time"":9389.399999856949},{""page_index"":10,""viewing_time"":8591.799999952316},{""page_index"":11,""viewing_time"":8377.700000047684},{""page_index"":12,""viewing_time"":9364},{""page_index"":13,""viewing_time"":6641.100000143051}]","112856.5","","","","","","","","","","","","","","","","","","","","","","","",""
"pit-trial","8","142123","0.0-2.0-4.0-0.0","battery-v0.2","","""event"",""trial"",""time""
""blur"",""1"",""2502""
""focus"",""1"",""6608""
""fullscreenenter"",""1"",""8076""
","""event"",""trial"",""time""
""blur"",""1"",""2502""
","""event"",""trial"",""time""
""focus"",""1"",""6608""
","""event"",""trial"",""time""
""fullscreenenter"",""1"",""8076""
","
","","","697.7999999523163","","","22","13621","5819","&#9784;","elianto","#FFFFF080"," "," ","1","&#10004","[1549.2999999523163]","1","0","0","","","","","","","",""
"pit-trial","9","145536","0.0-2.0-4.1-0.1","battery-v0.2","","""event"",""trial"",""time""
""blur"",""1"",""2502""
""focus"",""1"",""6608""
""fullscreenenter"",""1"",""8076""
","""event"",""trial"",""time""
""blur"",""1"",""2502""
","""event"",""trial"",""time""
""focus"",""1"",""6608""
","""event"",""trial"",""time""
""fullscreenenter"",""1"",""8076""
","
","","","542.3999998569489","","","22","13621","5819","&#9784;","elianto","#FFFFF080"," "," ","1","&#10004","[1406.2000000476837]","1","0","0","","","","","","","",""
"pit-trial","10","148948","0.0-2.0-4.2-0.2","battery-v0.2","","""event"",""trial"",""time""
""blur"",""1"",""2502""
""focus"",""1"",""6608""
""fullscreenenter"",""1"",""8076""
","""event"",""trial"",""time""
""blur"",""1"",""2502""
","""event"",""trial"",""time""
""focus"",""1"",""6608""
","""event"",""trial"",""time""
""fullscreenenter"",""1"",""8076""
","
","","","550.1999998092651","","","22","13621","5819","&#9784;","elianto","#FFFFF080"," "," ","1","&#10004","[1401.3999998569489]","1","0","0","","","","","","","",""
"pit-trial","11","152476","0.0-2.0-4.3-0.3","battery-v0.2","","""event"",""trial"",""time""
""blur"",""1"",""2502""
""focus"",""1"",""6608""
""fullscreenenter"",""1"",""8076""
","""event"",""trial"",""time""
""blur"",""1"",""2502""
","""event"",""trial"",""time""
""focus"",""1"",""6608""
","""event"",""trial"",""time""
""fullscreenenter"",""1"",""8076""
","
","","","663.7999999523163","","","22","13621","5819","&#9784;","elianto","#FFFFF080"," "," ","1","&#10004","[1519.2999999523163]","1","0","0","","","","","","","",""
"pit-trial","12","156110","0.0-2.0-4.4-0.4","battery-v0.2","","""event"",""trial"",""time""
""blur"",""1"",""2502""
""focus"",""1"",""6608""
""fullscreenenter"",""1"",""8076""
","""event"",""trial"",""time""
""blur"",""1"",""2502""
","""event"",""trial"",""time""
""focus"",""1"",""6608""
","""event"",""trial"",""time""
""fullscreenenter"",""1"",""8076""
","
","","","769","","","22","13621","5819","&#9784;","elianto","#FFFFF080"," "," ","1","&#10004","[1629]","1","0","0","","","","","","","",""
"pit-instructions","13","182848","0.0-2.0-5.0","battery-v0.2","","""event"",""trial"",""time""
""blur"",""1"",""2502""
""focus"",""1"",""6608""
""fullscreenenter"",""1"",""8076""
","""event"",""trial"",""time""
""blur"",""1"",""2502""
","""event"",""trial"",""time""
""focus"",""1"",""6608""
","""event"",""trial"",""time""
""fullscreenenter"",""1"",""8076""
","
","","[{""page_index"":0,""viewing_time"":6208.799999952316},{""page_index"":1,""viewing_time"":6143.5},{""page_index"":2,""viewing_time"":7801.799999952316},{""page_index"":3,""viewing_time"":6580.099999904633}]","26734.699999809265","","","","","","","","","","","","","","","","","","","","","","","",""
"pit-trial","14","187718","0.0-2.0-6.0-0.0","battery-v0.2","","""event"",""trial"",""time""
""blur"",""1"",""2502""
""focus"",""1"",""6608""
""fullscreenenter"",""1"",""8076""
","""event"",""trial"",""time""
""blur"",""1"",""2502""
","""event"",""trial"",""time""
""focus"",""1"",""6608""
","""event"",""trial"",""time""
""fullscreenenter"",""1"",""8076""
","
","","","-1","","","22","13621","5819","&#9854;","elianto","#FFFFF080","-1","-1","1","&#10004","[]","0","0","1","","","","","","","",""
"pit-trial","15","192587","0.0-2.0-6.1-0.1","battery-v0.2","","""event"",""trial"",""time""
""blur"",""1"",""2502""
""focus"",""1"",""6608""
""fullscreenenter"",""1"",""8076""
","""event"",""trial"",""time""
""blur"",""1"",""2502""
","""event"",""trial"",""time""
""focus"",""1"",""6608""
","""event"",""trial"",""time""
""fullscreenenter"",""1"",""8076""
","
","","","-1","","","22","13621","5819","&#9854;","elianto","#FFFFF080","-1","-1","1","&#10004","[]","0","0","1","","","","","","","",""
"pit-trial","16","197450","0.0-2.0-6.2-0.2","battery-v0.2","","""event"",""trial"",""time""
""blur"",""1"",""2502""
""focus"",""1"",""6608""
""fullscreenenter"",""1"",""8076""
","""event"",""trial"",""time""
""blur"",""1"",""2502""
","""event"",""trial"",""time""
""focus"",""1"",""6608""
","""event"",""trial"",""time""
""fullscreenenter"",""1"",""8076""
","
","","","-1","","","22","13621","5819","&#9854;","elianto","#FFFFF080","-1","-1","1","&#10004","[]","0","0","1","","","","","","","",""
"pit-trial","17","202316","0.0-2.0-6.3-0.3","battery-v0.2","","""event"",""trial"",""time""
""blur"",""1"",""2502""
""focus"",""1"",""6608""
""fullscreenenter"",""1"",""8076""
","""event"",""trial"",""time""
""blur"",""1"",""2502""
","""event"",""trial"",""time""
""focus"",""1"",""6608""
","""event"",""trial"",""time""
""fullscreenenter"",""1"",""8076""
","
","","","-1","","","22","13621","5819","&#9854;","elianto","#FFFFF080","-1","-1","1","&#10004","[]","0","0","1","","","","","","","",""
"pit-trial","18","207184","0.0-2.0-6.4-0.4","battery-v0.2","","""event"",""trial"",""time""
""blur"",""1"",""2502""
""focus"",""1"",""6608""
""fullscreenenter"",""1"",""8076""
","""event"",""trial"",""time""
""blur"",""1"",""2502""
","""event"",""trial"",""time""
""focus"",""1"",""6608""
","""event"",""trial"",""time""
""fullscreenenter"",""1"",""8076""
","
","","","-1","","","22","13621","5819","&#9854;","elianto","#FFFFF080","-1","-1","1","&#10004","[]","0","0","1","","","","","","","",""
"pit-instructions","19","345116","0.0-2.0-7.0","battery-v0.2","","""event"",""trial"",""time""
""blur"",""1"",""2502""
""focus"",""1"",""6608""
""fullscreenenter"",""1"",""8076""
","""event"",""trial"",""time""
""blur"",""1"",""2502""
","""event"",""trial"",""time""
""focus"",""1"",""6608""
","""event"",""trial"",""time""
""fullscreenenter"",""1"",""8076""
","
","","[{""page_index"":0,""viewing_time"":6408.899999856949},{""page_index"":1,""viewing_time"":8929.799999952316},{""page_index"":2,""viewing_time"":6041.700000047684},{""page_index"":3,""viewing_time"":7074.400000095367},{""page_index"":4,""viewing_time"":6055.099999904633},{""page_index"":5,""viewing_time"":5702.5},{""page_index"":6,""viewing_time"":8720.400000095367},{""page_index"":7,""viewing_time"":8794.799999952316},{""page_index"":8,""viewing_time"":7281},{""page_index"":9,""viewing_time"":7579.799999952316},{""page_index"":10,""viewing_time"":8196.600000143051},{""page_index"":11,""viewing_time"":8089},{""page_index"":12,""viewing_time"":8730.799999952316},{""page_index"":13,""viewing_time"":8788.200000047684},{""page_index"":14,""viewing_time"":7746.5},{""page_index"":15,""viewing_time"":7086.699999809265},{""page_index"":16,""viewing_time"":7466},{""page_index"":17,""viewing_time"":9235.200000047684}]","137927.59999990463","","","","","","","","","","","","","","","","","","","","","","","",""
"pit-trial","20","349980","0.0-2.0-8.0-0.0","battery-v0.2","","""event"",""trial"",""time""
""blur"",""1"",""2502""
""focus"",""1"",""6608""
""fullscreenenter"",""1"",""8076""
","""event"",""trial"",""time""
""blur"",""1"",""2502""
","""event"",""trial"",""time""
""focus"",""1"",""6608""
","""event"",""trial"",""time""
""fullscreenenter"",""1"",""8076""
","
","","","-1","","","22","13621","5819","&#9776;","elianto","#3366ff99"," ","-1","0","0","[]","0","0","1","","","","","","","",""
"pit-trial","21","354845","0.0-2.0-8.0-1.0","battery-v0.2","","""event"",""trial"",""time""
""blur"",""1"",""2502""
""focus"",""1"",""6608""
""fullscreenenter"",""1"",""8076""
","""event"",""trial"",""time""
""blur"",""1"",""2502""
","""event"",""trial"",""time""
""focus"",""1"",""6608""
","""event"",""trial"",""time""
""fullscreenenter"",""1"",""8076""
","
","","","-1","","","22","13621","5819","&#9776;","elianto","#3366ff99"," ","-1","0","0","[]","0","0","1","","","","","","","",""
"pit-trial","22","358435","0.0-2.0-8.0-2.0","battery-v0.2","","""event"",""trial"",""time""
""blur"",""1"",""2502""
""focus"",""1"",""6608""
""fullscreenenter"",""1"",""8076""
","""event"",""trial"",""time""
""blur"",""1"",""2502""
","""event"",""trial"",""time""
""focus"",""1"",""6608""
","""event"",""trial"",""time""
""fullscreenenter"",""1"",""8076""
","
","","","725.0999999046326","","","22","13621","5819","&#9776;","elianto","#3366ff99"," "," ","1","+10","[1580.1000001430511]","1","0","1","","","","","","","",""
"pit-trial","23","362196","0.0-2.0-8.0-3.0","battery-v0.2","","""event"",""trial"",""time""
""blur"",""1"",""2502""
""focus"",""1"",""6608""
""fullscreenenter"",""1"",""8076""
","""event"",""trial"",""time""
""blur"",""1"",""2502""
","""event"",""trial"",""time""
""focus"",""1"",""6608""
","""event"",""trial"",""time""
""fullscreenenter"",""1"",""8076""
","
","","","892.6999998092651","","","22","13621","5819","&#9776;","elianto","#3366ff99"," "," ","1","0","[1742.9000000953674]","1","0","1","","","","","","","",""
"pit-trial","24","366065","0.0-2.0-8.0-4.0","battery-v0.2","","""event"",""trial"",""time""
""blur"",""1"",""2502""
""focus"",""1"",""6608""
""fullscreenenter"",""1"",""8076""
","""event"",""trial"",""time""
""blur"",""1"",""2502""
","""event"",""trial"",""time""
""focus"",""1"",""6608""
","""event"",""trial"",""time""
""fullscreenenter"",""1"",""8076""
","
","","","1004","","","22","13621","5819","&#9776;","elianto","#3366ff99"," "," ","1","+10","[1857.7000000476837]","1","0","1","","","","","","","",""
"pit-trial","25","369983","0.0-2.0-8.1-0.1","battery-v0.2","","""event"",""trial"",""time""
""blur"",""1"",""2502""
""focus"",""1"",""6608""
""fullscreenenter"",""1"",""8076""
","""event"",""trial"",""time""
""blur"",""1"",""2502""
","""event"",""trial"",""time""
""focus"",""1"",""6608""
","""event"",""trial"",""time""
""fullscreenenter"",""1"",""8076""
","
","","","1054","","","22","13621","5819","&#9776;","elianto","#3366ff99"," "," ","1","+10","[1906.0999999046326]","1","0","1","","","","","","","",""
"pit-trial","26","373980","0.0-2.0-8.1-1.1","battery-v0.2","","""event"",""trial"",""time""
""blur"",""1"",""2502""
""focus"",""1"",""6608""
""fullscreenenter"",""1"",""8076""
","""event"",""trial"",""time""
""blur"",""1"",""2502""
","""event"",""trial"",""time""
""focus"",""1"",""6608""
","""event"",""trial"",""time""
""fullscreenenter"",""1"",""8076""
","
","","","1142.4000000953674","","","22","13621","5819","&#9776;","elianto","#3366ff99"," "," ","1","+10","[1992.7999999523163]","1","0","1","","","","","","","",""
"pit-trial","27","377970","0.0-2.0-8.1-2.1","battery-v0.2","","""event"",""trial"",""time""
""blur"",""1"",""2502""
""focus"",""1"",""6608""
""fullscreenenter"",""1"",""8076""
","""event"",""trial"",""time""
""blur"",""1"",""2502""
","""event"",""trial"",""time""
""focus"",""1"",""6608""
","""event"",""trial"",""time""
""fullscreenenter"",""1"",""8076""
","
","","","1137.0999999046326","","","22","13621","5819","&#9776;","elianto","#3366ff99"," "," ","1","+10","[1987.5]","1","0","1","","","","","","","",""
"pit-trial","28","381798","0.0-2.0-8.1-3.1","battery-v0.2","","""event"",""trial"",""time""
""blur"",""1"",""2502""
""focus"",""1"",""6608""
""fullscreenenter"",""1"",""8076""
","""event"",""trial"",""time""
""blur"",""1"",""2502""
","""event"",""trial"",""time""
""focus"",""1"",""6608""
","""event"",""trial"",""time""
""fullscreenenter"",""1"",""8076""
","
","","","974.5999999046326","","","22","13621","5819","&#9776;","elianto","#3366ff99"," "," ","1","0","[1825.5]","1","0","1","","","","","","","",""
"pit-trial","29","385916","0.0-2.0-8.1-4.1","battery-v0.2","","""event"",""trial"",""time""
""blur"",""1"",""2502""
""focus"",""1"",""6608""
""fullscreenenter"",""1"",""8076""
","""event"",""trial"",""time""
""blur"",""1"",""2502""
","""event"",""trial"",""time""
""focus"",""1"",""6608""
","""event"",""trial"",""time""
""fullscreenenter"",""1"",""8076""
","
","","","1264.8999998569489","","","22","13621","5819","&#9776;","elianto","#3366ff99"," "," ","1","+10","[2116.0999999046326]","1","0","1","","","","","","","",""
"pit-trial","30","389962","0.0-2.0-8.2-0.2","battery-v0.2","","""event"",""trial"",""time""
""blur"",""1"",""2502""
""focus"",""1"",""6608""
""fullscreenenter"",""1"",""8076""
","""event"",""trial"",""time""
""blur"",""1"",""2502""
","""event"",""trial"",""time""
""focus"",""1"",""6608""
","""event"",""trial"",""time""
""fullscreenenter"",""1"",""8076""
","
","","","1189.7999999523163","","","22","13621","5819","&#9776;","elianto","#3366ff99"," "," ","1","+10","[2041.7000000476837]","1","0","1","","","","","","","",""
"pit-trial","31","394033","0.0-2.0-8.2-1.2","battery-v0.2","","""event"",""trial"",""time""
""blur"",""1"",""2502""
""focus"",""1"",""6608""
""fullscreenenter"",""1"",""8076""
","""event"",""trial"",""time""
""blur"",""1"",""2502""
","""event"",""trial"",""time""
""focus"",""1"",""6608""
","""event"",""trial"",""time""
""fullscreenenter"",""1"",""8076""
","
","","","1218.2999999523163","","","22","13621","5819","&#9776;","elianto","#3366ff99"," "," ","1","+10","[2068.800000190735]","1","0","1","","","","","","","",""
"pit-trial","32","398114","0.0-2.0-8.2-2.2","battery-v0.2","","""event"",""trial"",""time""
""blur"",""1"",""2502""
""focus"",""1"",""6608""
""fullscreenenter"",""1"",""8076""
","""event"",""trial"",""time""
""blur"",""1"",""2502""
","""event"",""trial"",""time""
""focus"",""1"",""6608""
","""event"",""trial"",""time""
""fullscreenenter"",""1"",""8076""
","
","","","1226.5","","","22","13621","5819","&#9776;","elianto","#3366ff99"," "," ","1","+10","[2078.5]","1","0","1","","","","","","","",""
"pit-trial","33","402152","0.0-2.0-8.2-3.2","battery-v0.2","","""event"",""trial"",""time""
""blur"",""1"",""2502""
""focus"",""1"",""6608""
""fullscreenenter"",""1"",""8076""
","""event"",""trial"",""time""
""blur"",""1"",""2502""
","""event"",""trial"",""time""
""focus"",""1"",""6608""
","""event"",""trial"",""time""
""fullscreenenter"",""1"",""8076""
","
","","","1184.4000000953674","","","22","13621","5819","&#9776;","elianto","#3366ff99"," "," ","1","0","[2034.8999998569489]","1","0","1","","","","","","","",""
"pit-trial","34","406130","0.0-2.0-8.2-4.2","battery-v0.2","","""event"",""trial"",""time""
""blur"",""1"",""2502""
""focus"",""1"",""6608""
""fullscreenenter"",""1"",""8076""
","""event"",""trial"",""time""
""blur"",""1"",""2502""
","""event"",""trial"",""time""
""focus"",""1"",""6608""
","""event"",""trial"",""time""
""fullscreenenter"",""1"",""8076""
","
","","","1124.2999999523163","","","22","13621","5819","&#9776;","elianto","#3366ff99"," "," ","1","+10","[1975]","1","0","1","","","","","","","",""
"call-function","35","406132","0.0-2.0-9.0","battery-v0.2","","""event"",""trial"",""time""
""blur"",""1"",""2502""
""focus"",""1"",""6608""
""fullscreenenter"",""1"",""8076""
","""event"",""trial"",""time""
""blur"",""1"",""2502""
","""event"",""trial"",""time""
""focus"",""1"",""6608""
","""event"",""trial"",""time""
""fullscreenenter"",""1"",""8076""
","
","","","","","","","","","","","","","","","","","","","","","","","","","","",""
"pit-instructions","36","448170","0.0-2.0-10.0","battery-v0.2","","""event"",""trial"",""time""
""blur"",""1"",""2502""
""focus"",""1"",""6608""
""fullscreenenter"",""1"",""8076""
","""event"",""trial"",""time""
""blur"",""1"",""2502""
","""event"",""trial"",""time""
""focus"",""1"",""6608""
","""event"",""trial"",""time""
""fullscreenenter"",""1"",""8076""
","
","","[{""page_index"":0,""viewing_time"":6548.100000143051},{""page_index"":1,""viewing_time"":7588.199999809265},{""page_index"":2,""viewing_time"":9999.900000095367},{""page_index"":3,""viewing_time"":9766.599999904633},{""page_index"":4,""viewing_time"":8133.600000143051}]","42036.90000009537","","","","","","","","","","","","","","","","","","","","","","","",""
"pit-trial","37","451723","0.0-2.0-11.0-0.0","battery-v0.2","","""event"",""trial"",""time""
""blur"",""1"",""2502""
""focus"",""1"",""6608""
""fullscreenenter"",""1"",""8076""
","""event"",""trial"",""time""
""blur"",""1"",""2502""
","""event"",""trial"",""time""
""focus"",""1"",""6608""
","""event"",""trial"",""time""
""fullscreenenter"",""1"",""8076""
","
","","","687.3999998569489","","","22","13621","5819","&#9761;","elianto","#3366ff99","-1"," ","0","0","[1548.8999998569489]","1","0","2","","","","","","","",""
"pit-trial","38","456594","0.0-2.0-11.0-1.0","battery-v0.2","","""event"",""trial"",""time""
""blur"",""1"",""2502""
""focus"",""1"",""6608""
""fullscreenenter"",""1"",""8076""
","""event"",""trial"",""time""
""blur"",""1"",""2502""
","""event"",""trial"",""time""
""focus"",""1"",""6608""
","""event"",""trial"",""time""
""fullscreenenter"",""1"",""8076""
","
","","","-1","","","22","13621","5819","&#9761;","elianto","#3366ff99","-1","-1","1","+10","[]","0","0","2","","","","","","","",""
"pit-trial","39","461463","0.0-2.0-11.0-2.0","battery-v0.2","","""event"",""trial"",""time""
""blur"",""1"",""2502""
""focus"",""1"",""6608""
""fullscreenenter"",""1"",""8076""
","""event"",""trial"",""time""
""blur"",""1"",""2502""
","""event"",""trial"",""time""
""focus"",""1"",""6608""
","""event"",""trial"",""time""
""fullscreenenter"",""1"",""8076""
","
","","","-1","","","22","13621","5819","&#9761;","elianto","#3366ff99","-1","-1","1","+10","[]","0","0","2","","","","","","","",""
"pit-trial","40","466331","0.0-2.0-11.0-3.0","battery-v0.2","","""event"",""trial"",""time""
""blur"",""1"",""2502""
""focus"",""1"",""6608""
""fullscreenenter"",""1"",""8076""
","""event"",""trial"",""time""
""blur"",""1"",""2502""
","""event"",""trial"",""time""
""focus"",""1"",""6608""
","""event"",""trial"",""time""
""fullscreenenter"",""1"",""8076""
","
","","","-1","","","22","13621","5819","&#9761;","elianto","#3366ff99","-1","-1","1","0","[]","0","0","2","","","","","","","",""
"pit-trial","41","471207","0.0-2.0-11.0-4.0","battery-v0.2","","""event"",""trial"",""time""
""blur"",""1"",""2502""
""focus"",""1"",""6608""
""fullscreenenter"",""1"",""8076""
","""event"",""trial"",""time""
""blur"",""1"",""2502""
","""event"",""trial"",""time""
""focus"",""1"",""6608""
","""event"",""trial"",""time""
""fullscreenenter"",""1"",""8076""
","
","","","-1","","","22","13621","5819","&#9761;","elianto","#3366ff99","-1","-1","1","+10","[]","0","0","2","","","","","","","",""
"pit-trial","42","476075","0.0-2.0-11.1-0.1","battery-v0.2","","""event"",""trial"",""time""
""blur"",""1"",""2502""
""focus"",""1"",""6608""
""fullscreenenter"",""1"",""8076""
","""event"",""trial"",""time""
""blur"",""1"",""2502""
","""event"",""trial"",""time""
""focus"",""1"",""6608""
","""event"",""trial"",""time""
""fullscreenenter"",""1"",""8076""
","
","","","-1","","","22","13621","5819","&#9761;","elianto","#3366ff99","-1","-1","1","+10","[]","0","0","2","","","","","","","",""
"pit-trial","43","480928","0.0-2.0-11.1-1.1","battery-v0.2","","""event"",""trial"",""time""
""blur"",""1"",""2502""
""focus"",""1"",""6608""
""fullscreenenter"",""1"",""8076""
","""event"",""trial"",""time""
""blur"",""1"",""2502""
","""event"",""trial"",""time""
""focus"",""1"",""6608""
","""event"",""trial"",""time""
""fullscreenenter"",""1"",""8076""
","
","","","-1","","","22","13621","5819","&#9761;","elianto","#3366ff99","-1","-1","1","+10","[]","0","0","2","","","","","","","",""
"pit-trial","44","485781","0.0-2.0-11.1-2.1","battery-v0.2","","""event"",""trial"",""time""
""blur"",""1"",""2502""
""focus"",""1"",""6608""
""fullscreenenter"",""1"",""8076""
","""event"",""trial"",""time""
""blur"",""1"",""2502""
","""event"",""trial"",""time""
""focus"",""1"",""6608""
","""event"",""trial"",""time""
""fullscreenenter"",""1"",""8076""
","
","","","-1","","","22","13621","5819","&#9761;","elianto","#3366ff99","-1","-1","1","+10","[]","0","0","2","","","","","","","",""
"pit-trial","45","490634","0.0-2.0-11.1-3.1","battery-v0.2","","""event"",""trial"",""time""
""blur"",""1"",""2502""
""focus"",""1"",""6608""
""fullscreenenter"",""1"",""8076""
","""event"",""trial"",""time""
""blur"",""1"",""2502""
","""event"",""trial"",""time""
""focus"",""1"",""6608""
","""event"",""trial"",""time""
""fullscreenenter"",""1"",""8076""
","
","","","-1","","","22","13621","5819","&#9761;","elianto","#3366ff99","-1","-1","1","0","[]","0","0","2","","","","","","","",""
"pit-trial","46","495487","0.0-2.0-11.1-4.1","battery-v0.2","","""event"",""trial"",""time""
""blur"",""1"",""2502""
""focus"",""1"",""6608""
""fullscreenenter"",""1"",""8076""
","""event"",""trial"",""time""
""blur"",""1"",""2502""
","""event"",""trial"",""time""
""focus"",""1"",""6608""
","""event"",""trial"",""time""
""fullscreenenter"",""1"",""8076""
","
","","","-1","","","22","13621","5819","&#9761;","elianto","#3366ff99","-1","-1","1","+10","[]","0","0","2","","","","","","","",""
"pit-trial","47","500341","0.0-2.0-11.2-0.2","battery-v0.2","","""event"",""trial"",""time""
""blur"",""1"",""2502""
""focus"",""1"",""6608""
""fullscreenenter"",""1"",""8076""
","""event"",""trial"",""time""
""blur"",""1"",""2502""
","""event"",""trial"",""time""
""focus"",""1"",""6608""
","""event"",""trial"",""time""
""fullscreenenter"",""1"",""8076""
","
","","","-1","","","22","13621","5819","&#9761;","elianto","#3366ff99","-1","-1","1","+10","[]","0","0","2","","","","","","","",""
"pit-trial","48","505194","0.0-2.0-11.2-1.2","battery-v0.2","","""event"",""trial"",""time""
""blur"",""1"",""2502""
""focus"",""1"",""6608""
""fullscreenenter"",""1"",""8076""
","""event"",""trial"",""time""
""blur"",""1"",""2502""
","""event"",""trial"",""time""
""focus"",""1"",""6608""
","""event"",""trial"",""time""
""fullscreenenter"",""1"",""8076""
","
","","","-1","","","22","13621","5819","&#9761;","elianto","#3366ff99","-1","-1","1","+10","[]","0","0","2","","","","","","","",""
"pit-trial","49","510048","0.0-2.0-11.2-2.2","battery-v0.2","","""event"",""trial"",""time""
""blur"",""1"",""2502""
""focus"",""1"",""6608""
""fullscreenenter"",""1"",""8076""
","""event"",""trial"",""time""
""blur"",""1"",""2502""
","""event"",""trial"",""time""
""focus"",""1"",""6608""
","""event"",""trial"",""time""
""fullscreenenter"",""1"",""8076""
","
","","","-1","","","22","13621","5819","&#9761;","elianto","#3366ff99","-1","-1","1","+10","[]","0","0","2","","","","","","","",""
"pit-trial","50","514900","0.0-2.0-11.2-3.2","battery-v0.2","","""event"",""trial"",""time""
""blur"",""1"",""2502""
""focus"",""1"",""6608""
""fullscreenenter"",""1"",""8076""
","""event"",""trial"",""time""
""blur"",""1"",""2502""
","""event"",""trial"",""time""
""focus"",""1"",""6608""
","""event"",""trial"",""time""
""fullscreenenter"",""1"",""8076""
","
","","","-1","","","22","13621","5819","&#9761;","elianto","#3366ff99","-1","-1","1","0","[]","0","0","2","","","","","","","",""
"pit-trial","51","519753","0.0-2.0-11.2-4.2","battery-v0.2","","""event"",""trial"",""time""
""blur"",""1"",""2502""
""focus"",""1"",""6608""
""fullscreenenter"",""1"",""8076""
","""event"",""trial"",""time""
""blur"",""1"",""2502""
","""event"",""trial"",""time""
""focus"",""1"",""6608""
","""event"",""trial"",""time""
""fullscreenenter"",""1"",""8076""
","
","","","-1","","","22","13621","5819","&#9761;","elianto","#3366ff99","-1","-1","1","+10","[]","0","0","2","","","","","","","",""
"pit-trial","52","524607","0.0-2.0-11.3-0.3","battery-v0.2","","""event"",""trial"",""time""
""blur"",""1"",""2502""
""focus"",""1"",""6608""
""fullscreenenter"",""1"",""8076""
","""event"",""trial"",""time""
""blur"",""1"",""2502""
","""event"",""trial"",""time""
""focus"",""1"",""6608""
","""event"",""trial"",""time""
""fullscreenenter"",""1"",""8076""
","
","","","-1","","","22","13621","5819","&#9761;","elianto","#3366ff99","-1","-1","1","+10","[]","0","0","2","","","","","","","",""
"pit-trial","53","529460","0.0-2.0-11.3-1.3","battery-v0.2","","""event"",""trial"",""time""
""blur"",""1"",""2502""
""focus"",""1"",""6608""
""fullscreenenter"",""1"",""8076""
","""event"",""trial"",""time""
""blur"",""1"",""2502""
","""event"",""trial"",""time""
""focus"",""1"",""6608""
","""event"",""trial"",""time""
""fullscreenenter"",""1"",""8076""
","
","","","-1","","","22","13621","5819","&#9761;","elianto","#3366ff99","-1","-1","1","+10","[]","0","0","2","","","","","","","",""
"pit-trial","54","534312","0.0-2.0-11.3-2.3","battery-v0.2","","""event"",""trial"",""time""
""blur"",""1"",""2502""
""focus"",""1"",""6608""
""fullscreenenter"",""1"",""8076""
","""event"",""trial"",""time""
""blur"",""1"",""2502""
","""event"",""trial"",""time""
""focus"",""1"",""6608""
","""event"",""trial"",""time""
""fullscreenenter"",""1"",""8076""
","
","","","-1","","","22","13621","5819","&#9761;","elianto","#3366ff99","-1","-1","1","+10","[]","0","0","2","","","","","","","",""
"pit-trial","55","539167","0.0-2.0-11.3-3.3","battery-v0.2","","""event"",""trial"",""time""
""blur"",""1"",""2502""
""focus"",""1"",""6608""
""fullscreenenter"",""1"",""8076""
","""event"",""trial"",""time""
""blur"",""1"",""2502""
","""event"",""trial"",""time""
""focus"",""1"",""6608""
","""event"",""trial"",""time""
""fullscreenenter"",""1"",""8076""
","
","","","-1","","","22","13621","5819","&#9761;","elianto","#3366ff99","-1","-1","1","0","[]","0","0","2","","","","","","","",""
"pit-trial","56","544022","0.0-2.0-11.3-4.3","battery-v0.2","","""event"",""trial"",""time""
""blur"",""1"",""2502""
""focus"",""1"",""6608""
""fullscreenenter"",""1"",""8076""
","""event"",""trial"",""time""
""blur"",""1"",""2502""
","""event"",""trial"",""time""
""focus"",""1"",""6608""
","""event"",""trial"",""time""
""fullscreenenter"",""1"",""8076""
","
","","","-1","","","22","13621","5819","&#9761;","elianto","#3366ff99","-1","-1","1","+10","[]","0","0","2","","","","","","","",""
"call-function","57","544024","0.0-2.0-12.0","battery-v0.2","","""event"",""trial"",""time""
""blur"",""1"",""2502""
""focus"",""1"",""6608""
""fullscreenenter"",""1"",""8076""
","""event"",""trial"",""time""
""blur"",""1"",""2502""
","""event"",""trial"",""time""
""focus"",""1"",""6608""
","""event"",""trial"",""time""
""fullscreenenter"",""1"",""8076""
","
","","","","","","","","","","","","","","","","","","","","","","","","","","",""
"pit-instructions","58","584945","0.0-2.0-13.0","battery-v0.2","","""event"",""trial"",""time""
""blur"",""1"",""2502""
""focus"",""1"",""6608""
""fullscreenenter"",""1"",""8076""
","""event"",""trial"",""time""
""blur"",""1"",""2502""
","""event"",""trial"",""time""
""focus"",""1"",""6608""
","""event"",""trial"",""time""
""fullscreenenter"",""1"",""8076""
","
","","[{""page_index"":0,""viewing_time"":5423.600000143051},{""page_index"":1,""viewing_time"":7523.799999952316},{""page_index"":2,""viewing_time"":4898.5},{""page_index"":3,""viewing_time"":11453},{""page_index"":4,""viewing_time"":11621}]","40920.40000009537","","","","","","","","","","","","","","","","","","","","","","","",""
"pit-trial","59","588689","0.0-2.0-14.0-0.0","battery-v0.2","","""event"",""trial"",""time""
""blur"",""1"",""2502""
""focus"",""1"",""6608""
""fullscreenenter"",""1"",""8076""
","""event"",""trial"",""time""
""blur"",""1"",""2502""
","""event"",""trial"",""time""
""focus"",""1"",""6608""
","""event"",""trial"",""time""
""fullscreenenter"",""1"",""8076""
","
","","","877","","","22","13621","5819","&#9826;","elianto","#f73b6a7A","-1"," ","0","-10","[1728.5]","1","0","3","","","","","","","",""
"pit-trial","60","593555","0.0-2.0-14.0-1.0","battery-v0.2","","""event"",""trial"",""time""
""blur"",""1"",""2502""
""focus"",""1"",""6608""
""fullscreenenter"",""1"",""8076""
","""event"",""trial"",""time""
""blur"",""1"",""2502""
","""event"",""trial"",""time""
""focus"",""1"",""6608""
","""event"",""trial"",""time""
""fullscreenenter"",""1"",""8076""
","
","","","-1","","","22","13621","5819","&#9826;","elianto","#f73b6a7A","-1","-1","1","0","[]","0","0","3","","","","","","","",""
"pit-trial","61","598412","0.0-2.0-14.0-2.0","battery-v0.2","","""event"",""trial"",""time""
""blur"",""1"",""2502""
""focus"",""1"",""6608""
""fullscreenenter"",""1"",""8076""
","""event"",""trial"",""time""
""blur"",""1"",""2502""
","""event"",""trial"",""time""
""focus"",""1"",""6608""
","""event"",""trial"",""time""
""fullscreenenter"",""1"",""8076""
","
","","","-1","","","22","13621","5819","&#9826;","elianto","#f73b6a7A","-1","-1","1","0","[]","0","0","3","","","","","","","",""
"pit-trial","62","603276","0.0-2.0-14.0-3.0","battery-v0.2","","""event"",""trial"",""time""
""blur"",""1"",""2502""
""focus"",""1"",""6608""
""fullscreenenter"",""1"",""8076""
","""event"",""trial"",""time""
""blur"",""1"",""2502""
","""event"",""trial"",""time""
""focus"",""1"",""6608""
","""event"",""trial"",""time""
""fullscreenenter"",""1"",""8076""
","
","","","-1","","","22","13621","5819","&#9826;","elianto","#f73b6a7A","-1","-1","1","-10","[]","0","0","3","","","","","","","",""
"pit-trial","63","608138","0.0-2.0-14.0-4.0","battery-v0.2","","""event"",""trial"",""time""
""blur"",""1"",""2502""
""focus"",""1"",""6608""
""fullscreenenter"",""1"",""8076""
","""event"",""trial"",""time""
""blur"",""1"",""2502""
","""event"",""trial"",""time""
""focus"",""1"",""6608""
","""event"",""trial"",""time""
""fullscreenenter"",""1"",""8076""
","
","","","-1","","","22","13621","5819","&#9826;","elianto","#f73b6a7A","-1","-1","1","0","[]","0","0","3","","","","","","","",""
"pit-trial","64","612993","0.0-2.0-14.1-0.1","battery-v0.2","","""event"",""trial"",""time""
""blur"",""1"",""2502""
""focus"",""1"",""6608""
""fullscreenenter"",""1"",""8076""
","""event"",""trial"",""time""
""blur"",""1"",""2502""
","""event"",""trial"",""time""
""focus"",""1"",""6608""
","""event"",""trial"",""time""
""fullscreenenter"",""1"",""8076""
","
","","","-1","","","22","13621","5819","&#9826;","elianto","#f73b6a7A","-1","-1","1","0","[]","0","0","3","","","","","","","",""
"pit-trial","65","617846","0.0-2.0-14.1-1.1","battery-v0.2","","""event"",""trial"",""time""
""blur"",""1"",""2502""
""focus"",""1"",""6608""
""fullscreenenter"",""1"",""8076""
","""event"",""trial"",""time""
""blur"",""1"",""2502""
","""event"",""trial"",""time""
""focus"",""1"",""6608""
","""event"",""trial"",""time""
""fullscreenenter"",""1"",""8076""
","
","","","-1","","","22","13621","5819","&#9826;","elianto","#f73b6a7A","-1","-1","1","0","[]","0","0","3","","","","","","","",""
"pit-trial","66","622700","0.0-2.0-14.1-2.1","battery-v0.2","","""event"",""trial"",""time""
""blur"",""1"",""2502""
""focus"",""1"",""6608""
""fullscreenenter"",""1"",""8076""
","""event"",""trial"",""time""
""blur"",""1"",""2502""
","""event"",""trial"",""time""
""focus"",""1"",""6608""
","""event"",""trial"",""time""
""fullscreenenter"",""1"",""8076""
","
","","","-1","","","22","13621","5819","&#9826;","elianto","#f73b6a7A","-1","-1","1","0","[]","0","0","3","","","","","","","",""
"pit-trial","67","627552","0.0-2.0-14.1-3.1","battery-v0.2","","""event"",""trial"",""time""
""blur"",""1"",""2502""
""focus"",""1"",""6608""
""fullscreenenter"",""1"",""8076""
","""event"",""trial"",""time""
""blur"",""1"",""2502""
","""event"",""trial"",""time""
""focus"",""1"",""6608""
","""event"",""trial"",""time""
""fullscreenenter"",""1"",""8076""
","
","","","-1","","","22","13621","5819","&#9826;","elianto","#f73b6a7A","-1","-1","1","-10","[]","0","0","3","","","","","","","",""
"pit-trial","68","632405","0.0-2.0-14.1-4.1","battery-v0.2","","""event"",""trial"",""time""
""blur"",""1"",""2502""
""focus"",""1"",""6608""
""fullscreenenter"",""1"",""8076""
","""event"",""trial"",""time""
""blur"",""1"",""2502""
","""event"",""trial"",""time""
""focus"",""1"",""6608""
","""event"",""trial"",""time""
""fullscreenenter"",""1"",""8076""
","
","","","-1","","","22","13621","5819","&#9826;","elianto","#f73b6a7A","-1","-1","1","0","[]","0","0","3","","","","","","","",""
"pit-trial","69","637272","0.0-2.0-14.2-0.2","battery-v0.2","","""event"",""trial"",""time""
""blur"",""1"",""2502""
""focus"",""1"",""6608""
""fullscreenenter"",""1"",""8076""
","""event"",""trial"",""time""
""blur"",""1"",""2502""
","""event"",""trial"",""time""
""focus"",""1"",""6608""
","""event"",""trial"",""time""
""fullscreenenter"",""1"",""8076""
","
","","","-1","","","22","13621","5819","&#9826;","elianto","#f73b6a7A","-1","-1","1","0","[]","0","0","3","","","","","","","",""
"pit-trial","70","642127","0.0-2.0-14.2-1.2","battery-v0.2","","""event"",""trial"",""time""
""blur"",""1"",""2502""
""focus"",""1"",""6608""
""fullscreenenter"",""1"",""8076""
","""event"",""trial"",""time""
""blur"",""1"",""2502""
","""event"",""trial"",""time""
""focus"",""1"",""6608""
","""event"",""trial"",""time""
""fullscreenenter"",""1"",""8076""
","
","","","-1","","","22","13621","5819","&#9826;","elianto","#f73b6a7A","-1","-1","1","0","[]","0","0","3","","","","","","","",""
"pit-trial","71","646979","0.0-2.0-14.2-2.2","battery-v0.2","","""event"",""trial"",""time""
""blur"",""1"",""2502""
""focus"",""1"",""6608""
""fullscreenenter"",""1"",""8076""
","""event"",""trial"",""time""
""blur"",""1"",""2502""
","""event"",""trial"",""time""
""focus"",""1"",""6608""
","""event"",""trial"",""time""
""fullscreenenter"",""1"",""8076""
","
","","","-1","","","22","13621","5819","&#9826;","elianto","#f73b6a7A","-1","-1","1","0","[]","0","0","3","","","","","","","",""
"pit-trial","72","651833","0.0-2.0-14.2-3.2","battery-v0.2","","""event"",""trial"",""time""
""blur"",""1"",""2502""
""focus"",""1"",""6608""
""fullscreenenter"",""1"",""8076""
","""event"",""trial"",""time""
""blur"",""1"",""2502""
","""event"",""trial"",""time""
""focus"",""1"",""6608""
","""event"",""trial"",""time""
""fullscreenenter"",""1"",""8076""
","
","","","-1","","","22","13621","5819","&#9826;","elianto","#f73b6a7A","-1","-1","1","-10","[]","0","0","3","","","","","","","",""
"pit-trial","73","656687","0.0-2.0-14.2-4.2","battery-v0.2","","""event"",""trial"",""time""
""blur"",""1"",""2502""
""focus"",""1"",""6608""
""fullscreenenter"",""1"",""8076""
","""event"",""trial"",""time""
""blur"",""1"",""2502""
","""event"",""trial"",""time""
""focus"",""1"",""6608""
","""event"",""trial"",""time""
""fullscreenenter"",""1"",""8076""
","
","","","-1","","","22","13621","5819","&#9826;","elianto","#f73b6a7A","-1","-1","1","0","[]","0","0","3","","","","","","","",""
"pit-trial","74","661541","0.0-2.0-14.3-0.3","battery-v0.2","","""event"",""trial"",""time""
""blur"",""1"",""2502""
""focus"",""1"",""6608""
""fullscreenenter"",""1"",""8076""
","""event"",""trial"",""time""
""blur"",""1"",""2502""
","""event"",""trial"",""time""
""focus"",""1"",""6608""
","""event"",""trial"",""time""
""fullscreenenter"",""1"",""8076""
","
","","","-1","","","22","13621","5819","&#9826;","elianto","#f73b6a7A","-1","-1","1","0","[]","0","0","3","","","","","","","",""
"pit-trial","75","666394","0.0-2.0-14.3-1.3","battery-v0.2","","""event"",""trial"",""time""
""blur"",""1"",""2502""
""focus"",""1"",""6608""
""fullscreenenter"",""1"",""8076""
","""event"",""trial"",""time""
""blur"",""1"",""2502""
","""event"",""trial"",""time""
""focus"",""1"",""6608""
","""event"",""trial"",""time""
""fullscreenenter"",""1"",""8076""
","
","","","-1","","","22","13621","5819","&#9826;","elianto","#f73b6a7A","-1","-1","1","0","[]","0","0","3","","","","","","","",""
"pit-trial","76","671248","0.0-2.0-14.3-2.3","battery-v0.2","","""event"",""trial"",""time""
""blur"",""1"",""2502""
""focus"",""1"",""6608""
""fullscreenenter"",""1"",""8076""
","""event"",""trial"",""time""
""blur"",""1"",""2502""
","""event"",""trial"",""time""
""focus"",""1"",""6608""
","""event"",""trial"",""time""
""fullscreenenter"",""1"",""8076""
","
","","","-1","","","22","13621","5819","&#9826;","elianto","#f73b6a7A","-1","-1","1","0","[]","0","0","3","","","","","","","",""
"pit-trial","77","676102","0.0-2.0-14.3-3.3","battery-v0.2","","""event"",""trial"",""time""
""blur"",""1"",""2502""
""focus"",""1"",""6608""
""fullscreenenter"",""1"",""8076""
","""event"",""trial"",""time""
""blur"",""1"",""2502""
","""event"",""trial"",""time""
""focus"",""1"",""6608""
","""event"",""trial"",""time""
""fullscreenenter"",""1"",""8076""
","
","","","-1","","","22","13621","5819","&#9826;","elianto","#f73b6a7A","-1","-1","1","-10","[]","0","0","3","","","","","","","",""
"pit-trial","78","680955","0.0-2.0-14.3-4.3","battery-v0.2","","""event"",""trial"",""time""
""blur"",""1"",""2502""
""focus"",""1"",""6608""
""fullscreenenter"",""1"",""8076""
","""event"",""trial"",""time""
""blur"",""1"",""2502""
","""event"",""trial"",""time""
""focus"",""1"",""6608""
","""event"",""trial"",""time""
""fullscreenenter"",""1"",""8076""
","
","","","-1","","","22","13621","5819","&#9826;","elianto","#f73b6a7A","-1","-1","1","0","[]","0","0","3","","","","","","","",""
"call-function","79","680956","0.0-2.0-15.0","battery-v0.2","","""event"",""trial"",""time""
""blur"",""1"",""2502""
""focus"",""1"",""6608""
""fullscreenenter"",""1"",""8076""
","""event"",""trial"",""time""
""blur"",""1"",""2502""
","""event"",""trial"",""time""
""focus"",""1"",""6608""
","""event"",""trial"",""time""
""fullscreenenter"",""1"",""8076""
","
","","","","","","","","","","","","","","","","","","","","","","","","","","",""
"pit-instructions","80","711449","0.0-2.0-16.0","battery-v0.2","","""event"",""trial"",""time""
""blur"",""1"",""2502""
""focus"",""1"",""6608""
""fullscreenenter"",""1"",""8076""
","""event"",""trial"",""time""
""blur"",""1"",""2502""
","""event"",""trial"",""time""
""focus"",""1"",""6608""
","""event"",""trial"",""time""
""fullscreenenter"",""1"",""8076""
","
","","[{""page_index"":0,""viewing_time"":6653.599999904633},{""page_index"":1,""viewing_time"":9847.400000095367},{""page_index"":2,""viewing_time"":8079.5},{""page_index"":3,""viewing_time"":5912.099999904633}]","30493","","","","","","","","","","","","","","","","","","","","","","","",""
"pit-trial","81","714944","0.0-2.0-17.0-0.0","battery-v0.2","","""event"",""trial"",""time""
""blur"",""1"",""2502""
""focus"",""1"",""6608""
""fullscreenenter"",""1"",""8076""
","""event"",""trial"",""time""
""blur"",""1"",""2502""
","""event"",""trial"",""time""
""focus"",""1"",""6608""
","""event"",""trial"",""time""
""fullscreenenter"",""1"",""8076""
","
","","","631.7999999523163","","","22","13621","5819","&#9789;","elianto","#f73b6a7A"," "," ","1","0","[1491.1999998092651]","1","0","4","","","","","","","",""
"pit-trial","82","718514","0.0-2.0-17.0-1.0","battery-v0.2","","""event"",""trial"",""time""
""blur"",""1"",""2502""
""focus"",""1"",""6608""
""fullscreenenter"",""1"",""8076""
","""event"",""trial"",""time""
""blur"",""1"",""2502""
","""event"",""trial"",""time""
""focus"",""1"",""6608""
","""event"",""trial"",""time""
""fullscreenenter"",""1"",""8076""
","
","","","705.7999999523163","","","22","13621","5819","&#9789;","elianto","#f73b6a7A"," "," ","1","0","[1556.1999998092651]","1","0","4","","","","","","","",""
"pit-trial","83","722177","0.0-2.0-17.0-2.0","battery-v0.2","","""event"",""trial"",""time""
""blur"",""1"",""2502""
""focus"",""1"",""6608""
""fullscreenenter"",""1"",""8076""
","""event"",""trial"",""time""
""blur"",""1"",""2502""
","""event"",""trial"",""time""
""focus"",""1"",""6608""
","""event"",""trial"",""time""
""fullscreenenter"",""1"",""8076""
","
","","","794.7999999523163","","","22","13621","5819","&#9789;","elianto","#f73b6a7A"," "," ","1","0","[1646.5]","1","0","4","","","","","","","",""
"pit-trial","84","725824","0.0-2.0-17.0-3.0","battery-v0.2","","""event"",""trial"",""time""
""blur"",""1"",""2502""
""focus"",""1"",""6608""
""fullscreenenter"",""1"",""8076""
","""event"",""trial"",""time""
""blur"",""1"",""2502""
","""event"",""trial"",""time""
""focus"",""1"",""6608""
","""event"",""trial"",""time""
""fullscreenenter"",""1"",""8076""
","
","","","792.0999999046326","","","22","13621","5819","&#9789;","elianto","#f73b6a7A"," "," ","1","-10","[1642.7000000476837]","1","0","4","","","","","","","",""
"pit-trial","85","729638","0.0-2.0-17.0-4.0","battery-v0.2","","""event"",""trial"",""time""
""blur"",""1"",""2502""
""focus"",""1"",""6608""
""fullscreenenter"",""1"",""8076""
","""event"",""trial"",""time""
""blur"",""1"",""2502""
","""event"",""trial"",""time""
""focus"",""1"",""6608""
","""event"",""trial"",""time""
""fullscreenenter"",""1"",""8076""
","
","","","944.5","","","22","13621","5819","&#9789;","elianto","#f73b6a7A"," "," ","1","0","[1796.1999998092651]","1","0","4","","","","","","","",""
"pit-trial","86","733656","0.0-2.0-17.1-0.1","battery-v0.2","","""event"",""trial"",""time""
""blur"",""1"",""2502""
""focus"",""1"",""6608""
""fullscreenenter"",""1"",""8076""
","""event"",""trial"",""time""
""blur"",""1"",""2502""
","""event"",""trial"",""time""
""focus"",""1"",""6608""
","""event"",""trial"",""time""
""fullscreenenter"",""1"",""8076""
","
","","","1159.4000000953674","","","22","13621","5819","&#9789;","elianto","#f73b6a7A"," "," ","1","0","[2012.4000000953674]","1","0","4","","","","","","","",""
"pit-trial","87","737516","0.0-2.0-17.1-1.1","battery-v0.2","","""event"",""trial"",""time""
""blur"",""1"",""2502""
""focus"",""1"",""6608""
""fullscreenenter"",""1"",""8076""
","""event"",""trial"",""time""
""blur"",""1"",""2502""
","""event"",""trial"",""time""
""focus"",""1"",""6608""
","""event"",""trial"",""time""
""fullscreenenter"",""1"",""8076""
","
","","","997.2999999523163","","","22","13621","5819","&#9789;","elianto","#f73b6a7A"," "," ","1","0","[1850.5]","1","0","4","","","","","","","",""
"pit-trial","88","741283","0.0-2.0-17.1-2.1","battery-v0.2","","""event"",""trial"",""time""
""blur"",""1"",""2502""
""focus"",""1"",""6608""
""fullscreenenter"",""1"",""8076""
","""event"",""trial"",""time""
""blur"",""1"",""2502""
","""event"",""trial"",""time""
""focus"",""1"",""6608""
","""event"",""trial"",""time""
""fullscreenenter"",""1"",""8076""
","
","","","904.5999999046326","","","22","13621","5819","&#9789;","elianto","#f73b6a7A"," "," ","1","0","[1764.5999999046326]","1","0","4","","","","","","","",""
"pit-trial","89","745267","0.0-2.0-17.1-3.1","battery-v0.2","","""event"",""trial"",""time""
""blur"",""1"",""2502""
""focus"",""1"",""6608""
""fullscreenenter"",""1"",""8076""
","""event"",""trial"",""time""
""blur"",""1"",""2502""
","""event"",""trial"",""time""
""focus"",""1"",""6608""
","""event"",""trial"",""time""
""fullscreenenter"",""1"",""8076""
","
","","","1121.3999998569489","","","22","13621","5819","&#9789;","elianto","#f73b6a7A"," "," ","1","-10","[1971.5999999046326]","1","0","4","","","","","","","",""
"pit-trial","90","749321","0.0-2.0-17.1-4.1","battery-v0.2","","""event"",""trial"",""time""
""blur"",""1"",""2502""
""focus"",""1"",""6608""
""fullscreenenter"",""1"",""8076""
","""event"",""trial"",""time""
""blur"",""1"",""2502""
","""event"",""trial"",""time""
""focus"",""1"",""6608""
","""event"",""trial"",""time""
""fullscreenenter"",""1"",""8076""
","
","","","1200.1000001430511","","","22","13621","5819","&#9789;","elianto","#f73b6a7A"," "," ","1","0","[2050.4000000953674]","1","0","4","","","","","","","",""
"pit-trial","91","753213","0.0-2.0-17.2-0.2","battery-v0.2","","""event"",""trial"",""time""
""blur"",""1"",""2502""
""focus"",""1"",""6608""
""fullscreenenter"",""1"",""8076""
","""event"",""trial"",""time""
""blur"",""1"",""2502""
","""event"",""trial"",""time""
""focus"",""1"",""6608""
","""event"",""trial"",""time""
""fullscreenenter"",""1"",""8076""
","
","","","1038.5","","","22","13621","5819","&#9789;","elianto","#f73b6a7A"," "," ","1","0","[1889.2999999523163]","1","0","4","","","","","","","",""
"pit-trial","92","757222","0.0-2.0-17.2-1.2","battery-v0.2","","""event"",""trial"",""time""
""blur"",""1"",""2502""
""focus"",""1"",""6608""
""fullscreenenter"",""1"",""8076""
","""event"",""trial"",""time""
""blur"",""1"",""2502""
","""event"",""trial"",""time""
""focus"",""1"",""6608""
","""event"",""trial"",""time""
""fullscreenenter"",""1"",""8076""
","
","","","1155","","","22","13621","5819","&#9789;","elianto","#f73b6a7A"," "," ","1","0","[2005.7999999523163]","1","0","4","","","","","","","",""
"pit-trial","93","761022","0.0-2.0-17.2-2.2","battery-v0.2","","""event"",""trial"",""time""
""blur"",""1"",""2502""
""focus"",""1"",""6608""
""fullscreenenter"",""1"",""8076""
","""event"",""trial"",""time""
""blur"",""1"",""2502""
","""event"",""trial"",""time""
""focus"",""1"",""6608""
","""event"",""trial"",""time""
""fullscreenenter"",""1"",""8076""
","
","","","947.6000001430511","","","22","13621","5819","&#9789;","elianto","#f73b6a7A"," "," ","1","0","[1797.6999998092651]","1","0","4","","","","","","","",""
"pit-trial","94","765875","0.0-2.0-17.2-3.2","battery-v0.2","","""event"",""trial"",""time""
""blur"",""1"",""2502""
""focus"",""1"",""6608""
""fullscreenenter"",""1"",""8076""
","""event"",""trial"",""time""
""blur"",""1"",""2502""
","""event"",""trial"",""time""
""focus"",""1"",""6608""
","""event"",""trial"",""time""
""fullscreenenter"",""1"",""8076""
","
","","","-1","","","22","13621","5819","&#9789;","elianto","#f73b6a7A"," ","-1","0","0","[]","0","0","4","","","","","","","",""
"pit-trial","95","769243","0.0-2.0-17.2-4.2","battery-v0.2","","""event"",""trial"",""time""
""blur"",""1"",""2502""
""focus"",""1"",""6608""
""fullscreenenter"",""1"",""8076""
","""event"",""trial"",""time""
""blur"",""1"",""2502""
","""event"",""trial"",""time""
""focus"",""1"",""6608""
","""event"",""trial"",""time""
""fullscreenenter"",""1"",""8076""
","
","","","513.9000000953674","","","22","13621","5819","&#9789;","elianto","#f73b6a7A"," "," ","1","0","[1365.5]","1","0","4","","","","","","","",""
"pit-trial","96","772892","0.0-2.0-17.3-0.3","battery-v0.2","","""event"",""trial"",""time""
""blur"",""1"",""2502""
""focus"",""1"",""6608""
""fullscreenenter"",""1"",""8076""
","""event"",""trial"",""time""
""blur"",""1"",""2502""
","""event"",""trial"",""time""
""focus"",""1"",""6608""
","""event"",""trial"",""time""
""fullscreenenter"",""1"",""8076""
","
","","","793.7999999523163","","","22","13621","5819","&#9789;","elianto","#f73b6a7A"," "," ","1","0","[1644.5]","1","0","4","","","","","","","",""
"pit-trial","97","776638","0.0-2.0-17.3-1.3","battery-v0.2","","""event"",""trial"",""time""
""blur"",""1"",""2502""
""focus"",""1"",""6608""
""fullscreenenter"",""1"",""8076""
","""event"",""trial"",""time""
""blur"",""1"",""2502""
","""event"",""trial"",""time""
""focus"",""1"",""6608""
","""event"",""trial"",""time""
""fullscreenenter"",""1"",""8076""
","
","","","892.5","","","22","13621","5819","&#9789;","elianto","#f73b6a7A"," "," ","1","0","[1743.7999999523163]","1","0","4","","","","","","","",""
"pit-trial","98","780423","0.0-2.0-17.3-2.3","battery-v0.2","","""event"",""trial"",""time""
""blur"",""1"",""2502""
""focus"",""1"",""6608""
""fullscreenenter"",""1"",""8076""
","""event"",""trial"",""time""
""blur"",""1"",""2502""
","""event"",""trial"",""time""
""focus"",""1"",""6608""
","""event"",""trial"",""time""
""fullscreenenter"",""1"",""8076""
","
","","","929.8999998569489","","","22","13621","5819","&#9789;","elianto","#f73b6a7A"," "," ","1","0","[1782]","1","0","4","","","","","","","",""
"pit-trial","99","785276","0.0-2.0-17.3-3.3","battery-v0.2","","""event"",""trial"",""time""
""blur"",""1"",""2502""
""focus"",""1"",""6608""
""fullscreenenter"",""1"",""8076""
","""event"",""trial"",""time""
""blur"",""1"",""2502""
","""event"",""trial"",""time""
""focus"",""1"",""6608""
","""event"",""trial"",""time""
""fullscreenenter"",""1"",""8076""
","
","","","-1","","","22","13621","5819","&#9789;","elianto","#f73b6a7A"," ","-1","0","0","[]","0","0","4","","","","","","","",""
"pit-trial","100","788959","0.0-2.0-17.3-4.3","battery-v0.2","","""event"",""trial"",""time""
""blur"",""1"",""2502""
""focus"",""1"",""6608""
""fullscreenenter"",""1"",""8076""
","""event"",""trial"",""time""
""blur"",""1"",""2502""
","""event"",""trial"",""time""
""focus"",""1"",""6608""
","""event"",""trial"",""time""
""fullscreenenter"",""1"",""8076""
","
","","","830.8999998569489","","","22","13621","5819","&#9789;","elianto","#f73b6a7A"," "," ","1","0","[1681.0999999046326]","1","0","4","","","","","","","",""
"call-function","101","788961","0.0-2.0-18.0","battery-v0.2","","""event"",""trial"",""time""
""blur"",""1"",""2502""
""focus"",""1"",""6608""
""fullscreenenter"",""1"",""8076""
","""event"",""trial"",""time""
""blur"",""1"",""2502""
","""event"",""trial"",""time""
""focus"",""1"",""6608""
","""event"",""trial"",""time""
""fullscreenenter"",""1"",""8076""
","
","","","","","","","","","","","","","","","","","","","","","","","","","","",""
"pit-instructions","102","865435","0.0-2.0-19.0","battery-v0.2","","""event"",""trial"",""time""
""blur"",""1"",""2502""
""focus"",""1"",""6608""
""fullscreenenter"",""1"",""8076""
","""event"",""trial"",""time""
""blur"",""1"",""2502""
","""event"",""trial"",""time""
""focus"",""1"",""6608""
","""event"",""trial"",""time""
""fullscreenenter"",""1"",""8076""
","
","","[{""page_index"":0,""viewing_time"":6571.299999952316},{""page_index"":1,""viewing_time"":7221.5},{""page_index"":2,""viewing_time"":15172.5},{""page_index"":3,""viewing_time"":7796.700000047684},{""page_index"":4,""viewing_time"":10080.299999952316},{""page_index"":5,""viewing_time"":8780.299999952316},{""page_index"":6,""viewing_time"":8991.700000047684},{""page_index"":7,""viewing_time"":6958.099999904633},{""page_index"":8,""viewing_time"":4899.400000095367}]","76472.5","","","","","","","","","","","","","","","","","","","","","","","",""
"pit-comprehension","103","871824","0.0-2.0-20.0-0.0","battery-v0.2","","""event"",""trial"",""time""
""blur"",""1"",""2502""
""focus"",""1"",""6608""
""fullscreenenter"",""1"",""8076""
","""event"",""trial"",""time""
""blur"",""1"",""2502""
","""event"",""trial"",""time""
""focus"",""1"",""6608""
","""event"",""trial"",""time""
""fullscreenenter"",""1"",""8076""
","
","","","6384.599999904633","[""SPACE""]","0","22","13621","5819","","","","","","","","","","","","","","","","","","",""
"pit-instructions","104","875927","0.0-2.0-20.0-1.0","battery-v0.2","","""event"",""trial"",""time""
""blur"",""1"",""2502""
""focus"",""1"",""6608""
""fullscreenenter"",""1"",""8076""
","""event"",""trial"",""time""
""blur"",""1"",""2502""
","""event"",""trial"",""time""
""focus"",""1"",""6608""
","""event"",""trial"",""time""
""fullscreenenter"",""1"",""8076""
","
","","[{""page_index"":0,""viewing_time"":4076.7000000476837}]","4077.2999999523163","","","","","","","","","","","","","","","","","","","","","","","",""
"pit-comprehension","105","882702","0.0-2.0-21.0-0.0","battery-v0.2","","""event"",""trial"",""time""
""blur"",""1"",""2502""
""focus"",""1"",""6608""
""fullscreenenter"",""1"",""8076""
","""event"",""trial"",""time""
""blur"",""1"",""2502""
","""event"",""trial"",""time""
""focus"",""1"",""6608""
","""event"",""trial"",""time""
""fullscreenenter"",""1"",""8076""
","
","","","6770.899999856949","[""10""]","0","22","13621","5819","","","","","","","","","","","","","","","","","","",""
"pit-instructions","106","884098","0.0-2.0-21.0-1.0","battery-v0.2","","""event"",""trial"",""time""
""blur"",""1"",""2502""
""focus"",""1"",""6608""
""fullscreenenter"",""1"",""8076""
","""event"",""trial"",""time""
""blur"",""1"",""2502""
","""event"",""trial"",""time""
""focus"",""1"",""6608""
","""event"",""trial"",""time""
""fullscreenenter"",""1"",""8076""
","
","","[{""page_index"":0,""viewing_time"":1363}]","1363.2999999523163","","","","","","","","","","","","","","","","","","","","","","","",""
"pit-comprehension","107","892334","0.0-2.0-22.0-0.0","battery-v0.2","","""event"",""trial"",""time""
""blur"",""1"",""2502""
""focus"",""1"",""6608""
""fullscreenenter"",""1"",""8076""
","""event"",""trial"",""time""
""blur"",""1"",""2502""
","""event"",""trial"",""time""
""focus"",""1"",""6608""
","""event"",""trial"",""time""
""fullscreenenter"",""1"",""8076""
","
","","","8231.700000047684","[""0""]","0","22","13621","5819","","","","","","","","","","","","","","","","","","",""
"pit-instructions","108","894807","0.0-2.0-22.0-1.0","battery-v0.2","","""event"",""trial"",""time""
""blur"",""1"",""2502""
""focus"",""1"",""6608""
""fullscreenenter"",""1"",""8076""
","""event"",""trial"",""time""
""blur"",""1"",""2502""
","""event"",""trial"",""time""
""focus"",""1"",""6608""
","""event"",""trial"",""time""
""fullscreenenter"",""1"",""8076""
","
","","[{""page_index"":0,""viewing_time"":2448.899999856949}]","2449.399999856949","","","","","","","","","","","","","","","","","","","","","","","",""
"pit-comprehension","109","905270","0.0-2.0-23.0-0.0","battery-v0.2","","""event"",""trial"",""time""
""blur"",""1"",""2502""
""focus"",""1"",""6608""
""fullscreenenter"",""1"",""8076""
","""event"",""trial"",""time""
""blur"",""1"",""2502""
","""event"",""trial"",""time""
""focus"",""1"",""6608""
","""event"",""trial"",""time""
""fullscreenenter"",""1"",""8076""
","
","","","10458.299999952316","[""True""]","0","22","13621","5819","","","","","","","","","","","","","","","","","","",""
"pit-instructions","110","906650","0.0-2.0-23.0-1.0","battery-v0.2","","""event"",""trial"",""time""
""blur"",""1"",""2502""
""focus"",""1"",""6608""
""fullscreenenter"",""1"",""8076""
","""event"",""trial"",""time""
""blur"",""1"",""2502""
","""event"",""trial"",""time""
""focus"",""1"",""6608""
","""event"",""trial"",""time""
""fullscreenenter"",""1"",""8076""
","
","","[{""page_index"":0,""viewing_time"":1348.1000001430511}]","1348.5","","","","","","","","","","","","","","","","","","","","","","","",""
"pit-comprehension","111","914386","0.0-2.0-24.0-0.0","battery-v0.2","","""event"",""trial"",""time""
""blur"",""1"",""2502""
""focus"",""1"",""6608""
""fullscreenenter"",""1"",""8076""
","""event"",""trial"",""time""
""blur"",""1"",""2502""
","""event"",""trial"",""time""
""focus"",""1"",""6608""
","""event"",""trial"",""time""
""fullscreenenter"",""1"",""8076""
","
","","","7732.099999904633","[""True""]","0","22","13621","5819","","","","","","","","","","","","","","","","","","",""
"pit-instructions","112","916016","0.0-2.0-24.0-1.0","battery-v0.2","","""event"",""trial"",""time""
""blur"",""1"",""2502""
""focus"",""1"",""6608""
""fullscreenenter"",""1"",""8076""
","""event"",""trial"",""time""
""blur"",""1"",""2502""
","""event"",""trial"",""time""
""focus"",""1"",""6608""
","""event"",""trial"",""time""
""fullscreenenter"",""1"",""8076""
","
","","[{""page_index"":0,""viewing_time"":1604.1000001430511}]","1604.6000001430511","","","","","","","","","","","","","","","","","","","","","","","",""
"pit-comprehension","113","922601","0.0-2.0-25.0-0.0","battery-v0.2","","""event"",""trial"",""time""
""blur"",""1"",""2502""
""focus"",""1"",""6608""
""fullscreenenter"",""1"",""8076""
","""event"",""trial"",""time""
""blur"",""1"",""2502""
","""event"",""trial"",""time""
""focus"",""1"",""6608""
","""event"",""trial"",""time""
""fullscreenenter"",""1"",""8076""
","
","","","6581.099999904633","[""True""]","0","22","13621","5819","","","","","","","","","","","","","","","","","","",""
"pit-instructions","114","923836","0.0-2.0-25.0-1.0","battery-v0.2","","""event"",""trial"",""time""
""blur"",""1"",""2502""
""focus"",""1"",""6608""
""fullscreenenter"",""1"",""8076""
","""event"",""trial"",""time""
""blur"",""1"",""2502""
","""event"",""trial"",""time""
""focus"",""1"",""6608""
","""event"",""trial"",""time""
""fullscreenenter"",""1"",""8076""
","
","","[{""page_index"":0,""viewing_time"":1202}]","1202.2000000476837","","","","","","","","","","","","","","","","","","","","","","","",""
"pit-comprehension","115","929316","0.0-2.0-26.0-0.0","battery-v0.2","","""event"",""trial"",""time""
""blur"",""1"",""2502""
""focus"",""1"",""6608""
""fullscreenenter"",""1"",""8076""
","""event"",""trial"",""time""
""blur"",""1"",""2502""
","""event"",""trial"",""time""
""focus"",""1"",""6608""
","""event"",""trial"",""time""
""fullscreenenter"",""1"",""8076""
","
","","","5476.800000190735","[""False""]","0","22","13621","5819","","","","","","","","","","","","","","","","","","",""
"pit-instructions","116","930837","0.0-2.0-26.0-1.0","battery-v0.2","","""event"",""trial"",""time""
""blur"",""1"",""2502""
""focus"",""1"",""6608""
""fullscreenenter"",""1"",""8076""
","""event"",""trial"",""time""
""blur"",""1"",""2502""
","""event"",""trial"",""time""
""focus"",""1"",""6608""
","""event"",""trial"",""time""
""fullscreenenter"",""1"",""8076""
","
","","[{""page_index"":0,""viewing_time"":1490.3999998569489}]","1490.8999998569489","","","","","","","","","","","","","","","","","","","","","","","",""
"pit-instructions","117","948787","0.0-3.0","battery-v0.2","","""event"",""trial"",""time""
""blur"",""1"",""2502""
""focus"",""1"",""6608""
""fullscreenenter"",""1"",""8076""
","""event"",""trial"",""time""
""blur"",""1"",""2502""
","""event"",""trial"",""time""
""focus"",""1"",""6608""
","""event"",""trial"",""time""
""fullscreenenter"",""1"",""8076""
","
","","[{""page_index"":0,""viewing_time"":4182.799999952316},{""page_index"":1,""viewing_time"":5433.200000047684},{""page_index"":2,""viewing_time"":8331.799999952316}]","17948.10000014305","","","","","","","","","","","","","","","","","","","","","","","",""
"pit-trial","118","952836","0.0-4.0","battery-v0.2","","""event"",""trial"",""time""
""blur"",""1"",""2502""
""focus"",""1"",""6608""
""fullscreenenter"",""1"",""8076""
","""event"",""trial"",""time""
""blur"",""1"",""2502""
","""event"",""trial"",""time""
""focus"",""1"",""6608""
","""event"",""trial"",""time""
""fullscreenenter"",""1"",""8076""
","
","","","1176.2000000476837","","","22","13621","5819","&#9730;","elianto","#3366ff99"," "," ","1","0","[2039.5999999046326]","1","1","","","13621","1","1","1","win","go","1"
"pit-trial","119","956681","0.0-5.0","battery-v0.2","","""event"",""trial"",""time""
""blur"",""1"",""2502""
""focus"",""1"",""6608""
""fullscreenenter"",""1"",""8076""
","""event"",""trial"",""time""
""blur"",""1"",""2502""
","""event"",""trial"",""time""
""focus"",""1"",""6608""
","""event"",""trial"",""time""
""fullscreenenter"",""1"",""8076""
","
","","","976.2000000476837","","","22","13621","5819","&#9733;","elianto","#3366ff99","-1"," ","0","0","[1827.9000000953674]","1","1","","","13621","2","2","2","win","no-go","0"
"pit-trial","120","960914","0.0-6.0","battery-v0.2","","""event"",""trial"",""time""
""blur"",""1"",""2502""
""focus"",""1"",""6608""
""fullscreenenter"",""1"",""8076""
","""event"",""trial"",""time""
""blur"",""1"",""2502""
","""event"",""trial"",""time""
""focus"",""1"",""6608""
","""event"",""trial"",""time""
""fullscreenenter"",""1"",""8076""
","
","","","1364.1000001430511","","","22","13621","5819","&#9728;","elianto","#f73b6a7A","-1"," ","0","-10","[2216.100000143051]","1","1","","","13621","3","0","4","lose","no-go","0"
"pit-trial","121","964901","0.0-7.0","battery-v0.2","","""event"",""trial"",""time""
""blur"",""1"",""2502""
""focus"",""1"",""6608""
""fullscreenenter"",""1"",""8076""
","""event"",""trial"",""time""
""blur"",""1"",""2502""
","""event"",""trial"",""time""
""focus"",""1"",""6608""
","""event"",""trial"",""time""
""fullscreenenter"",""1"",""8076""
","
","","","1120.2000000476837","","","22","13621","5819","&#9752;","elianto","#f73b6a7A"," "," ","1","0","[1977]","1","1","","","13621","4","3","3","lose","go","0"
"pit-trial","122","968609","0.0-8.0","battery-v0.2","","""event"",""trial"",""time""
""blur"",""1"",""2502""
""focus"",""1"",""6608""
""fullscreenenter"",""1"",""8076""
","""event"",""trial"",""time""
""blur"",""1"",""2502""
","""event"",""trial"",""time""
""focus"",""1"",""6608""
","""event"",""trial"",""time""
""fullscreenenter"",""1"",""8076""
","
","","","852.7999999523163","","","22","13621","5819","&#9752;","elianto","#f73b6a7A"," "," ","1","0","[1704.5]","1","1","","","13621","5","3","3","lose","go","0"
"pit-trial","123","973469","0.0-9.0","battery-v0.2","","""event"",""trial"",""time""
""blur"",""1"",""2502""
""focus"",""1"",""6608""
""fullscreenenter"",""1"",""8076""
","""event"",""trial"",""time""
""blur"",""1"",""2502""
","""event"",""trial"",""time""
""focus"",""1"",""6608""
","""event"",""trial"",""time""
""fullscreenenter"",""1"",""8076""
","
","","","-1","","","22","13621","5819","&#9730;","elianto","#3366ff99"," ","-1","0","0","[]","0","1","","","13621","6","1","1","win","go","0"
"pit-trial","124","978325","0.0-10.0","battery-v0.2","","""event"",""trial"",""time""
""blur"",""1"",""2502""
""focus"",""1"",""6608""
""fullscreenenter"",""1"",""8076""
","""event"",""trial"",""time""
""blur"",""1"",""2502""
","""event"",""trial"",""time""
""focus"",""1"",""6608""
","""event"",""trial"",""time""
""fullscreenenter"",""1"",""8076""
","
","","","-1","","","22","13621","5819","&#9728;","elianto","#f73b6a7A","-1","-1","1","0","[]","0","1","","","13621","7","0","4","lose","no-go","0"
"pit-trial","125","983178","0.0-11.0","battery-v0.2","","""event"",""trial"",""time""
""blur"",""1"",""2502""
""focus"",""1"",""6608""
""fullscreenenter"",""1"",""8076""
","""event"",""trial"",""time""
""blur"",""1"",""2502""
","""event"",""trial"",""time""
""focus"",""1"",""6608""
","""event"",""trial"",""time""
""fullscreenenter"",""1"",""8076""
","
","","","-1","","","22","13621","5819","&#9733;","elianto","#3366ff99","-1","-1","1","0","[]","0","1","","","13621","8","2","2","win","no-go","1"
"pit-trial","126","988032","0.0-12.0","battery-v0.2","","""event"",""trial"",""time""
""blur"",""1"",""2502""
""focus"",""1"",""6608""
""fullscreenenter"",""1"",""8076""
","""event"",""trial"",""time""
""blur"",""1"",""2502""
","""event"",""trial"",""time""
""focus"",""1"",""6608""
","""event"",""trial"",""time""
""fullscreenenter"",""1"",""8076""
","
","","","-1","","","22","13621","5819","&#9730;","elianto","#3366ff99"," ","-1","0","0","[]","0","1","","","13621","9","1","1","win","go","0"
"pit-trial","127","991780","0.0-13.0","battery-v0.2","","""event"",""trial"",""time""
""blur"",""1"",""2502""
""focus"",""1"",""6608""
""fullscreenenter"",""1"",""8076""
","""event"",""trial"",""time""
""blur"",""1"",""2502""
","""event"",""trial"",""time""
""focus"",""1"",""6608""
","""event"",""trial"",""time""
""fullscreenenter"",""1"",""8076""
","
","","","894","","","22","13621","5819","&#9752;","elianto","#f73b6a7A"," "," ","1","-10","[1745.2000000476837]","1","1","","","13621","10","3","3","lose","go","1"
"pit-trial","128","995799","0.0-14.0","battery-v0.2","","""event"",""trial"",""time""
""blur"",""1"",""2502""
""focus"",""1"",""6608""
""fullscreenenter"",""1"",""8076""
","""event"",""trial"",""time""
""blur"",""1"",""2502""
","""event"",""trial"",""time""
""focus"",""1"",""6608""
","""event"",""trial"",""time""
""fullscreenenter"",""1"",""8076""
","
","","","1163.5","","","22","13621","5819","&#9728;","elianto","#f73b6a7A","-1"," ","0","-10","[2015.1000001430511]","1","1","","","13621","11","0","4","lose","no-go","0"
"pit-trial","129","999910","0.0-15.0","battery-v0.2","","""event"",""trial"",""time""
""blur"",""1"",""2502""
""focus"",""1"",""6608""
""fullscreenenter"",""1"",""8076""
","""event"",""trial"",""time""
""blur"",""1"",""2502""
","""event"",""trial"",""time""
""focus"",""1"",""6608""
","""event"",""trial"",""time""
""fullscreenenter"",""1"",""8076""
","
","","","1257.2999999523163","","","22","13621","5819","&#9733;","elianto","#3366ff99","-1"," ","0","0","[2108.0999999046326]","1","1","","","13621","12","2","2","win","no-go","0"
"pit-trial","130","1004762","0.0-16.0","battery-v0.2","","""event"",""trial"",""time""
""blur"",""1"",""2502""
""focus"",""1"",""6608""
""fullscreenenter"",""1"",""8076""
","""event"",""trial"",""time""
""blur"",""1"",""2502""
","""event"",""trial"",""time""
""focus"",""1"",""6608""
","""event"",""trial"",""time""
""fullscreenenter"",""1"",""8076""
","
","","","-1","","","22","13621","5819","&#9728;","elianto","#f73b6a7A","-1","-1","1","0","[]","0","1","","","13621","13","0","4","lose","no-go","0"
"pit-trial","131","1008969","0.0-17.0","battery-v0.2","","""event"",""trial"",""time""
""blur"",""1"",""2502""
""focus"",""1"",""6608""
""fullscreenenter"",""1"",""8076""
","""event"",""trial"",""time""
""blur"",""1"",""2502""
","""event"",""trial"",""time""
""focus"",""1"",""6608""
","""event"",""trial"",""time""
""fullscreenenter"",""1"",""8076""
","
","","","1344","","","22","13621","5819","&#9752;","elianto","#f73b6a7A"," "," ","1","0","[2202.7999999523163]","1","1","","","13621","14","3","3","lose","go","0"
"pit-trial","132","1013823","0.0-18.0","battery-v0.2","","""event"",""trial"",""time""
""blur"",""1"",""2502""
""focus"",""1"",""6608""
""fullscreenenter"",""1"",""8076""
","""event"",""trial"",""time""
""blur"",""1"",""2502""
","""event"",""trial"",""time""
""focus"",""1"",""6608""
","""event"",""trial"",""time""
""fullscreenenter"",""1"",""8076""
","
","","","-1","","","22","13621","5819","&#9730;","elianto","#3366ff99"," ","-1","0","0","[]","0","1","","","13621","15","1","1","win","go","0"
"pit-trial","133","1018676","0.0-19.0","battery-v0.2","","""event"",""trial"",""time""
""blur"",""1"",""2502""
""focus"",""1"",""6608""
""fullscreenenter"",""1"",""8076""
","""event"",""trial"",""time""
""blur"",""1"",""2502""
","""event"",""trial"",""time""
""focus"",""1"",""6608""
","""event"",""trial"",""time""
""fullscreenenter"",""1"",""8076""
","
","","","-1","","","22","13621","5819","&#9733;","elianto","#3366ff99","-1","-1","1","+10","[]","0","1","","","13621","16","2","2","win","no-go","0"
"pit-trial","134","1023530","0.0-20.0","battery-v0.2","","""event"",""trial"",""time""
""blur"",""1"",""2502""
""focus"",""1"",""6608""
""fullscreenenter"",""1"",""8076""
","""event"",""trial"",""time""
""blur"",""1"",""2502""
","""event"",""trial"",""time""
""focus"",""1"",""6608""
","""event"",""trial"",""time""
""fullscreenenter"",""1"",""8076""
","
","","","-1","","","22","13621","5819","&#9733;","elianto","#3366ff99","-1","-1","1","0","[]","0","1","","","13621","17","2","2","win","no-go","1"
"pit-trial","135","1028384","0.0-21.0","battery-v0.2","","""event"",""trial"",""time""
""blur"",""1"",""2502""
""focus"",""1"",""6608""
""fullscreenenter"",""1"",""8076""
","""event"",""trial"",""time""
""blur"",""1"",""2502""
","""event"",""trial"",""time""
""focus"",""1"",""6608""
","""event"",""trial"",""time""
""fullscreenenter"",""1"",""8076""
","
","","","-1","","","22","13621","5819","&#9730;","elianto","#3366ff99"," ","-1","0","0","[]","0","1","","","13621","18","1","1","win","go","0"
"pit-trial","136","1032563","0.0-22.0","battery-v0.2","","""event"",""trial"",""time""
""blur"",""1"",""2502""
""focus"",""1"",""6608""
""fullscreenenter"",""1"",""8076""
","""event"",""trial"",""time""
""blur"",""1"",""2502""
","""event"",""trial"",""time""
""focus"",""1"",""6608""
","""event"",""trial"",""time""
""fullscreenenter"",""1"",""8076""
","
","","","1325.7999999523163","","","22","13621","5819","&#9752;","elianto","#f73b6a7A"," "," ","1","0","[2176.5]","1","1","","","13621","19","3","3","lose","go","0"
"pit-trial","137","1037432","0.0-23.0","battery-v0.2","","""event"",""trial"",""time""
""blur"",""1"",""2502""
""focus"",""1"",""6608""
""fullscreenenter"",""1"",""8076""
","""event"",""trial"",""time""
""blur"",""1"",""2502""
","""event"",""trial"",""time""
""focus"",""1"",""6608""
","""event"",""trial"",""time""
""fullscreenenter"",""1"",""8076""
","
","","","-1","","","22","13621","5819","&#9728;","elianto","#f73b6a7A","-1","-1","1","0","[]","0","1","","","13621","20","0","4","lose","no-go","0"
"pit-instructions","138","1049919","0.0-24.0","battery-v0.2","","""event"",""trial"",""time""
""blur"",""1"",""2502""
""focus"",""1"",""6608""
""fullscreenenter"",""1"",""8076""
","""event"",""trial"",""time""
""blur"",""1"",""2502""
","""event"",""trial"",""time""
""focus"",""1"",""6608""
","""event"",""trial"",""time""
""fullscreenenter"",""1"",""8076""
","
","","[{""page_index"":0,""viewing_time"":6208.799999952316},{""page_index"":1,""viewing_time"":6275.599999904633}]","12484.799999952316","","","","","","","","","","","","","","","","","","","","","","","",""
"pit-trial","139","1053636","0.0-25.0","battery-v0.2","","""event"",""trial"",""time""
""blur"",""1"",""2502""
""focus"",""1"",""6608""
""fullscreenenter"",""1"",""8076""
","""event"",""trial"",""time""
""blur"",""1"",""2502""
","""event"",""trial"",""time""
""focus"",""1"",""6608""
","""event"",""trial"",""time""
""fullscreenenter"",""1"",""8076""
","
","","","843.5999999046326","","","22","13621","5819","b","elianto","#f73b6a7A"," "," ","1","0","[1707.3999998569489]","1","2","","","13621","21","3","3","lose","go","0"
"pit-trial","140","1057601","0.0-26.0","battery-v0.2","","""event"",""trial"",""time""
""blur"",""1"",""2502""
""focus"",""1"",""6608""
""fullscreenenter"",""1"",""8076""
","""event"",""trial"",""time""
""blur"",""1"",""2502""
","""event"",""trial"",""time""
""focus"",""1"",""6608""
","""event"",""trial"",""time""
""fullscreenenter"",""1"",""8076""
","
","","","1108.8999998569489","","","22","13621","5819","n","elianto","#f73b6a7A","-1"," ","0","-10","[1959.5999999046326]","1","2","","","13621","22","0","4","lose","no-go","0"
"pit-trial","141","1061804","0.0-27.0","battery-v0.2","","""event"",""trial"",""time""
""blur"",""1"",""2502""
""focus"",""1"",""6608""
""fullscreenenter"",""1"",""8076""
","""event"",""trial"",""time""
""blur"",""1"",""2502""
","""event"",""trial"",""time""
""focus"",""1"",""6608""
","""event"",""trial"",""time""
""fullscreenenter"",""1"",""8076""
","
","","","1347.2999999523163","","","22","13621","5819","t","elianto","#f73b6a7A","-1"," ","0","-10","[2199.100000143051]","1","2","","","13621","23","2","4","lose","no-go","0"
"pit-trial","142","1065682","0.0-28.0","battery-v0.2","","""event"",""trial"",""time""
""blur"",""1"",""2502""
""focus"",""1"",""6608""
""fullscreenenter"",""1"",""8076""
","""event"",""trial"",""time""
""blur"",""1"",""2502""
","""event"",""trial"",""time""
""focus"",""1"",""6608""
","""event"",""trial"",""time""
""fullscreenenter"",""1"",""8076""
","
","","","1012.2000000476837","","","22","13621","5819","f","elianto","#3366ff99"," "," ","1","+10","[1863.2999999523163]","1","2","","","13621","24","1","1","win","go","0"
"pit-trial","143","1070539","0.0-29.0","battery-v0.2","","""event"",""trial"",""time""
""blur"",""1"",""2502""
""focus"",""1"",""6608""
""fullscreenenter"",""1"",""8076""
","""event"",""trial"",""time""
""blur"",""1"",""2502""
","""event"",""trial"",""time""
""focus"",""1"",""6608""
","""event"",""trial"",""time""
""fullscreenenter"",""1"",""8076""
","
","","","-1","","","22","13621","5819","n","elianto","#f73b6a7A","-1","-1","1","0","[]","0","2","","","13621","25","0","4","lose","no-go","0"
"pit-trial","144","1074866","0.0-30.0","battery-v0.2","","""event"",""trial"",""time""
""blur"",""1"",""2502""
""focus"",""1"",""6608""
""fullscreenenter"",""1"",""8076""
","""event"",""trial"",""time""
""blur"",""1"",""2502""
","""event"",""trial"",""time""
""focus"",""1"",""6608""
","""event"",""trial"",""time""
""fullscreenenter"",""1"",""8076""
","
","","","1450.5999999046326","","","22","13621","5819","b","elianto","#f73b6a7A"," "," ","1","0","[2312.7999999523163]","1","2","","","13621","26","3","3","lose","go","0"
"pit-trial","145","1079733","0.0-31.0","battery-v0.2","","""event"",""trial"",""time""
""blur"",""1"",""2502""
""focus"",""1"",""6608""
""fullscreenenter"",""1"",""8076""
","""event"",""trial"",""time""
""blur"",""1"",""2502""
","""event"",""trial"",""time""
""focus"",""1"",""6608""
","""event"",""trial"",""time""
""fullscreenenter"",""1"",""8076""
","
","","","-1","","","22","13621","5819","t","elianto","#f73b6a7A","-1","-1","1","0","[]","0","2","","","13621","27","2","4","lose","no-go","0"
"pit-trial","146","1083294","0.0-32.0","battery-v0.2","","""event"",""trial"",""time""
""blur"",""1"",""2502""
""focus"",""1"",""6608""
""fullscreenenter"",""1"",""8076""
","""event"",""trial"",""time""
""blur"",""1"",""2502""
","""event"",""trial"",""time""
""focus"",""1"",""6608""
","""event"",""trial"",""time""
""fullscreenenter"",""1"",""8076""
","
","","","709.1000001430511","","","22","13621","5819","f","elianto","#3366ff99"," "," ","1","+10","[1559.0999999046326]","1","2","","","13621","28","1","1","win","go","0"
"pit-trial","147","1087011","0.0-33.0","battery-v0.2","","""event"",""trial"",""time""
""blur"",""1"",""2502""
""focus"",""1"",""6608""
""fullscreenenter"",""1"",""8076""
","""event"",""trial"",""time""
""blur"",""1"",""2502""
","""event"",""trial"",""time""
""focus"",""1"",""6608""
","""event"",""trial"",""time""
""fullscreenenter"",""1"",""8076""
","
","","","863.2000000476837","","","22","13621","5819","f","elianto","#3366ff99"," "," ","1","+10","[1713.6000001430511]","1","2","","","13621","29","1","1","win","go","0"
"pit-trial","148","1091865","0.0-34.0","battery-v0.2","","""event"",""trial"",""time""
""blur"",""1"",""2502""
""focus"",""1"",""6608""
""fullscreenenter"",""1"",""8076""
","""event"",""trial"",""time""
""blur"",""1"",""2502""
","""event"",""trial"",""time""
""focus"",""1"",""6608""
","""event"",""trial"",""time""
""fullscreenenter"",""1"",""8076""
","
","","","-1","","","22","13621","5819","n","elianto","#f73b6a7A","-1","-1","1","0","[]","0","2","","","13621","30","0","4","lose","no-go","0"
"pit-trial","149","1096718","0.0-35.0","battery-v0.2","","""event"",""trial"",""time""
""blur"",""1"",""2502""
""focus"",""1"",""6608""
""fullscreenenter"",""1"",""8076""
","""event"",""trial"",""time""
""blur"",""1"",""2502""
","""event"",""trial"",""time""
""focus"",""1"",""6608""
","""event"",""trial"",""time""
""fullscreenenter"",""1"",""8076""
","
","","","-1","","","22","13621","5819","t","elianto","#f73b6a7A","-1","-1","1","0","[]","0","2","","","13621","31","2","4","lose","no-go","0"
"pit-trial","150","1100798","0.0-36.0","battery-v0.2","","""event"",""trial"",""time""
""blur"",""1"",""2502""
""focus"",""1"",""6608""
""fullscreenenter"",""1"",""8076""
","""event"",""trial"",""time""
""blur"",""1"",""2502""
","""event"",""trial"",""time""
""focus"",""1"",""6608""
","""event"",""trial"",""time""
""fullscreenenter"",""1"",""8076""
","
","","","1224.8999998569489","","","22","13621","5819","b","elianto","#f73b6a7A"," "," ","1","0","[2076.2000000476837]","1","2","","","13621","32","3","3","lose","go","0"
"pit-trial","151","1104392","0.0-37.0","battery-v0.2","","""event"",""trial"",""time""
""blur"",""1"",""2502""
""focus"",""1"",""6608""
""fullscreenenter"",""1"",""8076""
","""event"",""trial"",""time""
""blur"",""1"",""2502""
","""event"",""trial"",""time""
""focus"",""1"",""6608""
","""event"",""trial"",""time""
""fullscreenenter"",""1"",""8076""
","
","","","741.0999999046326","","","22","13621","5819","b","elianto","#f73b6a7A"," "," ","1","0","[1591.2000000476837]","1","2","","","13621","33","3","3","lose","go","0"
"pit-trial","152","1109247","0.0-38.0","battery-v0.2","","""event"",""trial"",""time""
""blur"",""1"",""2502""
""focus"",""1"",""6608""
""fullscreenenter"",""1"",""8076""
","""event"",""trial"",""time""
""blur"",""1"",""2502""
","""event"",""trial"",""time""
""focus"",""1"",""6608""
","""event"",""trial"",""time""
""fullscreenenter"",""1"",""8076""
","
","","","-1","","","22","13621","5819","n","elianto","#f73b6a7A","-1","-1","1","0","[]","0","2","","","13621","34","0","4","lose","no-go","0"
"pit-trial","153","1114101","0.0-39.0","battery-v0.2","","""event"",""trial"",""time""
""blur"",""1"",""2502""
""focus"",""1"",""6608""
""fullscreenenter"",""1"",""8076""
","""event"",""trial"",""time""
""blur"",""1"",""2502""
","""event"",""trial"",""time""
""focus"",""1"",""6608""
","""event"",""trial"",""time""
""fullscreenenter"",""1"",""8076""
","
","","","-1","","","22","13621","5819","t","elianto","#f73b6a7A","-1","-1","1","0","[]","0","2","","","13621","35","2","4","lose","no-go","0"
"pit-trial","154","1117901","0.0-40.0","battery-v0.2","","""event"",""trial"",""time""
""blur"",""1"",""2502""
""focus"",""1"",""6608""
""fullscreenenter"",""1"",""8076""
","""event"",""trial"",""time""
""blur"",""1"",""2502""
","""event"",""trial"",""time""
""focus"",""1"",""6608""
","""event"",""trial"",""time""
""fullscreenenter"",""1"",""8076""
","
","","","948.4000000953674","","","22","13621","5819","f","elianto","#3366ff99"," "," ","1","+10","[1798.9000000953674]","1","2","","","13621","36","1","1","win","go","0"
"pit-trial","155","1122754","0.0-41.0","battery-v0.2","","""event"",""trial"",""time""
""blur"",""1"",""2502""
""focus"",""1"",""6608""
""fullscreenenter"",""1"",""8076""
","""event"",""trial"",""time""
""blur"",""1"",""2502""
","""event"",""trial"",""time""
""focus"",""1"",""6608""
","""event"",""trial"",""time""
""fullscreenenter"",""1"",""8076""
","
","","","-1","","","22","13621","5819","t","elianto","#f73b6a7A","-1","-1","1","0","[]","0","2","","","13621","37","2","4","lose","no-go","0"
"pit-trial","156","1126484","0.0-42.0","battery-v0.2","","""event"",""trial"",""time""
""blur"",""1"",""2502""
""focus"",""1"",""6608""
""fullscreenenter"",""1"",""8076""
","""event"",""trial"",""time""
""blur"",""1"",""2502""
","""event"",""trial"",""time""
""focus"",""1"",""6608""
","""event"",""trial"",""time""
""fullscreenenter"",""1"",""8076""
","
","","","876.7000000476837","","","22","13621","5819","f","elianto","#3366ff99"," "," ","1","+10","[1726.7000000476837]","1","2","","","13621","38","1","1","win","go","0"
"pit-trial","157","1131338","0.0-43.0","battery-v0.2","","""event"",""trial"",""time""
""blur"",""1"",""2502""
""focus"",""1"",""6608""
""fullscreenenter"",""1"",""8076""
","""event"",""trial"",""time""
""blur"",""1"",""2502""
","""event"",""trial"",""time""
""focus"",""1"",""6608""
","""event"",""trial"",""time""
""fullscreenenter"",""1"",""8076""
","
","","","-1","","","22","13621","5819","n","elianto","#f73b6a7A","-1","-1","1","0","[]","0","2","","","13621","39","0","4","lose","no-go","0"
"pit-trial","158","1135249","0.0-44.0","battery-v0.2","","""event"",""trial"",""time""
""blur"",""1"",""2502""
""focus"",""1"",""6608""
""fullscreenenter"",""1"",""8076""
","""event"",""trial"",""time""
""blur"",""1"",""2502""
","""event"",""trial"",""time""
""focus"",""1"",""6608""
","""event"",""trial"",""time""
""fullscreenenter"",""1"",""8076""
","
","","","1057","","","22","13621","5819","b","elianto","#f73b6a7A"," "," ","1","-10","[1908.2999999523163]","1","2","","","13621","40","3","3","lose","go","1"
"pit-trial","159","1140102","0.0-45.0","battery-v0.2","","""event"",""trial"",""time""
""blur"",""1"",""2502""
""focus"",""1"",""6608""
""fullscreenenter"",""1"",""8076""
","""event"",""trial"",""time""
""blur"",""1"",""2502""
","""event"",""trial"",""time""
""focus"",""1"",""6608""
","""event"",""trial"",""time""
""fullscreenenter"",""1"",""8076""
","
","","","-1","","","22","13621","5819","t","elianto","#f73b6a7A","-1","-1","1","-10","[]","0","2","","","13621","41","2","4","lose","no-go","1"
"pit-trial","160","1143898","0.0-46.0","battery-v0.2","","""event"",""trial"",""time""
""blur"",""1"",""2502""
""focus"",""1"",""6608""
""fullscreenenter"",""1"",""8076""
","""event"",""trial"",""time""
""blur"",""1"",""2502""
","""event"",""trial"",""time""
""focus"",""1"",""6608""
","""event"",""trial"",""time""
""fullscreenenter"",""1"",""8076""
","
","","","943.4000000953674","","","22","13621","5819","f","elianto","#3366ff99"," "," ","1","+10","[1793.6999998092651]","1","2","","","13621","42","1","1","win","go","0"
"pit-trial","161","1148752","0.0-47.0","battery-v0.2","","""event"",""trial"",""time""
""blur"",""1"",""2502""
""focus"",""1"",""6608""
""fullscreenenter"",""1"",""8076""
","""event"",""trial"",""time""
""blur"",""1"",""2502""
","""event"",""trial"",""time""
""focus"",""1"",""6608""
","""event"",""trial"",""time""
""fullscreenenter"",""1"",""8076""
","
","","","-1","","","22","13621","5819","n","elianto","#f73b6a7A","-1","-1","1","0","[]","0","2","","","13621","43","0","4","lose","no-go","0"
"pit-trial","162","1152426","0.0-48.0","battery-v0.2","","""event"",""trial"",""time""
""blur"",""1"",""2502""
""focus"",""1"",""6608""
""fullscreenenter"",""1"",""8076""
","""event"",""trial"",""time""
""blur"",""1"",""2502""
","""event"",""trial"",""time""
""focus"",""1"",""6608""
","""event"",""trial"",""time""
""fullscreenenter"",""1"",""8076""
","
","","","821.3999998569489","","","22","13621","5819","b","elianto","#f73b6a7A"," "," ","1","0","[1672.1999998092651]","1","2","","","13621","44","3","3","lose","go","0"
"pit-trial","163","1156622","0.0-49.0","battery-v0.2","","""event"",""trial"",""time""
""blur"",""1"",""2502""
""focus"",""1"",""6608""
""fullscreenenter"",""1"",""8076""
","""event"",""trial"",""time""
""blur"",""1"",""2502""
","""event"",""trial"",""time""
""focus"",""1"",""6608""
","""event"",""trial"",""time""
""fullscreenenter"",""1"",""8076""
","
","","","1342.7999999523163","","","22","13621","5819","c","elianto","#3366ff99","-1"," ","0","0","[2193.4000000953674]","1","2","","","13621","45","4","2","win","no-go","0"
"pit-trial","164","1161477","0.0-50.0","battery-v0.2","","""event"",""trial"",""time""
""blur"",""1"",""2502""
""focus"",""1"",""6608""
""fullscreenenter"",""1"",""8076""
","""event"",""trial"",""time""
""blur"",""1"",""2502""
","""event"",""trial"",""time""
""focus"",""1"",""6608""
","""event"",""trial"",""time""
""fullscreenenter"",""1"",""8076""
","
","","","-1","","","22","13621","5819","t","elianto","#f73b6a7A","-1","-1","1","0","[]","0","2","","","13621","46","2","4","lose","no-go","0"
"pit-trial","165","1165176","0.0-51.0","battery-v0.2","","""event"",""trial"",""time""
""blur"",""1"",""2502""
""focus"",""1"",""6608""
""fullscreenenter"",""1"",""8076""
","""event"",""trial"",""time""
""blur"",""1"",""2502""
","""event"",""trial"",""time""
""focus"",""1"",""6608""
","""event"",""trial"",""time""
""fullscreenenter"",""1"",""8076""
","
","","","845.5","","","22","13621","5819","b","elianto","#f73b6a7A"," "," ","1","0","[1695.7999999523163]","1","2","","","13621","47","3","3","lose","go","0"
"pit-trial","166","1170029","0.0-52.0","battery-v0.2","","""event"",""trial"",""time""
""blur"",""1"",""2502""
""focus"",""1"",""6608""
""fullscreenenter"",""1"",""8076""
","""event"",""trial"",""time""
""blur"",""1"",""2502""
","""event"",""trial"",""time""
""focus"",""1"",""6608""
","""event"",""trial"",""time""
""fullscreenenter"",""1"",""8076""
","
","","","-1","","","22","13621","5819","n","elianto","#f73b6a7A","-1","-1","1","0","[]","0","2","","","13621","48","0","4","lose","no-go","0"
"pit-trial","167","1174721","0.0-53.0","battery-v0.2","","""event"",""trial"",""time""
""blur"",""1"",""2502""
""focus"",""1"",""6608""
""fullscreenenter"",""1"",""8076""
","""event"",""trial"",""time""
""blur"",""1"",""2502""
","""event"",""trial"",""time""
""focus"",""1"",""6608""
","""event"",""trial"",""time""
""fullscreenenter"",""1"",""8076""
","
","","","1837.9000000953674","","","22","13621","5819","c","elianto","#3366ff99","-1"," ","0","0","[2689]","1","2","","","13621","49","4","2","win","no-go","0"
"pit-trial","168","1178300","0.0-54.0","battery-v0.2","","""event"",""trial"",""time""
""blur"",""1"",""2502""
""focus"",""1"",""6608""
""fullscreenenter"",""1"",""8076""
","""event"",""trial"",""time""
""blur"",""1"",""2502""
","""event"",""trial"",""time""
""focus"",""1"",""6608""
","""event"",""trial"",""time""
""fullscreenenter"",""1"",""8076""
","
","","","726.0999999046326","","","22","13621","5819","f","elianto","#3366ff99"," "," ","1","+10","[1576.9000000953674]","1","2","","","13621","50","1","1","win","go","0"
"pit-trial","169","1183155","0.0-55.0","battery-v0.2","","""event"",""trial"",""time""
""blur"",""1"",""2502""
""focus"",""1"",""6608""
""fullscreenenter"",""1"",""8076""
","""event"",""trial"",""time""
""blur"",""1"",""2502""
","""event"",""trial"",""time""
""focus"",""1"",""6608""
","""event"",""trial"",""time""
""fullscreenenter"",""1"",""8076""
","
","","","-1","","","22","13621","5819","n","elianto","#f73b6a7A","-1","-1","1","-10","[]","0","2","","","13621","51","0","4","lose","no-go","1"
"pit-trial","170","1187648","0.0-56.0","battery-v0.2","","""event"",""trial"",""time""
""blur"",""1"",""2502""
""focus"",""1"",""6608""
""fullscreenenter"",""1"",""8076""
","""event"",""trial"",""time""
""blur"",""1"",""2502""
","""event"",""trial"",""time""
""focus"",""1"",""6608""
","""event"",""trial"",""time""
""fullscreenenter"",""1"",""8076""
","
","","","1638.2000000476837","","","22","13621","5819","b","elianto","#f73b6a7A"," "," ","1","0","[2489.7000000476837]","1","2","","","13621","52","3","3","lose","go","0"
"pit-trial","171","1192500","0.0-57.0","battery-v0.2","","""event"",""trial"",""time""
""blur"",""1"",""2502""
""focus"",""1"",""6608""
""fullscreenenter"",""1"",""8076""
","""event"",""trial"",""time""
""blur"",""1"",""2502""
","""event"",""trial"",""time""
""focus"",""1"",""6608""
","""event"",""trial"",""time""
""fullscreenenter"",""1"",""8076""
","
","","","-1","","","22","13621","5819","n","elianto","#f73b6a7A","-1","-1","1","0","[]","0","2","","","13621","53","0","4","lose","no-go","0"
"pit-trial","172","1197354","0.0-58.0","battery-v0.2","","""event"",""trial"",""time""
""blur"",""1"",""2502""
""focus"",""1"",""6608""
""fullscreenenter"",""1"",""8076""
","""event"",""trial"",""time""
""blur"",""1"",""2502""
","""event"",""trial"",""time""
""focus"",""1"",""6608""
","""event"",""trial"",""time""
""fullscreenenter"",""1"",""8076""
","
","","","-1","","","22","13621","5819","t","elianto","#f73b6a7A","-1","-1","1","0","[]","0","2","","","13621","54","2","4","lose","no-go","0"
"pit-trial","173","1200956","0.0-59.0","battery-v0.2","","""event"",""trial"",""time""
""blur"",""1"",""2502""
""focus"",""1"",""6608""
""fullscreenenter"",""1"",""8076""
","""event"",""trial"",""time""
""blur"",""1"",""2502""
","""event"",""trial"",""time""
""focus"",""1"",""6608""
","""event"",""trial"",""time""
""fullscreenenter"",""1"",""8076""
","
","","","747.8999998569489","","","22","13621","5819","f","elianto","#3366ff99"," "," ","1","0","[1599.5]","1","2","","","13621","55","1","1","win","go","1"
"pit-trial","174","1204672","0.0-60.0","battery-v0.2","","""event"",""trial"",""time""
""blur"",""1"",""2502""
""focus"",""1"",""6608""
""fullscreenenter"",""1"",""8076""
","""event"",""trial"",""time""
""blur"",""1"",""2502""
","""event"",""trial"",""time""
""focus"",""1"",""6608""
","""event"",""trial"",""time""
""fullscreenenter"",""1"",""8076""
","
","","","861.0999999046326","","","22","13621","5819","c","elianto","#3366ff99","-1"," ","0","0","[1713.0999999046326]","1","2","","","13621","56","4","2","win","no-go","0"
"pit-trial","175","1209526","0.0-61.0","battery-v0.2","","""event"",""trial"",""time""
""blur"",""1"",""2502""
""focus"",""1"",""6608""
""fullscreenenter"",""1"",""8076""
","""event"",""trial"",""time""
""blur"",""1"",""2502""
","""event"",""trial"",""time""
""focus"",""1"",""6608""
","""event"",""trial"",""time""
""fullscreenenter"",""1"",""8076""
","
","","","-1","","","22","13621","5819","c","elianto","#3366ff99","-1","-1","1","+10","[]","0","2","","","13621","57","4","2","win","no-go","0"
"pit-trial","176","1213578","0.0-62.0","battery-v0.2","","""event"",""trial"",""time""
""blur"",""1"",""2502""
""focus"",""1"",""6608""
""fullscreenenter"",""1"",""8076""
","""event"",""trial"",""time""
""blur"",""1"",""2502""
","""event"",""trial"",""time""
""focus"",""1"",""6608""
","""event"",""trial"",""time""
""fullscreenenter"",""1"",""8076""
","
","","","1197.7000000476837","","","22","13621","5819","b","elianto","#f73b6a7A"," "," ","1","-10","[2048.7000000476837]","1","2","","","13621","58","3","3","lose","go","1"
"pit-trial","177","1218440","0.0-63.0","battery-v0.2","","""event"",""trial"",""time""
""blur"",""1"",""2502""
""focus"",""1"",""6608""
""fullscreenenter"",""1"",""8076""
","""event"",""trial"",""time""
""blur"",""1"",""2502""
","""event"",""trial"",""time""
""focus"",""1"",""6608""
","""event"",""trial"",""time""
""fullscreenenter"",""1"",""8076""
","
","","","-1","","","22","13621","5819","n","elianto","#f73b6a7A","-1","-1","1","0","[]","0","2","","","13621","59","0","4","lose","no-go","0"
"pit-trial","178","1222075","0.0-64.0","battery-v0.2","","""event"",""trial"",""time""
""blur"",""1"",""2502""
""focus"",""1"",""6608""
""fullscreenenter"",""1"",""8076""
","""event"",""trial"",""time""
""blur"",""1"",""2502""
","""event"",""trial"",""time""
""focus"",""1"",""6608""
","""event"",""trial"",""time""
""fullscreenenter"",""1"",""8076""
","
","","","778.7000000476837","","","22","13621","5819","f","elianto","#3366ff99"," "," ","1","+10","[1629.7000000476837]","1","2","","","13621","60","1","1","win","go","0"
"pit-trial","179","1226119","0.0-65.0","battery-v0.2","","""event"",""trial"",""time""
""blur"",""1"",""2502""
""focus"",""1"",""6608""
""fullscreenenter"",""1"",""8076""
","""event"",""trial"",""time""
""blur"",""1"",""2502""
","""event"",""trial"",""time""
""focus"",""1"",""6608""
","""event"",""trial"",""time""
""fullscreenenter"",""1"",""8076""
","
","","","1191","","","22","13621","5819","c","elianto","#3366ff99","-1"," ","0","0","[2042.0999999046326]","1","2","","","13621","61","4","2","win","no-go","0"
"pit-trial","180","1230036","0.0-66.0","battery-v0.2","","""event"",""trial"",""time""
""blur"",""1"",""2502""
""focus"",""1"",""6608""
""fullscreenenter"",""1"",""8076""
","""event"",""trial"",""time""
""blur"",""1"",""2502""
","""event"",""trial"",""time""
""focus"",""1"",""6608""
","""event"",""trial"",""time""
""fullscreenenter"",""1"",""8076""
","
","","","1063.9000000953674","","","22","13621","5819","b","elianto","#f73b6a7A"," "," ","1","0","[1914.1000001430511]","1","2","","","13621","62","3","3","lose","go","0"
"pit-trial","181","1233710","0.0-67.0","battery-v0.2","","""event"",""trial"",""time""
""blur"",""1"",""2502""
""focus"",""1"",""6608""
""fullscreenenter"",""1"",""8076""
","""event"",""trial"",""time""
""blur"",""1"",""2502""
","""event"",""trial"",""time""
""focus"",""1"",""6608""
","""event"",""trial"",""time""
""fullscreenenter"",""1"",""8076""
","
","","","819.2000000476837","","","22","13621","5819","f","elianto","#3366ff99"," "," ","1","+10","[1671]","1","2","","","13621","63","1","1","win","go","0"
"pit-trial","182","1238564","0.0-68.0","battery-v0.2","","""event"",""trial"",""time""
""blur"",""1"",""2502""
""focus"",""1"",""6608""
""fullscreenenter"",""1"",""8076""
","""event"",""trial"",""time""
""blur"",""1"",""2502""
","""event"",""trial"",""time""
""focus"",""1"",""6608""
","""event"",""trial"",""time""
""fullscreenenter"",""1"",""8076""
","
","","","-1","","","22","13621","5819","t","elianto","#f73b6a7A","-1","-1","1","0","[]","0","2","","","13621","64","2","4","lose","no-go","0"
"pit-trial","183","1242358","0.0-69.0","battery-v0.2","","""event"",""trial"",""time""
""blur"",""1"",""2502""
""focus"",""1"",""6608""
""fullscreenenter"",""1"",""8076""
","""event"",""trial"",""time""
""blur"",""1"",""2502""
","""event"",""trial"",""time""
""focus"",""1"",""6608""
","""event"",""trial"",""time""
""fullscreenenter"",""1"",""8076""
","
","","","939.2999999523163","","","22","13621","5819","b","elianto","#f73b6a7A"," "," ","1","0","[1792]","1","2","","","13621","65","3","3","lose","go","0"
"pit-trial","184","1247212","0.0-70.0","battery-v0.2","","""event"",""trial"",""time""
""blur"",""1"",""2502""
""focus"",""1"",""6608""
""fullscreenenter"",""1"",""8076""
","""event"",""trial"",""time""
""blur"",""1"",""2502""
","""event"",""trial"",""time""
""focus"",""1"",""6608""
","""event"",""trial"",""time""
""fullscreenenter"",""1"",""8076""
","
","","","-1","","","22","13621","5819","c","elianto","#3366ff99","-1","-1","1","0","[]","0","2","","","13621","66","4","2","win","no-go","1"
"pit-trial","185","1250795","0.0-71.0","battery-v0.2","","""event"",""trial"",""time""
""blur"",""1"",""2502""
""focus"",""1"",""6608""
""fullscreenenter"",""1"",""8076""
","""event"",""trial"",""time""
""blur"",""1"",""2502""
","""event"",""trial"",""time""
""focus"",""1"",""6608""
","""event"",""trial"",""time""
""fullscreenenter"",""1"",""8076""
","
","","","730.2999999523163","","","22","13621","5819","f","elianto","#3366ff99"," "," ","1","+10","[1580.6000001430511]","1","2","","","13621","67","1","1","win","go","0"
"pit-trial","186","1255650","0.0-72.0","battery-v0.2","","""event"",""trial"",""time""
""blur"",""1"",""2502""
""focus"",""1"",""6608""
""fullscreenenter"",""1"",""8076""
","""event"",""trial"",""time""
""blur"",""1"",""2502""
","""event"",""trial"",""time""
""focus"",""1"",""6608""
","""event"",""trial"",""time""
""fullscreenenter"",""1"",""8076""
","
","","","-1","","","22","13621","5819","t","elianto","#f73b6a7A","-1","-1","1","0","[]","0","2","","","13621","68","2","4","lose","no-go","0"
