"trial_type","trial_index","time_elapsed","internal_node_id","task_version","subject_id","interactions","blur_events","focus_events","fullscreenenter_events","fullscreenexit_events","success","view_history","rt","responses","num_errors","age","subject","participantId","rune","rune_set","hex","correct","choice","accuracy","outcome","keys","total_keys","block","practice","value","sub","trial","stimulus","robot","valence","action","sham"
"pavlovia","0","80","0.0-0.0","battery-v0.2","","""event"",""trial"",""time""
""fullscreenenter"",""1"",""2098""
","
","
","""event"",""trial"",""time""
""fullscreenenter"",""1"",""2098""
","
","","","","","","","","","","","","","","","","","","","","","","","","","","",""
"fullscreen","1","3060","0.0-1.0","battery-v0.2","","""event"",""trial"",""time""
""fullscreenenter"",""1"",""2098""
","
","
","""event"",""trial"",""time""
""fullscreenenter"",""1"",""2098""
","
","true","","","","","","","","","","","","","","","","","","","","","","","","","",""
"pit-instructions","2","7101","0.0-2.0-0.0","battery-v0.2","","""event"",""trial"",""time""
""fullscreenenter"",""1"",""2098""
","
","
","""event"",""trial"",""time""
""fullscreenenter"",""1"",""2098""
","
","","[{""page_index"":0,""viewing_time"":4037.2999999523163}]","4037.6999999284744","","","","","","","","","","","","","","","","","","","","","","","",""
"pit-comprehension","3","9936","0.0-2.0-1.0-0.0","battery-v0.2","","""event"",""trial"",""time""
""fullscreenenter"",""1"",""2098""
","
","
","""event"",""trial"",""time""
""fullscreenenter"",""1"",""2098""
","
","","","2832","[""shark""]","0","23","15766","45","","","","","","","","","","","","","","","","","","",""
"pit-instructions","4","11333","0.0-2.0-1.0-1.0","battery-v0.2","","""event"",""trial"",""time""
""fullscreenenter"",""1"",""2098""
","
","
","""event"",""trial"",""time""
""fullscreenenter"",""1"",""2098""
","
","","[{""page_index"":0,""viewing_time"":1387.6000000238419}]","1388","","","","","","","","","","","","","","","","","","","","","","","",""
"pit-comprehension","5","14537","0.0-2.0-2.0-0.0","battery-v0.2","","""event"",""trial"",""time""
""fullscreenenter"",""1"",""2098""
","
","
","""event"",""trial"",""time""
""fullscreenenter"",""1"",""2098""
","
","","","3201.7000000476837","[""tiger""]","0","23","15766","45","","","","","","","","","","","","","","","","","","",""
"pit-instructions","6","15476","0.0-2.0-2.0-1.0","battery-v0.2","","""event"",""trial"",""time""
""fullscreenenter"",""1"",""2098""
""fullscreenexit"",""7"",""24711""
""blur"",""7"",""30246""
""focus"",""7"",""31398""
""blur"",""7"",""42758""
""focus"",""7"",""44347""
""blur"",""7"",""46296""
""focus"",""7"",""59075""
","""event"",""trial"",""time""
""blur"",""7"",""30246""
""blur"",""7"",""42758""
""blur"",""7"",""46296""
","""event"",""trial"",""time""
""focus"",""7"",""31398""
""focus"",""7"",""44347""
""focus"",""7"",""59075""
","""event"",""trial"",""time""
""fullscreenenter"",""1"",""2098""
","""event"",""trial"",""time""
""fullscreenexit"",""7"",""24711""
","","[{""page_index"":0,""viewing_time"":936.3999999761581}]","936.7000000476837","","","","","","","","","","","","","","","","","","","","","","","",""
"pit-instructions","7","123593","0.0-2.0-3.0","battery-v0.2","","""event"",""trial"",""time""
""fullscreenenter"",""1"",""2098""
""fullscreenexit"",""7"",""24711""
""blur"",""7"",""30246""
""focus"",""7"",""31398""
""blur"",""7"",""42758""
""focus"",""7"",""44347""
""blur"",""7"",""46296""
""focus"",""7"",""59075""
","""event"",""trial"",""time""
""blur"",""7"",""30246""
""blur"",""7"",""42758""
""blur"",""7"",""46296""
","""event"",""trial"",""time""
""focus"",""7"",""31398""
""focus"",""7"",""44347""
""focus"",""7"",""59075""
","""event"",""trial"",""time""
""fullscreenenter"",""1"",""2098""
","""event"",""trial"",""time""
""fullscreenexit"",""7"",""24711""
","","[{""page_index"":0,""viewing_time"":10839.199999928474},{""page_index"":1,""viewing_time"":5741.100000023842},{""page_index"":2,""viewing_time"":7643},{""page_index"":3,""viewing_time"":5594.5},{""page_index"":4,""viewing_time"":14509.600000023842},{""page_index"":5,""viewing_time"":5372.699999928474},{""page_index"":6,""viewing_time"":5622.900000095367},{""page_index"":7,""viewing_time"":13975.099999904633},{""page_index"":8,""viewing_time"":6693},{""page_index"":9,""viewing_time"":8404.400000095367},{""page_index"":10,""viewing_time"":7666.399999976158},{""page_index"":11,""viewing_time"":4156.5},{""page_index"":12,""viewing_time"":6223.699999928474},{""page_index"":13,""viewing_time"":5668.300000071526}]","108111.89999997616","","","","","","","","","","","","","","","","","","","","","","","",""
"pit-trial","8","126989","0.0-2.0-4.0-0.0","battery-v0.2","","""event"",""trial"",""time""
""fullscreenenter"",""1"",""2098""
""fullscreenexit"",""7"",""24711""
""blur"",""7"",""30246""
""focus"",""7"",""31398""
""blur"",""7"",""42758""
""focus"",""7"",""44347""
""blur"",""7"",""46296""
""focus"",""7"",""59075""
","""event"",""trial"",""time""
""blur"",""7"",""30246""
""blur"",""7"",""42758""
""blur"",""7"",""46296""
","""event"",""trial"",""time""
""focus"",""7"",""31398""
""focus"",""7"",""44347""
""focus"",""7"",""59075""
","""event"",""trial"",""time""
""fullscreenenter"",""1"",""2098""
","""event"",""trial"",""time""
""fullscreenexit"",""7"",""24711""
","","","530.6000000238419","","","23","15766","45","&#9784;","elianto","#FFFFF080"," "," ","1","&#10004","[1386.1000000238419]","1","0","0","","","","","","","",""
"pit-trial","9","130270","0.0-2.0-4.1-0.1","battery-v0.2","","""event"",""trial"",""time""
""fullscreenenter"",""1"",""2098""
""fullscreenexit"",""7"",""24711""
""blur"",""7"",""30246""
""focus"",""7"",""31398""
""blur"",""7"",""42758""
""focus"",""7"",""44347""
""blur"",""7"",""46296""
""focus"",""7"",""59075""
","""event"",""trial"",""time""
""blur"",""7"",""30246""
""blur"",""7"",""42758""
""blur"",""7"",""46296""
","""event"",""trial"",""time""
""focus"",""7"",""31398""
""focus"",""7"",""44347""
""focus"",""7"",""59075""
","""event"",""trial"",""time""
""fullscreenenter"",""1"",""2098""
","""event"",""trial"",""time""
""fullscreenexit"",""7"",""24711""
","","","415.5","","","23","15766","45","&#9784;","elianto","#FFFFF080"," "," ","1","&#10004","[1269.7000000476837]","1","0","0","","","","","","","",""
"pit-trial","10","133605","0.0-2.0-4.2-0.2","battery-v0.2","","""event"",""trial"",""time""
""fullscreenenter"",""1"",""2098""
""fullscreenexit"",""7"",""24711""
""blur"",""7"",""30246""
""focus"",""7"",""31398""
""blur"",""7"",""42758""
""focus"",""7"",""44347""
""blur"",""7"",""46296""
""focus"",""7"",""59075""
","""event"",""trial"",""time""
""blur"",""7"",""30246""
""blur"",""7"",""42758""
""blur"",""7"",""46296""
","""event"",""trial"",""time""
""focus"",""7"",""31398""
""focus"",""7"",""44347""
""focus"",""7"",""59075""
","""event"",""trial"",""time""
""fullscreenenter"",""1"",""2098""
","""event"",""trial"",""time""
""fullscreenexit"",""7"",""24711""
","","","475.5","","","23","15766","45","&#9784;","elianto","#FFFFF080"," "," ","1","&#10004","[1326]","1","0","0","","","","","","","",""
"pit-trial","11","136933","0.0-2.0-4.3-0.3","battery-v0.2","","""event"",""trial"",""time""
""fullscreenenter"",""1"",""2098""
""fullscreenexit"",""7"",""24711""
""blur"",""7"",""30246""
""focus"",""7"",""31398""
""blur"",""7"",""42758""
""focus"",""7"",""44347""
""blur"",""7"",""46296""
""focus"",""7"",""59075""
","""event"",""trial"",""time""
""blur"",""7"",""30246""
""blur"",""7"",""42758""
""blur"",""7"",""46296""
","""event"",""trial"",""time""
""focus"",""7"",""31398""
""focus"",""7"",""44347""
""focus"",""7"",""59075""
","""event"",""trial"",""time""
""fullscreenenter"",""1"",""2098""
","""event"",""trial"",""time""
""fullscreenexit"",""7"",""24711""
","","","472.10000002384186","","","23","15766","45","&#9784;","elianto","#FFFFF080"," "," ","1","&#10004","[1322.3999999761581]","1","0","0","","","","","","","",""
"pit-trial","12","140252","0.0-2.0-4.4-0.4","battery-v0.2","","""event"",""trial"",""time""
""fullscreenenter"",""1"",""2098""
""fullscreenexit"",""7"",""24711""
""blur"",""7"",""30246""
""focus"",""7"",""31398""
""blur"",""7"",""42758""
""focus"",""7"",""44347""
""blur"",""7"",""46296""
""focus"",""7"",""59075""
""blur"",""13"",""155146""
""focus"",""13"",""1077709""
","""event"",""trial"",""time""
""blur"",""7"",""30246""
""blur"",""7"",""42758""
""blur"",""7"",""46296""
""blur"",""13"",""155146""
","""event"",""trial"",""time""
""focus"",""7"",""31398""
""focus"",""7"",""44347""
""focus"",""7"",""59075""
""focus"",""13"",""1077709""
","""event"",""trial"",""time""
""fullscreenenter"",""1"",""2098""
","""event"",""trial"",""time""
""fullscreenexit"",""7"",""24711""
","","","458.7999999523163","","","23","15766","45","&#9784;","elianto","#FFFFF080"," "," ","1","&#10004","[1311.6999999284744]","1","0","0","","","","","","","",""
"pit-instructions","13","1086068","0.0-2.0-5.0","battery-v0.2","","""event"",""trial"",""time""
""fullscreenenter"",""1"",""2098""
""fullscreenexit"",""7"",""24711""
""blur"",""7"",""30246""
""focus"",""7"",""31398""
""blur"",""7"",""42758""
""focus"",""7"",""44347""
""blur"",""7"",""46296""
""focus"",""7"",""59075""
""blur"",""13"",""155146""
""focus"",""13"",""1077709""
","""event"",""trial"",""time""
""blur"",""7"",""30246""
""blur"",""7"",""42758""
""blur"",""7"",""46296""
""blur"",""13"",""155146""
","""event"",""trial"",""time""
""focus"",""7"",""31398""
""focus"",""7"",""44347""
""focus"",""7"",""59075""
""focus"",""13"",""1077709""
","""event"",""trial"",""time""
""fullscreenenter"",""1"",""2098""
","""event"",""trial"",""time""
""fullscreenexit"",""7"",""24711""
","","[{""page_index"":0,""viewing_time"":5237.899999976158},{""page_index"":1,""viewing_time"":5575.800000071526},{""page_index"":2,""viewing_time"":928914.8999999762},{""page_index"":3,""viewing_time"":6054.199999928474}]","945785.3999999762","","","","","","","","","","","","","","","","","","","","","","","",""
"pit-trial","14","1090937","0.0-2.0-6.0-0.0","battery-v0.2","","""event"",""trial"",""time""
""fullscreenenter"",""1"",""2098""
""fullscreenexit"",""7"",""24711""
""blur"",""7"",""30246""
""focus"",""7"",""31398""
""blur"",""7"",""42758""
""focus"",""7"",""44347""
""blur"",""7"",""46296""
""focus"",""7"",""59075""
""blur"",""13"",""155146""
""focus"",""13"",""1077709""
","""event"",""trial"",""time""
""blur"",""7"",""30246""
""blur"",""7"",""42758""
""blur"",""7"",""46296""
""blur"",""13"",""155146""
","""event"",""trial"",""time""
""focus"",""7"",""31398""
""focus"",""7"",""44347""
""focus"",""7"",""59075""
""focus"",""13"",""1077709""
","""event"",""trial"",""time""
""fullscreenenter"",""1"",""2098""
","""event"",""trial"",""time""
""fullscreenexit"",""7"",""24711""
","","","-1","","","23","15766","45","&#9854;","elianto","#FFFFF080","-1","-1","1","&#10004","[]","0","0","1","","","","","","","",""
"pit-trial","15","1095806","0.0-2.0-6.1-0.1","battery-v0.2","","""event"",""trial"",""time""
""fullscreenenter"",""1"",""2098""
""fullscreenexit"",""7"",""24711""
""blur"",""7"",""30246""
""focus"",""7"",""31398""
""blur"",""7"",""42758""
""focus"",""7"",""44347""
""blur"",""7"",""46296""
""focus"",""7"",""59075""
""blur"",""13"",""155146""
""focus"",""13"",""1077709""
","""event"",""trial"",""time""
""blur"",""7"",""30246""
""blur"",""7"",""42758""
""blur"",""7"",""46296""
""blur"",""13"",""155146""
","""event"",""trial"",""time""
""focus"",""7"",""31398""
""focus"",""7"",""44347""
""focus"",""7"",""59075""
""focus"",""13"",""1077709""
","""event"",""trial"",""time""
""fullscreenenter"",""1"",""2098""
","""event"",""trial"",""time""
""fullscreenexit"",""7"",""24711""
","","","-1","","","23","15766","45","&#9854;","elianto","#FFFFF080","-1","-1","1","&#10004","[]","0","0","1","","","","","","","",""
"pit-trial","16","1100671","0.0-2.0-6.2-0.2","battery-v0.2","","""event"",""trial"",""time""
""fullscreenenter"",""1"",""2098""
""fullscreenexit"",""7"",""24711""
""blur"",""7"",""30246""
""focus"",""7"",""31398""
""blur"",""7"",""42758""
""focus"",""7"",""44347""
""blur"",""7"",""46296""
""focus"",""7"",""59075""
""blur"",""13"",""155146""
""focus"",""13"",""1077709""
","""event"",""trial"",""time""
""blur"",""7"",""30246""
""blur"",""7"",""42758""
""blur"",""7"",""46296""
""blur"",""13"",""155146""
","""event"",""trial"",""time""
""focus"",""7"",""31398""
""focus"",""7"",""44347""
""focus"",""7"",""59075""
""focus"",""13"",""1077709""
","""event"",""trial"",""time""
""fullscreenenter"",""1"",""2098""
","""event"",""trial"",""time""
""fullscreenexit"",""7"",""24711""
","","","-1","","","23","15766","45","&#9854;","elianto","#FFFFF080","-1","-1","1","&#10004","[]","0","0","1","","","","","","","",""
"pit-trial","17","1105539","0.0-2.0-6.3-0.3","battery-v0.2","","""event"",""trial"",""time""
""fullscreenenter"",""1"",""2098""
""fullscreenexit"",""7"",""24711""
""blur"",""7"",""30246""
""focus"",""7"",""31398""
""blur"",""7"",""42758""
""focus"",""7"",""44347""
""blur"",""7"",""46296""
""focus"",""7"",""59075""
""blur"",""13"",""155146""
""focus"",""13"",""1077709""
""blur"",""18"",""1105570""
","""event"",""trial"",""time""
""blur"",""7"",""30246""
""blur"",""7"",""42758""
""blur"",""7"",""46296""
""blur"",""13"",""155146""
""blur"",""18"",""1105570""
","""event"",""trial"",""time""
""focus"",""7"",""31398""
""focus"",""7"",""44347""
""focus"",""7"",""59075""
""focus"",""13"",""1077709""
","""event"",""trial"",""time""
""fullscreenenter"",""1"",""2098""
","""event"",""trial"",""time""
""fullscreenexit"",""7"",""24711""
","","","-1","","","23","15766","45","&#9854;","elianto","#FFFFF080","-1","-1","1","&#10004","[]","0","0","1","","","","","","","",""
"pit-trial","18","1110412","0.0-2.0-6.4-0.4","battery-v0.2","","""event"",""trial"",""time""
""fullscreenenter"",""1"",""2098""
""fullscreenexit"",""7"",""24711""
""blur"",""7"",""30246""
""focus"",""7"",""31398""
""blur"",""7"",""42758""
""focus"",""7"",""44347""
""blur"",""7"",""46296""
""focus"",""7"",""59075""
""blur"",""13"",""155146""
""focus"",""13"",""1077709""
""blur"",""18"",""1105570""
""focus"",""19"",""1121553""
""blur"",""19"",""1127378""
""focus"",""19"",""1131562""
""blur"",""19"",""1208815""
""focus"",""19"",""1215679""
","""event"",""trial"",""time""
""blur"",""7"",""30246""
""blur"",""7"",""42758""
""blur"",""7"",""46296""
""blur"",""13"",""155146""
""blur"",""18"",""1105570""
""blur"",""19"",""1127378""
""blur"",""19"",""1208815""
","""event"",""trial"",""time""
""focus"",""7"",""31398""
""focus"",""7"",""44347""
""focus"",""7"",""59075""
""focus"",""13"",""1077709""
""focus"",""19"",""1121553""
""focus"",""19"",""1131562""
""focus"",""19"",""1215679""
","""event"",""trial"",""time""
""fullscreenenter"",""1"",""2098""
","""event"",""trial"",""time""
""fullscreenexit"",""7"",""24711""
","","","-1","","","23","15766","45","&#9854;","elianto","#FFFFF080","-1","-1","1","&#10004","[]","0","0","1","","","","","","","",""
"pit-instructions","19","1252391","0.0-2.0-7.0","battery-v0.2","","""event"",""trial"",""time""
""fullscreenenter"",""1"",""2098""
""fullscreenexit"",""7"",""24711""
""blur"",""7"",""30246""
""focus"",""7"",""31398""
""blur"",""7"",""42758""
""focus"",""7"",""44347""
""blur"",""7"",""46296""
""focus"",""7"",""59075""
""blur"",""13"",""155146""
""focus"",""13"",""1077709""
""blur"",""18"",""1105570""
""focus"",""19"",""1121553""
""blur"",""19"",""1127378""
""focus"",""19"",""1131562""
""blur"",""19"",""1208815""
""focus"",""19"",""1215679""
","""event"",""trial"",""time""
""blur"",""7"",""30246""
""blur"",""7"",""42758""
""blur"",""7"",""46296""
""blur"",""13"",""155146""
""blur"",""18"",""1105570""
""blur"",""19"",""1127378""
""blur"",""19"",""1208815""
","""event"",""trial"",""time""
""focus"",""7"",""31398""
""focus"",""7"",""44347""
""focus"",""7"",""59075""
""focus"",""13"",""1077709""
""focus"",""19"",""1121553""
""focus"",""19"",""1131562""
""focus"",""19"",""1215679""
","""event"",""trial"",""time""
""fullscreenenter"",""1"",""2098""
","""event"",""trial"",""time""
""fullscreenexit"",""7"",""24711""
","","[{""page_index"":0,""viewing_time"":12080},{""page_index"":1,""viewing_time"":9667.100000023842},{""page_index"":2,""viewing_time"":6689.299999952316},{""page_index"":3,""viewing_time"":7036.899999976158},{""page_index"":4,""viewing_time"":8385.400000095367},{""page_index"":5,""viewing_time"":6611.299999952316},{""page_index"":6,""viewing_time"":4356.5},{""page_index"":7,""viewing_time"":8064.299999952316},{""page_index"":8,""viewing_time"":9438.400000095367},{""page_index"":9,""viewing_time"":6840.799999952316},{""page_index"":10,""viewing_time"":7935.700000047684},{""page_index"":11,""viewing_time"":5013.299999952316},{""page_index"":12,""viewing_time"":13744.899999976158},{""page_index"":13,""viewing_time"":7768.399999976158},{""page_index"":14,""viewing_time"":8157.900000095367},{""page_index"":15,""viewing_time"":6703.199999928474},{""page_index"":16,""viewing_time"":6053.100000023842},{""page_index"":17,""viewing_time"":7405.600000023842}]","141961","","","","","","","","","","","","","","","","","","","","","","","",""
"pit-trial","20","1255835","0.0-2.0-8.0-0.0","battery-v0.2","","""event"",""trial"",""time""
""fullscreenenter"",""1"",""2098""
""fullscreenexit"",""7"",""24711""
""blur"",""7"",""30246""
""focus"",""7"",""31398""
""blur"",""7"",""42758""
""focus"",""7"",""44347""
""blur"",""7"",""46296""
""focus"",""7"",""59075""
""blur"",""13"",""155146""
""focus"",""13"",""1077709""
""blur"",""18"",""1105570""
""focus"",""19"",""1121553""
""blur"",""19"",""1127378""
""focus"",""19"",""1131562""
""blur"",""19"",""1208815""
""focus"",""19"",""1215679""
","""event"",""trial"",""time""
""blur"",""7"",""30246""
""blur"",""7"",""42758""
""blur"",""7"",""46296""
""blur"",""13"",""155146""
""blur"",""18"",""1105570""
""blur"",""19"",""1127378""
""blur"",""19"",""1208815""
","""event"",""trial"",""time""
""focus"",""7"",""31398""
""focus"",""7"",""44347""
""focus"",""7"",""59075""
""focus"",""13"",""1077709""
""focus"",""19"",""1121553""
""focus"",""19"",""1131562""
""focus"",""19"",""1215679""
","""event"",""trial"",""time""
""fullscreenenter"",""1"",""2098""
","""event"",""trial"",""time""
""fullscreenexit"",""7"",""24711""
","","","566.3999999761581","","","23","15766","45","&#9776;","elianto","#3366ff99"," "," ","1","+10","[1419.8999999761581]","1","0","1","","","","","","","",""
"pit-trial","21","1259028","0.0-2.0-8.0-1.0","battery-v0.2","","""event"",""trial"",""time""
""fullscreenenter"",""1"",""2098""
""fullscreenexit"",""7"",""24711""
""blur"",""7"",""30246""
""focus"",""7"",""31398""
""blur"",""7"",""42758""
""focus"",""7"",""44347""
""blur"",""7"",""46296""
""focus"",""7"",""59075""
""blur"",""13"",""155146""
""focus"",""13"",""1077709""
""blur"",""18"",""1105570""
""focus"",""19"",""1121553""
""blur"",""19"",""1127378""
""focus"",""19"",""1131562""
""blur"",""19"",""1208815""
""focus"",""19"",""1215679""
","""event"",""trial"",""time""
""blur"",""7"",""30246""
""blur"",""7"",""42758""
""blur"",""7"",""46296""
""blur"",""13"",""155146""
""blur"",""18"",""1105570""
""blur"",""19"",""1127378""
""blur"",""19"",""1208815""
","""event"",""trial"",""time""
""focus"",""7"",""31398""
""focus"",""7"",""44347""
""focus"",""7"",""59075""
""focus"",""13"",""1077709""
""focus"",""19"",""1121553""
""focus"",""19"",""1131562""
""focus"",""19"",""1215679""
","""event"",""trial"",""time""
""fullscreenenter"",""1"",""2098""
","""event"",""trial"",""time""
""fullscreenexit"",""7"",""24711""
","","","334.10000002384186","","","23","15766","45","&#9776;","elianto","#3366ff99"," "," ","1","+10","[1185.6000000238419]","1","0","1","","","","","","","",""
"pit-trial","22","1262226","0.0-2.0-8.0-2.0","battery-v0.2","","""event"",""trial"",""time""
""fullscreenenter"",""1"",""2098""
""fullscreenexit"",""7"",""24711""
""blur"",""7"",""30246""
""focus"",""7"",""31398""
""blur"",""7"",""42758""
""focus"",""7"",""44347""
""blur"",""7"",""46296""
""focus"",""7"",""59075""
""blur"",""13"",""155146""
""focus"",""13"",""1077709""
""blur"",""18"",""1105570""
""focus"",""19"",""1121553""
""blur"",""19"",""1127378""
""focus"",""19"",""1131562""
""blur"",""19"",""1208815""
""focus"",""19"",""1215679""
","""event"",""trial"",""time""
""blur"",""7"",""30246""
""blur"",""7"",""42758""
""blur"",""7"",""46296""
""blur"",""13"",""155146""
""blur"",""18"",""1105570""
""blur"",""19"",""1127378""
""blur"",""19"",""1208815""
","""event"",""trial"",""time""
""focus"",""7"",""31398""
""focus"",""7"",""44347""
""focus"",""7"",""59075""
""focus"",""13"",""1077709""
""focus"",""19"",""1121553""
""focus"",""19"",""1131562""
""focus"",""19"",""1215679""
","""event"",""trial"",""time""
""fullscreenenter"",""1"",""2098""
","""event"",""trial"",""time""
""fullscreenexit"",""7"",""24711""
","","","334.1999999284744","","","23","15766","45","&#9776;","elianto","#3366ff99"," "," ","1","+10","[1193]","1","0","1","","","","","","","",""
"pit-trial","23","1265579","0.0-2.0-8.0-3.0","battery-v0.2","","""event"",""trial"",""time""
""fullscreenenter"",""1"",""2098""
""fullscreenexit"",""7"",""24711""
""blur"",""7"",""30246""
""focus"",""7"",""31398""
""blur"",""7"",""42758""
""focus"",""7"",""44347""
""blur"",""7"",""46296""
""focus"",""7"",""59075""
""blur"",""13"",""155146""
""focus"",""13"",""1077709""
""blur"",""18"",""1105570""
""focus"",""19"",""1121553""
""blur"",""19"",""1127378""
""focus"",""19"",""1131562""
""blur"",""19"",""1208815""
""focus"",""19"",""1215679""
","""event"",""trial"",""time""
""blur"",""7"",""30246""
""blur"",""7"",""42758""
""blur"",""7"",""46296""
""blur"",""13"",""155146""
""blur"",""18"",""1105570""
""blur"",""19"",""1127378""
""blur"",""19"",""1208815""
","""event"",""trial"",""time""
""focus"",""7"",""31398""
""focus"",""7"",""44347""
""focus"",""7"",""59075""
""focus"",""13"",""1077709""
""focus"",""19"",""1121553""
""focus"",""19"",""1131562""
""focus"",""19"",""1215679""
","""event"",""trial"",""time""
""fullscreenenter"",""1"",""2098""
","""event"",""trial"",""time""
""fullscreenexit"",""7"",""24711""
","","","493","","","23","15766","45","&#9776;","elianto","#3366ff99"," "," ","1","0","[1344]","1","0","1","","","","","","","",""
"pit-trial","24","1268821","0.0-2.0-8.0-4.0","battery-v0.2","","""event"",""trial"",""time""
""fullscreenenter"",""1"",""2098""
""fullscreenexit"",""7"",""24711""
""blur"",""7"",""30246""
""focus"",""7"",""31398""
""blur"",""7"",""42758""
""focus"",""7"",""44347""
""blur"",""7"",""46296""
""focus"",""7"",""59075""
""blur"",""13"",""155146""
""focus"",""13"",""1077709""
""blur"",""18"",""1105570""
""focus"",""19"",""1121553""
""blur"",""19"",""1127378""
""focus"",""19"",""1131562""
""blur"",""19"",""1208815""
""focus"",""19"",""1215679""
","""event"",""trial"",""time""
""blur"",""7"",""30246""
""blur"",""7"",""42758""
""blur"",""7"",""46296""
""blur"",""13"",""155146""
""blur"",""18"",""1105570""
""blur"",""19"",""1127378""
""blur"",""19"",""1208815""
","""event"",""trial"",""time""
""focus"",""7"",""31398""
""focus"",""7"",""44347""
""focus"",""7"",""59075""
""focus"",""13"",""1077709""
""focus"",""19"",""1121553""
""focus"",""19"",""1131562""
""focus"",""19"",""1215679""
","""event"",""trial"",""time""
""fullscreenenter"",""1"",""2098""
","""event"",""trial"",""time""
""fullscreenexit"",""7"",""24711""
","","","375.60000002384186","","","23","15766","45","&#9776;","elianto","#3366ff99"," "," ","1","+10","[1230.1000000238419]","1","0","1","","","","","","","",""
"pit-trial","25","1272018","0.0-2.0-8.1-0.1","battery-v0.2","","""event"",""trial"",""time""
""fullscreenenter"",""1"",""2098""
""fullscreenexit"",""7"",""24711""
""blur"",""7"",""30246""
""focus"",""7"",""31398""
""blur"",""7"",""42758""
""focus"",""7"",""44347""
""blur"",""7"",""46296""
""focus"",""7"",""59075""
""blur"",""13"",""155146""
""focus"",""13"",""1077709""
""blur"",""18"",""1105570""
""focus"",""19"",""1121553""
""blur"",""19"",""1127378""
""focus"",""19"",""1131562""
""blur"",""19"",""1208815""
""focus"",""19"",""1215679""
","""event"",""trial"",""time""
""blur"",""7"",""30246""
""blur"",""7"",""42758""
""blur"",""7"",""46296""
""blur"",""13"",""155146""
""blur"",""18"",""1105570""
""blur"",""19"",""1127378""
""blur"",""19"",""1208815""
","""event"",""trial"",""time""
""focus"",""7"",""31398""
""focus"",""7"",""44347""
""focus"",""7"",""59075""
""focus"",""13"",""1077709""
""focus"",""19"",""1121553""
""focus"",""19"",""1131562""
""focus"",""19"",""1215679""
","""event"",""trial"",""time""
""fullscreenenter"",""1"",""2098""
","""event"",""trial"",""time""
""fullscreenexit"",""7"",""24711""
","","","337.10000002384186","","","23","15766","45","&#9776;","elianto","#3366ff99"," "," ","1","+10","[1188.7000000476837]","1","0","1","","","","","","","",""
"pit-trial","26","1275282","0.0-2.0-8.1-1.1","battery-v0.2","","""event"",""trial"",""time""
""fullscreenenter"",""1"",""2098""
""fullscreenexit"",""7"",""24711""
""blur"",""7"",""30246""
""focus"",""7"",""31398""
""blur"",""7"",""42758""
""focus"",""7"",""44347""
""blur"",""7"",""46296""
""focus"",""7"",""59075""
""blur"",""13"",""155146""
""focus"",""13"",""1077709""
""blur"",""18"",""1105570""
""focus"",""19"",""1121553""
""blur"",""19"",""1127378""
""focus"",""19"",""1131562""
""blur"",""19"",""1208815""
""focus"",""19"",""1215679""
","""event"",""trial"",""time""
""blur"",""7"",""30246""
""blur"",""7"",""42758""
""blur"",""7"",""46296""
""blur"",""13"",""155146""
""blur"",""18"",""1105570""
""blur"",""19"",""1127378""
""blur"",""19"",""1208815""
","""event"",""trial"",""time""
""focus"",""7"",""31398""
""focus"",""7"",""44347""
""focus"",""7"",""59075""
""focus"",""13"",""1077709""
""focus"",""19"",""1121553""
""focus"",""19"",""1131562""
""focus"",""19"",""1215679""
","""event"",""trial"",""time""
""fullscreenenter"",""1"",""2098""
","""event"",""trial"",""time""
""fullscreenexit"",""7"",""24711""
","","","404.5","","","23","15766","45","&#9776;","elianto","#3366ff99"," "," ","1","+10","[1258.3999999761581]","1","0","1","","","","","","","",""
"pit-trial","27","1278547","0.0-2.0-8.1-2.1","battery-v0.2","","""event"",""trial"",""time""
""fullscreenenter"",""1"",""2098""
""fullscreenexit"",""7"",""24711""
""blur"",""7"",""30246""
""focus"",""7"",""31398""
""blur"",""7"",""42758""
""focus"",""7"",""44347""
""blur"",""7"",""46296""
""focus"",""7"",""59075""
""blur"",""13"",""155146""
""focus"",""13"",""1077709""
""blur"",""18"",""1105570""
""focus"",""19"",""1121553""
""blur"",""19"",""1127378""
""focus"",""19"",""1131562""
""blur"",""19"",""1208815""
""focus"",""19"",""1215679""
","""event"",""trial"",""time""
""blur"",""7"",""30246""
""blur"",""7"",""42758""
""blur"",""7"",""46296""
""blur"",""13"",""155146""
""blur"",""18"",""1105570""
""blur"",""19"",""1127378""
""blur"",""19"",""1208815""
","""event"",""trial"",""time""
""focus"",""7"",""31398""
""focus"",""7"",""44347""
""focus"",""7"",""59075""
""focus"",""13"",""1077709""
""focus"",""19"",""1121553""
""focus"",""19"",""1131562""
""focus"",""19"",""1215679""
","""event"",""trial"",""time""
""fullscreenenter"",""1"",""2098""
","""event"",""trial"",""time""
""fullscreenexit"",""7"",""24711""
","","","398.89999997615814","","","23","15766","45","&#9776;","elianto","#3366ff99"," "," ","1","+10","[1254.3999999761581]","1","0","1","","","","","","","",""
"pit-trial","28","1281749","0.0-2.0-8.1-3.1","battery-v0.2","","""event"",""trial"",""time""
""fullscreenenter"",""1"",""2098""
""fullscreenexit"",""7"",""24711""
""blur"",""7"",""30246""
""focus"",""7"",""31398""
""blur"",""7"",""42758""
""focus"",""7"",""44347""
""blur"",""7"",""46296""
""focus"",""7"",""59075""
""blur"",""13"",""155146""
""focus"",""13"",""1077709""
""blur"",""18"",""1105570""
""focus"",""19"",""1121553""
""blur"",""19"",""1127378""
""focus"",""19"",""1131562""
""blur"",""19"",""1208815""
""focus"",""19"",""1215679""
","""event"",""trial"",""time""
""blur"",""7"",""30246""
""blur"",""7"",""42758""
""blur"",""7"",""46296""
""blur"",""13"",""155146""
""blur"",""18"",""1105570""
""blur"",""19"",""1127378""
""blur"",""19"",""1208815""
","""event"",""trial"",""time""
""focus"",""7"",""31398""
""focus"",""7"",""44347""
""focus"",""7"",""59075""
""focus"",""13"",""1077709""
""focus"",""19"",""1121553""
""focus"",""19"",""1131562""
""focus"",""19"",""1215679""
","""event"",""trial"",""time""
""fullscreenenter"",""1"",""2098""
","""event"",""trial"",""time""
""fullscreenexit"",""7"",""24711""
","","","336","","","23","15766","45","&#9776;","elianto","#3366ff99"," "," ","1","0","[1190.2000000476837]","1","0","1","","","","","","","",""
"pit-trial","29","1284998","0.0-2.0-8.1-4.1","battery-v0.2","","""event"",""trial"",""time""
""fullscreenenter"",""1"",""2098""
""fullscreenexit"",""7"",""24711""
""blur"",""7"",""30246""
""focus"",""7"",""31398""
""blur"",""7"",""42758""
""focus"",""7"",""44347""
""blur"",""7"",""46296""
""focus"",""7"",""59075""
""blur"",""13"",""155146""
""focus"",""13"",""1077709""
""blur"",""18"",""1105570""
""focus"",""19"",""1121553""
""blur"",""19"",""1127378""
""focus"",""19"",""1131562""
""blur"",""19"",""1208815""
""focus"",""19"",""1215679""
","""event"",""trial"",""time""
""blur"",""7"",""30246""
""blur"",""7"",""42758""
""blur"",""7"",""46296""
""blur"",""13"",""155146""
""blur"",""18"",""1105570""
""blur"",""19"",""1127378""
""blur"",""19"",""1208815""
","""event"",""trial"",""time""
""focus"",""7"",""31398""
""focus"",""7"",""44347""
""focus"",""7"",""59075""
""focus"",""13"",""1077709""
""focus"",""19"",""1121553""
""focus"",""19"",""1131562""
""focus"",""19"",""1215679""
","""event"",""trial"",""time""
""fullscreenenter"",""1"",""2098""
","""event"",""trial"",""time""
""fullscreenexit"",""7"",""24711""
","","","390.39999997615814","","","23","15766","45","&#9776;","elianto","#3366ff99"," "," ","1","+10","[1241.3000000715256]","1","0","1","","","","","","","",""
"pit-trial","30","1288223","0.0-2.0-8.2-0.2","battery-v0.2","","""event"",""trial"",""time""
""fullscreenenter"",""1"",""2098""
""fullscreenexit"",""7"",""24711""
""blur"",""7"",""30246""
""focus"",""7"",""31398""
""blur"",""7"",""42758""
""focus"",""7"",""44347""
""blur"",""7"",""46296""
""focus"",""7"",""59075""
""blur"",""13"",""155146""
""focus"",""13"",""1077709""
""blur"",""18"",""1105570""
""focus"",""19"",""1121553""
""blur"",""19"",""1127378""
""focus"",""19"",""1131562""
""blur"",""19"",""1208815""
""focus"",""19"",""1215679""
","""event"",""trial"",""time""
""blur"",""7"",""30246""
""blur"",""7"",""42758""
""blur"",""7"",""46296""
""blur"",""13"",""155146""
""blur"",""18"",""1105570""
""blur"",""19"",""1127378""
""blur"",""19"",""1208815""
","""event"",""trial"",""time""
""focus"",""7"",""31398""
""focus"",""7"",""44347""
""focus"",""7"",""59075""
""focus"",""13"",""1077709""
""focus"",""19"",""1121553""
""focus"",""19"",""1131562""
""focus"",""19"",""1215679""
","""event"",""trial"",""time""
""fullscreenenter"",""1"",""2098""
","""event"",""trial"",""time""
""fullscreenexit"",""7"",""24711""
","","","356.10000002384186","","","23","15766","45","&#9776;","elianto","#3366ff99"," "," ","1","+10","[1214]","1","0","1","","","","","","","",""
"pit-trial","31","1291572","0.0-2.0-8.2-1.2","battery-v0.2","","""event"",""trial"",""time""
""fullscreenenter"",""1"",""2098""
""fullscreenexit"",""7"",""24711""
""blur"",""7"",""30246""
""focus"",""7"",""31398""
""blur"",""7"",""42758""
""focus"",""7"",""44347""
""blur"",""7"",""46296""
""focus"",""7"",""59075""
""blur"",""13"",""155146""
""focus"",""13"",""1077709""
""blur"",""18"",""1105570""
""focus"",""19"",""1121553""
""blur"",""19"",""1127378""
""focus"",""19"",""1131562""
""blur"",""19"",""1208815""
""focus"",""19"",""1215679""
","""event"",""trial"",""time""
""blur"",""7"",""30246""
""blur"",""7"",""42758""
""blur"",""7"",""46296""
""blur"",""13"",""155146""
""blur"",""18"",""1105570""
""blur"",""19"",""1127378""
""blur"",""19"",""1208815""
","""event"",""trial"",""time""
""focus"",""7"",""31398""
""focus"",""7"",""44347""
""focus"",""7"",""59075""
""focus"",""13"",""1077709""
""focus"",""19"",""1121553""
""focus"",""19"",""1131562""
""focus"",""19"",""1215679""
","""event"",""trial"",""time""
""fullscreenenter"",""1"",""2098""
","""event"",""trial"",""time""
""fullscreenexit"",""7"",""24711""
","","","486.6999999284744","","","23","15766","45","&#9776;","elianto","#3366ff99"," "," ","1","+10","[1343.5]","1","0","1","","","","","","","",""
"pit-trial","32","1295438","0.0-2.0-8.2-2.2","battery-v0.2","","""event"",""trial"",""time""
""fullscreenenter"",""1"",""2098""
""fullscreenexit"",""7"",""24711""
""blur"",""7"",""30246""
""focus"",""7"",""31398""
""blur"",""7"",""42758""
""focus"",""7"",""44347""
""blur"",""7"",""46296""
""focus"",""7"",""59075""
""blur"",""13"",""155146""
""focus"",""13"",""1077709""
""blur"",""18"",""1105570""
""focus"",""19"",""1121553""
""blur"",""19"",""1127378""
""focus"",""19"",""1131562""
""blur"",""19"",""1208815""
""focus"",""19"",""1215679""
","""event"",""trial"",""time""
""blur"",""7"",""30246""
""blur"",""7"",""42758""
""blur"",""7"",""46296""
""blur"",""13"",""155146""
""blur"",""18"",""1105570""
""blur"",""19"",""1127378""
""blur"",""19"",""1208815""
","""event"",""trial"",""time""
""focus"",""7"",""31398""
""focus"",""7"",""44347""
""focus"",""7"",""59075""
""focus"",""13"",""1077709""
""focus"",""19"",""1121553""
""focus"",""19"",""1131562""
""focus"",""19"",""1215679""
","""event"",""trial"",""time""
""fullscreenenter"",""1"",""2098""
","""event"",""trial"",""time""
""fullscreenexit"",""7"",""24711""
","","","1000.1000000238419","","","23","15766","45","&#9776;","elianto","#3366ff99"," "," ","1","+10","[1852.1999999284744]","1","0","1","","","","","","","",""
"pit-trial","33","1298719","0.0-2.0-8.2-3.2","battery-v0.2","","""event"",""trial"",""time""
""fullscreenenter"",""1"",""2098""
""fullscreenexit"",""7"",""24711""
""blur"",""7"",""30246""
""focus"",""7"",""31398""
""blur"",""7"",""42758""
""focus"",""7"",""44347""
""blur"",""7"",""46296""
""focus"",""7"",""59075""
""blur"",""13"",""155146""
""focus"",""13"",""1077709""
""blur"",""18"",""1105570""
""focus"",""19"",""1121553""
""blur"",""19"",""1127378""
""focus"",""19"",""1131562""
""blur"",""19"",""1208815""
""focus"",""19"",""1215679""
","""event"",""trial"",""time""
""blur"",""7"",""30246""
""blur"",""7"",""42758""
""blur"",""7"",""46296""
""blur"",""13"",""155146""
""blur"",""18"",""1105570""
""blur"",""19"",""1127378""
""blur"",""19"",""1208815""
","""event"",""trial"",""time""
""focus"",""7"",""31398""
""focus"",""7"",""44347""
""focus"",""7"",""59075""
""focus"",""13"",""1077709""
""focus"",""19"",""1121553""
""focus"",""19"",""1131562""
""focus"",""19"",""1215679""
","""event"",""trial"",""time""
""fullscreenenter"",""1"",""2098""
","""event"",""trial"",""time""
""fullscreenexit"",""7"",""24711""
","","","416.10000002384186","","","23","15766","45","&#9776;","elianto","#3366ff99"," "," ","1","0","[1268.5]","1","0","1","","","","","","","",""
"pit-trial","34","1301928","0.0-2.0-8.2-4.2","battery-v0.2","","""event"",""trial"",""time""
""fullscreenenter"",""1"",""2098""
""fullscreenexit"",""7"",""24711""
""blur"",""7"",""30246""
""focus"",""7"",""31398""
""blur"",""7"",""42758""
""focus"",""7"",""44347""
""blur"",""7"",""46296""
""focus"",""7"",""59075""
""blur"",""13"",""155146""
""focus"",""13"",""1077709""
""blur"",""18"",""1105570""
""focus"",""19"",""1121553""
""blur"",""19"",""1127378""
""focus"",""19"",""1131562""
""blur"",""19"",""1208815""
""focus"",""19"",""1215679""
","""event"",""trial"",""time""
""blur"",""7"",""30246""
""blur"",""7"",""42758""
""blur"",""7"",""46296""
""blur"",""13"",""155146""
""blur"",""18"",""1105570""
""blur"",""19"",""1127378""
""blur"",""19"",""1208815""
","""event"",""trial"",""time""
""focus"",""7"",""31398""
""focus"",""7"",""44347""
""focus"",""7"",""59075""
""focus"",""13"",""1077709""
""focus"",""19"",""1121553""
""focus"",""19"",""1131562""
""focus"",""19"",""1215679""
","""event"",""trial"",""time""
""fullscreenenter"",""1"",""2098""
","""event"",""trial"",""time""
""fullscreenexit"",""7"",""24711""
","","","349.89999997615814","","","23","15766","45","&#9776;","elianto","#3366ff99"," "," ","1","+10","[1200.2999999523163]","1","0","1","","","","","","","",""
"call-function","35","1301932","0.0-2.0-9.0","battery-v0.2","","""event"",""trial"",""time""
""fullscreenenter"",""1"",""2098""
""fullscreenexit"",""7"",""24711""
""blur"",""7"",""30246""
""focus"",""7"",""31398""
""blur"",""7"",""42758""
""focus"",""7"",""44347""
""blur"",""7"",""46296""
""focus"",""7"",""59075""
""blur"",""13"",""155146""
""focus"",""13"",""1077709""
""blur"",""18"",""1105570""
""focus"",""19"",""1121553""
""blur"",""19"",""1127378""
""focus"",""19"",""1131562""
""blur"",""19"",""1208815""
""focus"",""19"",""1215679""
""blur"",""36"",""1319943""
""focus"",""36"",""1325538""
""blur"",""36"",""1331845""
""focus"",""36"",""1336855""
","""event"",""trial"",""time""
""blur"",""7"",""30246""
""blur"",""7"",""42758""
""blur"",""7"",""46296""
""blur"",""13"",""155146""
""blur"",""18"",""1105570""
""blur"",""19"",""1127378""
""blur"",""19"",""1208815""
""blur"",""36"",""1319943""
""blur"",""36"",""1331845""
","""event"",""trial"",""time""
""focus"",""7"",""31398""
""focus"",""7"",""44347""
""focus"",""7"",""59075""
""focus"",""13"",""1077709""
""focus"",""19"",""1121553""
""focus"",""19"",""1131562""
""focus"",""19"",""1215679""
""focus"",""36"",""1325538""
""focus"",""36"",""1336855""
","""event"",""trial"",""time""
""fullscreenenter"",""1"",""2098""
","""event"",""trial"",""time""
""fullscreenexit"",""7"",""24711""
","","","","","","","","","","","","","","","","","","","","","","","","","","",""
"pit-instructions","36","1345096","0.0-2.0-10.0","battery-v0.2","","""event"",""trial"",""time""
""fullscreenenter"",""1"",""2098""
""fullscreenexit"",""7"",""24711""
""blur"",""7"",""30246""
""focus"",""7"",""31398""
""blur"",""7"",""42758""
""focus"",""7"",""44347""
""blur"",""7"",""46296""
""focus"",""7"",""59075""
""blur"",""13"",""155146""
""focus"",""13"",""1077709""
""blur"",""18"",""1105570""
""focus"",""19"",""1121553""
""blur"",""19"",""1127378""
""focus"",""19"",""1131562""
""blur"",""19"",""1208815""
""focus"",""19"",""1215679""
""blur"",""36"",""1319943""
""focus"",""36"",""1325538""
""blur"",""36"",""1331845""
""focus"",""36"",""1336855""
","""event"",""trial"",""time""
""blur"",""7"",""30246""
""blur"",""7"",""42758""
""blur"",""7"",""46296""
""blur"",""13"",""155146""
""blur"",""18"",""1105570""
""blur"",""19"",""1127378""
""blur"",""19"",""1208815""
""blur"",""36"",""1319943""
""blur"",""36"",""1331845""
","""event"",""trial"",""time""
""focus"",""7"",""31398""
""focus"",""7"",""44347""
""focus"",""7"",""59075""
""focus"",""13"",""1077709""
""focus"",""19"",""1121553""
""focus"",""19"",""1131562""
""focus"",""19"",""1215679""
""focus"",""36"",""1325538""
""focus"",""36"",""1336855""
","""event"",""trial"",""time""
""fullscreenenter"",""1"",""2098""
","""event"",""trial"",""time""
""fullscreenexit"",""7"",""24711""
","","[{""page_index"":0,""viewing_time"":5980.899999976158},{""page_index"":1,""viewing_time"":7045.200000047684},{""page_index"":2,""viewing_time"":11317.099999904633},{""page_index"":3,""viewing_time"":11253.300000071526},{""page_index"":4,""viewing_time"":7563}]","43159.89999997616","","","","","","","","","","","","","","","","","","","","","","","",""
"pit-trial","37","1348380","0.0-2.0-11.0-0.0","battery-v0.2","","""event"",""trial"",""time""
""fullscreenenter"",""1"",""2098""
""fullscreenexit"",""7"",""24711""
""blur"",""7"",""30246""
""focus"",""7"",""31398""
""blur"",""7"",""42758""
""focus"",""7"",""44347""
""blur"",""7"",""46296""
""focus"",""7"",""59075""
""blur"",""13"",""155146""
""focus"",""13"",""1077709""
""blur"",""18"",""1105570""
""focus"",""19"",""1121553""
""blur"",""19"",""1127378""
""focus"",""19"",""1131562""
""blur"",""19"",""1208815""
""focus"",""19"",""1215679""
""blur"",""36"",""1319943""
""focus"",""36"",""1325538""
""blur"",""36"",""1331845""
""focus"",""36"",""1336855""
","""event"",""trial"",""time""
""blur"",""7"",""30246""
""blur"",""7"",""42758""
""blur"",""7"",""46296""
""blur"",""13"",""155146""
""blur"",""18"",""1105570""
""blur"",""19"",""1127378""
""blur"",""19"",""1208815""
""blur"",""36"",""1319943""
""blur"",""36"",""1331845""
","""event"",""trial"",""time""
""focus"",""7"",""31398""
""focus"",""7"",""44347""
""focus"",""7"",""59075""
""focus"",""13"",""1077709""
""focus"",""19"",""1121553""
""focus"",""19"",""1131562""
""focus"",""19"",""1215679""
""focus"",""36"",""1325538""
""focus"",""36"",""1336855""
","""event"",""trial"",""time""
""fullscreenenter"",""1"",""2098""
","""event"",""trial"",""time""
""fullscreenexit"",""7"",""24711""
","","","422.7999999523163","","","23","15766","45","&#9761;","elianto","#3366ff99","-1"," ","0","0","[1278.3999999761581]","1","0","2","","","","","","","",""
"pit-trial","38","1351654","0.0-2.0-11.0-1.0","battery-v0.2","","""event"",""trial"",""time""
""fullscreenenter"",""1"",""2098""
""fullscreenexit"",""7"",""24711""
""blur"",""7"",""30246""
""focus"",""7"",""31398""
""blur"",""7"",""42758""
""focus"",""7"",""44347""
""blur"",""7"",""46296""
""focus"",""7"",""59075""
""blur"",""13"",""155146""
""focus"",""13"",""1077709""
""blur"",""18"",""1105570""
""focus"",""19"",""1121553""
""blur"",""19"",""1127378""
""focus"",""19"",""1131562""
""blur"",""19"",""1208815""
""focus"",""19"",""1215679""
""blur"",""36"",""1319943""
""focus"",""36"",""1325538""
""blur"",""36"",""1331845""
""focus"",""36"",""1336855""
","""event"",""trial"",""time""
""blur"",""7"",""30246""
""blur"",""7"",""42758""
""blur"",""7"",""46296""
""blur"",""13"",""155146""
""blur"",""18"",""1105570""
""blur"",""19"",""1127378""
""blur"",""19"",""1208815""
""blur"",""36"",""1319943""
""blur"",""36"",""1331845""
","""event"",""trial"",""time""
""focus"",""7"",""31398""
""focus"",""7"",""44347""
""focus"",""7"",""59075""
""focus"",""13"",""1077709""
""focus"",""19"",""1121553""
""focus"",""19"",""1131562""
""focus"",""19"",""1215679""
""focus"",""36"",""1325538""
""focus"",""36"",""1336855""
","""event"",""trial"",""time""
""fullscreenenter"",""1"",""2098""
","""event"",""trial"",""time""
""fullscreenexit"",""7"",""24711""
","","","411.8000000715256","","","23","15766","45","&#9761;","elianto","#3366ff99","-1"," ","0","0","[1266.2000000476837]","1","0","2","","","","","","","",""
"pit-trial","39","1356524","0.0-2.0-11.0-2.0","battery-v0.2","","""event"",""trial"",""time""
""fullscreenenter"",""1"",""2098""
""fullscreenexit"",""7"",""24711""
""blur"",""7"",""30246""
""focus"",""7"",""31398""
""blur"",""7"",""42758""
""focus"",""7"",""44347""
""blur"",""7"",""46296""
""focus"",""7"",""59075""
""blur"",""13"",""155146""
""focus"",""13"",""1077709""
""blur"",""18"",""1105570""
""focus"",""19"",""1121553""
""blur"",""19"",""1127378""
""focus"",""19"",""1131562""
""blur"",""19"",""1208815""
""focus"",""19"",""1215679""
""blur"",""36"",""1319943""
""focus"",""36"",""1325538""
""blur"",""36"",""1331845""
""focus"",""36"",""1336855""
","""event"",""trial"",""time""
""blur"",""7"",""30246""
""blur"",""7"",""42758""
""blur"",""7"",""46296""
""blur"",""13"",""155146""
""blur"",""18"",""1105570""
""blur"",""19"",""1127378""
""blur"",""19"",""1208815""
""blur"",""36"",""1319943""
""blur"",""36"",""1331845""
","""event"",""trial"",""time""
""focus"",""7"",""31398""
""focus"",""7"",""44347""
""focus"",""7"",""59075""
""focus"",""13"",""1077709""
""focus"",""19"",""1121553""
""focus"",""19"",""1131562""
""focus"",""19"",""1215679""
""focus"",""36"",""1325538""
""focus"",""36"",""1336855""
","""event"",""trial"",""time""
""fullscreenenter"",""1"",""2098""
","""event"",""trial"",""time""
""fullscreenexit"",""7"",""24711""
","","","-1","","","23","15766","45","&#9761;","elianto","#3366ff99","-1","-1","1","+10","[]","0","0","2","","","","","","","",""
"pit-trial","40","1361393","0.0-2.0-11.0-3.0","battery-v0.2","","""event"",""trial"",""time""
""fullscreenenter"",""1"",""2098""
""fullscreenexit"",""7"",""24711""
""blur"",""7"",""30246""
""focus"",""7"",""31398""
""blur"",""7"",""42758""
""focus"",""7"",""44347""
""blur"",""7"",""46296""
""focus"",""7"",""59075""
""blur"",""13"",""155146""
""focus"",""13"",""1077709""
""blur"",""18"",""1105570""
""focus"",""19"",""1121553""
""blur"",""19"",""1127378""
""focus"",""19"",""1131562""
""blur"",""19"",""1208815""
""focus"",""19"",""1215679""
""blur"",""36"",""1319943""
""focus"",""36"",""1325538""
""blur"",""36"",""1331845""
""focus"",""36"",""1336855""
","""event"",""trial"",""time""
""blur"",""7"",""30246""
""blur"",""7"",""42758""
""blur"",""7"",""46296""
""blur"",""13"",""155146""
""blur"",""18"",""1105570""
""blur"",""19"",""1127378""
""blur"",""19"",""1208815""
""blur"",""36"",""1319943""
""blur"",""36"",""1331845""
","""event"",""trial"",""time""
""focus"",""7"",""31398""
""focus"",""7"",""44347""
""focus"",""7"",""59075""
""focus"",""13"",""1077709""
""focus"",""19"",""1121553""
""focus"",""19"",""1131562""
""focus"",""19"",""1215679""
""focus"",""36"",""1325538""
""focus"",""36"",""1336855""
","""event"",""trial"",""time""
""fullscreenenter"",""1"",""2098""
","""event"",""trial"",""time""
""fullscreenexit"",""7"",""24711""
","","","-1","","","23","15766","45","&#9761;","elianto","#3366ff99","-1","-1","1","0","[]","0","0","2","","","","","","","",""
"pit-trial","41","1366260","0.0-2.0-11.0-4.0","battery-v0.2","","""event"",""trial"",""time""
""fullscreenenter"",""1"",""2098""
""fullscreenexit"",""7"",""24711""
""blur"",""7"",""30246""
""focus"",""7"",""31398""
""blur"",""7"",""42758""
""focus"",""7"",""44347""
""blur"",""7"",""46296""
""focus"",""7"",""59075""
""blur"",""13"",""155146""
""focus"",""13"",""1077709""
""blur"",""18"",""1105570""
""focus"",""19"",""1121553""
""blur"",""19"",""1127378""
""focus"",""19"",""1131562""
""blur"",""19"",""1208815""
""focus"",""19"",""1215679""
""blur"",""36"",""1319943""
""focus"",""36"",""1325538""
""blur"",""36"",""1331845""
""focus"",""36"",""1336855""
","""event"",""trial"",""time""
""blur"",""7"",""30246""
""blur"",""7"",""42758""
""blur"",""7"",""46296""
""blur"",""13"",""155146""
""blur"",""18"",""1105570""
""blur"",""19"",""1127378""
""blur"",""19"",""1208815""
""blur"",""36"",""1319943""
""blur"",""36"",""1331845""
","""event"",""trial"",""time""
""focus"",""7"",""31398""
""focus"",""7"",""44347""
""focus"",""7"",""59075""
""focus"",""13"",""1077709""
""focus"",""19"",""1121553""
""focus"",""19"",""1131562""
""focus"",""19"",""1215679""
""focus"",""36"",""1325538""
""focus"",""36"",""1336855""
","""event"",""trial"",""time""
""fullscreenenter"",""1"",""2098""
","""event"",""trial"",""time""
""fullscreenexit"",""7"",""24711""
","","","-1","","","23","15766","45","&#9761;","elianto","#3366ff99","-1","-1","1","+10","[]","0","0","2","","","","","","","",""
"pit-trial","42","1371125","0.0-2.0-11.1-0.1","battery-v0.2","","""event"",""trial"",""time""
""fullscreenenter"",""1"",""2098""
""fullscreenexit"",""7"",""24711""
""blur"",""7"",""30246""
""focus"",""7"",""31398""
""blur"",""7"",""42758""
""focus"",""7"",""44347""
""blur"",""7"",""46296""
""focus"",""7"",""59075""
""blur"",""13"",""155146""
""focus"",""13"",""1077709""
""blur"",""18"",""1105570""
""focus"",""19"",""1121553""
""blur"",""19"",""1127378""
""focus"",""19"",""1131562""
""blur"",""19"",""1208815""
""focus"",""19"",""1215679""
""blur"",""36"",""1319943""
""focus"",""36"",""1325538""
""blur"",""36"",""1331845""
""focus"",""36"",""1336855""
","""event"",""trial"",""time""
""blur"",""7"",""30246""
""blur"",""7"",""42758""
""blur"",""7"",""46296""
""blur"",""13"",""155146""
""blur"",""18"",""1105570""
""blur"",""19"",""1127378""
""blur"",""19"",""1208815""
""blur"",""36"",""1319943""
""blur"",""36"",""1331845""
","""event"",""trial"",""time""
""focus"",""7"",""31398""
""focus"",""7"",""44347""
""focus"",""7"",""59075""
""focus"",""13"",""1077709""
""focus"",""19"",""1121553""
""focus"",""19"",""1131562""
""focus"",""19"",""1215679""
""focus"",""36"",""1325538""
""focus"",""36"",""1336855""
","""event"",""trial"",""time""
""fullscreenenter"",""1"",""2098""
","""event"",""trial"",""time""
""fullscreenexit"",""7"",""24711""
","","","-1","","","23","15766","45","&#9761;","elianto","#3366ff99","-1","-1","1","+10","[]","0","0","2","","","","","","","",""
"pit-trial","43","1375989","0.0-2.0-11.1-1.1","battery-v0.2","","""event"",""trial"",""time""
""fullscreenenter"",""1"",""2098""
""fullscreenexit"",""7"",""24711""
""blur"",""7"",""30246""
""focus"",""7"",""31398""
""blur"",""7"",""42758""
""focus"",""7"",""44347""
""blur"",""7"",""46296""
""focus"",""7"",""59075""
""blur"",""13"",""155146""
""focus"",""13"",""1077709""
""blur"",""18"",""1105570""
""focus"",""19"",""1121553""
""blur"",""19"",""1127378""
""focus"",""19"",""1131562""
""blur"",""19"",""1208815""
""focus"",""19"",""1215679""
""blur"",""36"",""1319943""
""focus"",""36"",""1325538""
""blur"",""36"",""1331845""
""focus"",""36"",""1336855""
","""event"",""trial"",""time""
""blur"",""7"",""30246""
""blur"",""7"",""42758""
""blur"",""7"",""46296""
""blur"",""13"",""155146""
""blur"",""18"",""1105570""
""blur"",""19"",""1127378""
""blur"",""19"",""1208815""
""blur"",""36"",""1319943""
""blur"",""36"",""1331845""
","""event"",""trial"",""time""
""focus"",""7"",""31398""
""focus"",""7"",""44347""
""focus"",""7"",""59075""
""focus"",""13"",""1077709""
""focus"",""19"",""1121553""
""focus"",""19"",""1131562""
""focus"",""19"",""1215679""
""focus"",""36"",""1325538""
""focus"",""36"",""1336855""
","""event"",""trial"",""time""
""fullscreenenter"",""1"",""2098""
","""event"",""trial"",""time""
""fullscreenexit"",""7"",""24711""
","","","-1","","","23","15766","45","&#9761;","elianto","#3366ff99","-1","-1","1","+10","[]","0","0","2","","","","","","","",""
"pit-trial","44","1379670","0.0-2.0-11.1-2.1","battery-v0.2","","""event"",""trial"",""time""
""fullscreenenter"",""1"",""2098""
""fullscreenexit"",""7"",""24711""
""blur"",""7"",""30246""
""focus"",""7"",""31398""
""blur"",""7"",""42758""
""focus"",""7"",""44347""
""blur"",""7"",""46296""
""focus"",""7"",""59075""
""blur"",""13"",""155146""
""focus"",""13"",""1077709""
""blur"",""18"",""1105570""
""focus"",""19"",""1121553""
""blur"",""19"",""1127378""
""focus"",""19"",""1131562""
""blur"",""19"",""1208815""
""focus"",""19"",""1215679""
""blur"",""36"",""1319943""
""focus"",""36"",""1325538""
""blur"",""36"",""1331845""
""focus"",""36"",""1336855""
","""event"",""trial"",""time""
""blur"",""7"",""30246""
""blur"",""7"",""42758""
""blur"",""7"",""46296""
""blur"",""13"",""155146""
""blur"",""18"",""1105570""
""blur"",""19"",""1127378""
""blur"",""19"",""1208815""
""blur"",""36"",""1319943""
""blur"",""36"",""1331845""
","""event"",""trial"",""time""
""focus"",""7"",""31398""
""focus"",""7"",""44347""
""focus"",""7"",""59075""
""focus"",""13"",""1077709""
""focus"",""19"",""1121553""
""focus"",""19"",""1131562""
""focus"",""19"",""1215679""
""focus"",""36"",""1325538""
""focus"",""36"",""1336855""
","""event"",""trial"",""time""
""fullscreenenter"",""1"",""2098""
","""event"",""trial"",""time""
""fullscreenexit"",""7"",""24711""
","","","822.6999999284744","","","23","15766","45","&#9761;","elianto","#3366ff99","-1"," ","0","0","[1674.8999999761581]","1","0","2","","","","","","","",""
"pit-trial","45","1383101","0.0-2.0-11.1-3.1","battery-v0.2","","""event"",""trial"",""time""
""fullscreenenter"",""1"",""2098""
""fullscreenexit"",""7"",""24711""
""blur"",""7"",""30246""
""focus"",""7"",""31398""
""blur"",""7"",""42758""
""focus"",""7"",""44347""
""blur"",""7"",""46296""
""focus"",""7"",""59075""
""blur"",""13"",""155146""
""focus"",""13"",""1077709""
""blur"",""18"",""1105570""
""focus"",""19"",""1121553""
""blur"",""19"",""1127378""
""focus"",""19"",""1131562""
""blur"",""19"",""1208815""
""focus"",""19"",""1215679""
""blur"",""36"",""1319943""
""focus"",""36"",""1325538""
""blur"",""36"",""1331845""
""focus"",""36"",""1336855""
","""event"",""trial"",""time""
""blur"",""7"",""30246""
""blur"",""7"",""42758""
""blur"",""7"",""46296""
""blur"",""13"",""155146""
""blur"",""18"",""1105570""
""blur"",""19"",""1127378""
""blur"",""19"",""1208815""
""blur"",""36"",""1319943""
""blur"",""36"",""1331845""
","""event"",""trial"",""time""
""focus"",""7"",""31398""
""focus"",""7"",""44347""
""focus"",""7"",""59075""
""focus"",""13"",""1077709""
""focus"",""19"",""1121553""
""focus"",""19"",""1131562""
""focus"",""19"",""1215679""
""focus"",""36"",""1325538""
""focus"",""36"",""1336855""
","""event"",""trial"",""time""
""fullscreenenter"",""1"",""2098""
","""event"",""trial"",""time""
""fullscreenexit"",""7"",""24711""
","","","570.6000000238419","","","23","15766","45","&#9761;","elianto","#3366ff99","-1"," ","0","+10","[1424]","1","0","2","","","","","","","",""
"pit-trial","46","1386601","0.0-2.0-11.1-4.1","battery-v0.2","","""event"",""trial"",""time""
""fullscreenenter"",""1"",""2098""
""fullscreenexit"",""7"",""24711""
""blur"",""7"",""30246""
""focus"",""7"",""31398""
""blur"",""7"",""42758""
""focus"",""7"",""44347""
""blur"",""7"",""46296""
""focus"",""7"",""59075""
""blur"",""13"",""155146""
""focus"",""13"",""1077709""
""blur"",""18"",""1105570""
""focus"",""19"",""1121553""
""blur"",""19"",""1127378""
""focus"",""19"",""1131562""
""blur"",""19"",""1208815""
""focus"",""19"",""1215679""
""blur"",""36"",""1319943""
""focus"",""36"",""1325538""
""blur"",""36"",""1331845""
""focus"",""36"",""1336855""
","""event"",""trial"",""time""
""blur"",""7"",""30246""
""blur"",""7"",""42758""
""blur"",""7"",""46296""
""blur"",""13"",""155146""
""blur"",""18"",""1105570""
""blur"",""19"",""1127378""
""blur"",""19"",""1208815""
""blur"",""36"",""1319943""
""blur"",""36"",""1331845""
","""event"",""trial"",""time""
""focus"",""7"",""31398""
""focus"",""7"",""44347""
""focus"",""7"",""59075""
""focus"",""13"",""1077709""
""focus"",""19"",""1121553""
""focus"",""19"",""1131562""
""focus"",""19"",""1215679""
""focus"",""36"",""1325538""
""focus"",""36"",""1336855""
","""event"",""trial"",""time""
""fullscreenenter"",""1"",""2098""
","""event"",""trial"",""time""
""fullscreenexit"",""7"",""24711""
","","","634.3999999761581","","","23","15766","45","&#9761;","elianto","#3366ff99","-1"," ","0","0","[1489.8000000715256]","1","0","2","","","","","","","",""
"pit-trial","47","1390119","0.0-2.0-11.2-0.2","battery-v0.2","","""event"",""trial"",""time""
""fullscreenenter"",""1"",""2098""
""fullscreenexit"",""7"",""24711""
""blur"",""7"",""30246""
""focus"",""7"",""31398""
""blur"",""7"",""42758""
""focus"",""7"",""44347""
""blur"",""7"",""46296""
""focus"",""7"",""59075""
""blur"",""13"",""155146""
""focus"",""13"",""1077709""
""blur"",""18"",""1105570""
""focus"",""19"",""1121553""
""blur"",""19"",""1127378""
""focus"",""19"",""1131562""
""blur"",""19"",""1208815""
""focus"",""19"",""1215679""
""blur"",""36"",""1319943""
""focus"",""36"",""1325538""
""blur"",""36"",""1331845""
""focus"",""36"",""1336855""
","""event"",""trial"",""time""
""blur"",""7"",""30246""
""blur"",""7"",""42758""
""blur"",""7"",""46296""
""blur"",""13"",""155146""
""blur"",""18"",""1105570""
""blur"",""19"",""1127378""
""blur"",""19"",""1208815""
""blur"",""36"",""1319943""
""blur"",""36"",""1331845""
","""event"",""trial"",""time""
""focus"",""7"",""31398""
""focus"",""7"",""44347""
""focus"",""7"",""59075""
""focus"",""13"",""1077709""
""focus"",""19"",""1121553""
""focus"",""19"",""1131562""
""focus"",""19"",""1215679""
""focus"",""36"",""1325538""
""focus"",""36"",""1336855""
","""event"",""trial"",""time""
""fullscreenenter"",""1"",""2098""
","""event"",""trial"",""time""
""fullscreenexit"",""7"",""24711""
","","","654.3000000715256","","","23","15766","45","&#9761;","elianto","#3366ff99","-1"," ","0","0","[1507.9000000953674]","1","0","2","","","","","","","",""
"pit-trial","48","1393388","0.0-2.0-11.2-1.2","battery-v0.2","","""event"",""trial"",""time""
""fullscreenenter"",""1"",""2098""
""fullscreenexit"",""7"",""24711""
""blur"",""7"",""30246""
""focus"",""7"",""31398""
""blur"",""7"",""42758""
""focus"",""7"",""44347""
""blur"",""7"",""46296""
""focus"",""7"",""59075""
""blur"",""13"",""155146""
""focus"",""13"",""1077709""
""blur"",""18"",""1105570""
""focus"",""19"",""1121553""
""blur"",""19"",""1127378""
""focus"",""19"",""1131562""
""blur"",""19"",""1208815""
""focus"",""19"",""1215679""
""blur"",""36"",""1319943""
""focus"",""36"",""1325538""
""blur"",""36"",""1331845""
""focus"",""36"",""1336855""
","""event"",""trial"",""time""
""blur"",""7"",""30246""
""blur"",""7"",""42758""
""blur"",""7"",""46296""
""blur"",""13"",""155146""
""blur"",""18"",""1105570""
""blur"",""19"",""1127378""
""blur"",""19"",""1208815""
""blur"",""36"",""1319943""
""blur"",""36"",""1331845""
","""event"",""trial"",""time""
""focus"",""7"",""31398""
""focus"",""7"",""44347""
""focus"",""7"",""59075""
""focus"",""13"",""1077709""
""focus"",""19"",""1121553""
""focus"",""19"",""1131562""
""focus"",""19"",""1215679""
""focus"",""36"",""1325538""
""focus"",""36"",""1336855""
","""event"",""trial"",""time""
""fullscreenenter"",""1"",""2098""
","""event"",""trial"",""time""
""fullscreenexit"",""7"",""24711""
","","","402.1999999284744","","","23","15766","45","&#9761;","elianto","#3366ff99","-1"," ","0","0","[1260.5999999046326]","1","0","2","","","","","","","",""
"pit-trial","49","1396764","0.0-2.0-11.2-2.2","battery-v0.2","","""event"",""trial"",""time""
""fullscreenenter"",""1"",""2098""
""fullscreenexit"",""7"",""24711""
""blur"",""7"",""30246""
""focus"",""7"",""31398""
""blur"",""7"",""42758""
""focus"",""7"",""44347""
""blur"",""7"",""46296""
""focus"",""7"",""59075""
""blur"",""13"",""155146""
""focus"",""13"",""1077709""
""blur"",""18"",""1105570""
""focus"",""19"",""1121553""
""blur"",""19"",""1127378""
""focus"",""19"",""1131562""
""blur"",""19"",""1208815""
""focus"",""19"",""1215679""
""blur"",""36"",""1319943""
""focus"",""36"",""1325538""
""blur"",""36"",""1331845""
""focus"",""36"",""1336855""
","""event"",""trial"",""time""
""blur"",""7"",""30246""
""blur"",""7"",""42758""
""blur"",""7"",""46296""
""blur"",""13"",""155146""
""blur"",""18"",""1105570""
""blur"",""19"",""1127378""
""blur"",""19"",""1208815""
""blur"",""36"",""1319943""
""blur"",""36"",""1331845""
","""event"",""trial"",""time""
""focus"",""7"",""31398""
""focus"",""7"",""44347""
""focus"",""7"",""59075""
""focus"",""13"",""1077709""
""focus"",""19"",""1121553""
""focus"",""19"",""1131562""
""focus"",""19"",""1215679""
""focus"",""36"",""1325538""
""focus"",""36"",""1336855""
","""event"",""trial"",""time""
""fullscreenenter"",""1"",""2098""
","""event"",""trial"",""time""
""fullscreenexit"",""7"",""24711""
","","","515.2999999523163","","","23","15766","45","&#9761;","elianto","#3366ff99","-1"," ","0","0","[1372.1000000238419]","1","0","2","","","","","","","",""
"pit-trial","50","1399935","0.0-2.0-11.2-3.2","battery-v0.2","","""event"",""trial"",""time""
""fullscreenenter"",""1"",""2098""
""fullscreenexit"",""7"",""24711""
""blur"",""7"",""30246""
""focus"",""7"",""31398""
""blur"",""7"",""42758""
""focus"",""7"",""44347""
""blur"",""7"",""46296""
""focus"",""7"",""59075""
""blur"",""13"",""155146""
""focus"",""13"",""1077709""
""blur"",""18"",""1105570""
""focus"",""19"",""1121553""
""blur"",""19"",""1127378""
""focus"",""19"",""1131562""
""blur"",""19"",""1208815""
""focus"",""19"",""1215679""
""blur"",""36"",""1319943""
""focus"",""36"",""1325538""
""blur"",""36"",""1331845""
""focus"",""36"",""1336855""
","""event"",""trial"",""time""
""blur"",""7"",""30246""
""blur"",""7"",""42758""
""blur"",""7"",""46296""
""blur"",""13"",""155146""
""blur"",""18"",""1105570""
""blur"",""19"",""1127378""
""blur"",""19"",""1208815""
""blur"",""36"",""1319943""
""blur"",""36"",""1331845""
","""event"",""trial"",""time""
""focus"",""7"",""31398""
""focus"",""7"",""44347""
""focus"",""7"",""59075""
""focus"",""13"",""1077709""
""focus"",""19"",""1121553""
""focus"",""19"",""1131562""
""focus"",""19"",""1215679""
""focus"",""36"",""1325538""
""focus"",""36"",""1336855""
","""event"",""trial"",""time""
""fullscreenenter"",""1"",""2098""
","""event"",""trial"",""time""
""fullscreenexit"",""7"",""24711""
","","","217.29999995231628","","","23","15766","45","&#9761;","elianto","#3366ff99","-1"," ","0","+10","[1159.3999999761581]","1","0","2","","","","","","","",""
"pit-trial","51","1403153","0.0-2.0-11.2-4.2","battery-v0.2","","""event"",""trial"",""time""
""fullscreenenter"",""1"",""2098""
""fullscreenexit"",""7"",""24711""
""blur"",""7"",""30246""
""focus"",""7"",""31398""
""blur"",""7"",""42758""
""focus"",""7"",""44347""
""blur"",""7"",""46296""
""focus"",""7"",""59075""
""blur"",""13"",""155146""
""focus"",""13"",""1077709""
""blur"",""18"",""1105570""
""focus"",""19"",""1121553""
""blur"",""19"",""1127378""
""focus"",""19"",""1131562""
""blur"",""19"",""1208815""
""focus"",""19"",""1215679""
""blur"",""36"",""1319943""
""focus"",""36"",""1325538""
""blur"",""36"",""1331845""
""focus"",""36"",""1336855""
","""event"",""trial"",""time""
""blur"",""7"",""30246""
""blur"",""7"",""42758""
""blur"",""7"",""46296""
""blur"",""13"",""155146""
""blur"",""18"",""1105570""
""blur"",""19"",""1127378""
""blur"",""19"",""1208815""
""blur"",""36"",""1319943""
""blur"",""36"",""1331845""
","""event"",""trial"",""time""
""focus"",""7"",""31398""
""focus"",""7"",""44347""
""focus"",""7"",""59075""
""focus"",""13"",""1077709""
""focus"",""19"",""1121553""
""focus"",""19"",""1131562""
""focus"",""19"",""1215679""
""focus"",""36"",""1325538""
""focus"",""36"",""1336855""
","""event"",""trial"",""time""
""fullscreenenter"",""1"",""2098""
","""event"",""trial"",""time""
""fullscreenexit"",""7"",""24711""
","","","350.7999999523163","","","23","15766","45","&#9761;","elianto","#3366ff99","-1"," ","0","0","[1203.1999999284744]","1","0","2","","","","","","","",""
"pit-trial","52","1408022","0.0-2.0-11.3-0.3","battery-v0.2","","""event"",""trial"",""time""
""fullscreenenter"",""1"",""2098""
""fullscreenexit"",""7"",""24711""
""blur"",""7"",""30246""
""focus"",""7"",""31398""
""blur"",""7"",""42758""
""focus"",""7"",""44347""
""blur"",""7"",""46296""
""focus"",""7"",""59075""
""blur"",""13"",""155146""
""focus"",""13"",""1077709""
""blur"",""18"",""1105570""
""focus"",""19"",""1121553""
""blur"",""19"",""1127378""
""focus"",""19"",""1131562""
""blur"",""19"",""1208815""
""focus"",""19"",""1215679""
""blur"",""36"",""1319943""
""focus"",""36"",""1325538""
""blur"",""36"",""1331845""
""focus"",""36"",""1336855""
","""event"",""trial"",""time""
""blur"",""7"",""30246""
""blur"",""7"",""42758""
""blur"",""7"",""46296""
""blur"",""13"",""155146""
""blur"",""18"",""1105570""
""blur"",""19"",""1127378""
""blur"",""19"",""1208815""
""blur"",""36"",""1319943""
""blur"",""36"",""1331845""
","""event"",""trial"",""time""
""focus"",""7"",""31398""
""focus"",""7"",""44347""
""focus"",""7"",""59075""
""focus"",""13"",""1077709""
""focus"",""19"",""1121553""
""focus"",""19"",""1131562""
""focus"",""19"",""1215679""
""focus"",""36"",""1325538""
""focus"",""36"",""1336855""
","""event"",""trial"",""time""
""fullscreenenter"",""1"",""2098""
","""event"",""trial"",""time""
""fullscreenexit"",""7"",""24711""
","","","-1","","","23","15766","45","&#9761;","elianto","#3366ff99","-1","-1","1","+10","[]","0","0","2","","","","","","","",""
"pit-trial","53","1412888","0.0-2.0-11.3-1.3","battery-v0.2","","""event"",""trial"",""time""
""fullscreenenter"",""1"",""2098""
""fullscreenexit"",""7"",""24711""
""blur"",""7"",""30246""
""focus"",""7"",""31398""
""blur"",""7"",""42758""
""focus"",""7"",""44347""
""blur"",""7"",""46296""
""focus"",""7"",""59075""
""blur"",""13"",""155146""
""focus"",""13"",""1077709""
""blur"",""18"",""1105570""
""focus"",""19"",""1121553""
""blur"",""19"",""1127378""
""focus"",""19"",""1131562""
""blur"",""19"",""1208815""
""focus"",""19"",""1215679""
""blur"",""36"",""1319943""
""focus"",""36"",""1325538""
""blur"",""36"",""1331845""
""focus"",""36"",""1336855""
","""event"",""trial"",""time""
""blur"",""7"",""30246""
""blur"",""7"",""42758""
""blur"",""7"",""46296""
""blur"",""13"",""155146""
""blur"",""18"",""1105570""
""blur"",""19"",""1127378""
""blur"",""19"",""1208815""
""blur"",""36"",""1319943""
""blur"",""36"",""1331845""
","""event"",""trial"",""time""
""focus"",""7"",""31398""
""focus"",""7"",""44347""
""focus"",""7"",""59075""
""focus"",""13"",""1077709""
""focus"",""19"",""1121553""
""focus"",""19"",""1131562""
""focus"",""19"",""1215679""
""focus"",""36"",""1325538""
""focus"",""36"",""1336855""
","""event"",""trial"",""time""
""fullscreenenter"",""1"",""2098""
","""event"",""trial"",""time""
""fullscreenexit"",""7"",""24711""
","","","-1","","","23","15766","45","&#9761;","elianto","#3366ff99","-1","-1","1","+10","[]","0","0","2","","","","","","","",""
"pit-trial","54","1417757","0.0-2.0-11.3-2.3","battery-v0.2","","""event"",""trial"",""time""
""fullscreenenter"",""1"",""2098""
""fullscreenexit"",""7"",""24711""
""blur"",""7"",""30246""
""focus"",""7"",""31398""
""blur"",""7"",""42758""
""focus"",""7"",""44347""
""blur"",""7"",""46296""
""focus"",""7"",""59075""
""blur"",""13"",""155146""
""focus"",""13"",""1077709""
""blur"",""18"",""1105570""
""focus"",""19"",""1121553""
""blur"",""19"",""1127378""
""focus"",""19"",""1131562""
""blur"",""19"",""1208815""
""focus"",""19"",""1215679""
""blur"",""36"",""1319943""
""focus"",""36"",""1325538""
""blur"",""36"",""1331845""
""focus"",""36"",""1336855""
","""event"",""trial"",""time""
""blur"",""7"",""30246""
""blur"",""7"",""42758""
""blur"",""7"",""46296""
""blur"",""13"",""155146""
""blur"",""18"",""1105570""
""blur"",""19"",""1127378""
""blur"",""19"",""1208815""
""blur"",""36"",""1319943""
""blur"",""36"",""1331845""
","""event"",""trial"",""time""
""focus"",""7"",""31398""
""focus"",""7"",""44347""
""focus"",""7"",""59075""
""focus"",""13"",""1077709""
""focus"",""19"",""1121553""
""focus"",""19"",""1131562""
""focus"",""19"",""1215679""
""focus"",""36"",""1325538""
""focus"",""36"",""1336855""
","""event"",""trial"",""time""
""fullscreenenter"",""1"",""2098""
","""event"",""trial"",""time""
""fullscreenexit"",""7"",""24711""
","","","-1","","","23","15766","45","&#9761;","elianto","#3366ff99","-1","-1","1","+10","[]","0","0","2","","","","","","","",""
"pit-trial","55","1422622","0.0-2.0-11.3-3.3","battery-v0.2","","""event"",""trial"",""time""
""fullscreenenter"",""1"",""2098""
""fullscreenexit"",""7"",""24711""
""blur"",""7"",""30246""
""focus"",""7"",""31398""
""blur"",""7"",""42758""
""focus"",""7"",""44347""
""blur"",""7"",""46296""
""focus"",""7"",""59075""
""blur"",""13"",""155146""
""focus"",""13"",""1077709""
""blur"",""18"",""1105570""
""focus"",""19"",""1121553""
""blur"",""19"",""1127378""
""focus"",""19"",""1131562""
""blur"",""19"",""1208815""
""focus"",""19"",""1215679""
""blur"",""36"",""1319943""
""focus"",""36"",""1325538""
""blur"",""36"",""1331845""
""focus"",""36"",""1336855""
","""event"",""trial"",""time""
""blur"",""7"",""30246""
""blur"",""7"",""42758""
""blur"",""7"",""46296""
""blur"",""13"",""155146""
""blur"",""18"",""1105570""
""blur"",""19"",""1127378""
""blur"",""19"",""1208815""
""blur"",""36"",""1319943""
""blur"",""36"",""1331845""
","""event"",""trial"",""time""
""focus"",""7"",""31398""
""focus"",""7"",""44347""
""focus"",""7"",""59075""
""focus"",""13"",""1077709""
""focus"",""19"",""1121553""
""focus"",""19"",""1131562""
""focus"",""19"",""1215679""
""focus"",""36"",""1325538""
""focus"",""36"",""1336855""
","""event"",""trial"",""time""
""fullscreenenter"",""1"",""2098""
","""event"",""trial"",""time""
""fullscreenexit"",""7"",""24711""
","","","-1","","","23","15766","45","&#9761;","elianto","#3366ff99","-1","-1","1","0","[]","0","0","2","","","","","","","",""
"pit-trial","56","1427486","0.0-2.0-11.3-4.3","battery-v0.2","","""event"",""trial"",""time""
""fullscreenenter"",""1"",""2098""
""fullscreenexit"",""7"",""24711""
""blur"",""7"",""30246""
""focus"",""7"",""31398""
""blur"",""7"",""42758""
""focus"",""7"",""44347""
""blur"",""7"",""46296""
""focus"",""7"",""59075""
""blur"",""13"",""155146""
""focus"",""13"",""1077709""
""blur"",""18"",""1105570""
""focus"",""19"",""1121553""
""blur"",""19"",""1127378""
""focus"",""19"",""1131562""
""blur"",""19"",""1208815""
""focus"",""19"",""1215679""
""blur"",""36"",""1319943""
""focus"",""36"",""1325538""
""blur"",""36"",""1331845""
""focus"",""36"",""1336855""
","""event"",""trial"",""time""
""blur"",""7"",""30246""
""blur"",""7"",""42758""
""blur"",""7"",""46296""
""blur"",""13"",""155146""
""blur"",""18"",""1105570""
""blur"",""19"",""1127378""
""blur"",""19"",""1208815""
""blur"",""36"",""1319943""
""blur"",""36"",""1331845""
","""event"",""trial"",""time""
""focus"",""7"",""31398""
""focus"",""7"",""44347""
""focus"",""7"",""59075""
""focus"",""13"",""1077709""
""focus"",""19"",""1121553""
""focus"",""19"",""1131562""
""focus"",""19"",""1215679""
""focus"",""36"",""1325538""
""focus"",""36"",""1336855""
","""event"",""trial"",""time""
""fullscreenenter"",""1"",""2098""
","""event"",""trial"",""time""
""fullscreenexit"",""7"",""24711""
","","","-1","","","23","15766","45","&#9761;","elianto","#3366ff99","-1","-1","1","+10","[]","0","0","2","","","","","","","",""
"call-function","57","1427488","0.0-2.0-12.0","battery-v0.2","","""event"",""trial"",""time""
""fullscreenenter"",""1"",""2098""
""fullscreenexit"",""7"",""24711""
""blur"",""7"",""30246""
""focus"",""7"",""31398""
""blur"",""7"",""42758""
""focus"",""7"",""44347""
""blur"",""7"",""46296""
""focus"",""7"",""59075""
""blur"",""13"",""155146""
""focus"",""13"",""1077709""
""blur"",""18"",""1105570""
""focus"",""19"",""1121553""
""blur"",""19"",""1127378""
""focus"",""19"",""1131562""
""blur"",""19"",""1208815""
""focus"",""19"",""1215679""
""blur"",""36"",""1319943""
""focus"",""36"",""1325538""
""blur"",""36"",""1331845""
""focus"",""36"",""1336855""
""blur"",""58"",""1432744""
""focus"",""58"",""1436364""
","""event"",""trial"",""time""
""blur"",""7"",""30246""
""blur"",""7"",""42758""
""blur"",""7"",""46296""
""blur"",""13"",""155146""
""blur"",""18"",""1105570""
""blur"",""19"",""1127378""
""blur"",""19"",""1208815""
""blur"",""36"",""1319943""
""blur"",""36"",""1331845""
""blur"",""58"",""1432744""
","""event"",""trial"",""time""
""focus"",""7"",""31398""
""focus"",""7"",""44347""
""focus"",""7"",""59075""
""focus"",""13"",""1077709""
""focus"",""19"",""1121553""
""focus"",""19"",""1131562""
""focus"",""19"",""1215679""
""focus"",""36"",""1325538""
""focus"",""36"",""1336855""
""focus"",""58"",""1436364""
","""event"",""trial"",""time""
""fullscreenenter"",""1"",""2098""
","""event"",""trial"",""time""
""fullscreenexit"",""7"",""24711""
","","","","","","","","","","","","","","","","","","","","","","","","","","",""
"pit-instructions","58","1465423","0.0-2.0-13.0","battery-v0.2","","""event"",""trial"",""time""
""fullscreenenter"",""1"",""2098""
""fullscreenexit"",""7"",""24711""
""blur"",""7"",""30246""
""focus"",""7"",""31398""
""blur"",""7"",""42758""
""focus"",""7"",""44347""
""blur"",""7"",""46296""
""focus"",""7"",""59075""
""blur"",""13"",""155146""
""focus"",""13"",""1077709""
""blur"",""18"",""1105570""
""focus"",""19"",""1121553""
""blur"",""19"",""1127378""
""focus"",""19"",""1131562""
""blur"",""19"",""1208815""
""focus"",""19"",""1215679""
""blur"",""36"",""1319943""
""focus"",""36"",""1325538""
""blur"",""36"",""1331845""
""focus"",""36"",""1336855""
""blur"",""58"",""1432744""
""focus"",""58"",""1436364""
","""event"",""trial"",""time""
""blur"",""7"",""30246""
""blur"",""7"",""42758""
""blur"",""7"",""46296""
""blur"",""13"",""155146""
""blur"",""18"",""1105570""
""blur"",""19"",""1127378""
""blur"",""19"",""1208815""
""blur"",""36"",""1319943""
""blur"",""36"",""1331845""
""blur"",""58"",""1432744""
","""event"",""trial"",""time""
""focus"",""7"",""31398""
""focus"",""7"",""44347""
""focus"",""7"",""59075""
""focus"",""13"",""1077709""
""focus"",""19"",""1121553""
""focus"",""19"",""1131562""
""focus"",""19"",""1215679""
""focus"",""36"",""1325538""
""focus"",""36"",""1336855""
""focus"",""58"",""1436364""
","""event"",""trial"",""time""
""fullscreenenter"",""1"",""2098""
","""event"",""trial"",""time""
""fullscreenexit"",""7"",""24711""
","","[{""page_index"":0,""viewing_time"":10825.600000023842},{""page_index"":1,""viewing_time"":7525.100000023842},{""page_index"":2,""viewing_time"":3392.5999999046326},{""page_index"":3,""viewing_time"":10432.100000023842},{""page_index"":4,""viewing_time"":5755.899999976158}]","37931.60000002384","","","","","","","","","","","","","","","","","","","","","","","",""
"pit-trial","59","1470293","0.0-2.0-14.0-0.0","battery-v0.2","","""event"",""trial"",""time""
""fullscreenenter"",""1"",""2098""
""fullscreenexit"",""7"",""24711""
""blur"",""7"",""30246""
""focus"",""7"",""31398""
""blur"",""7"",""42758""
""focus"",""7"",""44347""
""blur"",""7"",""46296""
""focus"",""7"",""59075""
""blur"",""13"",""155146""
""focus"",""13"",""1077709""
""blur"",""18"",""1105570""
""focus"",""19"",""1121553""
""blur"",""19"",""1127378""
""focus"",""19"",""1131562""
""blur"",""19"",""1208815""
""focus"",""19"",""1215679""
""blur"",""36"",""1319943""
""focus"",""36"",""1325538""
""blur"",""36"",""1331845""
""focus"",""36"",""1336855""
""blur"",""58"",""1432744""
""focus"",""58"",""1436364""
""blur"",""60"",""1471233""
","""event"",""trial"",""time""
""blur"",""7"",""30246""
""blur"",""7"",""42758""
""blur"",""7"",""46296""
""blur"",""13"",""155146""
""blur"",""18"",""1105570""
""blur"",""19"",""1127378""
""blur"",""19"",""1208815""
""blur"",""36"",""1319943""
""blur"",""36"",""1331845""
""blur"",""58"",""1432744""
""blur"",""60"",""1471233""
","""event"",""trial"",""time""
""focus"",""7"",""31398""
""focus"",""7"",""44347""
""focus"",""7"",""59075""
""focus"",""13"",""1077709""
""focus"",""19"",""1121553""
""focus"",""19"",""1131562""
""focus"",""19"",""1215679""
""focus"",""36"",""1325538""
""focus"",""36"",""1336855""
""focus"",""58"",""1436364""
","""event"",""trial"",""time""
""fullscreenenter"",""1"",""2098""
","""event"",""trial"",""time""
""fullscreenexit"",""7"",""24711""
","","","-1","","","23","15766","45","&#9826;","elianto","#f73b6a7A","-1","-1","1","0","[]","0","0","3","","","","","","","",""
"pit-trial","60","1475160","0.0-2.0-14.0-1.0","battery-v0.2","","""event"",""trial"",""time""
""fullscreenenter"",""1"",""2098""
""fullscreenexit"",""7"",""24711""
""blur"",""7"",""30246""
""focus"",""7"",""31398""
""blur"",""7"",""42758""
""focus"",""7"",""44347""
""blur"",""7"",""46296""
""focus"",""7"",""59075""
""blur"",""13"",""155146""
""focus"",""13"",""1077709""
""blur"",""18"",""1105570""
""focus"",""19"",""1121553""
""blur"",""19"",""1127378""
""focus"",""19"",""1131562""
""blur"",""19"",""1208815""
""focus"",""19"",""1215679""
""blur"",""36"",""1319943""
""focus"",""36"",""1325538""
""blur"",""36"",""1331845""
""focus"",""36"",""1336855""
""blur"",""58"",""1432744""
""focus"",""58"",""1436364""
""blur"",""60"",""1471233""
","""event"",""trial"",""time""
""blur"",""7"",""30246""
""blur"",""7"",""42758""
""blur"",""7"",""46296""
""blur"",""13"",""155146""
""blur"",""18"",""1105570""
""blur"",""19"",""1127378""
""blur"",""19"",""1208815""
""blur"",""36"",""1319943""
""blur"",""36"",""1331845""
""blur"",""58"",""1432744""
""blur"",""60"",""1471233""
","""event"",""trial"",""time""
""focus"",""7"",""31398""
""focus"",""7"",""44347""
""focus"",""7"",""59075""
""focus"",""13"",""1077709""
""focus"",""19"",""1121553""
""focus"",""19"",""1131562""
""focus"",""19"",""1215679""
""focus"",""36"",""1325538""
""focus"",""36"",""1336855""
""focus"",""58"",""1436364""
","""event"",""trial"",""time""
""fullscreenenter"",""1"",""2098""
","""event"",""trial"",""time""
""fullscreenexit"",""7"",""24711""
","","","-1","","","23","15766","45","&#9826;","elianto","#f73b6a7A","-1","-1","1","0","[]","0","0","3","","","","","","","",""
"pit-trial","61","1480022","0.0-2.0-14.0-2.0","battery-v0.2","","""event"",""trial"",""time""
""fullscreenenter"",""1"",""2098""
""fullscreenexit"",""7"",""24711""
""blur"",""7"",""30246""
""focus"",""7"",""31398""
""blur"",""7"",""42758""
""focus"",""7"",""44347""
""blur"",""7"",""46296""
""focus"",""7"",""59075""
""blur"",""13"",""155146""
""focus"",""13"",""1077709""
""blur"",""18"",""1105570""
""focus"",""19"",""1121553""
""blur"",""19"",""1127378""
""focus"",""19"",""1131562""
""blur"",""19"",""1208815""
""focus"",""19"",""1215679""
""blur"",""36"",""1319943""
""focus"",""36"",""1325538""
""blur"",""36"",""1331845""
""focus"",""36"",""1336855""
""blur"",""58"",""1432744""
""focus"",""58"",""1436364""
""blur"",""60"",""1471233""
","""event"",""trial"",""time""
""blur"",""7"",""30246""
""blur"",""7"",""42758""
""blur"",""7"",""46296""
""blur"",""13"",""155146""
""blur"",""18"",""1105570""
""blur"",""19"",""1127378""
""blur"",""19"",""1208815""
""blur"",""36"",""1319943""
""blur"",""36"",""1331845""
""blur"",""58"",""1432744""
""blur"",""60"",""1471233""
","""event"",""trial"",""time""
""focus"",""7"",""31398""
""focus"",""7"",""44347""
""focus"",""7"",""59075""
""focus"",""13"",""1077709""
""focus"",""19"",""1121553""
""focus"",""19"",""1131562""
""focus"",""19"",""1215679""
""focus"",""36"",""1325538""
""focus"",""36"",""1336855""
""focus"",""58"",""1436364""
","""event"",""trial"",""time""
""fullscreenenter"",""1"",""2098""
","""event"",""trial"",""time""
""fullscreenexit"",""7"",""24711""
","","","-1","","","23","15766","45","&#9826;","elianto","#f73b6a7A","-1","-1","1","0","[]","0","0","3","","","","","","","",""
"pit-trial","62","1484887","0.0-2.0-14.0-3.0","battery-v0.2","","""event"",""trial"",""time""
""fullscreenenter"",""1"",""2098""
""fullscreenexit"",""7"",""24711""
""blur"",""7"",""30246""
""focus"",""7"",""31398""
""blur"",""7"",""42758""
""focus"",""7"",""44347""
""blur"",""7"",""46296""
""focus"",""7"",""59075""
""blur"",""13"",""155146""
""focus"",""13"",""1077709""
""blur"",""18"",""1105570""
""focus"",""19"",""1121553""
""blur"",""19"",""1127378""
""focus"",""19"",""1131562""
""blur"",""19"",""1208815""
""focus"",""19"",""1215679""
""blur"",""36"",""1319943""
""focus"",""36"",""1325538""
""blur"",""36"",""1331845""
""focus"",""36"",""1336855""
""blur"",""58"",""1432744""
""focus"",""58"",""1436364""
""blur"",""60"",""1471233""
","""event"",""trial"",""time""
""blur"",""7"",""30246""
""blur"",""7"",""42758""
""blur"",""7"",""46296""
""blur"",""13"",""155146""
""blur"",""18"",""1105570""
""blur"",""19"",""1127378""
""blur"",""19"",""1208815""
""blur"",""36"",""1319943""
""blur"",""36"",""1331845""
""blur"",""58"",""1432744""
""blur"",""60"",""1471233""
","""event"",""trial"",""time""
""focus"",""7"",""31398""
""focus"",""7"",""44347""
""focus"",""7"",""59075""
""focus"",""13"",""1077709""
""focus"",""19"",""1121553""
""focus"",""19"",""1131562""
""focus"",""19"",""1215679""
""focus"",""36"",""1325538""
""focus"",""36"",""1336855""
""focus"",""58"",""1436364""
","""event"",""trial"",""time""
""fullscreenenter"",""1"",""2098""
","""event"",""trial"",""time""
""fullscreenexit"",""7"",""24711""
","","","-1","","","23","15766","45","&#9826;","elianto","#f73b6a7A","-1","-1","1","-10","[]","0","0","3","","","","","","","",""
"pit-trial","63","1489752","0.0-2.0-14.0-4.0","battery-v0.2","","""event"",""trial"",""time""
""fullscreenenter"",""1"",""2098""
""fullscreenexit"",""7"",""24711""
""blur"",""7"",""30246""
""focus"",""7"",""31398""
""blur"",""7"",""42758""
""focus"",""7"",""44347""
""blur"",""7"",""46296""
""focus"",""7"",""59075""
""blur"",""13"",""155146""
""focus"",""13"",""1077709""
""blur"",""18"",""1105570""
""focus"",""19"",""1121553""
""blur"",""19"",""1127378""
""focus"",""19"",""1131562""
""blur"",""19"",""1208815""
""focus"",""19"",""1215679""
""blur"",""36"",""1319943""
""focus"",""36"",""1325538""
""blur"",""36"",""1331845""
""focus"",""36"",""1336855""
""blur"",""58"",""1432744""
""focus"",""58"",""1436364""
""blur"",""60"",""1471233""
","""event"",""trial"",""time""
""blur"",""7"",""30246""
""blur"",""7"",""42758""
""blur"",""7"",""46296""
""blur"",""13"",""155146""
""blur"",""18"",""1105570""
""blur"",""19"",""1127378""
""blur"",""19"",""1208815""
""blur"",""36"",""1319943""
""blur"",""36"",""1331845""
""blur"",""58"",""1432744""
""blur"",""60"",""1471233""
","""event"",""trial"",""time""
""focus"",""7"",""31398""
""focus"",""7"",""44347""
""focus"",""7"",""59075""
""focus"",""13"",""1077709""
""focus"",""19"",""1121553""
""focus"",""19"",""1131562""
""focus"",""19"",""1215679""
""focus"",""36"",""1325538""
""focus"",""36"",""1336855""
""focus"",""58"",""1436364""
","""event"",""trial"",""time""
""fullscreenenter"",""1"",""2098""
","""event"",""trial"",""time""
""fullscreenexit"",""7"",""24711""
","","","-1","","","23","15766","45","&#9826;","elianto","#f73b6a7A","-1","-1","1","0","[]","0","0","3","","","","","","","",""
"pit-trial","64","1494623","0.0-2.0-14.1-0.1","battery-v0.2","","""event"",""trial"",""time""
""fullscreenenter"",""1"",""2098""
""fullscreenexit"",""7"",""24711""
""blur"",""7"",""30246""
""focus"",""7"",""31398""
""blur"",""7"",""42758""
""focus"",""7"",""44347""
""blur"",""7"",""46296""
""focus"",""7"",""59075""
""blur"",""13"",""155146""
""focus"",""13"",""1077709""
""blur"",""18"",""1105570""
""focus"",""19"",""1121553""
""blur"",""19"",""1127378""
""focus"",""19"",""1131562""
""blur"",""19"",""1208815""
""focus"",""19"",""1215679""
""blur"",""36"",""1319943""
""focus"",""36"",""1325538""
""blur"",""36"",""1331845""
""focus"",""36"",""1336855""
""blur"",""58"",""1432744""
""focus"",""58"",""1436364""
""blur"",""60"",""1471233""
","""event"",""trial"",""time""
""blur"",""7"",""30246""
""blur"",""7"",""42758""
""blur"",""7"",""46296""
""blur"",""13"",""155146""
""blur"",""18"",""1105570""
""blur"",""19"",""1127378""
""blur"",""19"",""1208815""
""blur"",""36"",""1319943""
""blur"",""36"",""1331845""
""blur"",""58"",""1432744""
""blur"",""60"",""1471233""
","""event"",""trial"",""time""
""focus"",""7"",""31398""
""focus"",""7"",""44347""
""focus"",""7"",""59075""
""focus"",""13"",""1077709""
""focus"",""19"",""1121553""
""focus"",""19"",""1131562""
""focus"",""19"",""1215679""
""focus"",""36"",""1325538""
""focus"",""36"",""1336855""
""focus"",""58"",""1436364""
","""event"",""trial"",""time""
""fullscreenenter"",""1"",""2098""
","""event"",""trial"",""time""
""fullscreenexit"",""7"",""24711""
","","","-1","","","23","15766","45","&#9826;","elianto","#f73b6a7A","-1","-1","1","0","[]","0","0","3","","","","","","","",""
"pit-trial","65","1499488","0.0-2.0-14.1-1.1","battery-v0.2","","""event"",""trial"",""time""
""fullscreenenter"",""1"",""2098""
""fullscreenexit"",""7"",""24711""
""blur"",""7"",""30246""
""focus"",""7"",""31398""
""blur"",""7"",""42758""
""focus"",""7"",""44347""
""blur"",""7"",""46296""
""focus"",""7"",""59075""
""blur"",""13"",""155146""
""focus"",""13"",""1077709""
""blur"",""18"",""1105570""
""focus"",""19"",""1121553""
""blur"",""19"",""1127378""
""focus"",""19"",""1131562""
""blur"",""19"",""1208815""
""focus"",""19"",""1215679""
""blur"",""36"",""1319943""
""focus"",""36"",""1325538""
""blur"",""36"",""1331845""
""focus"",""36"",""1336855""
""blur"",""58"",""1432744""
""focus"",""58"",""1436364""
""blur"",""60"",""1471233""
","""event"",""trial"",""time""
""blur"",""7"",""30246""
""blur"",""7"",""42758""
""blur"",""7"",""46296""
""blur"",""13"",""155146""
""blur"",""18"",""1105570""
""blur"",""19"",""1127378""
""blur"",""19"",""1208815""
""blur"",""36"",""1319943""
""blur"",""36"",""1331845""
""blur"",""58"",""1432744""
""blur"",""60"",""1471233""
","""event"",""trial"",""time""
""focus"",""7"",""31398""
""focus"",""7"",""44347""
""focus"",""7"",""59075""
""focus"",""13"",""1077709""
""focus"",""19"",""1121553""
""focus"",""19"",""1131562""
""focus"",""19"",""1215679""
""focus"",""36"",""1325538""
""focus"",""36"",""1336855""
""focus"",""58"",""1436364""
","""event"",""trial"",""time""
""fullscreenenter"",""1"",""2098""
","""event"",""trial"",""time""
""fullscreenexit"",""7"",""24711""
","","","-1","","","23","15766","45","&#9826;","elianto","#f73b6a7A","-1","-1","1","0","[]","0","0","3","","","","","","","",""
"pit-trial","66","1504357","0.0-2.0-14.1-2.1","battery-v0.2","","""event"",""trial"",""time""
""fullscreenenter"",""1"",""2098""
""fullscreenexit"",""7"",""24711""
""blur"",""7"",""30246""
""focus"",""7"",""31398""
""blur"",""7"",""42758""
""focus"",""7"",""44347""
""blur"",""7"",""46296""
""focus"",""7"",""59075""
""blur"",""13"",""155146""
""focus"",""13"",""1077709""
""blur"",""18"",""1105570""
""focus"",""19"",""1121553""
""blur"",""19"",""1127378""
""focus"",""19"",""1131562""
""blur"",""19"",""1208815""
""focus"",""19"",""1215679""
""blur"",""36"",""1319943""
""focus"",""36"",""1325538""
""blur"",""36"",""1331845""
""focus"",""36"",""1336855""
""blur"",""58"",""1432744""
""focus"",""58"",""1436364""
""blur"",""60"",""1471233""
","""event"",""trial"",""time""
""blur"",""7"",""30246""
""blur"",""7"",""42758""
""blur"",""7"",""46296""
""blur"",""13"",""155146""
""blur"",""18"",""1105570""
""blur"",""19"",""1127378""
""blur"",""19"",""1208815""
""blur"",""36"",""1319943""
""blur"",""36"",""1331845""
""blur"",""58"",""1432744""
""blur"",""60"",""1471233""
","""event"",""trial"",""time""
""focus"",""7"",""31398""
""focus"",""7"",""44347""
""focus"",""7"",""59075""
""focus"",""13"",""1077709""
""focus"",""19"",""1121553""
""focus"",""19"",""1131562""
""focus"",""19"",""1215679""
""focus"",""36"",""1325538""
""focus"",""36"",""1336855""
""focus"",""58"",""1436364""
","""event"",""trial"",""time""
""fullscreenenter"",""1"",""2098""
","""event"",""trial"",""time""
""fullscreenexit"",""7"",""24711""
","","","-1","","","23","15766","45","&#9826;","elianto","#f73b6a7A","-1","-1","1","0","[]","0","0","3","","","","","","","",""
"pit-trial","67","1509224","0.0-2.0-14.1-3.1","battery-v0.2","","""event"",""trial"",""time""
""fullscreenenter"",""1"",""2098""
""fullscreenexit"",""7"",""24711""
""blur"",""7"",""30246""
""focus"",""7"",""31398""
""blur"",""7"",""42758""
""focus"",""7"",""44347""
""blur"",""7"",""46296""
""focus"",""7"",""59075""
""blur"",""13"",""155146""
""focus"",""13"",""1077709""
""blur"",""18"",""1105570""
""focus"",""19"",""1121553""
""blur"",""19"",""1127378""
""focus"",""19"",""1131562""
""blur"",""19"",""1208815""
""focus"",""19"",""1215679""
""blur"",""36"",""1319943""
""focus"",""36"",""1325538""
""blur"",""36"",""1331845""
""focus"",""36"",""1336855""
""blur"",""58"",""1432744""
""focus"",""58"",""1436364""
""blur"",""60"",""1471233""
","""event"",""trial"",""time""
""blur"",""7"",""30246""
""blur"",""7"",""42758""
""blur"",""7"",""46296""
""blur"",""13"",""155146""
""blur"",""18"",""1105570""
""blur"",""19"",""1127378""
""blur"",""19"",""1208815""
""blur"",""36"",""1319943""
""blur"",""36"",""1331845""
""blur"",""58"",""1432744""
""blur"",""60"",""1471233""
","""event"",""trial"",""time""
""focus"",""7"",""31398""
""focus"",""7"",""44347""
""focus"",""7"",""59075""
""focus"",""13"",""1077709""
""focus"",""19"",""1121553""
""focus"",""19"",""1131562""
""focus"",""19"",""1215679""
""focus"",""36"",""1325538""
""focus"",""36"",""1336855""
""focus"",""58"",""1436364""
","""event"",""trial"",""time""
""fullscreenenter"",""1"",""2098""
","""event"",""trial"",""time""
""fullscreenexit"",""7"",""24711""
","","","-1","","","23","15766","45","&#9826;","elianto","#f73b6a7A","-1","-1","1","-10","[]","0","0","3","","","","","","","",""
"pit-trial","68","1514089","0.0-2.0-14.1-4.1","battery-v0.2","","""event"",""trial"",""time""
""fullscreenenter"",""1"",""2098""
""fullscreenexit"",""7"",""24711""
""blur"",""7"",""30246""
""focus"",""7"",""31398""
""blur"",""7"",""42758""
""focus"",""7"",""44347""
""blur"",""7"",""46296""
""focus"",""7"",""59075""
""blur"",""13"",""155146""
""focus"",""13"",""1077709""
""blur"",""18"",""1105570""
""focus"",""19"",""1121553""
""blur"",""19"",""1127378""
""focus"",""19"",""1131562""
""blur"",""19"",""1208815""
""focus"",""19"",""1215679""
""blur"",""36"",""1319943""
""focus"",""36"",""1325538""
""blur"",""36"",""1331845""
""focus"",""36"",""1336855""
""blur"",""58"",""1432744""
""focus"",""58"",""1436364""
""blur"",""60"",""1471233""
","""event"",""trial"",""time""
""blur"",""7"",""30246""
""blur"",""7"",""42758""
""blur"",""7"",""46296""
""blur"",""13"",""155146""
""blur"",""18"",""1105570""
""blur"",""19"",""1127378""
""blur"",""19"",""1208815""
""blur"",""36"",""1319943""
""blur"",""36"",""1331845""
""blur"",""58"",""1432744""
""blur"",""60"",""1471233""
","""event"",""trial"",""time""
""focus"",""7"",""31398""
""focus"",""7"",""44347""
""focus"",""7"",""59075""
""focus"",""13"",""1077709""
""focus"",""19"",""1121553""
""focus"",""19"",""1131562""
""focus"",""19"",""1215679""
""focus"",""36"",""1325538""
""focus"",""36"",""1336855""
""focus"",""58"",""1436364""
","""event"",""trial"",""time""
""fullscreenenter"",""1"",""2098""
","""event"",""trial"",""time""
""fullscreenexit"",""7"",""24711""
","","","-1","","","23","15766","45","&#9826;","elianto","#f73b6a7A","-1","-1","1","0","[]","0","0","3","","","","","","","",""
"pit-trial","69","1518955","0.0-2.0-14.2-0.2","battery-v0.2","","""event"",""trial"",""time""
""fullscreenenter"",""1"",""2098""
""fullscreenexit"",""7"",""24711""
""blur"",""7"",""30246""
""focus"",""7"",""31398""
""blur"",""7"",""42758""
""focus"",""7"",""44347""
""blur"",""7"",""46296""
""focus"",""7"",""59075""
""blur"",""13"",""155146""
""focus"",""13"",""1077709""
""blur"",""18"",""1105570""
""focus"",""19"",""1121553""
""blur"",""19"",""1127378""
""focus"",""19"",""1131562""
""blur"",""19"",""1208815""
""focus"",""19"",""1215679""
""blur"",""36"",""1319943""
""focus"",""36"",""1325538""
""blur"",""36"",""1331845""
""focus"",""36"",""1336855""
""blur"",""58"",""1432744""
""focus"",""58"",""1436364""
""blur"",""60"",""1471233""
","""event"",""trial"",""time""
""blur"",""7"",""30246""
""blur"",""7"",""42758""
""blur"",""7"",""46296""
""blur"",""13"",""155146""
""blur"",""18"",""1105570""
""blur"",""19"",""1127378""
""blur"",""19"",""1208815""
""blur"",""36"",""1319943""
""blur"",""36"",""1331845""
""blur"",""58"",""1432744""
""blur"",""60"",""1471233""
","""event"",""trial"",""time""
""focus"",""7"",""31398""
""focus"",""7"",""44347""
""focus"",""7"",""59075""
""focus"",""13"",""1077709""
""focus"",""19"",""1121553""
""focus"",""19"",""1131562""
""focus"",""19"",""1215679""
""focus"",""36"",""1325538""
""focus"",""36"",""1336855""
""focus"",""58"",""1436364""
","""event"",""trial"",""time""
""fullscreenenter"",""1"",""2098""
","""event"",""trial"",""time""
""fullscreenexit"",""7"",""24711""
","","","-1","","","23","15766","45","&#9826;","elianto","#f73b6a7A","-1","-1","1","0","[]","0","0","3","","","","","","","",""
"pit-trial","70","1523818","0.0-2.0-14.2-1.2","battery-v0.2","","""event"",""trial"",""time""
""fullscreenenter"",""1"",""2098""
""fullscreenexit"",""7"",""24711""
""blur"",""7"",""30246""
""focus"",""7"",""31398""
""blur"",""7"",""42758""
""focus"",""7"",""44347""
""blur"",""7"",""46296""
""focus"",""7"",""59075""
""blur"",""13"",""155146""
""focus"",""13"",""1077709""
""blur"",""18"",""1105570""
""focus"",""19"",""1121553""
""blur"",""19"",""1127378""
""focus"",""19"",""1131562""
""blur"",""19"",""1208815""
""focus"",""19"",""1215679""
""blur"",""36"",""1319943""
""focus"",""36"",""1325538""
""blur"",""36"",""1331845""
""focus"",""36"",""1336855""
""blur"",""58"",""1432744""
""focus"",""58"",""1436364""
""blur"",""60"",""1471233""
","""event"",""trial"",""time""
""blur"",""7"",""30246""
""blur"",""7"",""42758""
""blur"",""7"",""46296""
""blur"",""13"",""155146""
""blur"",""18"",""1105570""
""blur"",""19"",""1127378""
""blur"",""19"",""1208815""
""blur"",""36"",""1319943""
""blur"",""36"",""1331845""
""blur"",""58"",""1432744""
""blur"",""60"",""1471233""
","""event"",""trial"",""time""
""focus"",""7"",""31398""
""focus"",""7"",""44347""
""focus"",""7"",""59075""
""focus"",""13"",""1077709""
""focus"",""19"",""1121553""
""focus"",""19"",""1131562""
""focus"",""19"",""1215679""
""focus"",""36"",""1325538""
""focus"",""36"",""1336855""
""focus"",""58"",""1436364""
","""event"",""trial"",""time""
""fullscreenenter"",""1"",""2098""
","""event"",""trial"",""time""
""fullscreenexit"",""7"",""24711""
","","","-1","","","23","15766","45","&#9826;","elianto","#f73b6a7A","-1","-1","1","0","[]","0","0","3","","","","","","","",""
"pit-trial","71","1528683","0.0-2.0-14.2-2.2","battery-v0.2","","""event"",""trial"",""time""
""fullscreenenter"",""1"",""2098""
""fullscreenexit"",""7"",""24711""
""blur"",""7"",""30246""
""focus"",""7"",""31398""
""blur"",""7"",""42758""
""focus"",""7"",""44347""
""blur"",""7"",""46296""
""focus"",""7"",""59075""
""blur"",""13"",""155146""
""focus"",""13"",""1077709""
""blur"",""18"",""1105570""
""focus"",""19"",""1121553""
""blur"",""19"",""1127378""
""focus"",""19"",""1131562""
""blur"",""19"",""1208815""
""focus"",""19"",""1215679""
""blur"",""36"",""1319943""
""focus"",""36"",""1325538""
""blur"",""36"",""1331845""
""focus"",""36"",""1336855""
""blur"",""58"",""1432744""
""focus"",""58"",""1436364""
""blur"",""60"",""1471233""
","""event"",""trial"",""time""
""blur"",""7"",""30246""
""blur"",""7"",""42758""
""blur"",""7"",""46296""
""blur"",""13"",""155146""
""blur"",""18"",""1105570""
""blur"",""19"",""1127378""
""blur"",""19"",""1208815""
""blur"",""36"",""1319943""
""blur"",""36"",""1331845""
""blur"",""58"",""1432744""
""blur"",""60"",""1471233""
","""event"",""trial"",""time""
""focus"",""7"",""31398""
""focus"",""7"",""44347""
""focus"",""7"",""59075""
""focus"",""13"",""1077709""
""focus"",""19"",""1121553""
""focus"",""19"",""1131562""
""focus"",""19"",""1215679""
""focus"",""36"",""1325538""
""focus"",""36"",""1336855""
""focus"",""58"",""1436364""
","""event"",""trial"",""time""
""fullscreenenter"",""1"",""2098""
","""event"",""trial"",""time""
""fullscreenexit"",""7"",""24711""
","","","-1","","","23","15766","45","&#9826;","elianto","#f73b6a7A","-1","-1","1","0","[]","0","0","3","","","","","","","",""
"pit-trial","72","1533551","0.0-2.0-14.2-3.2","battery-v0.2","","""event"",""trial"",""time""
""fullscreenenter"",""1"",""2098""
""fullscreenexit"",""7"",""24711""
""blur"",""7"",""30246""
""focus"",""7"",""31398""
""blur"",""7"",""42758""
""focus"",""7"",""44347""
""blur"",""7"",""46296""
""focus"",""7"",""59075""
""blur"",""13"",""155146""
""focus"",""13"",""1077709""
""blur"",""18"",""1105570""
""focus"",""19"",""1121553""
""blur"",""19"",""1127378""
""focus"",""19"",""1131562""
""blur"",""19"",""1208815""
""focus"",""19"",""1215679""
""blur"",""36"",""1319943""
""focus"",""36"",""1325538""
""blur"",""36"",""1331845""
""focus"",""36"",""1336855""
""blur"",""58"",""1432744""
""focus"",""58"",""1436364""
""blur"",""60"",""1471233""
","""event"",""trial"",""time""
""blur"",""7"",""30246""
""blur"",""7"",""42758""
""blur"",""7"",""46296""
""blur"",""13"",""155146""
""blur"",""18"",""1105570""
""blur"",""19"",""1127378""
""blur"",""19"",""1208815""
""blur"",""36"",""1319943""
""blur"",""36"",""1331845""
""blur"",""58"",""1432744""
""blur"",""60"",""1471233""
","""event"",""trial"",""time""
""focus"",""7"",""31398""
""focus"",""7"",""44347""
""focus"",""7"",""59075""
""focus"",""13"",""1077709""
""focus"",""19"",""1121553""
""focus"",""19"",""1131562""
""focus"",""19"",""1215679""
""focus"",""36"",""1325538""
""focus"",""36"",""1336855""
""focus"",""58"",""1436364""
","""event"",""trial"",""time""
""fullscreenenter"",""1"",""2098""
","""event"",""trial"",""time""
""fullscreenexit"",""7"",""24711""
","","","-1","","","23","15766","45","&#9826;","elianto","#f73b6a7A","-1","-1","1","-10","[]","0","0","3","","","","","","","",""
"pit-trial","73","1538417","0.0-2.0-14.2-4.2","battery-v0.2","","""event"",""trial"",""time""
""fullscreenenter"",""1"",""2098""
""fullscreenexit"",""7"",""24711""
""blur"",""7"",""30246""
""focus"",""7"",""31398""
""blur"",""7"",""42758""
""focus"",""7"",""44347""
""blur"",""7"",""46296""
""focus"",""7"",""59075""
""blur"",""13"",""155146""
""focus"",""13"",""1077709""
""blur"",""18"",""1105570""
""focus"",""19"",""1121553""
""blur"",""19"",""1127378""
""focus"",""19"",""1131562""
""blur"",""19"",""1208815""
""focus"",""19"",""1215679""
""blur"",""36"",""1319943""
""focus"",""36"",""1325538""
""blur"",""36"",""1331845""
""focus"",""36"",""1336855""
""blur"",""58"",""1432744""
""focus"",""58"",""1436364""
""blur"",""60"",""1471233""
","""event"",""trial"",""time""
""blur"",""7"",""30246""
""blur"",""7"",""42758""
""blur"",""7"",""46296""
""blur"",""13"",""155146""
""blur"",""18"",""1105570""
""blur"",""19"",""1127378""
""blur"",""19"",""1208815""
""blur"",""36"",""1319943""
""blur"",""36"",""1331845""
""blur"",""58"",""1432744""
""blur"",""60"",""1471233""
","""event"",""trial"",""time""
""focus"",""7"",""31398""
""focus"",""7"",""44347""
""focus"",""7"",""59075""
""focus"",""13"",""1077709""
""focus"",""19"",""1121553""
""focus"",""19"",""1131562""
""focus"",""19"",""1215679""
""focus"",""36"",""1325538""
""focus"",""36"",""1336855""
