"trial_type","trial_index","time_elapsed","internal_node_id","task_version","subject_id","interactions","blur_events","focus_events","fullscreenenter_events","fullscreenexit_events","success","view_history","rt","responses","num_errors","age","subject","participantId","rune","rune_set","hex","correct","choice","accuracy","outcome","keys","total_keys","block","practice","value","sub","trial","stimulus","robot","valence","action","sham"
"pavlovia","0","7","0.0-0.0","battery-v0.2","","""event"",""trial"",""time""
""focus"",""0"",""0""
""fullscreenenter"",""1"",""1790""
","
","""event"",""trial"",""time""
""focus"",""0"",""0""
","""event"",""trial"",""time""
""fullscreenenter"",""1"",""1790""
","
","","","","","","","","","","","","","","","","","","","","","","","","","","",""
"fullscreen","1","2588","0.0-1.0","battery-v0.2","","""event"",""trial"",""time""
""focus"",""0"",""0""
""fullscreenenter"",""1"",""1790""
","
","""event"",""trial"",""time""
""focus"",""0"",""0""
","""event"",""trial"",""time""
""fullscreenenter"",""1"",""1790""
","
","true","","","","","","","","","","","","","","","","","","","","","","","","","",""
"pit-instructions","2","6180","0.0-2.0-0.0","battery-v0.2","","""event"",""trial"",""time""
""focus"",""0"",""0""
""fullscreenenter"",""1"",""1790""
","
","""event"",""trial"",""time""
""focus"",""0"",""0""
","""event"",""trial"",""time""
""fullscreenenter"",""1"",""1790""
","
","","[{""page_index"":0,""viewing_time"":3590}]","3590","","","","","","","","","","","","","","","","","","","","","","","",""
"pit-comprehension","3","8991","0.0-2.0-1.0-0.0","battery-v0.2","","""event"",""trial"",""time""
""focus"",""0"",""0""
""fullscreenenter"",""1"",""1790""
","
","""event"",""trial"",""time""
""focus"",""0"",""0""
","""event"",""trial"",""time""
""fullscreenenter"",""1"",""1790""
","
","","","2809","[""shark""]","0","21","10091","4863","","","","","","","","","","","","","","","","","","",""
"pit-instructions","4","10020","0.0-2.0-1.0-1.0","battery-v0.2","","""event"",""trial"",""time""
""focus"",""0"",""0""
""fullscreenenter"",""1"",""1790""
","
","""event"",""trial"",""time""
""focus"",""0"",""0""
","""event"",""trial"",""time""
""fullscreenenter"",""1"",""1790""
","
","","[{""page_index"":0,""viewing_time"":1025}]","1025","","","","","","","","","","","","","","","","","","","","","","","",""
"pit-comprehension","5","11859","0.0-2.0-2.0-0.0","battery-v0.2","","""event"",""trial"",""time""
""focus"",""0"",""0""
""fullscreenenter"",""1"",""1790""
","
","""event"",""trial"",""time""
""focus"",""0"",""0""
","""event"",""trial"",""time""
""fullscreenenter"",""1"",""1790""
","
","","","1836","[""tiger""]","0","21","10091","4863","","","","","","","","","","","","","","","","","","",""
"pit-instructions","6","12510","0.0-2.0-2.0-1.0","battery-v0.2","","""event"",""trial"",""time""
""focus"",""0"",""0""
""fullscreenenter"",""1"",""1790""
","
","""event"",""trial"",""time""
""focus"",""0"",""0""
","""event"",""trial"",""time""
""fullscreenenter"",""1"",""1790""
","
","","[{""page_index"":0,""viewing_time"":650}]","651","","","","","","","","","","","","","","","","","","","","","","","",""
"pit-instructions","7","104735","0.0-2.0-3.0","battery-v0.2","","""event"",""trial"",""time""
""focus"",""0"",""0""
""fullscreenenter"",""1"",""1790""
","
","""event"",""trial"",""time""
""focus"",""0"",""0""
","""event"",""trial"",""time""
""fullscreenenter"",""1"",""1790""
","
","","[{""page_index"":0,""viewing_time"":7627},{""page_index"":1,""viewing_time"":6133},{""page_index"":2,""viewing_time"":6827},{""page_index"":3,""viewing_time"":5298},{""page_index"":4,""viewing_time"":5499},{""page_index"":5,""viewing_time"":5464},{""page_index"":6,""viewing_time"":8051},{""page_index"":7,""viewing_time"":6518},{""page_index"":8,""viewing_time"":6242},{""page_index"":9,""viewing_time"":7516},{""page_index"":10,""viewing_time"":7847},{""page_index"":11,""viewing_time"":6983},{""page_index"":12,""viewing_time"":7020},{""page_index"":13,""viewing_time"":5198}]","92223","","","","","","","","","","","","","","","","","","","","","","","",""
"pit-trial","8","108228","0.0-2.0-4.0-0.0","battery-v0.2","","""event"",""trial"",""time""
""focus"",""0"",""0""
""fullscreenenter"",""1"",""1790""
","
","""event"",""trial"",""time""
""focus"",""0"",""0""
","""event"",""trial"",""time""
""fullscreenenter"",""1"",""1790""
","
","","","626","","","21","10091","4863","&#9784;","elianto","#FFFFF080"," "," ","1","&#10004","[1489]","1","0","0","","","","","","","",""
"pit-trial","9","111806","0.0-2.0-4.1-0.1","battery-v0.2","","""event"",""trial"",""time""
""focus"",""0"",""0""
""fullscreenenter"",""1"",""1790""
","
","""event"",""trial"",""time""
""focus"",""0"",""0""
","""event"",""trial"",""time""
""fullscreenenter"",""1"",""1790""
","
","","","713","","","21","10091","4863","&#9784;","elianto","#FFFFF080"," "," ","1","&#10004","[1576]","1","0","0","","","","","","","",""
"pit-trial","10","115222","0.0-2.0-4.2-0.2","battery-v0.2","","""event"",""trial"",""time""
""focus"",""0"",""0""
""fullscreenenter"",""1"",""1790""
","
","""event"",""trial"",""time""
""focus"",""0"",""0""
","""event"",""trial"",""time""
""fullscreenenter"",""1"",""1790""
","
","","","561","","","21","10091","4863","&#9784;","elianto","#FFFFF080"," "," ","1","&#10004","[1414]","1","0","0","","","","","","","",""
"pit-trial","11","118564","0.0-2.0-4.3-0.3","battery-v0.2","","""event"",""trial"",""time""
""focus"",""0"",""0""
""fullscreenenter"",""1"",""1790""
","
","""event"",""trial"",""time""
""focus"",""0"",""0""
","""event"",""trial"",""time""
""fullscreenenter"",""1"",""1790""
","
","","","489","","","21","10091","4863","&#9784;","elianto","#FFFFF080"," "," ","1","&#10004","[1339]","1","0","0","","","","","","","",""
"pit-trial","12","121939","0.0-2.0-4.4-0.4","battery-v0.2","","""event"",""trial"",""time""
""focus"",""0"",""0""
""fullscreenenter"",""1"",""1790""
","
","""event"",""trial"",""time""
""focus"",""0"",""0""
","""event"",""trial"",""time""
""fullscreenenter"",""1"",""1790""
","
","","","498","","","21","10091","4863","&#9784;","elianto","#FFFFF080"," "," ","1","&#10004","[1359]","1","0","0","","","","","","","",""
"pit-instructions","13","142332","0.0-2.0-5.0","battery-v0.2","","""event"",""trial"",""time""
""focus"",""0"",""0""
""fullscreenenter"",""1"",""1790""
","
","""event"",""trial"",""time""
""focus"",""0"",""0""
","""event"",""trial"",""time""
""fullscreenenter"",""1"",""1790""
","
","","[{""page_index"":0,""viewing_time"":4541},{""page_index"":1,""viewing_time"":5518},{""page_index"":2,""viewing_time"":4926},{""page_index"":3,""viewing_time"":5407}]","20392","","","","","","","","","","","","","","","","","","","","","","","",""
"pit-trial","14","147201","0.0-2.0-6.0-0.0","battery-v0.2","","""event"",""trial"",""time""
""focus"",""0"",""0""
""fullscreenenter"",""1"",""1790""
","
","""event"",""trial"",""time""
""focus"",""0"",""0""
","""event"",""trial"",""time""
""fullscreenenter"",""1"",""1790""
","
","","","-1","","","21","10091","4863","&#9854;","elianto","#FFFFF080","-1","-1","1","&#10004","[]","0","0","1","","","","","","","",""
"pit-trial","15","152067","0.0-2.0-6.1-0.1","battery-v0.2","","""event"",""trial"",""time""
""focus"",""0"",""0""
""fullscreenenter"",""1"",""1790""
","
","""event"",""trial"",""time""
""focus"",""0"",""0""
","""event"",""trial"",""time""
""fullscreenenter"",""1"",""1790""
","
","","","-1","","","21","10091","4863","&#9854;","elianto","#FFFFF080","-1","-1","1","&#10004","[]","0","0","1","","","","","","","",""
"pit-trial","16","156936","0.0-2.0-6.2-0.2","battery-v0.2","","""event"",""trial"",""time""
""focus"",""0"",""0""
""fullscreenenter"",""1"",""1790""
""blur"",""17"",""159735""
""focus"",""17"",""161354""
","""event"",""trial"",""time""
""blur"",""17"",""159735""
","""event"",""trial"",""time""
""focus"",""0"",""0""
""focus"",""17"",""161354""
","""event"",""trial"",""time""
""fullscreenenter"",""1"",""1790""
","
","","","-1","","","21","10091","4863","&#9854;","elianto","#FFFFF080","-1","-1","1","&#10004","[]","0","0","1","","","","","","","",""
"pit-trial","17","161807","0.0-2.0-6.3-0.3","battery-v0.2","","""event"",""trial"",""time""
""focus"",""0"",""0""
""fullscreenenter"",""1"",""1790""
""blur"",""17"",""159735""
""focus"",""17"",""161354""
","""event"",""trial"",""time""
""blur"",""17"",""159735""
","""event"",""trial"",""time""
""focus"",""0"",""0""
""focus"",""17"",""161354""
","""event"",""trial"",""time""
""fullscreenenter"",""1"",""1790""
","
","","","-1","","","21","10091","4863","&#9854;","elianto","#FFFFF080","-1","-1","1","&#10004","[]","0","0","1","","","","","","","",""
"pit-trial","18","166678","0.0-2.0-6.4-0.4","battery-v0.2","","""event"",""trial"",""time""
""focus"",""0"",""0""
""fullscreenenter"",""1"",""1790""
""blur"",""17"",""159735""
""focus"",""17"",""161354""
","""event"",""trial"",""time""
""blur"",""17"",""159735""
","""event"",""trial"",""time""
""focus"",""0"",""0""
""focus"",""17"",""161354""
","""event"",""trial"",""time""
""fullscreenenter"",""1"",""1790""
","
","","","-1","","","21","10091","4863","&#9854;","elianto","#FFFFF080","-1","-1","1","&#10004","[]","0","0","1","","","","","","","",""
"pit-instructions","19","292405","0.0-2.0-7.0","battery-v0.2","","""event"",""trial"",""time""
""focus"",""0"",""0""
""fullscreenenter"",""1"",""1790""
""blur"",""17"",""159735""
""focus"",""17"",""161354""
","""event"",""trial"",""time""
""blur"",""17"",""159735""
","""event"",""trial"",""time""
""focus"",""0"",""0""
""focus"",""17"",""161354""
","""event"",""trial"",""time""
""fullscreenenter"",""1"",""1790""
","
","","[{""page_index"":0,""viewing_time"":14375},{""page_index"":1,""viewing_time"":7123},{""page_index"":2,""viewing_time"":6345},{""page_index"":3,""viewing_time"":6389},{""page_index"":4,""viewing_time"":5499},{""page_index"":5,""viewing_time"":5371},{""page_index"":6,""viewing_time"":4296},{""page_index"":7,""viewing_time"":8803},{""page_index"":8,""viewing_time"":6809},{""page_index"":9,""viewing_time"":5904},{""page_index"":10,""viewing_time"":6695},{""page_index"":11,""viewing_time"":4895},{""page_index"":12,""viewing_time"":6972},{""page_index"":13,""viewing_time"":7393},{""page_index"":14,""viewing_time"":7320},{""page_index"":15,""viewing_time"":6744},{""page_index"":16,""viewing_time"":7636},{""page_index"":17,""viewing_time"":7156}]","125725","","","","","","","","","","","","","","","","","","","","","","","",""
"pit-trial","20","295750","0.0-2.0-8.0-0.0","battery-v0.2","","""event"",""trial"",""time""
""focus"",""0"",""0""
""fullscreenenter"",""1"",""1790""
""blur"",""17"",""159735""
""focus"",""17"",""161354""
","""event"",""trial"",""time""
""blur"",""17"",""159735""
","""event"",""trial"",""time""
""focus"",""0"",""0""
""focus"",""17"",""161354""
","""event"",""trial"",""time""
""fullscreenenter"",""1"",""1790""
","
","","","440","","","21","10091","4863","&#9776;","elianto","#3366ff99"," "," ","1","+10","[1336]","1","0","1","","","","","","","",""
"pit-trial","21","299071","0.0-2.0-8.0-1.0","battery-v0.2","","""event"",""trial"",""time""
""focus"",""0"",""0""
""fullscreenenter"",""1"",""1790""
""blur"",""17"",""159735""
""focus"",""17"",""161354""
","""event"",""trial"",""time""
""blur"",""17"",""159735""
","""event"",""trial"",""time""
""focus"",""0"",""0""
""focus"",""17"",""161354""
","""event"",""trial"",""time""
""fullscreenenter"",""1"",""1790""
","
","","","463","","","21","10091","4863","&#9776;","elianto","#3366ff99"," "," ","1","+10","[1314]","1","0","1","","","","","","","",""
"pit-trial","22","302280","0.0-2.0-8.0-2.0","battery-v0.2","","""event"",""trial"",""time""
""focus"",""0"",""0""
""fullscreenenter"",""1"",""1790""
""blur"",""17"",""159735""
""focus"",""17"",""161354""
","""event"",""trial"",""time""
""blur"",""17"",""159735""
","""event"",""trial"",""time""
""focus"",""0"",""0""
""focus"",""17"",""161354""
","""event"",""trial"",""time""
""fullscreenenter"",""1"",""1790""
","
","","","340","","","21","10091","4863","&#9776;","elianto","#3366ff99"," "," ","1","+10","[1205]","1","0","1","","","","","","","",""
"pit-trial","23","305491","0.0-2.0-8.0-3.0","battery-v0.2","","""event"",""trial"",""time""
""focus"",""0"",""0""
""fullscreenenter"",""1"",""1790""
""blur"",""17"",""159735""
""focus"",""17"",""161354""
","""event"",""trial"",""time""
""blur"",""17"",""159735""
","""event"",""trial"",""time""
""focus"",""0"",""0""
""focus"",""17"",""161354""
","""event"",""trial"",""time""
""fullscreenenter"",""1"",""1790""
","
","","","354","","","21","10091","4863","&#9776;","elianto","#3366ff99"," "," ","1","0","[1207]","1","0","1","","","","","","","",""
"pit-trial","24","308592","0.0-2.0-8.0-4.0","battery-v0.2","","""event"",""trial"",""time""
""focus"",""0"",""0""
""fullscreenenter"",""1"",""1790""
""blur"",""17"",""159735""
""focus"",""17"",""161354""
","""event"",""trial"",""time""
""blur"",""17"",""159735""
","""event"",""trial"",""time""
""focus"",""0"",""0""
""focus"",""17"",""161354""
","""event"",""trial"",""time""
""fullscreenenter"",""1"",""1790""
","
","","","233","","","21","10091","4863","&#9776;","elianto","#3366ff99"," "," ","1","+10","[1098]","1","0","1","","","","","","","",""
"pit-trial","25","311866","0.0-2.0-8.1-0.1","battery-v0.2","","""event"",""trial"",""time""
""focus"",""0"",""0""
""fullscreenenter"",""1"",""1790""
""blur"",""17"",""159735""
""focus"",""17"",""161354""
","""event"",""trial"",""time""
""blur"",""17"",""159735""
","""event"",""trial"",""time""
""focus"",""0"",""0""
""focus"",""17"",""161354""
","""event"",""trial"",""time""
""fullscreenenter"",""1"",""1790""
","
","","","413","","","21","10091","4863","&#9776;","elianto","#3366ff99"," "," ","1","+10","[1266]","1","0","1","","","","","","","",""
"pit-trial","26","315169","0.0-2.0-8.1-1.1","battery-v0.2","","""event"",""trial"",""time""
""focus"",""0"",""0""
""fullscreenenter"",""1"",""1790""
""blur"",""17"",""159735""
""focus"",""17"",""161354""
","""event"",""trial"",""time""
""blur"",""17"",""159735""
","""event"",""trial"",""time""
""focus"",""0"",""0""
""focus"",""17"",""161354""
","""event"",""trial"",""time""
""fullscreenenter"",""1"",""1790""
","
","","","444","","","21","10091","4863","&#9776;","elianto","#3366ff99"," "," ","1","+10","[1297]","1","0","1","","","","","","","",""
"pit-trial","27","318354","0.0-2.0-8.1-2.1","battery-v0.2","","""event"",""trial"",""time""
""focus"",""0"",""0""
""fullscreenenter"",""1"",""1790""
""blur"",""17"",""159735""
""focus"",""17"",""161354""
","""event"",""trial"",""time""
""blur"",""17"",""159735""
","""event"",""trial"",""time""
""focus"",""0"",""0""
""focus"",""17"",""161354""
","""event"",""trial"",""time""
""fullscreenenter"",""1"",""1790""
","
","","","318","","","21","10091","4863","&#9776;","elianto","#3366ff99"," "," ","1","+10","[1169]","1","0","1","","","","","","","",""
"pit-trial","28","321646","0.0-2.0-8.1-3.1","battery-v0.2","","""event"",""trial"",""time""
""focus"",""0"",""0""
""fullscreenenter"",""1"",""1790""
""blur"",""17"",""159735""
""focus"",""17"",""161354""
","""event"",""trial"",""time""
""blur"",""17"",""159735""
","""event"",""trial"",""time""
""focus"",""0"",""0""
""focus"",""17"",""161354""
","""event"",""trial"",""time""
""fullscreenenter"",""1"",""1790""
","
","","","391","","","21","10091","4863","&#9776;","elianto","#3366ff99"," "," ","1","0","[1290]","1","0","1","","","","","","","",""
"pit-trial","29","325429","0.0-2.0-8.1-4.1","battery-v0.2","","""event"",""trial"",""time""
""focus"",""0"",""0""
""fullscreenenter"",""1"",""1790""
""blur"",""17"",""159735""
""focus"",""17"",""161354""
","""event"",""trial"",""time""
""blur"",""17"",""159735""
","""event"",""trial"",""time""
""focus"",""0"",""0""
""focus"",""17"",""161354""
","""event"",""trial"",""time""
""fullscreenenter"",""1"",""1790""
","
","","","925","","","21","10091","4863","&#9776;","elianto","#3366ff99"," "," ","1","+10","[1778]","1","0","1","","","","","","","",""
"pit-trial","30","328752","0.0-2.0-8.2-0.2","battery-v0.2","","""event"",""trial"",""time""
""focus"",""0"",""0""
""fullscreenenter"",""1"",""1790""
""blur"",""17"",""159735""
""focus"",""17"",""161354""
","""event"",""trial"",""time""
""blur"",""17"",""159735""
","""event"",""trial"",""time""
""focus"",""0"",""0""
""focus"",""17"",""161354""
","""event"",""trial"",""time""
""fullscreenenter"",""1"",""1790""
","
","","","469","","","21","10091","4863","&#9776;","elianto","#3366ff99"," "," ","1","+10","[1320]","1","0","1","","","","","","","",""
"pit-trial","31","331944","0.0-2.0-8.2-1.2","battery-v0.2","","""event"",""trial"",""time""
""focus"",""0"",""0""
""fullscreenenter"",""1"",""1790""
""blur"",""17"",""159735""
""focus"",""17"",""161354""
","""event"",""trial"",""time""
""blur"",""17"",""159735""
","""event"",""trial"",""time""
""focus"",""0"",""0""
""focus"",""17"",""161354""
","""event"",""trial"",""time""
""fullscreenenter"",""1"",""1790""
","
","","","337","","","21","10091","4863","&#9776;","elianto","#3366ff99"," "," ","1","+10","[1191]","1","0","1","","","","","","","",""
"pit-trial","32","335126","0.0-2.0-8.2-2.2","battery-v0.2","","""event"",""trial"",""time""
""focus"",""0"",""0""
""fullscreenenter"",""1"",""1790""
""blur"",""17"",""159735""
""focus"",""17"",""161354""
","""event"",""trial"",""time""
""blur"",""17"",""159735""
","""event"",""trial"",""time""
""focus"",""0"",""0""
""focus"",""17"",""161354""
","""event"",""trial"",""time""
""fullscreenenter"",""1"",""1790""
","
","","","320","","","21","10091","4863","&#9776;","elianto","#3366ff99"," "," ","1","+10","[1173]","1","0","1","","","","","","","",""
"pit-trial","33","338301","0.0-2.0-8.2-3.2","battery-v0.2","","""event"",""trial"",""time""
""focus"",""0"",""0""
""fullscreenenter"",""1"",""1790""
""blur"",""17"",""159735""
""focus"",""17"",""161354""
","""event"",""trial"",""time""
""blur"",""17"",""159735""
","""event"",""trial"",""time""
""focus"",""0"",""0""
""focus"",""17"",""161354""
","""event"",""trial"",""time""
""fullscreenenter"",""1"",""1790""
","
","","","318","","","21","10091","4863","&#9776;","elianto","#3366ff99"," "," ","1","0","[1170]","1","0","1","","","","","","","",""
"pit-trial","34","341541","0.0-2.0-8.2-4.2","battery-v0.2","","""event"",""trial"",""time""
""focus"",""0"",""0""
""fullscreenenter"",""1"",""1790""
""blur"",""17"",""159735""
""focus"",""17"",""161354""
","""event"",""trial"",""time""
""blur"",""17"",""159735""
","""event"",""trial"",""time""
""focus"",""0"",""0""
""focus"",""17"",""161354""
","""event"",""trial"",""time""
""fullscreenenter"",""1"",""1790""
","
","","","361","","","21","10091","4863","&#9776;","elianto","#3366ff99"," "," ","1","+10","[1225]","1","0","1","","","","","","","",""
"call-function","35","341542","0.0-2.0-9.0","battery-v0.2","","""event"",""trial"",""time""
""focus"",""0"",""0""
""fullscreenenter"",""1"",""1790""
""blur"",""17"",""159735""
""focus"",""17"",""161354""
","""event"",""trial"",""time""
""blur"",""17"",""159735""
","""event"",""trial"",""time""
""focus"",""0"",""0""
""focus"",""17"",""161354""
","""event"",""trial"",""time""
""fullscreenenter"",""1"",""1790""
","
","","","","","","","","","","","","","","","","","","","","","","","","","","",""
"pit-instructions","36","380462","0.0-2.0-10.0","battery-v0.2","","""event"",""trial"",""time""
""focus"",""0"",""0""
""fullscreenenter"",""1"",""1790""
""blur"",""17"",""159735""
""focus"",""17"",""161354""
","""event"",""trial"",""time""
""blur"",""17"",""159735""
","""event"",""trial"",""time""
""focus"",""0"",""0""
""focus"",""17"",""161354""
","""event"",""trial"",""time""
""fullscreenenter"",""1"",""1790""
","
","","[{""page_index"":0,""viewing_time"":6038},{""page_index"":1,""viewing_time"":7375},{""page_index"":2,""viewing_time"":9086},{""page_index"":3,""viewing_time"":9096},{""page_index"":4,""viewing_time"":7326}]","38922","","","","","","","","","","","","","","","","","","","","","","","",""
"pit-trial","37","385346","0.0-2.0-11.0-0.0","battery-v0.2","","""event"",""trial"",""time""
""focus"",""0"",""0""
""fullscreenenter"",""1"",""1790""
""blur"",""17"",""159735""
""focus"",""17"",""161354""
""blur"",""38"",""386766""
","""event"",""trial"",""time""
""blur"",""17"",""159735""
""blur"",""38"",""386766""
","""event"",""trial"",""time""
""focus"",""0"",""0""
""focus"",""17"",""161354""
","""event"",""trial"",""time""
""fullscreenenter"",""1"",""1790""
","
","","","-1","","","21","10091","4863","&#9761;","elianto","#3366ff99","-1","-1","1","+10","[]","0","0","2","","","","","","","",""
"pit-trial","38","390222","0.0-2.0-11.0-1.0","battery-v0.2","","""event"",""trial"",""time""
""focus"",""0"",""0""
""fullscreenenter"",""1"",""1790""
""blur"",""17"",""159735""
""focus"",""17"",""161354""
""blur"",""38"",""386766""
","""event"",""trial"",""time""
""blur"",""17"",""159735""
""blur"",""38"",""386766""
","""event"",""trial"",""time""
""focus"",""0"",""0""
""focus"",""17"",""161354""
","""event"",""trial"",""time""
""fullscreenenter"",""1"",""1790""
","
","","","-1","","","21","10091","4863","&#9761;","elianto","#3366ff99","-1","-1","1","+10","[]","0","0","2","","","","","","","",""
"pit-trial","39","395086","0.0-2.0-11.0-2.0","battery-v0.2","","""event"",""trial"",""time""
""focus"",""0"",""0""
""fullscreenenter"",""1"",""1790""
""blur"",""17"",""159735""
""focus"",""17"",""161354""
""blur"",""38"",""386766""
","""event"",""trial"",""time""
""blur"",""17"",""159735""
""blur"",""38"",""386766""
","""event"",""trial"",""time""
""focus"",""0"",""0""
""focus"",""17"",""161354""
","""event"",""trial"",""time""
""fullscreenenter"",""1"",""1790""
","
","","","-1","","","21","10091","4863","&#9761;","elianto","#3366ff99","-1","-1","1","+10","[]","0","0","2","","","","","","","",""
"pit-trial","40","399948","0.0-2.0-11.0-3.0","battery-v0.2","","""event"",""trial"",""time""
""focus"",""0"",""0""
""fullscreenenter"",""1"",""1790""
""blur"",""17"",""159735""
""focus"",""17"",""161354""
""blur"",""38"",""386766""
","""event"",""trial"",""time""
""blur"",""17"",""159735""
""blur"",""38"",""386766""
","""event"",""trial"",""time""
""focus"",""0"",""0""
""focus"",""17"",""161354""
","""event"",""trial"",""time""
""fullscreenenter"",""1"",""1790""
","
","","","-1","","","21","10091","4863","&#9761;","elianto","#3366ff99","-1","-1","1","0","[]","0","0","2","","","","","","","",""
"pit-trial","41","404811","0.0-2.0-11.0-4.0","battery-v0.2","","""event"",""trial"",""time""
""focus"",""0"",""0""
""fullscreenenter"",""1"",""1790""
""blur"",""17"",""159735""
""focus"",""17"",""161354""
""blur"",""38"",""386766""
","""event"",""trial"",""time""
""blur"",""17"",""159735""
""blur"",""38"",""386766""
","""event"",""trial"",""time""
""focus"",""0"",""0""
""focus"",""17"",""161354""
","""event"",""trial"",""time""
""fullscreenenter"",""1"",""1790""
","
","","","-1","","","21","10091","4863","&#9761;","elianto","#3366ff99","-1","-1","1","+10","[]","0","0","2","","","","","","","",""
"pit-trial","42","409680","0.0-2.0-11.1-0.1","battery-v0.2","","""event"",""trial"",""time""
""focus"",""0"",""0""
""fullscreenenter"",""1"",""1790""
""blur"",""17"",""159735""
""focus"",""17"",""161354""
""blur"",""38"",""386766""
","""event"",""trial"",""time""
""blur"",""17"",""159735""
""blur"",""38"",""386766""
","""event"",""trial"",""time""
""focus"",""0"",""0""
""focus"",""17"",""161354""
","""event"",""trial"",""time""
""fullscreenenter"",""1"",""1790""
","
","","","-1","","","21","10091","4863","&#9761;","elianto","#3366ff99","-1","-1","1","+10","[]","0","0","2","","","","","","","",""
"pit-trial","43","414558","0.0-2.0-11.1-1.1","battery-v0.2","","""event"",""trial"",""time""
""focus"",""0"",""0""
""fullscreenenter"",""1"",""1790""
""blur"",""17"",""159735""
""focus"",""17"",""161354""
""blur"",""38"",""386766""
","""event"",""trial"",""time""
""blur"",""17"",""159735""
""blur"",""38"",""386766""
","""event"",""trial"",""time""
""focus"",""0"",""0""
""focus"",""17"",""161354""
","""event"",""trial"",""time""
""fullscreenenter"",""1"",""1790""
","
","","","-1","","","21","10091","4863","&#9761;","elianto","#3366ff99","-1","-1","1","+10","[]","0","0","2","","","","","","","",""
"pit-trial","44","419434","0.0-2.0-11.1-2.1","battery-v0.2","","""event"",""trial"",""time""
""focus"",""0"",""0""
""fullscreenenter"",""1"",""1790""
""blur"",""17"",""159735""
""focus"",""17"",""161354""
""blur"",""38"",""386766""
","""event"",""trial"",""time""
""blur"",""17"",""159735""
""blur"",""38"",""386766""
","""event"",""trial"",""time""
""focus"",""0"",""0""
""focus"",""17"",""161354""
","""event"",""trial"",""time""
""fullscreenenter"",""1"",""1790""
","
","","","-1","","","21","10091","4863","&#9761;","elianto","#3366ff99","-1","-1","1","+10","[]","0","0","2","","","","","","","",""
"pit-trial","45","424305","0.0-2.0-11.1-3.1","battery-v0.2","","""event"",""trial"",""time""
""focus"",""0"",""0""
""fullscreenenter"",""1"",""1790""
""blur"",""17"",""159735""
""focus"",""17"",""161354""
""blur"",""38"",""386766""
","""event"",""trial"",""time""
""blur"",""17"",""159735""
""blur"",""38"",""386766""
","""event"",""trial"",""time""
""focus"",""0"",""0""
""focus"",""17"",""161354""
","""event"",""trial"",""time""
""fullscreenenter"",""1"",""1790""
","
","","","-1","","","21","10091","4863","&#9761;","elianto","#3366ff99","-1","-1","1","0","[]","0","0","2","","","","","","","",""
"pit-trial","46","429163","0.0-2.0-11.1-4.1","battery-v0.2","","""event"",""trial"",""time""
""focus"",""0"",""0""
""fullscreenenter"",""1"",""1790""
""blur"",""17"",""159735""
""focus"",""17"",""161354""
""blur"",""38"",""386766""
""focus"",""47"",""429438""
","""event"",""trial"",""time""
""blur"",""17"",""159735""
""blur"",""38"",""386766""
","""event"",""trial"",""time""
""focus"",""0"",""0""
""focus"",""17"",""161354""
""focus"",""47"",""429438""
","""event"",""trial"",""time""
""fullscreenenter"",""1"",""1790""
","
","","","-1","","","21","10091","4863","&#9761;","elianto","#3366ff99","-1","-1","1","+10","[]","0","0","2","","","","","","","",""
"pit-trial","47","434038","0.0-2.0-11.2-0.2","battery-v0.2","","""event"",""trial"",""time""
""focus"",""0"",""0""
""fullscreenenter"",""1"",""1790""
""blur"",""17"",""159735""
""focus"",""17"",""161354""
""blur"",""38"",""386766""
""focus"",""47"",""429438""
","""event"",""trial"",""time""
""blur"",""17"",""159735""
""blur"",""38"",""386766""
","""event"",""trial"",""time""
""focus"",""0"",""0""
""focus"",""17"",""161354""
""focus"",""47"",""429438""
","""event"",""trial"",""time""
""fullscreenenter"",""1"",""1790""
","
","","","-1","","","21","10091","4863","&#9761;","elianto","#3366ff99","-1","-1","1","+10","[]","0","0","2","","","","","","","",""
"pit-trial","48","438906","0.0-2.0-11.2-1.2","battery-v0.2","","""event"",""trial"",""time""
""focus"",""0"",""0""
""fullscreenenter"",""1"",""1790""
""blur"",""17"",""159735""
""focus"",""17"",""161354""
""blur"",""38"",""386766""
""focus"",""47"",""429438""
","""event"",""trial"",""time""
""blur"",""17"",""159735""
""blur"",""38"",""386766""
","""event"",""trial"",""time""
""focus"",""0"",""0""
""focus"",""17"",""161354""
""focus"",""47"",""429438""
","""event"",""trial"",""time""
""fullscreenenter"",""1"",""1790""
","
","","","-1","","","21","10091","4863","&#9761;","elianto","#3366ff99","-1","-1","1","+10","[]","0","0","2","","","","","","","",""
"pit-trial","49","443771","0.0-2.0-11.2-2.2","battery-v0.2","","""event"",""trial"",""time""
""focus"",""0"",""0""
""fullscreenenter"",""1"",""1790""
""blur"",""17"",""159735""
""focus"",""17"",""161354""
""blur"",""38"",""386766""
""focus"",""47"",""429438""
","""event"",""trial"",""time""
""blur"",""17"",""159735""
""blur"",""38"",""386766""
","""event"",""trial"",""time""
""focus"",""0"",""0""
""focus"",""17"",""161354""
""focus"",""47"",""429438""
","""event"",""trial"",""time""
""fullscreenenter"",""1"",""1790""
","
","","","-1","","","21","10091","4863","&#9761;","elianto","#3366ff99","-1","-1","1","+10","[]","0","0","2","","","","","","","",""
"pit-trial","50","448647","0.0-2.0-11.2-3.2","battery-v0.2","","""event"",""trial"",""time""
""focus"",""0"",""0""
""fullscreenenter"",""1"",""1790""
""blur"",""17"",""159735""
""focus"",""17"",""161354""
""blur"",""38"",""386766""
""focus"",""47"",""429438""
","""event"",""trial"",""time""
""blur"",""17"",""159735""
""blur"",""38"",""386766""
","""event"",""trial"",""time""
""focus"",""0"",""0""
""focus"",""17"",""161354""
""focus"",""47"",""429438""
","""event"",""trial"",""time""
""fullscreenenter"",""1"",""1790""
","
","","","-1","","","21","10091","4863","&#9761;","elianto","#3366ff99","-1","-1","1","0","[]","0","0","2","","","","","","","",""
"pit-trial","51","453523","0.0-2.0-11.2-4.2","battery-v0.2","","""event"",""trial"",""time""
""focus"",""0"",""0""
""fullscreenenter"",""1"",""1790""
""blur"",""17"",""159735""
""focus"",""17"",""161354""
""blur"",""38"",""386766""
""focus"",""47"",""429438""
","""event"",""trial"",""time""
""blur"",""17"",""159735""
""blur"",""38"",""386766""
","""event"",""trial"",""time""
""focus"",""0"",""0""
""focus"",""17"",""161354""
""focus"",""47"",""429438""
","""event"",""trial"",""time""
""fullscreenenter"",""1"",""1790""
","
","","","-1","","","21","10091","4863","&#9761;","elianto","#3366ff99","-1","-1","1","+10","[]","0","0","2","","","","","","","",""
"pit-trial","52","458396","0.0-2.0-11.3-0.3","battery-v0.2","","""event"",""trial"",""time""
""focus"",""0"",""0""
""fullscreenenter"",""1"",""1790""
""blur"",""17"",""159735""
""focus"",""17"",""161354""
""blur"",""38"",""386766""
""focus"",""47"",""429438""
","""event"",""trial"",""time""
""blur"",""17"",""159735""
""blur"",""38"",""386766""
","""event"",""trial"",""time""
""focus"",""0"",""0""
""focus"",""17"",""161354""
""focus"",""47"",""429438""
","""event"",""trial"",""time""
""fullscreenenter"",""1"",""1790""
","
","","","-1","","","21","10091","4863","&#9761;","elianto","#3366ff99","-1","-1","1","+10","[]","0","0","2","","","","","","","",""
"pit-trial","53","463266","0.0-2.0-11.3-1.3","battery-v0.2","","""event"",""trial"",""time""
""focus"",""0"",""0""
""fullscreenenter"",""1"",""1790""
""blur"",""17"",""159735""
""focus"",""17"",""161354""
""blur"",""38"",""386766""
""focus"",""47"",""429438""
""blur"",""54"",""466316""
","""event"",""trial"",""time""
""blur"",""17"",""159735""
""blur"",""38"",""386766""
""blur"",""54"",""466316""
","""event"",""trial"",""time""
""focus"",""0"",""0""
""focus"",""17"",""161354""
""focus"",""47"",""429438""
","""event"",""trial"",""time""
""fullscreenenter"",""1"",""1790""
","
","","","-1","","","21","10091","4863","&#9761;","elianto","#3366ff99","-1","-1","1","+10","[]","0","0","2","","","","","","","",""
"pit-trial","54","468143","0.0-2.0-11.3-2.3","battery-v0.2","","""event"",""trial"",""time""
""focus"",""0"",""0""
""fullscreenenter"",""1"",""1790""
""blur"",""17"",""159735""
""focus"",""17"",""161354""
""blur"",""38"",""386766""
""focus"",""47"",""429438""
""blur"",""54"",""466316""
","""event"",""trial"",""time""
""blur"",""17"",""159735""
""blur"",""38"",""386766""
""blur"",""54"",""466316""
","""event"",""trial"",""time""
""focus"",""0"",""0""
""focus"",""17"",""161354""
""focus"",""47"",""429438""
","""event"",""trial"",""time""
""fullscreenenter"",""1"",""1790""
","
","","","-1","","","21","10091","4863","&#9761;","elianto","#3366ff99","-1","-1","1","+10","[]","0","0","2","","","","","","","",""
"pit-trial","55","473005","0.0-2.0-11.3-3.3","battery-v0.2","","""event"",""trial"",""time""
""focus"",""0"",""0""
""fullscreenenter"",""1"",""1790""
""blur"",""17"",""159735""
""focus"",""17"",""161354""
""blur"",""38"",""386766""
""focus"",""47"",""429438""
""blur"",""54"",""466316""
""focus"",""56"",""474646""
","""event"",""trial"",""time""
""blur"",""17"",""159735""
""blur"",""38"",""386766""
""blur"",""54"",""466316""
","""event"",""trial"",""time""
""focus"",""0"",""0""
""focus"",""17"",""161354""
""focus"",""47"",""429438""
""focus"",""56"",""474646""
","""event"",""trial"",""time""
""fullscreenenter"",""1"",""1790""
","
","","","-1","","","21","10091","4863","&#9761;","elianto","#3366ff99","-1","-1","1","0","[]","0","0","2","","","","","","","",""
"pit-trial","56","477867","0.0-2.0-11.3-4.3","battery-v0.2","","""event"",""trial"",""time""
""focus"",""0"",""0""
""fullscreenenter"",""1"",""1790""
""blur"",""17"",""159735""
""focus"",""17"",""161354""
""blur"",""38"",""386766""
""focus"",""47"",""429438""
""blur"",""54"",""466316""
""focus"",""56"",""474646""
","""event"",""trial"",""time""
""blur"",""17"",""159735""
""blur"",""38"",""386766""
""blur"",""54"",""466316""
","""event"",""trial"",""time""
""focus"",""0"",""0""
""focus"",""17"",""161354""
""focus"",""47"",""429438""
""focus"",""56"",""474646""
","""event"",""trial"",""time""
""fullscreenenter"",""1"",""1790""
","
","","","-1","","","21","10091","4863","&#9761;","elianto","#3366ff99","-1","-1","1","+10","[]","0","0","2","","","","","","","",""
"call-function","57","477868","0.0-2.0-12.0","battery-v0.2","","""event"",""trial"",""time""
""focus"",""0"",""0""
""fullscreenenter"",""1"",""1790""
""blur"",""17"",""159735""
""focus"",""17"",""161354""
""blur"",""38"",""386766""
""focus"",""47"",""429438""
""blur"",""54"",""466316""
""focus"",""56"",""474646""
""blur"",""58"",""479396""
""focus"",""58"",""480004""
","""event"",""trial"",""time""
""blur"",""17"",""159735""
""blur"",""38"",""386766""
""blur"",""54"",""466316""
""blur"",""58"",""479396""
","""event"",""trial"",""time""
""focus"",""0"",""0""
""focus"",""17"",""161354""
""focus"",""47"",""429438""
""focus"",""56"",""474646""
""focus"",""58"",""480004""
","""event"",""trial"",""time""
""fullscreenenter"",""1"",""1790""
","
","","","","","","","","","","","","","","","","","","","","","","","","","","",""
"pit-instructions","58","507871","0.0-2.0-13.0","battery-v0.2","","""event"",""trial"",""time""
""focus"",""0"",""0""
""fullscreenenter"",""1"",""1790""
""blur"",""17"",""159735""
""focus"",""17"",""161354""
""blur"",""38"",""386766""
""focus"",""47"",""429438""
""blur"",""54"",""466316""
""focus"",""56"",""474646""
""blur"",""58"",""479396""
""focus"",""58"",""480004""
","""event"",""trial"",""time""
""blur"",""17"",""159735""
""blur"",""38"",""386766""
""blur"",""54"",""466316""
""blur"",""58"",""479396""
","""event"",""trial"",""time""
""focus"",""0"",""0""
""focus"",""17"",""161354""
""focus"",""47"",""429438""
""focus"",""56"",""474646""
""focus"",""58"",""480004""
","""event"",""trial"",""time""
""fullscreenenter"",""1"",""1790""
","
","","[{""page_index"":0,""viewing_time"":5611},{""page_index"":1,""viewing_time"":6869},{""page_index"":2,""viewing_time"":3221},{""page_index"":3,""viewing_time"":10179},{""page_index"":4,""viewing_time"":4122}]","30002","","","","","","","","","","","","","","","","","","","","","","","",""
"pit-trial","59","511051","0.0-2.0-14.0-0.0","battery-v0.2","","""event"",""trial"",""time""
""focus"",""0"",""0""
""fullscreenenter"",""1"",""1790""
""blur"",""17"",""159735""
""focus"",""17"",""161354""
""blur"",""38"",""386766""
""focus"",""47"",""429438""
""blur"",""54"",""466316""
""focus"",""56"",""474646""
""blur"",""58"",""479396""
""focus"",""58"",""480004""
","""event"",""trial"",""time""
""blur"",""17"",""159735""
""blur"",""38"",""386766""
""blur"",""54"",""466316""
""blur"",""58"",""479396""
","""event"",""trial"",""time""
""focus"",""0"",""0""
""focus"",""17"",""161354""
""focus"",""47"",""429438""
""focus"",""56"",""474646""
""focus"",""58"",""480004""
","""event"",""trial"",""time""
""fullscreenenter"",""1"",""1790""
","
","","","320","","","21","10091","4863","&#9826;","elianto","#f73b6a7A","-1"," ","0","-10","[1175]","1","0","3","","","","","","","",""
"pit-trial","60","514075","0.0-2.0-14.0-1.0","battery-v0.2","","""event"",""trial"",""time""
""focus"",""0"",""0""
""fullscreenenter"",""1"",""1790""
""blur"",""17"",""159735""
""focus"",""17"",""161354""
""blur"",""38"",""386766""
""focus"",""47"",""429438""
""blur"",""54"",""466316""
""focus"",""56"",""474646""
""blur"",""58"",""479396""
""focus"",""58"",""480004""
""blur"",""61"",""514183""
","""event"",""trial"",""time""
""blur"",""17"",""159735""
""blur"",""38"",""386766""
""blur"",""54"",""466316""
""blur"",""58"",""479396""
""blur"",""61"",""514183""
","""event"",""trial"",""time""
""focus"",""0"",""0""
""focus"",""17"",""161354""
""focus"",""47"",""429438""
""focus"",""56"",""474646""
""focus"",""58"",""480004""
","""event"",""trial"",""time""
""fullscreenenter"",""1"",""1790""
","
","","","167","","","21","10091","4863","&#9826;","elianto","#f73b6a7A","-1"," ","0","-10","[1022]","1","0","3","","","","","","","",""
"pit-trial","61","518951","0.0-2.0-14.0-2.0","battery-v0.2","","""event"",""trial"",""time""
""focus"",""0"",""0""
""fullscreenenter"",""1"",""1790""
""blur"",""17"",""159735""
""focus"",""17"",""161354""
""blur"",""38"",""386766""
""focus"",""47"",""429438""
""blur"",""54"",""466316""
""focus"",""56"",""474646""
""blur"",""58"",""479396""
""focus"",""58"",""480004""
""blur"",""61"",""514183""
","""event"",""trial"",""time""
""blur"",""17"",""159735""
""blur"",""38"",""386766""
""blur"",""54"",""466316""
""blur"",""58"",""479396""
""blur"",""61"",""514183""
","""event"",""trial"",""time""
""focus"",""0"",""0""
""focus"",""17"",""161354""
""focus"",""47"",""429438""
""focus"",""56"",""474646""
""focus"",""58"",""480004""
","""event"",""trial"",""time""
""fullscreenenter"",""1"",""1790""
","
","","","-1","","","21","10091","4863","&#9826;","elianto","#f73b6a7A","-1","-1","1","0","[]","0","0","3","","","","","","","",""
"pit-trial","62","523823","0.0-2.0-14.0-3.0","battery-v0.2","","""event"",""trial"",""time""
""focus"",""0"",""0""
""fullscreenenter"",""1"",""1790""
""blur"",""17"",""159735""
""focus"",""17"",""161354""
""blur"",""38"",""386766""
""focus"",""47"",""429438""
""blur"",""54"",""466316""
""focus"",""56"",""474646""
""blur"",""58"",""479396""
""focus"",""58"",""480004""
""blur"",""61"",""514183""
","""event"",""trial"",""time""
""blur"",""17"",""159735""
""blur"",""38"",""386766""
""blur"",""54"",""466316""
""blur"",""58"",""479396""
""blur"",""61"",""514183""
","""event"",""trial"",""time""
""focus"",""0"",""0""
""focus"",""17"",""161354""
""focus"",""47"",""429438""
""focus"",""56"",""474646""
""focus"",""58"",""480004""
","""event"",""trial"",""time""
""fullscreenenter"",""1"",""1790""
","
","","","-1","","","21","10091","4863","&#9826;","elianto","#f73b6a7A","-1","-1","1","-10","[]","0","0","3","","","","","","","",""
"pit-trial","63","528685","0.0-2.0-14.0-4.0","battery-v0.2","","""event"",""trial"",""time""
""focus"",""0"",""0""
""fullscreenenter"",""1"",""1790""
""blur"",""17"",""159735""
""focus"",""17"",""161354""
""blur"",""38"",""386766""
""focus"",""47"",""429438""
""blur"",""54"",""466316""
""focus"",""56"",""474646""
""blur"",""58"",""479396""
""focus"",""58"",""480004""
""blur"",""61"",""514183""
","""event"",""trial"",""time""
""blur"",""17"",""159735""
""blur"",""38"",""386766""
""blur"",""54"",""466316""
""blur"",""58"",""479396""
""blur"",""61"",""514183""
","""event"",""trial"",""time""
""focus"",""0"",""0""
""focus"",""17"",""161354""
""focus"",""47"",""429438""
""focus"",""56"",""474646""
""focus"",""58"",""480004""
","""event"",""trial"",""time""
""fullscreenenter"",""1"",""1790""
","
","","","-1","","","21","10091","4863","&#9826;","elianto","#f73b6a7A","-1","-1","1","0","[]","0","0","3","","","","","","","",""
"pit-trial","64","533562","0.0-2.0-14.1-0.1","battery-v0.2","","""event"",""trial"",""time""
""focus"",""0"",""0""
""fullscreenenter"",""1"",""1790""
""blur"",""17"",""159735""
""focus"",""17"",""161354""
""blur"",""38"",""386766""
""focus"",""47"",""429438""
""blur"",""54"",""466316""
""focus"",""56"",""474646""
""blur"",""58"",""479396""
""focus"",""58"",""480004""
""blur"",""61"",""514183""
","""event"",""trial"",""time""
""blur"",""17"",""159735""
""blur"",""38"",""386766""
""blur"",""54"",""466316""
""blur"",""58"",""479396""
""blur"",""61"",""514183""
","""event"",""trial"",""time""
""focus"",""0"",""0""
""focus"",""17"",""161354""
""focus"",""47"",""429438""
""focus"",""56"",""474646""
""focus"",""58"",""480004""
","""event"",""trial"",""time""
""fullscreenenter"",""1"",""1790""
","
","","","-1","","","21","10091","4863","&#9826;","elianto","#f73b6a7A","-1","-1","1","0","[]","0","0","3","","","","","","","",""
"pit-trial","65","538426","0.0-2.0-14.1-1.1","battery-v0.2","","""event"",""trial"",""time""
""focus"",""0"",""0""
""fullscreenenter"",""1"",""1790""
""blur"",""17"",""159735""
""focus"",""17"",""161354""
""blur"",""38"",""386766""
""focus"",""47"",""429438""
""blur"",""54"",""466316""
""focus"",""56"",""474646""
""blur"",""58"",""479396""
""focus"",""58"",""480004""
""blur"",""61"",""514183""
","""event"",""trial"",""time""
""blur"",""17"",""159735""
""blur"",""38"",""386766""
""blur"",""54"",""466316""
""blur"",""58"",""479396""
""blur"",""61"",""514183""
","""event"",""trial"",""time""
""focus"",""0"",""0""
""focus"",""17"",""161354""
""focus"",""47"",""429438""
""focus"",""56"",""474646""
""focus"",""58"",""480004""
","""event"",""trial"",""time""
""fullscreenenter"",""1"",""1790""
","
","","","-1","","","21","10091","4863","&#9826;","elianto","#f73b6a7A","-1","-1","1","0","[]","0","0","3","","","","","","","",""
"pit-trial","66","543302","0.0-2.0-14.1-2.1","battery-v0.2","","""event"",""trial"",""time""
""focus"",""0"",""0""
""fullscreenenter"",""1"",""1790""
""blur"",""17"",""159735""
""focus"",""17"",""161354""
""blur"",""38"",""386766""
""focus"",""47"",""429438""
""blur"",""54"",""466316""
""focus"",""56"",""474646""
""blur"",""58"",""479396""
""focus"",""58"",""480004""
""blur"",""61"",""514183""
","""event"",""trial"",""time""
""blur"",""17"",""159735""
""blur"",""38"",""386766""
""blur"",""54"",""466316""
""blur"",""58"",""479396""
""blur"",""61"",""514183""
","""event"",""trial"",""time""
""focus"",""0"",""0""
""focus"",""17"",""161354""
""focus"",""47"",""429438""
""focus"",""56"",""474646""
""focus"",""58"",""480004""
","""event"",""trial"",""time""
""fullscreenenter"",""1"",""1790""
","
","","","-1","","","21","10091","4863","&#9826;","elianto","#f73b6a7A","-1","-1","1","0","[]","0","0","3","","","","","","","",""
"pit-trial","67","548168","0.0-2.0-14.1-3.1","battery-v0.2","","""event"",""trial"",""time""
""focus"",""0"",""0""
""fullscreenenter"",""1"",""1790""
""blur"",""17"",""159735""
""focus"",""17"",""161354""
""blur"",""38"",""386766""
""focus"",""47"",""429438""
""blur"",""54"",""466316""
""focus"",""56"",""474646""
""blur"",""58"",""479396""
""focus"",""58"",""480004""
""blur"",""61"",""514183""
","""event"",""trial"",""time""
""blur"",""17"",""159735""
""blur"",""38"",""386766""
""blur"",""54"",""466316""
""blur"",""58"",""479396""
""blur"",""61"",""514183""
","""event"",""trial"",""time""
""focus"",""0"",""0""
""focus"",""17"",""161354""
""focus"",""47"",""429438""
""focus"",""56"",""474646""
""focus"",""58"",""480004""
","""event"",""trial"",""time""
""fullscreenenter"",""1"",""1790""
","
","","","-1","","","21","10091","4863","&#9826;","elianto","#f73b6a7A","-1","-1","1","-10","[]","0","0","3","","","","","","","",""
"pit-trial","68","553024","0.0-2.0-14.1-4.1","battery-v0.2","","""event"",""trial"",""time""
""focus"",""0"",""0""
""fullscreenenter"",""1"",""1790""
""blur"",""17"",""159735""
""focus"",""17"",""161354""
""blur"",""38"",""386766""
""focus"",""47"",""429438""
""blur"",""54"",""466316""
""focus"",""56"",""474646""
""blur"",""58"",""479396""
""focus"",""58"",""480004""
""blur"",""61"",""514183""
","""event"",""trial"",""time""
""blur"",""17"",""159735""
""blur"",""38"",""386766""
""blur"",""54"",""466316""
""blur"",""58"",""479396""
""blur"",""61"",""514183""
","""event"",""trial"",""time""
""focus"",""0"",""0""
""focus"",""17"",""161354""
""focus"",""47"",""429438""
""focus"",""56"",""474646""
""focus"",""58"",""480004""
","""event"",""trial"",""time""
""fullscreenenter"",""1"",""1790""
","
","","","-1","","","21","10091","4863","&#9826;","elianto","#f73b6a7A","-1","-1","1","0","[]","0","0","3","","","","","","","",""
"pit-trial","69","557897","0.0-2.0-14.2-0.2","battery-v0.2","","""event"",""trial"",""time""
""focus"",""0"",""0""
""fullscreenenter"",""1"",""1790""
""blur"",""17"",""159735""
""focus"",""17"",""161354""
""blur"",""38"",""386766""
""focus"",""47"",""429438""
""blur"",""54"",""466316""
""focus"",""56"",""474646""
""blur"",""58"",""479396""
""focus"",""58"",""480004""
""blur"",""61"",""514183""
","""event"",""trial"",""time""
""blur"",""17"",""159735""
""blur"",""38"",""386766""
""blur"",""54"",""466316""
""blur"",""58"",""479396""
""blur"",""61"",""514183""
","""event"",""trial"",""time""
""focus"",""0"",""0""
""focus"",""17"",""161354""
""focus"",""47"",""429438""
""focus"",""56"",""474646""
""focus"",""58"",""480004""
","""event"",""trial"",""time""
""fullscreenenter"",""1"",""1790""
","
","","","-1","","","21","10091","4863","&#9826;","elianto","#f73b6a7A","-1","-1","1","0","[]","0","0","3","","","","","","","",""
"pit-trial","70","562765","0.0-2.0-14.2-1.2","battery-v0.2","","""event"",""trial"",""time""
""focus"",""0"",""0""
""fullscreenenter"",""1"",""1790""
""blur"",""17"",""159735""
""focus"",""17"",""161354""
""blur"",""38"",""386766""
""focus"",""47"",""429438""
""blur"",""54"",""466316""
""focus"",""56"",""474646""
""blur"",""58"",""479396""
""focus"",""58"",""480004""
""blur"",""61"",""514183""
","""event"",""trial"",""time""
""blur"",""17"",""159735""
""blur"",""38"",""386766""
""blur"",""54"",""466316""
""blur"",""58"",""479396""
""blur"",""61"",""514183""
","""event"",""trial"",""time""
""focus"",""0"",""0""
""focus"",""17"",""161354""
""focus"",""47"",""429438""
""focus"",""56"",""474646""
""focus"",""58"",""480004""
","""event"",""trial"",""time""
""fullscreenenter"",""1"",""1790""
","
","","","-1","","","21","10091","4863","&#9826;","elianto","#f73b6a7A","-1","-1","1","0","[]","0","0","3","","","","","","","",""
"pit-trial","71","567632","0.0-2.0-14.2-2.2","battery-v0.2","","""event"",""trial"",""time""
""focus"",""0"",""0""
""fullscreenenter"",""1"",""1790""
""blur"",""17"",""159735""
""focus"",""17"",""161354""
""blur"",""38"",""386766""
""focus"",""47"",""429438""
""blur"",""54"",""466316""
""focus"",""56"",""474646""
""blur"",""58"",""479396""
""focus"",""58"",""480004""
""blur"",""61"",""514183""
","""event"",""trial"",""time""
""blur"",""17"",""159735""
""blur"",""38"",""386766""
""blur"",""54"",""466316""
""blur"",""58"",""479396""
""blur"",""61"",""514183""
","""event"",""trial"",""time""
""focus"",""0"",""0""
""focus"",""17"",""161354""
""focus"",""47"",""429438""
""focus"",""56"",""474646""
""focus"",""58"",""480004""
","""event"",""trial"",""time""
""fullscreenenter"",""1"",""1790""
","
","","","-1","","","21","10091","4863","&#9826;","elianto","#f73b6a7A","-1","-1","1","0","[]","0","0","3","","","","","","","",""
"pit-trial","72","572506","0.0-2.0-14.2-3.2","battery-v0.2","","""event"",""trial"",""time""
""focus"",""0"",""0""
""fullscreenenter"",""1"",""1790""
""blur"",""17"",""159735""
""focus"",""17"",""161354""
""blur"",""38"",""386766""
""focus"",""47"",""429438""
""blur"",""54"",""466316""
""focus"",""56"",""474646""
""blur"",""58"",""479396""
""focus"",""58"",""480004""
""blur"",""61"",""514183""
","""event"",""trial"",""time""
""blur"",""17"",""159735""
""blur"",""38"",""386766""
""blur"",""54"",""466316""
""blur"",""58"",""479396""
""blur"",""61"",""514183""
","""event"",""trial"",""time""
""focus"",""0"",""0""
""focus"",""17"",""161354""
""focus"",""47"",""429438""
""focus"",""56"",""474646""
""focus"",""58"",""480004""
","""event"",""trial"",""time""
""fullscreenenter"",""1"",""1790""
","
","","","-1","","","21","10091","4863","&#9826;","elianto","#f73b6a7A","-1","-1","1","-10","[]","0","0","3","","","","","","","",""
"pit-trial","73","577369","0.0-2.0-14.2-4.2","battery-v0.2","","""event"",""trial"",""time""
""focus"",""0"",""0""
""fullscreenenter"",""1"",""1790""
""blur"",""17"",""159735""
""focus"",""17"",""161354""
""blur"",""38"",""386766""
""focus"",""47"",""429438""
""blur"",""54"",""466316""
""focus"",""56"",""474646""
""blur"",""58"",""479396""
""focus"",""58"",""480004""
""blur"",""61"",""514183""
","""event"",""trial"",""time""
""blur"",""17"",""159735""
""blur"",""38"",""386766""
""blur"",""54"",""466316""
""blur"",""58"",""479396""
""blur"",""61"",""514183""
","""event"",""trial"",""time""
""focus"",""0"",""0""
""focus"",""17"",""161354""
""focus"",""47"",""429438""
""focus"",""56"",""474646""
""focus"",""58"",""480004""
","""event"",""trial"",""time""
""fullscreenenter"",""1"",""1790""
","
","","","-1","","","21","10091","4863","&#9826;","elianto","#f73b6a7A","-1","-1","1","0","[]","0","0","3","","","","","","","",""
"pit-trial","74","582236","0.0-2.0-14.3-0.3","battery-v0.2","","""event"",""trial"",""time""
""focus"",""0"",""0""
""fullscreenenter"",""1"",""1790""
""blur"",""17"",""159735""
""focus"",""17"",""161354""
""blur"",""38"",""386766""
""focus"",""47"",""429438""
""blur"",""54"",""466316""
""focus"",""56"",""474646""
""blur"",""58"",""479396""
""focus"",""58"",""480004""
""blur"",""61"",""514183""
","""event"",""trial"",""time""
""blur"",""17"",""159735""
""blur"",""38"",""386766""
""blur"",""54"",""466316""
""blur"",""58"",""479396""
""blur"",""61"",""514183""
","""event"",""trial"",""time""
""focus"",""0"",""0""
""focus"",""17"",""161354""
""focus"",""47"",""429438""
""focus"",""56"",""474646""
""focus"",""58"",""480004""
","""event"",""trial"",""time""
""fullscreenenter"",""1"",""1790""
","
","","","-1","","","21","10091","4863","&#9826;","elianto","#f73b6a7A","-1","-1","1","0","[]","0","0","3","","","","","","","",""
"pit-trial","75","587114","0.0-2.0-14.3-1.3","battery-v0.2","","""event"",""trial"",""time""
""focus"",""0"",""0""
""fullscreenenter"",""1"",""1790""
""blur"",""17"",""159735""
""focus"",""17"",""161354""
""blur"",""38"",""386766""
""focus"",""47"",""429438""
""blur"",""54"",""466316""
""focus"",""56"",""474646""
""blur"",""58"",""479396""
""focus"",""58"",""480004""
""blur"",""61"",""514183""
","""event"",""trial"",""time""
""blur"",""17"",""159735""
""blur"",""38"",""386766""
""blur"",""54"",""466316""
""blur"",""58"",""479396""
""blur"",""61"",""514183""
","""event"",""trial"",""time""
""focus"",""0"",""0""
""focus"",""17"",""161354""
""focus"",""47"",""429438""
""focus"",""56"",""474646""
""focus"",""58"",""480004""
","""event"",""trial"",""time""
""fullscreenenter"",""1"",""1790""
","
","","","-1","","","21","10091","4863","&#9826;","elianto","#f73b6a7A","-1","-1","1","0","[]","0","0","3","","","","","","","",""
"pit-trial","76","591975","0.0-2.0-14.3-2.3","battery-v0.2","","""event"",""trial"",""time""
""focus"",""0"",""0""
""fullscreenenter"",""1"",""1790""
""blur"",""17"",""159735""
""focus"",""17"",""161354""
""blur"",""38"",""386766""
""focus"",""47"",""429438""
""blur"",""54"",""466316""
""focus"",""56"",""474646""
""blur"",""58"",""479396""
""focus"",""58"",""480004""
""blur"",""61"",""514183""
","""event"",""trial"",""time""
""blur"",""17"",""159735""
""blur"",""38"",""386766""
""blur"",""54"",""466316""
""blur"",""58"",""479396""
""blur"",""61"",""514183""
","""event"",""trial"",""time""
""focus"",""0"",""0""
""focus"",""17"",""161354""
""focus"",""47"",""429438""
""focus"",""56"",""474646""
""focus"",""58"",""480004""
","""event"",""trial"",""time""
""fullscreenenter"",""1"",""1790""
","
","","","-1","","","21","10091","4863","&#9826;","elianto","#f73b6a7A","-1","-1","1","0","[]","0","0","3","","","","","","","",""
"pit-trial","77","596839","0.0-2.0-14.3-3.3","battery-v0.2","","""event"",""trial"",""time""
""focus"",""0"",""0""
""fullscreenenter"",""1"",""1790""
""blur"",""17"",""159735""
""focus"",""17"",""161354""
""blur"",""38"",""386766""
""focus"",""47"",""429438""
""blur"",""54"",""466316""
""focus"",""56"",""474646""
""blur"",""58"",""479396""
""focus"",""58"",""480004""
""blur"",""61"",""514183""
","""event"",""trial"",""time""
""blur"",""17"",""159735""
""blur"",""38"",""386766""
""blur"",""54"",""466316""
""blur"",""58"",""479396""
""blur"",""61"",""514183""
","""event"",""trial"",""time""
""focus"",""0"",""0""
""focus"",""17"",""161354""
""focus"",""47"",""429438""
""focus"",""56"",""474646""
""focus"",""58"",""480004""
","""event"",""trial"",""time""
""fullscreenenter"",""1"",""1790""
","
","","","-1","","","21","10091","4863","&#9826;","elianto","#f73b6a7A","-1","-1","1","-10","[]","0","0","3","","","","","","","",""
"pit-trial","78","601703","0.0-2.0-14.3-4.3","battery-v0.2","","""event"",""trial"",""time""
""focus"",""0"",""0""
""fullscreenenter"",""1"",""1790""
""blur"",""17"",""159735""
""focus"",""17"",""161354""
""blur"",""38"",""386766""
""focus"",""47"",""429438""
""blur"",""54"",""466316""
""focus"",""56"",""474646""
""blur"",""58"",""479396""
""focus"",""58"",""480004""
""blur"",""61"",""514183""
","""event"",""trial"",""time""
""blur"",""17"",""159735""
""blur"",""38"",""386766""
""blur"",""54"",""466316""
""blur"",""58"",""479396""
""blur"",""61"",""514183""
","""event"",""trial"",""time""
""focus"",""0"",""0""
""focus"",""17"",""161354""
""focus"",""47"",""429438""
""focus"",""56"",""474646""
""focus"",""58"",""480004""
","""event"",""trial"",""time""
""fullscreenenter"",""1"",""1790""
","
","","","-1","","","21","10091","4863","&#9826;","elianto","#f73b6a7A","-1","-1","1","0","[]","0","0","3","","","","","","","",""
"call-function","79","601703","0.0-2.0-15.0","battery-v0.2","","""event"",""trial"",""time""
""focus"",""0"",""0""
""fullscreenenter"",""1"",""1790""
""blur"",""17"",""159735""
""focus"",""17"",""161354""
""blur"",""38"",""386766""
""focus"",""47"",""429438""
""blur"",""54"",""466316""
""focus"",""56"",""474646""
""blur"",""58"",""479396""
""focus"",""58"",""480004""
""blur"",""61"",""514183""
""focus"",""80"",""609268""
","""event"",""trial"",""time""
""blur"",""17"",""159735""
""blur"",""38"",""386766""
""blur"",""54"",""466316""
""blur"",""58"",""479396""
""blur"",""61"",""514183""
","""event"",""trial"",""time""
""focus"",""0"",""0""
""focus"",""17"",""161354""
""focus"",""47"",""429438""
""focus"",""56"",""474646""
""focus"",""58"",""480004""
""focus"",""80"",""609268""
","""event"",""trial"",""time""
""fullscreenenter"",""1"",""1790""
","
","","","","","","","","","","","","","","","","","","","","","","","","","","",""
"pit-instructions","80","628012","0.0-2.0-16.0","battery-v0.2","","""event"",""trial"",""time""
""focus"",""0"",""0""
""fullscreenenter"",""1"",""1790""
""blur"",""17"",""159735""
""focus"",""17"",""161354""
""blur"",""38"",""386766""
""focus"",""47"",""429438""
""blur"",""54"",""466316""
""focus"",""56"",""474646""
""blur"",""58"",""479396""
""focus"",""58"",""480004""
""blur"",""61"",""514183""
""focus"",""80"",""609268""
","""event"",""trial"",""time""
""blur"",""17"",""159735""
""blur"",""38"",""386766""
""blur"",""54"",""466316""
""blur"",""58"",""479396""
""blur"",""61"",""514183""
","""event"",""trial"",""time""
""focus"",""0"",""0""
""focus"",""17"",""161354""
""focus"",""47"",""429438""
""focus"",""56"",""474646""
""focus"",""58"",""480004""
""focus"",""80"",""609268""
","""event"",""trial"",""time""
""fullscreenenter"",""1"",""1790""
","
","","[{""page_index"":0,""viewing_time"":9302},{""page_index"":1,""viewing_time"":8139},{""page_index"":2,""viewing_time"":4064},{""page_index"":3,""viewing_time"":4803}]","26308","","","","","","","","","","","","","","","","","","","","","","","",""
"pit-trial","81","631465","0.0-2.0-17.0-0.0","battery-v0.2","","""event"",""trial"",""time""
""focus"",""0"",""0""
""fullscreenenter"",""1"",""1790""
""blur"",""17"",""159735""
""focus"",""17"",""161354""
""blur"",""38"",""386766""
""focus"",""47"",""429438""
""blur"",""54"",""466316""
""focus"",""56"",""474646""
""blur"",""58"",""479396""
""focus"",""58"",""480004""
""blur"",""61"",""514183""
""focus"",""80"",""609268""
","""event"",""trial"",""time""
""blur"",""17"",""159735""
""blur"",""38"",""386766""
""blur"",""54"",""466316""
""blur"",""58"",""479396""
""blur"",""61"",""514183""
","""event"",""trial"",""time""
""focus"",""0"",""0""
""focus"",""17"",""161354""
""focus"",""47"",""429438""
""focus"",""56"",""474646""
""focus"",""58"",""480004""
""focus"",""80"",""609268""
","""event"",""trial"",""time""
""fullscreenenter"",""1"",""1790""
","
","","","579","","","21","10091","4863","&#9789;","elianto","#f73b6a7A"," "," ","1","0","[1438]","1","0","4","","","","","","","",""
"pit-trial","82","634628","0.0-2.0-17.0-1.0","battery-v0.2","","""event"",""trial"",""time""
""focus"",""0"",""0""
""fullscreenenter"",""1"",""1790""
""blur"",""17"",""159735""
""focus"",""17"",""161354""
""blur"",""38"",""386766""
""focus"",""47"",""429438""
""blur"",""54"",""466316""
""focus"",""56"",""474646""
""blur"",""58"",""479396""
""focus"",""58"",""480004""
""blur"",""61"",""514183""
""focus"",""80"",""609268""
","""event"",""trial"",""time""
""blur"",""17"",""159735""
""blur"",""38"",""386766""
""blur"",""54"",""466316""
""blur"",""58"",""479396""
""blur"",""61"",""514183""
","""event"",""trial"",""time""
""focus"",""0"",""0""
""focus"",""17"",""161354""
""focus"",""47"",""429438""
""focus"",""56"",""474646""
""focus"",""58"",""480004""
""focus"",""80"",""609268""
","""event"",""trial"",""time""
""fullscreenenter"",""1"",""1790""
","
","","","307","","","21","10091","4863","&#9789;","elianto","#f73b6a7A"," "," ","1","0","[1159]","1","0","4","","","","","","","",""
"pit-trial","83","637904","0.0-2.0-17.0-2.0","battery-v0.2","","""event"",""trial"",""time""
""focus"",""0"",""0""
""fullscreenenter"",""1"",""1790""
""blur"",""17"",""159735""
""focus"",""17"",""161354""
""blur"",""38"",""386766""
""focus"",""47"",""429438""
""blur"",""54"",""466316""
""focus"",""56"",""474646""
""blur"",""58"",""479396""
""focus"",""58"",""480004""
""blur"",""61"",""514183""
""focus"",""80"",""609268""
""blur"",""84"",""639842""
""focus"",""84"",""640214""
","""event"",""trial"",""time""
""blur"",""17"",""159735""
""blur"",""38"",""386766""
""blur"",""54"",""466316""
""blur"",""58"",""479396""
""blur"",""61"",""514183""
""blur"",""84"",""639842""
","""event"",""trial"",""time""
""focus"",""0"",""0""
""focus"",""17"",""161354""
""focus"",""47"",""429438""
""focus"",""56"",""474646""
""focus"",""58"",""480004""
""focus"",""80"",""609268""
""focus"",""84"",""640214""
","""event"",""trial"",""time""
""fullscreenenter"",""1"",""1790""
","
","","","408","","","21","10091","4863","&#9789;","elianto","#f73b6a7A"," "," ","1","0","[1264]","1","0","4","","","","","","","",""
"pit-trial","84","641041","0.0-2.0-17.0-3.0","battery-v0.2","","""event"",""trial"",""time""
""focus"",""0"",""0""
""fullscreenenter"",""1"",""1790""
""blur"",""17"",""159735""
""focus"",""17"",""161354""
""blur"",""38"",""386766""
""focus"",""47"",""429438""
""blur"",""54"",""466316""
""focus"",""56"",""474646""
""blur"",""58"",""479396""
""focus"",""58"",""480004""
""blur"",""61"",""514183""
""focus"",""80"",""609268""
""blur"",""84"",""639842""
""focus"",""84"",""640214""
","""event"",""trial"",""time""
""blur"",""17"",""159735""
""blur"",""38"",""386766""
""blur"",""54"",""466316""
""blur"",""58"",""479396""
""blur"",""61"",""514183""
""blur"",""84"",""639842""
","""event"",""trial"",""time""
""focus"",""0"",""0""
""focus"",""17"",""161354""
""focus"",""47"",""429438""
""focus"",""56"",""474646""
""focus"",""58"",""480004""
""focus"",""80"",""609268""
""focus"",""84"",""640214""
","""event"",""trial"",""time""
""fullscreenenter"",""1"",""1790""
","
","","","274","","","21","10091","4863","&#9789;","elianto","#f73b6a7A"," "," ","1","-10","[1128]","1","0","4","","","","","","","",""
"pit-trial","85","644126","0.0-2.0-17.0-4.0","battery-v0.2","","""event"",""trial"",""time""
""focus"",""0"",""0""
""fullscreenenter"",""1"",""1790""
""blur"",""17"",""159735""
""focus"",""17"",""161354""
""blur"",""38"",""386766""
""focus"",""47"",""429438""
""blur"",""54"",""466316""
""focus"",""56"",""474646""
""blur"",""58"",""479396""
""focus"",""58"",""480004""
""blur"",""61"",""514183""
""focus"",""80"",""609268""
""blur"",""84"",""639842""
""focus"",""84"",""640214""
","""event"",""trial"",""time""
""blur"",""17"",""159735""
""blur"",""38"",""386766""
""blur"",""54"",""466316""
""blur"",""58"",""479396""
""blur"",""61"",""514183""
""blur"",""84"",""639842""
","""event"",""trial"",""time""
""focus"",""0"",""0""
""focus"",""17"",""161354""
""focus"",""47"",""429438""
""focus"",""56"",""474646""
""focus"",""58"",""480004""
""focus"",""80"",""609268""
""focus"",""84"",""640214""
","""event"",""trial"",""time""
""fullscreenenter"",""1"",""1790""
","
","","","222","","","21","10091","4863","&#9789;","elianto","#f73b6a7A"," "," ","1","0","[1074]","1","0","4","","","","","","","",""
"pit-trial","86","647560","0.0-2.0-17.1-0.1","battery-v0.2","","""event"",""trial"",""time""
""focus"",""0"",""0""
""fullscreenenter"",""1"",""1790""
""blur"",""17"",""159735""
""focus"",""17"",""161354""
""blur"",""38"",""386766""
""focus"",""47"",""429438""
""blur"",""54"",""466316""
""focus"",""56"",""474646""
""blur"",""58"",""479396""
""focus"",""58"",""480004""
""blur"",""61"",""514183""
""focus"",""80"",""609268""
""blur"",""84"",""639842""
""focus"",""84"",""640214""
","""event"",""trial"",""time""
""blur"",""17"",""159735""
""blur"",""38"",""386766""
""blur"",""54"",""466316""
""blur"",""58"",""479396""
""blur"",""61"",""514183""
""blur"",""84"",""639842""
","""event"",""trial"",""time""
""focus"",""0"",""0""
""focus"",""17"",""161354""
""focus"",""47"",""429438""
""focus"",""56"",""474646""
""focus"",""58"",""480004""
""focus"",""80"",""609268""
""focus"",""84"",""640214""
","""event"",""trial"",""time""
""fullscreenenter"",""1"",""1790""
","
","","","570","","","21","10091","4863","&#9789;","elianto","#f73b6a7A"," "," ","1","0","[1423]","1","0","4","","","","","","","",""
"pit-trial","87","650883","0.0-2.0-17.1-1.1","battery-v0.2","","""event"",""trial"",""time""
""focus"",""0"",""0""
""fullscreenenter"",""1"",""1790""
""blur"",""17"",""159735""
""focus"",""17"",""161354""
""blur"",""38"",""386766""
""focus"",""47"",""429438""
""blur"",""54"",""466316""
""focus"",""56"",""474646""
""blur"",""58"",""479396""
""focus"",""58"",""480004""
""blur"",""61"",""514183""
""focus"",""80"",""609268""
""blur"",""84"",""639842""
""focus"",""84"",""640214""
","""event"",""trial"",""time""
""blur"",""17"",""159735""
""blur"",""38"",""386766""
""blur"",""54"",""466316""
""blur"",""58"",""479396""
""blur"",""61"",""514183""
""blur"",""84"",""639842""
","""event"",""trial"",""time""
""focus"",""0"",""0""
""focus"",""17"",""161354""
""focus"",""47"",""429438""
""focus"",""56"",""474646""
""focus"",""58"",""480004""
""focus"",""80"",""609268""
""focus"",""84"",""640214""
","""event"",""trial"",""time""
""fullscreenenter"",""1"",""1790""
","
","","","454","","","21","10091","4863","&#9789;","elianto","#f73b6a7A"," "," ","1","0","[1311]","1","0","4","","","","","","","",""
"pit-trial","88","653941","0.0-2.0-17.1-2.1","battery-v0.2","","""event"",""trial"",""time""
""focus"",""0"",""0""
""fullscreenenter"",""1"",""1790""
""blur"",""17"",""159735""
""focus"",""17"",""161354""
""blur"",""38"",""386766""
""focus"",""47"",""429438""
""blur"",""54"",""466316""
""focus"",""56"",""474646""
""blur"",""58"",""479396""
""focus"",""58"",""480004""
""blur"",""61"",""514183""
""focus"",""80"",""609268""
""blur"",""84"",""639842""
""focus"",""84"",""640214""
","""event"",""trial"",""time""
""blur"",""17"",""159735""
""blur"",""38"",""386766""
""blur"",""54"",""466316""
""blur"",""58"",""479396""
""blur"",""61"",""514183""
""blur"",""84"",""639842""
","""event"",""trial"",""time""
""focus"",""0"",""0""
""focus"",""17"",""161354""
""focus"",""47"",""429438""
""focus"",""56"",""474646""
""focus"",""58"",""480004""
""focus"",""80"",""609268""
""focus"",""84"",""640214""
","""event"",""trial"",""time""
""fullscreenenter"",""1"",""1790""
","
","","","193","","","21","10091","4863","&#9789;","elianto","#f73b6a7A"," "," ","1","0","[1054]","1","0","4","","","","","","","",""
"pit-trial","89","657264","0.0-2.0-17.1-3.1","battery-v0.2","","""event"",""trial"",""time""
""focus"",""0"",""0""
""fullscreenenter"",""1"",""1790""
""blur"",""17"",""159735""
""focus"",""17"",""161354""
""blur"",""38"",""386766""
""focus"",""47"",""429438""
""blur"",""54"",""466316""
""focus"",""56"",""474646""
""blur"",""58"",""479396""
""focus"",""58"",""480004""
""blur"",""61"",""514183""
""focus"",""80"",""609268""
""blur"",""84"",""639842""
""focus"",""84"",""640214""
","""event"",""trial"",""time""
""blur"",""17"",""159735""
""blur"",""38"",""386766""
""blur"",""54"",""466316""
""blur"",""58"",""479396""
""blur"",""61"",""514183""
""blur"",""84"",""639842""
","""event"",""trial"",""time""
""focus"",""0"",""0""
""focus"",""17"",""161354""
""focus"",""47"",""429438""
""focus"",""56"",""474646""
""focus"",""58"",""480004""
""focus"",""80"",""609268""
""focus"",""84"",""640214""
","""event"",""trial"",""time""
""fullscreenenter"",""1"",""1790""
","
","","","432","","","21","10091","4863","&#9789;","elianto","#f73b6a7A"," "," ","1","-10","[1317]","1","0","4","","","","","","","",""
"pit-trial","90","660403","0.0-2.0-17.1-4.1","battery-v0.2","","""event"",""trial"",""time""
""focus"",""0"",""0""
""fullscreenenter"",""1"",""1790""
""blur"",""17"",""159735""
""focus"",""17"",""161354""
""blur"",""38"",""386766""
""focus"",""47"",""429438""
""blur"",""54"",""466316""
""focus"",""56"",""474646""
""blur"",""58"",""479396""
""focus"",""58"",""480004""
""blur"",""61"",""514183""
""focus"",""80"",""609268""
""blur"",""84"",""639842""
""focus"",""84"",""640214""
","""event"",""trial"",""time""
""blur"",""17"",""159735""
""blur"",""38"",""386766""
""blur"",""54"",""466316""
""blur"",""58"",""479396""
""blur"",""61"",""514183""
""blur"",""84"",""639842""
","""event"",""trial"",""time""
""focus"",""0"",""0""
""focus"",""17"",""161354""
""focus"",""47"",""429438""
""focus"",""56"",""474646""
""focus"",""58"",""480004""
""focus"",""80"",""609268""
""focus"",""84"",""640214""
","""event"",""trial"",""time""
""fullscreenenter"",""1"",""1790""
","
","","","279","","","21","10091","4863","&#9789;","elianto","#f73b6a7A"," "," ","1","0","[1132]","1","0","4","","","","","","","",""
"pit-trial","91","663362","0.0-2.0-17.2-0.2","battery-v0.2","","""event"",""trial"",""time""
""focus"",""0"",""0""
""fullscreenenter"",""1"",""1790""
""blur"",""17"",""159735""
""focus"",""17"",""161354""
""blur"",""38"",""386766""
""focus"",""47"",""429438""
""blur"",""54"",""466316""
""focus"",""56"",""474646""
""blur"",""58"",""479396""
""focus"",""58"",""480004""
""blur"",""61"",""514183""
""focus"",""80"",""609268""
""blur"",""84"",""639842""
""focus"",""84"",""640214""
","""event"",""trial"",""time""
""blur"",""17"",""159735""
""blur"",""38"",""386766""
""blur"",""54"",""466316""
""blur"",""58"",""479396""
""blur"",""61"",""514183""
""blur"",""84"",""639842""
","""event"",""trial"",""time""
""focus"",""0"",""0""
""focus"",""17"",""161354""
""focus"",""47"",""429438""
""focus"",""56"",""474646""
""focus"",""58"",""480004""
""focus"",""80"",""609268""
""focus"",""84"",""640214""
","""event"",""trial"",""time""
""fullscreenenter"",""1"",""1790""
","
","","","48","","","21","10091","4863","&#9789;","elianto","#f73b6a7A"," "," ","1","0","[951]","1","0","4","","","","","","","",""
"pit-trial","92","666256","0.0-2.0-17.2-1.2","battery-v0.2","","""event"",""trial"",""time""
""focus"",""0"",""0""
""fullscreenenter"",""1"",""1790""
""blur"",""17"",""159735""
""focus"",""17"",""161354""
""blur"",""38"",""386766""
""focus"",""47"",""429438""
""blur"",""54"",""466316""
""focus"",""56"",""474646""
""blur"",""58"",""479396""
""focus"",""58"",""480004""
""blur"",""61"",""514183""
""focus"",""80"",""609268""
""blur"",""84"",""639842""
""focus"",""84"",""640214""
","""event"",""trial"",""time""
""blur"",""17"",""159735""
""blur"",""38"",""386766""
""blur"",""54"",""466316""
""blur"",""58"",""479396""
""blur"",""61"",""514183""
""blur"",""84"",""639842""
","""event"",""trial"",""time""
""focus"",""0"",""0""
""focus"",""17"",""161354""
""focus"",""47"",""429438""
""focus"",""56"",""474646""
""focus"",""58"",""480004""
""focus"",""80"",""609268""
""focus"",""84"",""640214""
","""event"",""trial"",""time""
""fullscreenenter"",""1"",""1790""
","
","","","8","","","21","10091","4863","&#9789;","elianto","#f73b6a7A"," "," ","1","0","[892]","1","0","4","","","","","","","",""
"pit-trial","93","670056","0.0-2.0-17.2-2.2","battery-v0.2","","""event"",""trial"",""time""
""focus"",""0"",""0""
""fullscreenenter"",""1"",""1790""
""blur"",""17"",""159735""
""focus"",""17"",""161354""
""blur"",""38"",""386766""
""focus"",""47"",""429438""
""blur"",""54"",""466316""
""focus"",""56"",""474646""
""blur"",""58"",""479396""
""focus"",""58"",""480004""
""blur"",""61"",""514183""
""focus"",""80"",""609268""
""blur"",""84"",""639842""
""focus"",""84"",""640214""
","""event"",""trial"",""time""
""blur"",""17"",""159735""
""blur"",""38"",""386766""
""blur"",""54"",""466316""
""blur"",""58"",""479396""
""blur"",""61"",""514183""
""blur"",""84"",""639842""
","""event"",""trial"",""time""
""focus"",""0"",""0""
""focus"",""17"",""161354""
""focus"",""47"",""429438""
""focus"",""56"",""474646""
""focus"",""58"",""480004""
""focus"",""80"",""609268""
""focus"",""84"",""640214""
","""event"",""trial"",""time""
""fullscreenenter"",""1"",""1790""
","
","","","882","","","21","10091","4863","&#9789;","elianto","#f73b6a7A"," "," ","1","0","[1797]","1","0","4","","","","","","","",""
"pit-trial","94","673385","0.0-2.0-17.2-3.2","battery-v0.2","","""event"",""trial"",""time""
""focus"",""0"",""0""
""fullscreenenter"",""1"",""1790""
""blur"",""17"",""159735""
""focus"",""17"",""161354""
""blur"",""38"",""386766""
""focus"",""47"",""429438""
""blur"",""54"",""466316""
""focus"",""56"",""474646""
""blur"",""58"",""479396""
""focus"",""58"",""480004""
""blur"",""61"",""514183""
""focus"",""80"",""609268""
""blur"",""84"",""639842""
""focus"",""84"",""640214""
","""event"",""trial"",""time""
""blur"",""17"",""159735""
""blur"",""38"",""386766""
""blur"",""54"",""466316""
""blur"",""58"",""479396""
""blur"",""61"",""514183""
""blur"",""84"",""639842""
","""event"",""trial"",""time""
""focus"",""0"",""0""
""focus"",""17"",""161354""
""focus"",""47"",""429438""
""focus"",""56"",""474646""
""focus"",""58"",""480004""
""focus"",""80"",""609268""
""focus"",""84"",""640214""
","""event"",""trial"",""time""
""fullscreenenter"",""1"",""1790""
","
","","","462","","","21","10091","4863","&#9789;","elianto","#f73b6a7A"," "," ","1","-10","[1320]","1","0","4","","","","","","","",""
"pit-trial","95","676426","0.0-2.0-17.2-4.2","battery-v0.2","","""event"",""trial"",""time""
""focus"",""0"",""0""
""fullscreenenter"",""1"",""1790""
""blur"",""17"",""159735""
""focus"",""17"",""161354""
""blur"",""38"",""386766""
""focus"",""47"",""429438""
""blur"",""54"",""466316""
""focus"",""56"",""474646""
""blur"",""58"",""479396""
""focus"",""58"",""480004""
""blur"",""61"",""514183""
""focus"",""80"",""609268""
""blur"",""84"",""639842""
""focus"",""84"",""640214""
","""event"",""trial"",""time""
""blur"",""17"",""159735""
""blur"",""38"",""386766""
""blur"",""54"",""466316""
""blur"",""58"",""479396""
""blur"",""61"",""514183""
""blur"",""84"",""639842""
","""event"",""trial"",""time""
""focus"",""0"",""0""
""focus"",""17"",""161354""
""focus"",""47"",""429438""
""focus"",""56"",""474646""
""focus"",""58"",""480004""
""focus"",""80"",""609268""
""focus"",""84"",""640214""
","""event"",""trial"",""time""
""fullscreenenter"",""1"",""1790""
","
","","","182","","","21","10091","4863","&#9789;","elianto","#f73b6a7A"," "," ","1","0","[1036]","1","0","4","","","","","","","",""
"pit-trial","96","679436","0.0-2.0-17.3-0.3","battery-v0.2","","""event"",""trial"",""time""
""focus"",""0"",""0""
""fullscreenenter"",""1"",""1790""
""blur"",""17"",""159735""
""focus"",""17"",""161354""
""blur"",""38"",""386766""
""focus"",""47"",""429438""
""blur"",""54"",""466316""
""focus"",""56"",""474646""
""blur"",""58"",""479396""
""focus"",""58"",""480004""
""blur"",""61"",""514183""
""focus"",""80"",""609268""
""blur"",""84"",""639842""
""focus"",""84"",""640214""
","""event"",""trial"",""time""
""blur"",""17"",""159735""
""blur"",""38"",""386766""
""blur"",""54"",""466316""
""blur"",""58"",""479396""
""blur"",""61"",""514183""
""blur"",""84"",""639842""
","""event"",""trial"",""time""
""focus"",""0"",""0""
""focus"",""17"",""161354""
""focus"",""47"",""429438""
""focus"",""56"",""474646""
""focus"",""58"",""480004""
""focus"",""80"",""609268""
""focus"",""84"",""640214""
","""event"",""trial"",""time""
""fullscreenenter"",""1"",""1790""
","
","","","152","","","21","10091","4863","&#9789;","elianto","#f73b6a7A"," "," ","1","0","[1007]","1","0","4","","","","","","","",""
"pit-trial","97","682435","0.0-2.0-17.3-1.3","battery-v0.2","","""event"",""trial"",""time""
""focus"",""0"",""0""
""fullscreenenter"",""1"",""1790""
""blur"",""17"",""159735""
""focus"",""17"",""161354""
""blur"",""38"",""386766""
""focus"",""47"",""429438""
""blur"",""54"",""466316""
""focus"",""56"",""474646""
""blur"",""58"",""479396""
""focus"",""58"",""480004""
""blur"",""61"",""514183""
""focus"",""80"",""609268""
""blur"",""84"",""639842""
""focus"",""84"",""640214""
","""event"",""trial"",""time""
""blur"",""17"",""159735""
""blur"",""38"",""386766""
""blur"",""54"",""466316""
""blur"",""58"",""479396""
""blur"",""61"",""514183""
""blur"",""84"",""639842""
","""event"",""trial"",""time""
""focus"",""0"",""0""
""focus"",""17"",""161354""
""focus"",""47"",""429438""
""focus"",""56"",""474646""
""focus"",""58"",""480004""
""focus"",""80"",""609268""
""focus"",""84"",""640214""
","""event"",""trial"",""time""
""fullscreenenter"",""1"",""1790""
","
","","","138","","","21","10091","4863","&#9789;","elianto","#f73b6a7A"," "," ","1","0","[990]","1","0","4","","","","","","","",""
"pit-trial","98","685520","0.0-2.0-17.3-2.3","battery-v0.2","","""event"",""trial"",""time""
""focus"",""0"",""0""
""fullscreenenter"",""1"",""1790""
""blur"",""17"",""159735""
""focus"",""17"",""161354""
""blur"",""38"",""386766""
""focus"",""47"",""429438""
""blur"",""54"",""466316""
""focus"",""56"",""474646""
""blur"",""58"",""479396""
""focus"",""58"",""480004""
""blur"",""61"",""514183""
""focus"",""80"",""609268""
""blur"",""84"",""639842""
""focus"",""84"",""640214""
","""event"",""trial"",""time""
""blur"",""17"",""159735""
""blur"",""38"",""386766""
""blur"",""54"",""466316""
""blur"",""58"",""479396""
""blur"",""61"",""514183""
""blur"",""84"",""639842""
","""event"",""trial"",""time""
""focus"",""0"",""0""
""focus"",""17"",""161354""
""focus"",""47"",""429438""
""focus"",""56"",""474646""
""focus"",""58"",""480004""
""focus"",""80"",""609268""
""focus"",""84"",""640214""
","""event"",""trial"",""time""
""fullscreenenter"",""1"",""1790""
","
","","","220","","","21","10091","4863","&#9789;","elianto","#f73b6a7A"," "," ","1","0","[1073]","1","0","4","","","","","","","",""
"pit-trial","99","688491","0.0-2.0-17.3-3.3","battery-v0.2","","""event"",""trial"",""time""
""focus"",""0"",""0""
""fullscreenenter"",""1"",""1790""
""blur"",""17"",""159735""
""focus"",""17"",""161354""
""blur"",""38"",""386766""
""focus"",""47"",""429438""
""blur"",""54"",""466316""
""focus"",""56"",""474646""
""blur"",""58"",""479396""
""focus"",""58"",""480004""
""blur"",""61"",""514183""
""focus"",""80"",""609268""
""blur"",""84"",""639842""
""focus"",""84"",""640214""
","""event"",""trial"",""time""
""blur"",""17"",""159735""
""blur"",""38"",""386766""
""blur"",""54"",""466316""
""blur"",""58"",""479396""
""blur"",""61"",""514183""
""blur"",""84"",""639842""
","""event"",""trial"",""time""
""focus"",""0"",""0""
""focus"",""17"",""161354""
""focus"",""47"",""429438""
""focus"",""56"",""474646""
""focus"",""58"",""480004""
""focus"",""80"",""609268""
""focus"",""84"",""640214""
","""event"",""trial"",""time""
""fullscreenenter"",""1"",""1790""
","
","","","107","","","21","10091","4863","&#9789;","elianto","#f73b6a7A"," "," ","1","-10","[960]","1","0","4","","","","","","","",""
"pit-trial","100","691574","0.0-2.0-17.3-4.3","battery-v0.2","","""event"",""trial"",""time""
""focus"",""0"",""0""
""fullscreenenter"",""1"",""1790""
""blur"",""17"",""159735""
""focus"",""17"",""161354""
""blur"",""38"",""386766""
""focus"",""47"",""429438""
""blur"",""54"",""466316""
""focus"",""56"",""474646""
""blur"",""58"",""479396""
""focus"",""58"",""480004""
""blur"",""61"",""514183""
""focus"",""80"",""609268""
""blur"",""84"",""639842""
""focus"",""84"",""640214""
","""event"",""trial"",""time""
""blur"",""17"",""159735""
""blur"",""38"",""386766""
""blur"",""54"",""466316""
""blur"",""58"",""479396""
""blur"",""61"",""514183""
""blur"",""84"",""639842""
","""event"",""trial"",""time""
""focus"",""0"",""0""
""focus"",""17"",""161354""
""focus"",""47"",""429438""
""focus"",""56"",""474646""
""focus"",""58"",""480004""
""focus"",""80"",""609268""
""focus"",""84"",""640214""
","""event"",""trial"",""time""
""fullscreenenter"",""1"",""1790""
","
","","","218","","","21","10091","4863","&#9789;","elianto","#f73b6a7A"," "," ","1","0","[1072]","1","0","4","","","","","","","",""
"call-function","101","691574","0.0-2.0-18.0","battery-v0.2","","""event"",""trial"",""time""
""focus"",""0"",""0""
""fullscreenenter"",""1"",""1790""
""blur"",""17"",""159735""
""focus"",""17"",""161354""
""blur"",""38"",""386766""
""focus"",""47"",""429438""
""blur"",""54"",""466316""
""focus"",""56"",""474646""
""blur"",""58"",""479396""
""focus"",""58"",""480004""
""blur"",""61"",""514183""
""focus"",""80"",""609268""
""blur"",""84"",""639842""
""focus"",""84"",""640214""
""blur"",""102"",""693809""
""focus"",""102"",""694235""
","""event"",""trial"",""time""
""blur"",""17"",""159735""
""blur"",""38"",""386766""
""blur"",""54"",""466316""
""blur"",""58"",""479396""
""blur"",""61"",""514183""
""blur"",""84"",""639842""
""blur"",""102"",""693809""
","""event"",""trial"",""time""
""focus"",""0"",""0""
""focus"",""17"",""161354""
""focus"",""47"",""429438""
""focus"",""56"",""474646""
""focus"",""58"",""480004""
""focus"",""80"",""609268""
""focus"",""84"",""640214""
""focus"",""102"",""694235""
","""event"",""trial"",""time""
""fullscreenenter"",""1"",""1790""
","
","","","","","","","","","","","","","","","","","","","","","","","","","","",""
"pit-instructions","102","763751","0.0-2.0-19.0","battery-v0.2","","""event"",""trial"",""time""
""focus"",""0"",""0""
""fullscreenenter"",""1"",""1790""
""blur"",""17"",""159735""
""focus"",""17"",""161354""
""blur"",""38"",""386766""
""focus"",""47"",""429438""
""blur"",""54"",""466316""
""focus"",""56"",""474646""
""blur"",""58"",""479396""
""focus"",""58"",""480004""
""blur"",""61"",""514183""
""focus"",""80"",""609268""
""blur"",""84"",""639842""
""focus"",""84"",""640214""
""blur"",""102"",""693809""
""focus"",""102"",""694235""
","""event"",""trial"",""time""
""blur"",""17"",""159735""
""blur"",""38"",""386766""
""blur"",""54"",""466316""
""blur"",""58"",""479396""
""blur"",""61"",""514183""
""blur"",""84"",""639842""
""blur"",""102"",""693809""
","""event"",""trial"",""time""
""focus"",""0"",""0""
""focus"",""17"",""161354""
""focus"",""47"",""429438""
""focus"",""56"",""474646""
""focus"",""58"",""480004""
""focus"",""80"",""609268""
""focus"",""84"",""640214""
""focus"",""102"",""694235""
","""event"",""trial"",""time""
""fullscreenenter"",""1"",""1790""
","
","","[{""page_index"":0,""viewing_time"":6510},{""page_index"":1,""viewing_time"":6023},{""page_index"":2,""viewing_time"":13335},{""page_index"":3,""viewing_time"":7032},{""page_index"":4,""viewing_time"":6379},{""page_index"":5,""viewing_time"":9174},{""page_index"":6,""viewing_time"":8767},{""page_index"":7,""viewing_time"":10433},{""page_index"":8,""viewing_time"":4524}]","72177","","","","","","","","","","","","","","","","","","","","","","","",""
"pit-comprehension","103","771050","0.0-2.0-20.0-0.0","battery-v0.2","","""event"",""trial"",""time""
""focus"",""0"",""0""
""fullscreenenter"",""1"",""1790""
""blur"",""17"",""159735""
""focus"",""17"",""161354""
""blur"",""38"",""386766""
""focus"",""47"",""429438""
""blur"",""54"",""466316""
""focus"",""56"",""474646""
""blur"",""58"",""479396""
""focus"",""58"",""480004""
""blur"",""61"",""514183""
""focus"",""80"",""609268""
""blur"",""84"",""639842""
""focus"",""84"",""640214""
""blur"",""102"",""693809""
""focus"",""102"",""694235""
","""event"",""trial"",""time""
""blur"",""17"",""159735""
""blur"",""38"",""386766""
""blur"",""54"",""466316""
""blur"",""58"",""479396""
""blur"",""61"",""514183""
""blur"",""84"",""639842""
""blur"",""102"",""693809""
","""event"",""trial"",""time""
""focus"",""0"",""0""
""focus"",""17"",""161354""
""focus"",""47"",""429438""
""focus"",""56"",""474646""
""focus"",""58"",""480004""
""focus"",""80"",""609268""
""focus"",""84"",""640214""
""focus"",""102"",""694235""
","""event"",""trial"",""time""
""fullscreenenter"",""1"",""1790""
","
","","","7297","[""SPACE""]","0","21","10091","4863","","","","","","","","","","","","","","","","","","",""
"pit-instructions","104","773526","0.0-2.0-20.0-1.0","battery-v0.2","","""event"",""trial"",""time""
""focus"",""0"",""0""
""fullscreenenter"",""1"",""1790""
""blur"",""17"",""159735""
""focus"",""17"",""161354""
""blur"",""38"",""386766""
""focus"",""47"",""429438""
""blur"",""54"",""466316""
""focus"",""56"",""474646""
""blur"",""58"",""479396""
""focus"",""58"",""480004""
""blur"",""61"",""514183""
""focus"",""80"",""609268""
""blur"",""84"",""639842""
""focus"",""84"",""640214""
""blur"",""102"",""693809""
""focus"",""102"",""694235""
","""event"",""trial"",""time""
""blur"",""17"",""159735""
""blur"",""38"",""386766""
""blur"",""54"",""466316""
""blur"",""58"",""479396""
""blur"",""61"",""514183""
""blur"",""84"",""639842""
""blur"",""102"",""693809""
","""event"",""trial"",""time""
""focus"",""0"",""0""
""focus"",""17"",""161354""
""focus"",""47"",""429438""
""focus"",""56"",""474646""
""focus"",""58"",""480004""
""focus"",""80"",""609268""
""focus"",""84"",""640214""
""focus"",""102"",""694235""
","""event"",""trial"",""time""
""fullscreenenter"",""1"",""1790""
","
","","[{""page_index"":0,""viewing_time"":2452}]","2452","","","","","","","","","","","","","","","","","","","","","","","",""
"pit-comprehension","105","778025","0.0-2.0-21.0-0.0","battery-v0.2","","""event"",""trial"",""time""
""focus"",""0"",""0""
""fullscreenenter"",""1"",""1790""
""blur"",""17"",""159735""
""focus"",""17"",""161354""
""blur"",""38"",""386766""
""focus"",""47"",""429438""
""blur"",""54"",""466316""
""focus"",""56"",""474646""
""blur"",""58"",""479396""
""focus"",""58"",""480004""
""blur"",""61"",""514183""
""focus"",""80"",""609268""
""blur"",""84"",""639842""
""focus"",""84"",""640214""
""blur"",""102"",""693809""
""focus"",""102"",""694235""
","""event"",""trial"",""time""
""blur"",""17"",""159735""
""blur"",""38"",""386766""
""blur"",""54"",""466316""
""blur"",""58"",""479396""
""blur"",""61"",""514183""
""blur"",""84"",""639842""
""blur"",""102"",""693809""
","""event"",""trial"",""time""
""focus"",""0"",""0""
""focus"",""17"",""161354""
""focus"",""47"",""429438""
""focus"",""56"",""474646""
""focus"",""58"",""480004""
""focus"",""80"",""609268""
""focus"",""84"",""640214""
""focus"",""102"",""694235""
","""event"",""trial"",""time""
""fullscreenenter"",""1"",""1790""
","
","","","4498","[""10""]","0","21","10091","4863","","","","","","","","","","","","","","","","","","",""
"pit-instructions","106","780722","0.0-2.0-21.0-1.0","battery-v0.2","","""event"",""trial"",""time""
""focus"",""0"",""0""
""fullscreenenter"",""1"",""1790""
""blur"",""17"",""159735""
""focus"",""17"",""161354""
""blur"",""38"",""386766""
""focus"",""47"",""429438""
""blur"",""54"",""466316""
""focus"",""56"",""474646""
""blur"",""58"",""479396""
""focus"",""58"",""480004""
""blur"",""61"",""514183""
""focus"",""80"",""609268""
""blur"",""84"",""639842""
""focus"",""84"",""640214""
""blur"",""102"",""693809""
""focus"",""102"",""694235""
","""event"",""trial"",""time""
""blur"",""17"",""159735""
""blur"",""38"",""386766""
""blur"",""54"",""466316""
""blur"",""58"",""479396""
""blur"",""61"",""514183""
""blur"",""84"",""639842""
""blur"",""102"",""693809""
","""event"",""trial"",""time""
""focus"",""0"",""0""
""focus"",""17"",""161354""
""focus"",""47"",""429438""
""focus"",""56"",""474646""
""focus"",""58"",""480004""
""focus"",""80"",""609268""
""focus"",""84"",""640214""
""focus"",""102"",""694235""
","""event"",""trial"",""time""
""fullscreenenter"",""1"",""1790""
","
","","[{""page_index"":0,""viewing_time"":2671}]","2671","","","","","","","","","","","","","","","","","","","","","","","",""
"pit-comprehension","107","787875","0.0-2.0-22.0-0.0","battery-v0.2","","""event"",""trial"",""time""
""focus"",""0"",""0""
""fullscreenenter"",""1"",""1790""
""blur"",""17"",""159735""
""focus"",""17"",""161354""
""blur"",""38"",""386766""
""focus"",""47"",""429438""
""blur"",""54"",""466316""
""focus"",""56"",""474646""
""blur"",""58"",""479396""
""focus"",""58"",""480004""
""blur"",""61"",""514183""
""focus"",""80"",""609268""
""blur"",""84"",""639842""
""focus"",""84"",""640214""
""blur"",""102"",""693809""
""focus"",""102"",""694235""
","""event"",""trial"",""time""
""blur"",""17"",""159735""
""blur"",""38"",""386766""
""blur"",""54"",""466316""
""blur"",""58"",""479396""
""blur"",""61"",""514183""
""blur"",""84"",""639842""
""blur"",""102"",""693809""
","""event"",""trial"",""time""
""focus"",""0"",""0""
""focus"",""17"",""161354""
""focus"",""47"",""429438""
""focus"",""56"",""474646""
""focus"",""58"",""480004""
""focus"",""80"",""609268""
""focus"",""84"",""640214""
""focus"",""102"",""694235""
","""event"",""trial"",""time""
""fullscreenenter"",""1"",""1790""
","
","","","7152","[""0""]","0","21","10091","4863","","","","","","","","","","","","","","","","","","",""
"pit-instructions","108","789552","0.0-2.0-22.0-1.0","battery-v0.2","","""event"",""trial"",""time""
""focus"",""0"",""0""
""fullscreenenter"",""1"",""1790""
""blur"",""17"",""159735""
""focus"",""17"",""161354""
""blur"",""38"",""386766""
""focus"",""47"",""429438""
""blur"",""54"",""466316""
""focus"",""56"",""474646""
""blur"",""58"",""479396""
""focus"",""58"",""480004""
""blur"",""61"",""514183""
""focus"",""80"",""609268""
""blur"",""84"",""639842""
""focus"",""84"",""640214""
""blur"",""102"",""693809""
""focus"",""102"",""694235""
","""event"",""trial"",""time""
""blur"",""17"",""159735""
""blur"",""38"",""386766""
""blur"",""54"",""466316""
""blur"",""58"",""479396""
""blur"",""61"",""514183""
""blur"",""84"",""639842""
""blur"",""102"",""693809""
","""event"",""trial"",""time""
""focus"",""0"",""0""
""focus"",""17"",""161354""
""focus"",""47"",""429438""
""focus"",""56"",""474646""
""focus"",""58"",""480004""
""focus"",""80"",""609268""
""focus"",""84"",""640214""
""focus"",""102"",""694235""
","""event"",""trial"",""time""
""fullscreenenter"",""1"",""1790""
","
","","[{""page_index"":0,""viewing_time"":1652}]","1652","","","","","","","","","","","","","","","","","","","","","","","",""
"pit-comprehension","109","798041","0.0-2.0-23.0-0.0","battery-v0.2","","""event"",""trial"",""time""
""focus"",""0"",""0""
""fullscreenenter"",""1"",""1790""
""blur"",""17"",""159735""
""focus"",""17"",""161354""
""blur"",""38"",""386766""
""focus"",""47"",""429438""
""blur"",""54"",""466316""
""focus"",""56"",""474646""
""blur"",""58"",""479396""
""focus"",""58"",""480004""
""blur"",""61"",""514183""
""focus"",""80"",""609268""
""blur"",""84"",""639842""
""focus"",""84"",""640214""
""blur"",""102"",""693809""
""focus"",""102"",""694235""
","""event"",""trial"",""time""
""blur"",""17"",""159735""
""blur"",""38"",""386766""
""blur"",""54"",""466316""
""blur"",""58"",""479396""
""blur"",""61"",""514183""
""blur"",""84"",""639842""
""blur"",""102"",""693809""
","""event"",""trial"",""time""
""focus"",""0"",""0""
""focus"",""17"",""161354""
""focus"",""47"",""429438""
""focus"",""56"",""474646""
""focus"",""58"",""480004""
""focus"",""80"",""609268""
""focus"",""84"",""640214""
""focus"",""102"",""694235""
","""event"",""trial"",""time""
""fullscreenenter"",""1"",""1790""
","
","","","8488","[""True""]","0","21","10091","4863","","","","","","","","","","","","","","","","","","",""
"pit-instructions","110","799648","0.0-2.0-23.0-1.0","battery-v0.2","","""event"",""trial"",""time""
""focus"",""0"",""0""
""fullscreenenter"",""1"",""1790""
""blur"",""17"",""159735""
""focus"",""17"",""161354""
""blur"",""38"",""386766""
""focus"",""47"",""429438""
""blur"",""54"",""466316""
""focus"",""56"",""474646""
""blur"",""58"",""479396""
""focus"",""58"",""480004""
""blur"",""61"",""514183""
""focus"",""80"",""609268""
""blur"",""84"",""639842""
""focus"",""84"",""640214""
""blur"",""102"",""693809""
""focus"",""102"",""694235""
","""event"",""trial"",""time""
""blur"",""17"",""159735""
""blur"",""38"",""386766""
""blur"",""54"",""466316""
""blur"",""58"",""479396""
""blur"",""61"",""514183""
""blur"",""84"",""639842""
""blur"",""102"",""693809""
","""event"",""trial"",""time""
""focus"",""0"",""0""
""focus"",""17"",""161354""
""focus"",""47"",""429438""
""focus"",""56"",""474646""
""focus"",""58"",""480004""
""focus"",""80"",""609268""
""focus"",""84"",""640214""
""focus"",""102"",""694235""
","""event"",""trial"",""time""
""fullscreenenter"",""1"",""1790""
","
","","[{""page_index"":0,""viewing_time"":1582}]","1582","","","","","","","","","","","","","","","","","","","","","","","",""
"pit-comprehension","111","807175","0.0-2.0-24.0-0.0","battery-v0.2","","""event"",""trial"",""time""
""focus"",""0"",""0""
""fullscreenenter"",""1"",""1790""
""blur"",""17"",""159735""
""focus"",""17"",""161354""
""blur"",""38"",""386766""
""focus"",""47"",""429438""
""blur"",""54"",""466316""
""focus"",""56"",""474646""
""blur"",""58"",""479396""
""focus"",""58"",""480004""
""blur"",""61"",""514183""
""focus"",""80"",""609268""
""blur"",""84"",""639842""
""focus"",""84"",""640214""
""blur"",""102"",""693809""
""focus"",""102"",""694235""
","""event"",""trial"",""time""
""blur"",""17"",""159735""
""blur"",""38"",""386766""
""blur"",""54"",""466316""
""blur"",""58"",""479396""
""blur"",""61"",""514183""
""blur"",""84"",""639842""
""blur"",""102"",""693809""
","""event"",""trial"",""time""
""focus"",""0"",""0""
""focus"",""17"",""161354""
""focus"",""47"",""429438""
""focus"",""56"",""474646""
""focus"",""58"",""480004""
""focus"",""80"",""609268""
""focus"",""84"",""640214""
""focus"",""102"",""694235""
","""event"",""trial"",""time""
""fullscreenenter"",""1"",""1790""
","
","","","7524","[""True""]","0","21","10091","4863","","","","","","","","","","","","","","","","","","",""
"pit-instructions","112","808595","0.0-2.0-24.0-1.0","battery-v0.2","","""event"",""trial"",""time""
""focus"",""0"",""0""
""fullscreenenter"",""1"",""1790""
""blur"",""17"",""159735""
""focus"",""17"",""161354""
""blur"",""38"",""386766""
""focus"",""47"",""429438""
""blur"",""54"",""466316""
""focus"",""56"",""474646""
""blur"",""58"",""479396""
""focus"",""58"",""480004""
""blur"",""61"",""514183""
""focus"",""80"",""609268""
""blur"",""84"",""639842""
""focus"",""84"",""640214""
""blur"",""102"",""693809""
""focus"",""102"",""694235""
","""event"",""trial"",""time""
""blur"",""17"",""159735""
""blur"",""38"",""386766""
""blur"",""54"",""466316""
""blur"",""58"",""479396""
""blur"",""61"",""514183""
""blur"",""84"",""639842""
""blur"",""102"",""693809""
","""event"",""trial"",""time""
""focus"",""0"",""0""
""focus"",""17"",""161354""
""focus"",""47"",""429438""
""focus"",""56"",""474646""
""focus"",""58"",""480004""
""focus"",""80"",""609268""
""focus"",""84"",""640214""
""focus"",""102"",""694235""
","""event"",""trial"",""time""
""fullscreenenter"",""1"",""1790""
","
","","[{""page_index"":0,""viewing_time"":1395}]","1395","","","","","","","","","","","","","","","","","","","","","","","",""
"pit-comprehension","113","815201","0.0-2.0-25.0-0.0","battery-v0.2","","""event"",""trial"",""time""
""focus"",""0"",""0""
""fullscreenenter"",""1"",""1790""
""blur"",""17"",""159735""
""focus"",""17"",""161354""
""blur"",""38"",""386766""
""focus"",""47"",""429438""
""blur"",""54"",""466316""
""focus"",""56"",""474646""
""blur"",""58"",""479396""
""focus"",""58"",""480004""
""blur"",""61"",""514183""
""focus"",""80"",""609268""
""blur"",""84"",""639842""
""focus"",""84"",""640214""
""blur"",""102"",""693809""
""focus"",""102"",""694235""
","""event"",""trial"",""time""
""blur"",""17"",""159735""
""blur"",""38"",""386766""
""blur"",""54"",""466316""
""blur"",""58"",""479396""
""blur"",""61"",""514183""
""blur"",""84"",""639842""
""blur"",""102"",""693809""
","""event"",""trial"",""time""
""focus"",""0"",""0""
""focus"",""17"",""161354""
""focus"",""47"",""429438""
""focus"",""56"",""474646""
""focus"",""58"",""480004""
""focus"",""80"",""609268""
""focus"",""84"",""640214""
""focus"",""102"",""694235""
","""event"",""trial"",""time""
""fullscreenenter"",""1"",""1790""
","
","","","6604","[""True""]","0","21","10091","4863","","","","","","","","","","","","","","","","","","",""
"pit-instructions","114","816655","0.0-2.0-25.0-1.0","battery-v0.2","","""event"",""trial"",""time""
""focus"",""0"",""0""
""fullscreenenter"",""1"",""1790""
""blur"",""17"",""159735""
""focus"",""17"",""161354""
""blur"",""38"",""386766""
""focus"",""47"",""429438""
""blur"",""54"",""466316""
""focus"",""56"",""474646""
""blur"",""58"",""479396""
""focus"",""58"",""480004""
""blur"",""61"",""514183""
""focus"",""80"",""609268""
""blur"",""84"",""639842""
""focus"",""84"",""640214""
""blur"",""102"",""693809""
""focus"",""102"",""694235""
","""event"",""trial"",""time""
""blur"",""17"",""159735""
""blur"",""38"",""386766""
""blur"",""54"",""466316""
""blur"",""58"",""479396""
""blur"",""61"",""514183""
""blur"",""84"",""639842""
""blur"",""102"",""693809""
","""event"",""trial"",""time""
""focus"",""0"",""0""
""focus"",""17"",""161354""
""focus"",""47"",""429438""
""focus"",""56"",""474646""
""focus"",""58"",""480004""
""focus"",""80"",""609268""
""focus"",""84"",""640214""
""focus"",""102"",""694235""
","""event"",""trial"",""time""
""fullscreenenter"",""1"",""1790""
","
","","[{""page_index"":0,""viewing_time"":1428}]","1429","","","","","","","","","","","","","","","","","","","","","","","",""
"pit-comprehension","115","821566","0.0-2.0-26.0-0.0","battery-v0.2","","""event"",""trial"",""time""
""focus"",""0"",""0""
""fullscreenenter"",""1"",""1790""
""blur"",""17"",""159735""
""focus"",""17"",""161354""
""blur"",""38"",""386766""
""focus"",""47"",""429438""
""blur"",""54"",""466316""
""focus"",""56"",""474646""
""blur"",""58"",""479396""
""focus"",""58"",""480004""
""blur"",""61"",""514183""
""focus"",""80"",""609268""
""blur"",""84"",""639842""
""focus"",""84"",""640214""
""blur"",""102"",""693809""
""focus"",""102"",""694235""
","""event"",""trial"",""time""
""blur"",""17"",""159735""
""blur"",""38"",""386766""
""blur"",""54"",""466316""
""blur"",""58"",""479396""
""blur"",""61"",""514183""
""blur"",""84"",""639842""
""blur"",""102"",""693809""
","""event"",""trial"",""time""
""focus"",""0"",""0""
""focus"",""17"",""161354""
""focus"",""47"",""429438""
""focus"",""56"",""474646""
""focus"",""58"",""480004""
""focus"",""80"",""609268""
""focus"",""84"",""640214""
""focus"",""102"",""694235""
","""event"",""trial"",""time""
""fullscreenenter"",""1"",""1790""
","
","","","4909","[""False""]","0","21","10091","4863","","","","","","","","","","","","","","","","","","",""
"pit-instructions","116","822985","0.0-2.0-26.0-1.0","battery-v0.2","","""event"",""trial"",""time""
""focus"",""0"",""0""
""fullscreenenter"",""1"",""1790""
""blur"",""17"",""159735""
""focus"",""17"",""161354""
""blur"",""38"",""386766""
""focus"",""47"",""429438""
""blur"",""54"",""466316""
""focus"",""56"",""474646""
""blur"",""58"",""479396""
""focus"",""58"",""480004""
""blur"",""61"",""514183""
""focus"",""80"",""609268""
""blur"",""84"",""639842""
""focus"",""84"",""640214""
""blur"",""102"",""693809""
""focus"",""102"",""694235""
","""event"",""trial"",""time""
""blur"",""17"",""159735""
""blur"",""38"",""386766""
""blur"",""54"",""466316""
""blur"",""58"",""479396""
""blur"",""61"",""514183""
""blur"",""84"",""639842""
""blur"",""102"",""693809""
","""event"",""trial"",""time""
""focus"",""0"",""0""
""focus"",""17"",""161354""
""focus"",""47"",""429438""
""focus"",""56"",""474646""
""focus"",""58"",""480004""
""focus"",""80"",""609268""
""focus"",""84"",""640214""
""focus"",""102"",""694235""
","""event"",""trial"",""time""
""fullscreenenter"",""1"",""1790""
","
","","[{""page_index"":0,""viewing_time"":1392}]","1392","","","","","","","","","","","","","","","","","","","","","","","",""
"pit-instructions","117","839410","0.0-3.0","battery-v0.2","","""event"",""trial"",""time""
""focus"",""0"",""0""
""fullscreenenter"",""1"",""1790""
""blur"",""17"",""159735""
""focus"",""17"",""161354""
""blur"",""38"",""386766""
""focus"",""47"",""429438""
""blur"",""54"",""466316""
""focus"",""56"",""474646""
""blur"",""58"",""479396""
""focus"",""58"",""480004""
