"trial_type","trial_index","time_elapsed","internal_node_id","task_version","subject_id","interactions","blur_events","focus_events","fullscreenenter_events","fullscreenexit_events","success","view_history","rt","responses","num_errors","age","subject","participantId","rune","rune_set","hex","correct","choice","accuracy","outcome","keys","total_keys","block","practice","value","sub","trial","stimulus","robot","valence","action","sham"
"pavlovia","0","8","0.0-0.0","battery-v0.2","","""event"",""trial"",""time""
""fullscreenenter"",""1"",""2490""
","
","
","""event"",""trial"",""time""
""fullscreenenter"",""1"",""2490""
","
","","","","","","","","","","","","","","","","","","","","","","","","","","",""
"fullscreen","1","3456","0.0-1.0","battery-v0.2","","""event"",""trial"",""time""
""fullscreenenter"",""1"",""2490""
","
","
","""event"",""trial"",""time""
""fullscreenenter"",""1"",""2490""
","
","true","","","","","","","","","","","","","","","","","","","","","","","","","",""
"pit-instructions","2","10236","0.0-2.0-0.0","battery-v0.2","","""event"",""trial"",""time""
""fullscreenenter"",""1"",""2490""
","
","
","""event"",""trial"",""time""
""fullscreenenter"",""1"",""2490""
","
","","[{""page_index"":0,""viewing_time"":6773.5}]","6774","","","","","","","","","","","","","","","","","","","","","","","",""
"pit-comprehension","3","13161","0.0-2.0-1.0-0.0","battery-v0.2","","""event"",""trial"",""time""
""fullscreenenter"",""1"",""2490""
","
","
","""event"",""trial"",""time""
""fullscreenenter"",""1"",""2490""
","
","","","2920","[""shark""]","0","18","9595","2402","","","","","","","","","","","","","","","","","","",""
"pit-instructions","4","14902","0.0-2.0-1.0-1.0","battery-v0.2","","""event"",""trial"",""time""
""fullscreenenter"",""1"",""2490""
","
","
","""event"",""trial"",""time""
""fullscreenenter"",""1"",""2490""
","
","","[{""page_index"":0,""viewing_time"":1729.2999999821186}]","1729.699999988079","","","","","","","","","","","","","","","","","","","","","","","",""
"pit-comprehension","5","17118","0.0-2.0-2.0-0.0","battery-v0.2","","""event"",""trial"",""time""
""fullscreenenter"",""1"",""2490""
","
","
","""event"",""trial"",""time""
""fullscreenenter"",""1"",""2490""
","
","","","2210.7000000178814","[""tiger""]","0","18","9595","2402","","","","","","","","","","","","","","","","","","",""
"pit-instructions","6","18478","0.0-2.0-2.0-1.0","battery-v0.2","","""event"",""trial"",""time""
""fullscreenenter"",""1"",""2490""
","
","
","""event"",""trial"",""time""
""fullscreenenter"",""1"",""2490""
","
","","[{""page_index"":0,""viewing_time"":1355}]","1355.5","","","","","","","","","","","","","","","","","","","","","","","",""
"pit-instructions","7","129065","0.0-2.0-3.0","battery-v0.2","","""event"",""trial"",""time""
""fullscreenenter"",""1"",""2490""
","
","
","""event"",""trial"",""time""
""fullscreenenter"",""1"",""2490""
","
","","[{""page_index"":0,""viewing_time"":13338.90000000596},{""page_index"":1,""viewing_time"":8413.40000000596},{""page_index"":2,""viewing_time"":7968.899999976158},{""page_index"":3,""viewing_time"":6041.600000023842},{""page_index"":4,""viewing_time"":6358.5},{""page_index"":5,""viewing_time"":6332.0999999940395},{""page_index"":6,""viewing_time"":7448.5999999940395},{""page_index"":7,""viewing_time"":7546.199999988079},{""page_index"":8,""viewing_time"":7254.100000023842},{""page_index"":9,""viewing_time"":10126.59999999404},{""page_index"":10,""viewing_time"":7874.299999982119},{""page_index"":11,""viewing_time"":7596.4000000059605},{""page_index"":12,""viewing_time"":8391.5},{""page_index"":13,""viewing_time"":5887.5}]","110579.59999999404","","","","","","","","","","","","","","","","","","","","","","","",""
"pit-trial","8","132722","0.0-2.0-4.0-0.0","battery-v0.2","","""event"",""trial"",""time""
""fullscreenenter"",""1"",""2490""
","
","
","""event"",""trial"",""time""
""fullscreenenter"",""1"",""2490""
","
","","","798.5","","","18","9595","2402","&#9784;","elianto","#FFFFF080"," "," ","1","&#10004","[1651.699999988079]","1","0","0","","","","","","","",""
"pit-trial","9","136592","0.0-2.0-4.1-0.1","battery-v0.2","","""event"",""trial"",""time""
""fullscreenenter"",""1"",""2490""
","
","
","""event"",""trial"",""time""
""fullscreenenter"",""1"",""2490""
","
","","","1000.4000000059605","","","18","9595","2402","&#9784;","elianto","#FFFFF080"," "," ","1","&#10004","[1857.9000000059605]","1","0","0","","","","","","","",""
"pit-trial","10","140383","0.0-2.0-4.2-0.2","battery-v0.2","","""event"",""trial"",""time""
""fullscreenenter"",""1"",""2490""
","
","
","""event"",""trial"",""time""
""fullscreenenter"",""1"",""2490""
","
","","","930.5","","","18","9595","2402","&#9784;","elianto","#FFFFF080"," "," ","1","&#10004","[1787]","1","0","0","","","","","","","",""
"pit-trial","11","144186","0.0-2.0-4.3-0.3","battery-v0.2","","""event"",""trial"",""time""
""fullscreenenter"",""1"",""2490""
","
","
","""event"",""trial"",""time""
""fullscreenenter"",""1"",""2490""
","
","","","942.5999999940395","","","18","9595","2402","&#9784;","elianto","#FFFFF080"," "," ","1","&#10004","[1797.5]","1","0","0","","","","","","","",""
"pit-trial","12","147756","0.0-2.0-4.4-0.4","battery-v0.2","","""event"",""trial"",""time""
""fullscreenenter"",""1"",""2490""
","
","
","""event"",""trial"",""time""
""fullscreenenter"",""1"",""2490""
","
","","","692.8000000119209","","","18","9595","2402","&#9784;","elianto","#FFFFF080"," "," ","1","&#10004","[1554.4000000059605]","1","0","0","","","","","","","",""
"pit-instructions","13","173800","0.0-2.0-5.0","battery-v0.2","","""event"",""trial"",""time""
""fullscreenenter"",""1"",""2490""
","
","
","""event"",""trial"",""time""
""fullscreenenter"",""1"",""2490""
","
","","[{""page_index"":0,""viewing_time"":8130.0999999940395},{""page_index"":1,""viewing_time"":6265},{""page_index"":2,""viewing_time"":6125.300000011921},{""page_index"":3,""viewing_time"":5519.0999999940395}]","26040","","","","","","","","","","","","","","","","","","","","","","","",""
"pit-trial","14","178669","0.0-2.0-6.0-0.0","battery-v0.2","","""event"",""trial"",""time""
""fullscreenenter"",""1"",""2490""
","
","
","""event"",""trial"",""time""
""fullscreenenter"",""1"",""2490""
","
","","","-1","","","18","9595","2402","&#9854;","elianto","#FFFFF080","-1","-1","1","&#10004","[]","0","0","1","","","","","","","",""
"pit-trial","15","183532","0.0-2.0-6.1-0.1","battery-v0.2","","""event"",""trial"",""time""
""fullscreenenter"",""1"",""2490""
","
","
","""event"",""trial"",""time""
""fullscreenenter"",""1"",""2490""
","
","","","-1","","","18","9595","2402","&#9854;","elianto","#FFFFF080","-1","-1","1","&#10004","[]","0","0","1","","","","","","","",""
"pit-trial","16","188394","0.0-2.0-6.2-0.2","battery-v0.2","","""event"",""trial"",""time""
""fullscreenenter"",""1"",""2490""
","
","
","""event"",""trial"",""time""
""fullscreenenter"",""1"",""2490""
","
","","","-1","","","18","9595","2402","&#9854;","elianto","#FFFFF080","-1","-1","1","&#10004","[]","0","0","1","","","","","","","",""
"pit-trial","17","193274","0.0-2.0-6.3-0.3","battery-v0.2","","""event"",""trial"",""time""
""fullscreenenter"",""1"",""2490""
","
","
","""event"",""trial"",""time""
""fullscreenenter"",""1"",""2490""
","
","","","-1","","","18","9595","2402","&#9854;","elianto","#FFFFF080","-1","-1","1","&#10004","[]","0","0","1","","","","","","","",""
"pit-trial","18","198145","0.0-2.0-6.4-0.4","battery-v0.2","","""event"",""trial"",""time""
""fullscreenenter"",""1"",""2490""
","
","
","""event"",""trial"",""time""
""fullscreenenter"",""1"",""2490""
","
","","","-1","","","18","9595","2402","&#9854;","elianto","#FFFFF080","-1","-1","1","&#10004","[]","0","0","1","","","","","","","",""
"pit-instructions","19","325583","0.0-2.0-7.0","battery-v0.2","","""event"",""trial"",""time""
""fullscreenenter"",""1"",""2490""
","
","
","""event"",""trial"",""time""
""fullscreenenter"",""1"",""2490""
","
","","[{""page_index"":0,""viewing_time"":8503.09999999404},{""page_index"":1,""viewing_time"":7387.199999988079},{""page_index"":2,""viewing_time"":6258.9000000059605},{""page_index"":3,""viewing_time"":7358.5},{""page_index"":4,""viewing_time"":5863},{""page_index"":5,""viewing_time"":5252.0999999940395},{""page_index"":6,""viewing_time"":4915.9000000059605},{""page_index"":7,""viewing_time"":7923.800000011921},{""page_index"":8,""viewing_time"":8465.09999999404},{""page_index"":9,""viewing_time"":6419.800000011921},{""page_index"":10,""viewing_time"":7893.0999999940395},{""page_index"":11,""viewing_time"":4562.799999982119},{""page_index"":12,""viewing_time"":7714.9000000059605},{""page_index"":13,""viewing_time"":7690.4000000059605},{""page_index"":14,""viewing_time"":8074.0999999940395},{""page_index"":15,""viewing_time"":7623.200000017881},{""page_index"":16,""viewing_time"":6917.5},{""page_index"":17,""viewing_time"":8604.59999999404}]","127428.79999998212","","","","","","","","","","","","","","","","","","","","","","","",""
"pit-trial","20","329598","0.0-2.0-8.0-0.0","battery-v0.2","","""event"",""trial"",""time""
""fullscreenenter"",""1"",""2490""
","
","
","""event"",""trial"",""time""
""fullscreenenter"",""1"",""2490""
","
","","","1152.199999988079","","","18","9595","2402","&#9776;","elianto","#3366ff99"," "," ","1","+10","[2003.800000011921]","1","0","1","","","","","","","",""
"pit-trial","21","333233","0.0-2.0-8.0-1.0","battery-v0.2","","""event"",""trial"",""time""
""fullscreenenter"",""1"",""2490""
","
","
","""event"",""trial"",""time""
""fullscreenenter"",""1"",""2490""
","
","","","759.6000000238419","","","18","9595","2402","&#9776;","elianto","#3366ff99"," "," ","1","+10","[1617.699999988079]","1","0","1","","","","","","","",""
"pit-trial","22","338112","0.0-2.0-8.0-2.0","battery-v0.2","","""event"",""trial"",""time""
""fullscreenenter"",""1"",""2490""
","
","
","""event"",""trial"",""time""
""fullscreenenter"",""1"",""2490""
","
","","","-1","","","18","9595","2402","&#9776;","elianto","#3366ff99"," ","-1","0","0","[]","0","0","1","","","","","","","",""
"pit-trial","23","341992","0.0-2.0-8.0-3.0","battery-v0.2","","""event"",""trial"",""time""
""fullscreenenter"",""1"",""2490""
","
","
","""event"",""trial"",""time""
""fullscreenenter"",""1"",""2490""
","
","","","1021.5999999940395","","","18","9595","2402","&#9776;","elianto","#3366ff99"," "," ","1","0","[1872.5]","1","0","1","","","","","","","",""
"pit-trial","24","345886","0.0-2.0-8.0-4.0","battery-v0.2","","""event"",""trial"",""time""
""fullscreenenter"",""1"",""2490""
","
","
","""event"",""trial"",""time""
""fullscreenenter"",""1"",""2490""
","
","","","1035","","","18","9595","2402","&#9776;","elianto","#3366ff99"," "," ","1","+10","[1890]","1","0","1","","","","","","","",""
"pit-trial","25","350154","0.0-2.0-8.1-0.1","battery-v0.2","","""event"",""trial"",""time""
""fullscreenenter"",""1"",""2490""
","
","
","""event"",""trial"",""time""
""fullscreenenter"",""1"",""2490""
","
","","","1402.4000000059605","","","18","9595","2402","&#9776;","elianto","#3366ff99"," "," ","1","+10","[2263]","1","0","1","","","","","","","",""
"pit-trial","26","353849","0.0-2.0-8.1-1.1","battery-v0.2","","""event"",""trial"",""time""
""fullscreenenter"",""1"",""2490""
","
","
","""event"",""trial"",""time""
""fullscreenenter"",""1"",""2490""
","
","","","824.6999999880791","","","18","9595","2402","&#9776;","elianto","#3366ff99"," "," ","1","+10","[1684.5]","1","0","1","","","","","","","",""
"pit-trial","27","357348","0.0-2.0-8.1-2.1","battery-v0.2","","""event"",""trial"",""time""
""fullscreenenter"",""1"",""2490""
","
","
","""event"",""trial"",""time""
""fullscreenenter"",""1"",""2490""
","
","","","636.7000000178814","","","18","9595","2402","&#9776;","elianto","#3366ff99"," "," ","1","+10","[1489.1000000238419]","1","0","1","","","","","","","",""
"pit-trial","28","360774","0.0-2.0-8.1-3.1","battery-v0.2","","""event"",""trial"",""time""
""fullscreenenter"",""1"",""2490""
","
","
","""event"",""trial"",""time""
""fullscreenenter"",""1"",""2490""
","
","","","556.7000000178814","","","18","9595","2402","&#9776;","elianto","#3366ff99"," "," ","1","0","[1414.5]","1","0","1","","","","","","","",""
"pit-trial","29","364583","0.0-2.0-8.1-4.1","battery-v0.2","","""event"",""trial"",""time""
""fullscreenenter"",""1"",""2490""
","
","
","""event"",""trial"",""time""
""fullscreenenter"",""1"",""2490""
","
","","","942.5","","","18","9595","2402","&#9776;","elianto","#3366ff99"," "," ","1","+10","[1799.7999999821186]","1","0","1","","","","","","","",""
"pit-trial","30","368191","0.0-2.0-8.2-0.2","battery-v0.2","","""event"",""trial"",""time""
""fullscreenenter"",""1"",""2490""
","
","
","""event"",""trial"",""time""
""fullscreenenter"",""1"",""2490""
","
","","","741.7999999821186","","","18","9595","2402","&#9776;","elianto","#3366ff99"," "," ","1","+10","[1596.2999999821186]","1","0","1","","","","","","","",""
"pit-trial","31","371742","0.0-2.0-8.2-1.2","battery-v0.2","","""event"",""trial"",""time""
""fullscreenenter"",""1"",""2490""
","
","
","""event"",""trial"",""time""
""fullscreenenter"",""1"",""2490""
","
","","","689.9000000059605","","","18","9595","2402","&#9776;","elianto","#3366ff99"," "," ","1","+10","[1543.5999999940395]","1","0","1","","","","","","","",""
"pit-trial","32","375387","0.0-2.0-8.2-2.2","battery-v0.2","","""event"",""trial"",""time""
""fullscreenenter"",""1"",""2490""
","
","
","""event"",""trial"",""time""
""fullscreenenter"",""1"",""2490""
","
","","","785.1999999880791","","","18","9595","2402","&#9776;","elianto","#3366ff99"," "," ","1","+10","[1638.199999988079]","1","0","1","","","","","","","",""
"pit-trial","33","378749","0.0-2.0-8.2-3.2","battery-v0.2","","""event"",""trial"",""time""
""fullscreenenter"",""1"",""2490""
","
","
","""event"",""trial"",""time""
""fullscreenenter"",""1"",""2490""
","
","","","498.69999998807907","","","18","9595","2402","&#9776;","elianto","#3366ff99"," "," ","1","0","[1353.199999988079]","1","0","1","","","","","","","",""
"pit-trial","34","382461","0.0-2.0-8.2-4.2","battery-v0.2","","""event"",""trial"",""time""
""fullscreenenter"",""1"",""2490""
","
","
","""event"",""trial"",""time""
""fullscreenenter"",""1"",""2490""
","
","","","849.5","","","18","9595","2402","&#9776;","elianto","#3366ff99"," "," ","1","+10","[1703.5]","1","0","1","","","","","","","",""
"call-function","35","382465","0.0-2.0-9.0","battery-v0.2","","""event"",""trial"",""time""
""fullscreenenter"",""1"",""2490""
","
","
","""event"",""trial"",""time""
""fullscreenenter"",""1"",""2490""
","
","","","","","","","","","","","","","","","","","","","","","","","","","","",""
"pit-instructions","36","425177","0.0-2.0-10.0","battery-v0.2","","""event"",""trial"",""time""
""fullscreenenter"",""1"",""2490""
","
","
","""event"",""trial"",""time""
""fullscreenenter"",""1"",""2490""
","
","","[{""page_index"":0,""viewing_time"":7341.699999988079},{""page_index"":1,""viewing_time"":7220.9000000059605},{""page_index"":2,""viewing_time"":9905.800000011921},{""page_index"":3,""viewing_time"":9740.59999999404},{""page_index"":4,""viewing_time"":8499.699999988079}]","42709.40000000596","","","","","","","","","","","","","","","","","","","","","","","",""
"pit-trial","37","429111","0.0-2.0-11.0-0.0","battery-v0.2","","""event"",""trial"",""time""
""fullscreenenter"",""1"",""2490""
","
","
","""event"",""trial"",""time""
""fullscreenenter"",""1"",""2490""
","
","","","1070.4000000059605","","","18","9595","2402","&#9761;","elianto","#3366ff99","-1"," ","0","0","[1924.6000000238419]","1","0","2","","","","","","","",""
"pit-trial","38","432647","0.0-2.0-11.0-1.0","battery-v0.2","","""event"",""trial"",""time""
""fullscreenenter"",""1"",""2490""
","
","
","""event"",""trial"",""time""
""fullscreenenter"",""1"",""2490""
","
","","","660.0999999940395","","","18","9595","2402","&#9761;","elianto","#3366ff99","-1"," ","0","0","[1521.4000000059605]","1","0","2","","","","","","","",""
"pit-trial","39","436449","0.0-2.0-11.0-2.0","battery-v0.2","","""event"",""trial"",""time""
""fullscreenenter"",""1"",""2490""
","
","
","""event"",""trial"",""time""
""fullscreenenter"",""1"",""2490""
","
","","","928.2000000178814","","","18","9595","2402","&#9761;","elianto","#3366ff99","-1"," ","0","0","[1783.5]","1","0","2","","","","","","","",""
"pit-trial","40","440516","0.0-2.0-11.0-3.0","battery-v0.2","","""event"",""trial"",""time""
""fullscreenenter"",""1"",""2490""
","
","
","""event"",""trial"",""time""
""fullscreenenter"",""1"",""2490""
","
","","","1202.7000000178814","","","18","9595","2402","&#9761;","elianto","#3366ff99","-1"," ","0","+10","[2063.300000011921]","1","0","2","","","","","","","",""
"pit-trial","41","444659","0.0-2.0-11.0-4.0","battery-v0.2","","""event"",""trial"",""time""
""fullscreenenter"",""1"",""2490""
","
","
","""event"",""trial"",""time""
""fullscreenenter"",""1"",""2490""
","
","","","1277.5999999940395","","","18","9595","2402","&#9761;","elianto","#3366ff99","-1"," ","0","0","[2133.0999999940395]","1","0","2","","","","","","","",""
"pit-trial","42","449529","0.0-2.0-11.1-0.1","battery-v0.2","","""event"",""trial"",""time""
""fullscreenenter"",""1"",""2490""
","
","
","""event"",""trial"",""time""
""fullscreenenter"",""1"",""2490""
","
","","","-1","","","18","9595","2402","&#9761;","elianto","#3366ff99","-1","-1","1","+10","[]","0","0","2","","","","","","","",""
"pit-trial","43","454397","0.0-2.0-11.1-1.1","battery-v0.2","","""event"",""trial"",""time""
""fullscreenenter"",""1"",""2490""
","
","
","""event"",""trial"",""time""
""fullscreenenter"",""1"",""2490""
","
","","","-1","","","18","9595","2402","&#9761;","elianto","#3366ff99","-1","-1","1","+10","[]","0","0","2","","","","","","","",""
"pit-trial","44","459263","0.0-2.0-11.1-2.1","battery-v0.2","","""event"",""trial"",""time""
""fullscreenenter"",""1"",""2490""
","
","
","""event"",""trial"",""time""
""fullscreenenter"",""1"",""2490""
","
","","","-1","","","18","9595","2402","&#9761;","elianto","#3366ff99","-1","-1","1","+10","[]","0","0","2","","","","","","","",""
"pit-trial","45","464124","0.0-2.0-11.1-3.1","battery-v0.2","","""event"",""trial"",""time""
""fullscreenenter"",""1"",""2490""
","
","
","""event"",""trial"",""time""
""fullscreenenter"",""1"",""2490""
","
","","","-1","","","18","9595","2402","&#9761;","elianto","#3366ff99","-1","-1","1","0","[]","0","0","2","","","","","","","",""
"pit-trial","46","468987","0.0-2.0-11.1-4.1","battery-v0.2","","""event"",""trial"",""time""
""fullscreenenter"",""1"",""2490""
","
","
","""event"",""trial"",""time""
""fullscreenenter"",""1"",""2490""
","
","","","-1","","","18","9595","2402","&#9761;","elianto","#3366ff99","-1","-1","1","+10","[]","0","0","2","","","","","","","",""
"pit-trial","47","473859","0.0-2.0-11.2-0.2","battery-v0.2","","""event"",""trial"",""time""
""fullscreenenter"",""1"",""2490""
","
","
","""event"",""trial"",""time""
""fullscreenenter"",""1"",""2490""
","
","","","-1","","","18","9595","2402","&#9761;","elianto","#3366ff99","-1","-1","1","+10","[]","0","0","2","","","","","","","",""
"pit-trial","48","478724","0.0-2.0-11.2-1.2","battery-v0.2","","""event"",""trial"",""time""
""fullscreenenter"",""1"",""2490""
","
","
","""event"",""trial"",""time""
""fullscreenenter"",""1"",""2490""
","
","","","-1","","","18","9595","2402","&#9761;","elianto","#3366ff99","-1","-1","1","+10","[]","0","0","2","","","","","","","",""
"pit-trial","49","483579","0.0-2.0-11.2-2.2","battery-v0.2","","""event"",""trial"",""time""
""fullscreenenter"",""1"",""2490""
","
","
","""event"",""trial"",""time""
""fullscreenenter"",""1"",""2490""
","
","","","-1","","","18","9595","2402","&#9761;","elianto","#3366ff99","-1","-1","1","+10","[]","0","0","2","","","","","","","",""
"pit-trial","50","488452","0.0-2.0-11.2-3.2","battery-v0.2","","""event"",""trial"",""time""
""fullscreenenter"",""1"",""2490""
","
","
","""event"",""trial"",""time""
""fullscreenenter"",""1"",""2490""
","
","","","-1","","","18","9595","2402","&#9761;","elianto","#3366ff99","-1","-1","1","0","[]","0","0","2","","","","","","","",""
"pit-trial","51","493316","0.0-2.0-11.2-4.2","battery-v0.2","","""event"",""trial"",""time""
""fullscreenenter"",""1"",""2490""
","
","
","""event"",""trial"",""time""
""fullscreenenter"",""1"",""2490""
","
","","","-1","","","18","9595","2402","&#9761;","elianto","#3366ff99","-1","-1","1","+10","[]","0","0","2","","","","","","","",""
"pit-trial","52","498180","0.0-2.0-11.3-0.3","battery-v0.2","","""event"",""trial"",""time""
""fullscreenenter"",""1"",""2490""
","
","
","""event"",""trial"",""time""
""fullscreenenter"",""1"",""2490""
","
","","","-1","","","18","9595","2402","&#9761;","elianto","#3366ff99","-1","-1","1","+10","[]","0","0","2","","","","","","","",""
"pit-trial","53","503043","0.0-2.0-11.3-1.3","battery-v0.2","","""event"",""trial"",""time""
""fullscreenenter"",""1"",""2490""
","
","
","""event"",""trial"",""time""
""fullscreenenter"",""1"",""2490""
","
","","","-1","","","18","9595","2402","&#9761;","elianto","#3366ff99","-1","-1","1","+10","[]","0","0","2","","","","","","","",""
"pit-trial","54","507912","0.0-2.0-11.3-2.3","battery-v0.2","","""event"",""trial"",""time""
""fullscreenenter"",""1"",""2490""
","
","
","""event"",""trial"",""time""
""fullscreenenter"",""1"",""2490""
","
","","","-1","","","18","9595","2402","&#9761;","elianto","#3366ff99","-1","-1","1","+10","[]","0","0","2","","","","","","","",""
"pit-trial","55","512776","0.0-2.0-11.3-3.3","battery-v0.2","","""event"",""trial"",""time""
""fullscreenenter"",""1"",""2490""
","
","
","""event"",""trial"",""time""
""fullscreenenter"",""1"",""2490""
","
","","","-1","","","18","9595","2402","&#9761;","elianto","#3366ff99","-1","-1","1","0","[]","0","0","2","","","","","","","",""
"pit-trial","56","517636","0.0-2.0-11.3-4.3","battery-v0.2","","""event"",""trial"",""time""
""fullscreenenter"",""1"",""2490""
","
","
","""event"",""trial"",""time""
""fullscreenenter"",""1"",""2490""
","
","","","-1","","","18","9595","2402","&#9761;","elianto","#3366ff99","-1","-1","1","+10","[]","0","0","2","","","","","","","",""
"call-function","57","517638","0.0-2.0-12.0","battery-v0.2","","""event"",""trial"",""time""
""fullscreenenter"",""1"",""2490""
","
","
","""event"",""trial"",""time""
""fullscreenenter"",""1"",""2490""
","
","","","","","","","","","","","","","","","","","","","","","","","","","","",""
"pit-instructions","58","612471","0.0-2.0-13.0","battery-v0.2","","""event"",""trial"",""time""
""fullscreenenter"",""1"",""2490""
","
","
","""event"",""trial"",""time""
""fullscreenenter"",""1"",""2490""
","
","","[{""page_index"":0,""viewing_time"":8484.200000017881},{""page_index"":1,""viewing_time"":16089.59999999404},{""page_index"":2,""viewing_time"":50339.09999999404},{""page_index"":3,""viewing_time"":13921.09999999404},{""page_index"":4,""viewing_time"":5996.9000000059605}]","94831.5","","","","","","","","","","","","","","","","","","","","","","","",""
"pit-trial","59","617337","0.0-2.0-14.0-0.0","battery-v0.2","","""event"",""trial"",""time""
""fullscreenenter"",""1"",""2490""
","
","
","""event"",""trial"",""time""
""fullscreenenter"",""1"",""2490""
","
","","","-1","","","18","9595","2402","&#9826;","elianto","#f73b6a7A","-1","-1","1","0","[]","0","0","3","","","","","","","",""
"pit-trial","60","622209","0.0-2.0-14.0-1.0","battery-v0.2","","""event"",""trial"",""time""
""fullscreenenter"",""1"",""2490""
","
","
","""event"",""trial"",""time""
""fullscreenenter"",""1"",""2490""
","
","","","-1","","","18","9595","2402","&#9826;","elianto","#f73b6a7A","-1","-1","1","0","[]","0","0","3","","","","","","","",""
"pit-trial","61","625744","0.0-2.0-14.0-2.0","battery-v0.2","","""event"",""trial"",""time""
""fullscreenenter"",""1"",""2490""
","
","
","""event"",""trial"",""time""
""fullscreenenter"",""1"",""2490""
","
","","","675.3000000119209","","","18","9595","2402","&#9826;","elianto","#f73b6a7A","-1"," ","0","-10","[1531]","1","0","3","","","","","","","",""
"pit-trial","62","629380","0.0-2.0-14.0-3.0","battery-v0.2","","""event"",""trial"",""time""
""fullscreenenter"",""1"",""2490""
","
","
","""event"",""trial"",""time""
""fullscreenenter"",""1"",""2490""
","
","","","768.5999999940395","","","18","9595","2402","&#9826;","elianto","#f73b6a7A","-1"," ","0","0","[1623.5]","1","0","3","","","","","","","",""
"pit-trial","63","632745","0.0-2.0-14.0-4.0","battery-v0.2","","""event"",""trial"",""time""
""fullscreenenter"",""1"",""2490""
","
","
","""event"",""trial"",""time""
""fullscreenenter"",""1"",""2490""
","
","","","499.7000000178814","","","18","9595","2402","&#9826;","elianto","#f73b6a7A","-1"," ","0","-10","[1354.2000000178814]","1","0","3","","","","","","","",""
"pit-trial","64","636529","0.0-2.0-14.1-0.1","battery-v0.2","","""event"",""trial"",""time""
""fullscreenenter"",""1"",""2490""
","
","
","""event"",""trial"",""time""
""fullscreenenter"",""1"",""2490""
","
","","","921.2000000178814","","","18","9595","2402","&#9826;","elianto","#f73b6a7A","-1"," ","0","-10","[1778.9000000059605]","1","0","3","","","","","","","",""
"pit-trial","65","641399","0.0-2.0-14.1-1.1","battery-v0.2","","""event"",""trial"",""time""
""fullscreenenter"",""1"",""2490""
","
","
","""event"",""trial"",""time""
""fullscreenenter"",""1"",""2490""
","
","","","-1","","","18","9595","2402","&#9826;","elianto","#f73b6a7A","-1","-1","1","0","[]","0","0","3","","","","","","","",""
"pit-trial","66","646266","0.0-2.0-14.1-2.1","battery-v0.2","","""event"",""trial"",""time""
""fullscreenenter"",""1"",""2490""
","
","
","""event"",""trial"",""time""
""fullscreenenter"",""1"",""2490""
","
","","","-1","","","18","9595","2402","&#9826;","elianto","#f73b6a7A","-1","-1","1","0","[]","0","0","3","","","","","","","",""
"pit-trial","67","651131","0.0-2.0-14.1-3.1","battery-v0.2","","""event"",""trial"",""time""
""fullscreenenter"",""1"",""2490""
","
","
","""event"",""trial"",""time""
""fullscreenenter"",""1"",""2490""
","
","","","-1","","","18","9595","2402","&#9826;","elianto","#f73b6a7A","-1","-1","1","-10","[]","0","0","3","","","","","","","",""
"pit-trial","68","655991","0.0-2.0-14.1-4.1","battery-v0.2","","""event"",""trial"",""time""
""fullscreenenter"",""1"",""2490""
","
","
","""event"",""trial"",""time""
""fullscreenenter"",""1"",""2490""
","
","","","-1","","","18","9595","2402","&#9826;","elianto","#f73b6a7A","-1","-1","1","0","[]","0","0","3","","","","","","","",""
"pit-trial","69","660856","0.0-2.0-14.2-0.2","battery-v0.2","","""event"",""trial"",""time""
""fullscreenenter"",""1"",""2490""
","
","
","""event"",""trial"",""time""
""fullscreenenter"",""1"",""2490""
","
","","","-1","","","18","9595","2402","&#9826;","elianto","#f73b6a7A","-1","-1","1","0","[]","0","0","3","","","","","","","",""
"pit-trial","70","665724","0.0-2.0-14.2-1.2","battery-v0.2","","""event"",""trial"",""time""
""fullscreenenter"",""1"",""2490""
","
","
","""event"",""trial"",""time""
""fullscreenenter"",""1"",""2490""
","
","","","-1","","","18","9595","2402","&#9826;","elianto","#f73b6a7A","-1","-1","1","0","[]","0","0","3","","","","","","","",""
"pit-trial","71","670587","0.0-2.0-14.2-2.2","battery-v0.2","","""event"",""trial"",""time""
""fullscreenenter"",""1"",""2490""
","
","
","""event"",""trial"",""time""
""fullscreenenter"",""1"",""2490""
","
","","","-1","","","18","9595","2402","&#9826;","elianto","#f73b6a7A","-1","-1","1","0","[]","0","0","3","","","","","","","",""
"pit-trial","72","675445","0.0-2.0-14.2-3.2","battery-v0.2","","""event"",""trial"",""time""
""fullscreenenter"",""1"",""2490""
","
","
","""event"",""trial"",""time""
""fullscreenenter"",""1"",""2490""
","
","","","-1","","","18","9595","2402","&#9826;","elianto","#f73b6a7A","-1","-1","1","-10","[]","0","0","3","","","","","","","",""
"pit-trial","73","679520","0.0-2.0-14.2-4.2","battery-v0.2","","""event"",""trial"",""time""
""fullscreenenter"",""1"",""2490""
","
","
","""event"",""trial"",""time""
""fullscreenenter"",""1"",""2490""
","
","","","1204","","","18","9595","2402","&#9826;","elianto","#f73b6a7A","-1"," ","0","-10","[2058.5]","1","0","3","","","","","","","",""
"pit-trial","74","684381","0.0-2.0-14.3-0.3","battery-v0.2","","""event"",""trial"",""time""
""fullscreenenter"",""1"",""2490""
","
","
","""event"",""trial"",""time""
""fullscreenenter"",""1"",""2490""
","
","","","-1","","","18","9595","2402","&#9826;","elianto","#f73b6a7A","-1","-1","1","0","[]","0","0","3","","","","","","","",""
"pit-trial","75","689245","0.0-2.0-14.3-1.3","battery-v0.2","","""event"",""trial"",""time""
""fullscreenenter"",""1"",""2490""
","
","
","""event"",""trial"",""time""
""fullscreenenter"",""1"",""2490""
","
","","","-1","","","18","9595","2402","&#9826;","elianto","#f73b6a7A","-1","-1","1","0","[]","0","0","3","","","","","","","",""
"pit-trial","76","694114","0.0-2.0-14.3-2.3","battery-v0.2","","""event"",""trial"",""time""
""fullscreenenter"",""1"",""2490""
","
","
","""event"",""trial"",""time""
""fullscreenenter"",""1"",""2490""
","
","","","-1","","","18","9595","2402","&#9826;","elianto","#f73b6a7A","-1","-1","1","0","[]","0","0","3","","","","","","","",""
"pit-trial","77","698975","0.0-2.0-14.3-3.3","battery-v0.2","","""event"",""trial"",""time""
""fullscreenenter"",""1"",""2490""
","
","
","""event"",""trial"",""time""
""fullscreenenter"",""1"",""2490""
","
","","","-1","","","18","9595","2402","&#9826;","elianto","#f73b6a7A","-1","-1","1","-10","[]","0","0","3","","","","","","","",""
"pit-trial","78","703844","0.0-2.0-14.3-4.3","battery-v0.2","","""event"",""trial"",""time""
""fullscreenenter"",""1"",""2490""
","
","
","""event"",""trial"",""time""
""fullscreenenter"",""1"",""2490""
","
","","","-1","","","18","9595","2402","&#9826;","elianto","#f73b6a7A","-1","-1","1","0","[]","0","0","3","","","","","","","",""
"call-function","79","703847","0.0-2.0-15.0","battery-v0.2","","""event"",""trial"",""time""
""fullscreenenter"",""1"",""2490""
","
","
","""event"",""trial"",""time""
""fullscreenenter"",""1"",""2490""
","
","","","","","","","","","","","","","","","","","","","","","","","","","","",""
"pit-instructions","80","733772","0.0-2.0-16.0","battery-v0.2","","""event"",""trial"",""time""
""fullscreenenter"",""1"",""2490""
","
","
","""event"",""trial"",""time""
""fullscreenenter"",""1"",""2490""
","
","","[{""page_index"":0,""viewing_time"":7603.0999999940395},{""page_index"":1,""viewing_time"":11561.59999999404},{""page_index"":2,""viewing_time"":5461.800000011921},{""page_index"":3,""viewing_time"":5295.0999999940395}]","29921.899999976158","","","","","","","","","","","","","","","","","","","","","","","",""
"pit-trial","81","737560","0.0-2.0-17.0-0.0","battery-v0.2","","""event"",""trial"",""time""
""fullscreenenter"",""1"",""2490""
","
","
","""event"",""trial"",""time""
""fullscreenenter"",""1"",""2490""
","
","","","924.5","","","18","9595","2402","&#9789;","elianto","#f73b6a7A"," "," ","1","0","[1780.300000011921]","1","0","4","","","","","","","",""
"pit-trial","82","741311","0.0-2.0-17.0-1.0","battery-v0.2","","""event"",""trial"",""time""
""fullscreenenter"",""1"",""2490""
","
","
","""event"",""trial"",""time""
""fullscreenenter"",""1"",""2490""
","
","","","882.5","","","18","9595","2402","&#9789;","elianto","#f73b6a7A"," "," ","1","0","[1746.7000000178814]","1","0","4","","","","","","","",""
"pit-trial","83","744692","0.0-2.0-17.0-2.0","battery-v0.2","","""event"",""trial"",""time""
""fullscreenenter"",""1"",""2490""
","
","
","""event"",""trial"",""time""
""fullscreenenter"",""1"",""2490""
","
","","","513.2999999821186","","","18","9595","2402","&#9789;","elianto","#f73b6a7A"," "," ","1","0","[1368.2999999821186]","1","0","4","","","","","","","",""
"pit-trial","84","749563","0.0-2.0-17.0-3.0","battery-v0.2","","""event"",""trial"",""time""
""fullscreenenter"",""1"",""2490""
","
","
","""event"",""trial"",""time""
""fullscreenenter"",""1"",""2490""
","
","","","-1","","","18","9595","2402","&#9789;","elianto","#f73b6a7A"," ","-1","0","0","[]","0","0","4","","","","","","","",""
"pit-trial","85","754436","0.0-2.0-17.0-4.0","battery-v0.2","","""event"",""trial"",""time""
""fullscreenenter"",""1"",""2490""
","
","
","""event"",""trial"",""time""
""fullscreenenter"",""1"",""2490""
","
","","","-1","","","18","9595","2402","&#9789;","elianto","#f73b6a7A"," ","-1","0","-10","[]","0","0","4","","","","","","","",""
"pit-trial","86","759313","0.0-2.0-17.1-0.1","battery-v0.2","","""event"",""trial"",""time""
""fullscreenenter"",""1"",""2490""
","
","
","""event"",""trial"",""time""
""fullscreenenter"",""1"",""2490""
","
","","","-1","","","18","9595","2402","&#9789;","elianto","#f73b6a7A"," ","-1","0","-10","[]","0","0","4","","","","","","","",""
"pit-trial","87","764173","0.0-2.0-17.1-1.1","battery-v0.2","","""event"",""trial"",""time""
""fullscreenenter"",""1"",""2490""
","
","
","""event"",""trial"",""time""
""fullscreenenter"",""1"",""2490""
","
","","","-1","","","18","9595","2402","&#9789;","elianto","#f73b6a7A"," ","-1","0","-10","[]","0","0","4","","","","","","","",""
"pit-trial","88","767593","0.0-2.0-17.1-2.1","battery-v0.2","","""event"",""trial"",""time""
""fullscreenenter"",""1"",""2490""
","
","
","""event"",""trial"",""time""
""fullscreenenter"",""1"",""2490""
","
","","","556.3999999761581","","","18","9595","2402","&#9789;","elianto","#f73b6a7A"," "," ","1","0","[1412.3999999761581]","1","0","4","","","","","","","",""
"pit-trial","89","770905","0.0-2.0-17.1-3.1","battery-v0.2","","""event"",""trial"",""time""
""fullscreenenter"",""1"",""2490""
","
","
","""event"",""trial"",""time""
""fullscreenenter"",""1"",""2490""
","
","","","444.60000002384186","","","18","9595","2402","&#9789;","elianto","#f73b6a7A"," "," ","1","-10","[1299.9000000059605]","1","0","4","","","","","","","",""
"pit-trial","90","775325","0.0-2.0-17.1-4.1","battery-v0.2","","""event"",""trial"",""time""
""fullscreenenter"",""1"",""2490""
","
","
","""event"",""trial"",""time""
""fullscreenenter"",""1"",""2490""
","
","","","1548.5","","","18","9595","2402","&#9789;","elianto","#f73b6a7A"," "," ","1","0","[2401.2999999821186]","1","0","4","","","","","","","",""
"pit-trial","91","780192","0.0-2.0-17.2-0.2","battery-v0.2","","""event"",""trial"",""time""
""fullscreenenter"",""1"",""2490""
","
","
","""event"",""trial"",""time""
""fullscreenenter"",""1"",""2490""
","
","","","-1","","","18","9595","2402","&#9789;","elianto","#f73b6a7A"," ","-1","0","-10","[]","0","0","4","","","","","","","",""
"pit-trial","92","785058","0.0-2.0-17.2-1.2","battery-v0.2","","""event"",""trial"",""time""
""fullscreenenter"",""1"",""2490""
","
","
","""event"",""trial"",""time""
""fullscreenenter"",""1"",""2490""
","
","","","-1","","","18","9595","2402","&#9789;","elianto","#f73b6a7A"," ","-1","0","-10","[]","0","0","4","","","","","","","",""
"pit-trial","93","788691","0.0-2.0-17.2-2.2","battery-v0.2","","""event"",""trial"",""time""
""fullscreenenter"",""1"",""2490""
","
","
","""event"",""trial"",""time""
""fullscreenenter"",""1"",""2490""
","
","","","770.9000000059605","","","18","9595","2402","&#9789;","elianto","#f73b6a7A"," "," ","1","0","[1624.199999988079]","1","0","4","","","","","","","",""
"pit-trial","94","791833","0.0-2.0-17.2-3.2","battery-v0.2","","""event"",""trial"",""time""
""fullscreenenter"",""1"",""2490""
","
","
","""event"",""trial"",""time""
""fullscreenenter"",""1"",""2490""
","
","","","279.59999999403954","","","18","9595","2402","&#9789;","elianto","#f73b6a7A"," "," ","1","-10","[1133.3999999761581]","1","0","4","","","","","","","",""
"pit-trial","95","795340","0.0-2.0-17.2-4.2","battery-v0.2","","""event"",""trial"",""time""
""fullscreenenter"",""1"",""2490""
","
","
","""event"",""trial"",""time""
""fullscreenenter"",""1"",""2490""
","
","","","643.1999999880791","","","18","9595","2402","&#9789;","elianto","#f73b6a7A"," "," ","1","0","[1497.7999999821186]","1","0","4","","","","","","","",""
"pit-trial","96","798740","0.0-2.0-17.3-0.3","battery-v0.2","","""event"",""trial"",""time""
""fullscreenenter"",""1"",""2490""
","
","
","""event"",""trial"",""time""
""fullscreenenter"",""1"",""2490""
","
","","","539.6999999880791","","","18","9595","2402","&#9789;","elianto","#f73b6a7A"," "," ","1","0","[1392.5]","1","0","4","","","","","","","",""
"pit-trial","97","802141","0.0-2.0-17.3-1.3","battery-v0.2","","""event"",""trial"",""time""
""fullscreenenter"",""1"",""2490""
","
","
","""event"",""trial"",""time""
""fullscreenenter"",""1"",""2490""
","
","","","543.7999999821186","","","18","9595","2402","&#9789;","elianto","#f73b6a7A"," "," ","1","0","[1397]","1","0","4","","","","","","","",""
"pit-trial","98","805232","0.0-2.0-17.3-2.3","battery-v0.2","","""event"",""trial"",""time""
""fullscreenenter"",""1"",""2490""
","
","
","""event"",""trial"",""time""
""fullscreenenter"",""1"",""2490""
","
","","","232.60000002384186","","","18","9595","2402","&#9789;","elianto","#f73b6a7A"," "," ","1","0","[1085.5]","1","0","4","","","","","","","",""
"pit-trial","99","808980","0.0-2.0-17.3-3.3","battery-v0.2","","""event"",""trial"",""time""
""fullscreenenter"",""1"",""2490""
","
","
","""event"",""trial"",""time""
""fullscreenenter"",""1"",""2490""
","
","","","887.0999999940395","","","18","9595","2402","&#9789;","elianto","#f73b6a7A"," "," ","1","-10","[1742.699999988079]","1","0","4","","","","","","","",""
"pit-trial","100","812781","0.0-2.0-17.3-4.3","battery-v0.2","","""event"",""trial"",""time""
""fullscreenenter"",""1"",""2490""
","
","
","""event"",""trial"",""time""
""fullscreenenter"",""1"",""2490""
","
","","","943.1999999880791","","","18","9595","2402","&#9789;","elianto","#f73b6a7A"," "," ","1","0","[1796.0999999940395]","1","0","4","","","","","","","",""
"call-function","101","812784","0.0-2.0-18.0","battery-v0.2","","""event"",""trial"",""time""
""fullscreenenter"",""1"",""2490""
","
","
","""event"",""trial"",""time""
""fullscreenenter"",""1"",""2490""
","
","","","","","","","","","","","","","","","","","","","","","","","","","","",""
"pit-instructions","102","887520","0.0-2.0-19.0","battery-v0.2","","""event"",""trial"",""time""
""fullscreenenter"",""1"",""2490""
","
","
","""event"",""trial"",""time""
""fullscreenenter"",""1"",""2490""
","
","","[{""page_index"":0,""viewing_time"":6670.5999999940395},{""page_index"":1,""viewing_time"":6368.5999999940395},{""page_index"":2,""viewing_time"":13436.199999988079},{""page_index"":3,""viewing_time"":9027},{""page_index"":4,""viewing_time"":11938},{""page_index"":5,""viewing_time"":8257.5},{""page_index"":6,""viewing_time"":8616.40000000596},{""page_index"":7,""viewing_time"":6104.9000000059605},{""page_index"":8,""viewing_time"":4314.199999988079}]","74733.79999998212","","","","","","","","","","","","","","","","","","","","","","","",""
"pit-comprehension","103","896957","0.0-2.0-20.0-0.0","battery-v0.2","","""event"",""trial"",""time""
""fullscreenenter"",""1"",""2490""
","
","
","""event"",""trial"",""time""
""fullscreenenter"",""1"",""2490""
","
","","","9432.699999988079","[""SPACE""]","0","18","9595","2402","","","","","","","","","","","","","","","","","","",""
"pit-instructions","104","899753","0.0-2.0-20.0-1.0","battery-v0.2","","""event"",""trial"",""time""
""fullscreenenter"",""1"",""2490""
","
","
","""event"",""trial"",""time""
""fullscreenenter"",""1"",""2490""
","
","","[{""page_index"":0,""viewing_time"":2735.800000011921}]","2736.800000011921","","","","","","","","","","","","","","","","","","","","","","","",""
"pit-comprehension","105","905262","0.0-2.0-21.0-0.0","battery-v0.2","","""event"",""trial"",""time""
""fullscreenenter"",""1"",""2490""
","
","
","""event"",""trial"",""time""
""fullscreenenter"",""1"",""2490""
","
","","","5502.300000011921","[""10""]","0","18","9595","2402","","","","","","","","","","","","","","","","","","",""
"pit-instructions","106","907192","0.0-2.0-21.0-1.0","battery-v0.2","","""event"",""trial"",""time""
""fullscreenenter"",""1"",""2490""
","
","
","""event"",""trial"",""time""
""fullscreenenter"",""1"",""2490""
","
","","[{""page_index"":0,""viewing_time"":1886.4000000059605}]","1886.5999999940395","","","","","","","","","","","","","","","","","","","","","","","",""
"pit-comprehension","107","916087","0.0-2.0-22.0-0.0","battery-v0.2","","""event"",""trial"",""time""
""fullscreenenter"",""1"",""2490""
","
","
","""event"",""trial"",""time""
""fullscreenenter"",""1"",""2490""
","
","","","8886.40000000596","[""-10""]","1","18","9595","2402","","","","","","","","","","","","","","","","","","",""
"pit-instructions","108","923938","0.0-2.0-22.0-1.0","battery-v0.2","","""event"",""trial"",""time""
""fullscreenenter"",""1"",""2490""
","
","
","""event"",""trial"",""time""
""fullscreenenter"",""1"",""2490""
","
","","[{""page_index"":0,""viewing_time"":7810.5}]","7810.799999982119","","","","","","","","","","","","","","","","","","","","","","","",""
"pit-instructions","109","925495","0.0-2.0-22.0-2.0-0.0","battery-v0.2","","""event"",""trial"",""time""
""fullscreenenter"",""1"",""2490""
","
","
","""event"",""trial"",""time""
""fullscreenenter"",""1"",""2490""
","
","","[{""page_index"":0,""viewing_time"":1551.7999999821186}]","1552.5","","","","","","","","","","","","","","","","","","","","","","","",""
"pit-comprehension","110","932551","0.0-2.0-22.1-0.1","battery-v0.2","","""event"",""trial"",""time""
""fullscreenenter"",""1"",""2490""
","
","
","""event"",""trial"",""time""
""fullscreenenter"",""1"",""2490""
","
","","","7050","[""0""]","0","18","9595","2402","","","","","","","","","","","","","","","","","","",""
"pit-instructions","111","934086","0.0-2.0-22.1-1.1","battery-v0.2","","""event"",""trial"",""time""
""fullscreenenter"",""1"",""2490""
","
","
","""event"",""trial"",""time""
""fullscreenenter"",""1"",""2490""
","
","","[{""page_index"":0,""viewing_time"":1490.5}]","1490.8999999761581","","","","","","","","","","","","","","","","","","","","","","","",""
"pit-comprehension","112","943277","0.0-2.0-23.0-0.0","battery-v0.2","","""event"",""trial"",""time""
""fullscreenenter"",""1"",""2490""
","
","
","""event"",""trial"",""time""
""fullscreenenter"",""1"",""2490""
","
","","","9183","[""True""]","0","18","9595","2402","","","","","","","","","","","","","","","","","","",""
"pit-instructions","113","945048","0.0-2.0-23.0-1.0","battery-v0.2","","""event"",""trial"",""time""
""fullscreenenter"",""1"",""2490""
","
","
","""event"",""trial"",""time""
""fullscreenenter"",""1"",""2490""
","
","","[{""page_index"":0,""viewing_time"":1723.6000000238419}]","1724.1000000238419","","","","","","","","","","","","","","","","","","","","","","","",""
"pit-comprehension","114","952775","0.0-2.0-24.0-0.0","battery-v0.2","","""event"",""trial"",""time""
""fullscreenenter"",""1"",""2490""
","
","
","""event"",""trial"",""time""
""fullscreenenter"",""1"",""2490""
","
","","","7723","[""True""]","0","18","9595","2402","","","","","","","","","","","","","","","","","","",""
"pit-instructions","115","954943","0.0-2.0-24.0-1.0","battery-v0.2","","""event"",""trial"",""time""
""fullscreenenter"",""1"",""2490""
","
","
","""event"",""trial"",""time""
""fullscreenenter"",""1"",""2490""
","
","","[{""page_index"":0,""viewing_time"":2111.5999999940395}]","2112.199999988079","","","","","","","","","","","","","","","","","","","","","","","",""
"pit-comprehension","116","961711","0.0-2.0-25.0-0.0","battery-v0.2","","""event"",""trial"",""time""
""fullscreenenter"",""1"",""2490""
","
","
","""event"",""trial"",""time""
""fullscreenenter"",""1"",""2490""
","
","","","6762.199999988079","[""True""]","0","18","9595","2402","","","","","","","","","","","","","","","","","","",""
"pit-instructions","117","963594","0.0-2.0-25.0-1.0","battery-v0.2","","""event"",""trial"",""time""
""fullscreenenter"",""1"",""2490""
","
","
","""event"",""trial"",""time""
""fullscreenenter"",""1"",""2490""
","
","","[{""page_index"":0,""viewing_time"":1841.7000000178814}]","1842.9000000059605","","","","","","","","","","","","","","","","","","","","","","","",""
"pit-comprehension","118","971109","0.0-2.0-26.0-0.0","battery-v0.2","","""event"",""trial"",""time""
""fullscreenenter"",""1"",""2490""
","
","
","""event"",""trial"",""time""
""fullscreenenter"",""1"",""2490""
","
","","","7507.4000000059605","[""False""]","0","18","9595","2402","","","","","","","","","","","","","","","","","","",""
"pit-instructions","119","973208","0.0-2.0-26.0-1.0","battery-v0.2","","""event"",""trial"",""time""
""fullscreenenter"",""1"",""2490""
","
","
","""event"",""trial"",""time""
""fullscreenenter"",""1"",""2490""
","
","","[{""page_index"":0,""viewing_time"":2052.4000000059605}]","2053","","","","","","","","","","","","","","","","","","","","","","","",""
"pit-instructions","120","992532","0.0-3.0","battery-v0.2","","""event"",""trial"",""time""
""fullscreenenter"",""1"",""2490""
","
","
","""event"",""trial"",""time""
""fullscreenenter"",""1"",""2490""
","
","","[{""page_index"":0,""viewing_time"":5297.600000023842},{""page_index"":1,""viewing_time"":6415.899999976158},{""page_index"":2,""viewing_time"":7605.800000011921}]","19320.30000001192","","","","","","","","","","","","","","","","","","","","","","","",""
"pit-trial","121","996644","0.0-4.0","battery-v0.2","","""event"",""trial"",""time""
""fullscreenenter"",""1"",""2490""
","
","
","""event"",""trial"",""time""
""fullscreenenter"",""1"",""2490""
","
","","","1249.0999999940395","","","18","9595","2402","&#9728;","elianto","#f73b6a7A","-1"," ","0","-10","[2099.899999976158]","1","1","","","9595","1","0","4","lose","no-go","0"
"pit-trial","122","1000406","0.0-5.0","battery-v0.2","","""event"",""trial"",""time""
""fullscreenenter"",""1"",""2490""
","
","
","""event"",""trial"",""time""
""fullscreenenter"",""1"",""2490""
","
","","","895.9000000059605","","","18","9595","2402","&#9752;","elianto","#f73b6a7A"," "," ","1","0","[1748.699999988079]","1","1","","","9595","2","3","3","lose","go","0"
"pit-trial","123","1004174","0.0-6.0","battery-v0.2","","""event"",""trial"",""time""
""fullscreenenter"",""1"",""2490""
","
","
","""event"",""trial"",""time""
""fullscreenenter"",""1"",""2490""
","
","","","902.7000000178814","","","18","9595","2402","&#9733;","elianto","#3366ff99","-1"," ","0","0","[1755]","1","1","","","9595","3","2","2","win","no-go","0"
"pit-trial","124","1007999","0.0-7.0","battery-v0.2","","""event"",""trial"",""time""
""fullscreenenter"",""1"",""2490""
","
","
","""event"",""trial"",""time""
""fullscreenenter"",""1"",""2490""
","
","","","962.4000000059605","","","18","9595","2402","&#9730;","elianto","#3366ff99"," "," ","1","+10","[1820.699999988079]","1","1","","","9595","4","1","1","win","go","0"
"pit-trial","125","1012874","0.0-8.0","battery-v0.2","","""event"",""trial"",""time""
""fullscreenenter"",""1"",""2490""
","
","
","""event"",""trial"",""time""
""fullscreenenter"",""1"",""2490""
","
","","","-1","","","18","9595","2402","&#9728;","elianto","#f73b6a7A","-1","-1","1","0","[]","0","1","","","9595","5","0","4","lose","no-go","0"
"pit-trial","126","1016894","0.0-9.0","battery-v0.2","","""event"",""trial"",""time""
""fullscreenenter"",""1"",""2490""
","
","
","""event"",""trial"",""time""
""fullscreenenter"",""1"",""2490""
","
","","","1156.199999988079","","","18","9595","2402","&#9733;","elianto","#3366ff99","-1"," ","0","+10","[2014.5999999940395]","1","1","","","9595","6","2","2","win","no-go","1"
"pit-trial","127","1021078","0.0-10.0","battery-v0.2","","""event"",""trial"",""time""
""fullscreenenter"",""1"",""2490""
","
","
","""event"",""trial"",""time""
""fullscreenenter"",""1"",""2490""
","
","","","1305.5999999940395","","","18","9595","2402","&#9752;","elianto","#f73b6a7A"," "," ","1","0","[2167.5999999940395]","1","1","","","9595","7","3","3","lose","go","0"
"pit-trial","128","1025054","0.0-11.0","battery-v0.2","","""event"",""trial"",""time""
""fullscreenenter"",""1"",""2490""
","
","
","""event"",""trial"",""time""
""fullscreenenter"",""1"",""2490""
","
","","","1120.5","","","18","9595","2402","&#9730;","elianto","#3366ff99"," "," ","1","0","[1971.300000011921]","1","1","","","9595","8","1","1","win","go","1"
"pit-trial","129","1029921","0.0-12.0","battery-v0.2","","""event"",""trial"",""time""
""fullscreenenter"",""1"",""2490""
","
","
","""event"",""trial"",""time""
""fullscreenenter"",""1"",""2490""
","
","","","-1","","","18","9595","2402","&#9730;","elianto","#3366ff99"," ","-1","0","0","[]","0","1","","","9595","9","1","1","win","go","0"
"pit-trial","130","1034801","0.0-13.0","battery-v0.2","","""event"",""trial"",""time""
""fullscreenenter"",""1"",""2490""
","
","
","""event"",""trial"",""time""
""fullscreenenter"",""1"",""2490""
","
","","","-1","","","18","9595","2402","&#9752;","elianto","#f73b6a7A"," ","-1","0","-10","[]","0","1","","","9595","10","3","3","lose","go","0"
"pit-trial","131","1038826","0.0-14.0","battery-v0.2","","""event"",""trial"",""time""
""fullscreenenter"",""1"",""2490""
","
","
","""event"",""trial"",""time""
""fullscreenenter"",""1"",""2490""
","
","","","1152.7000000178814","","","18","9595","2402","&#9728;","elianto","#f73b6a7A","-1"," ","0","-10","[2009.1000000238419]","1","1","","","9595","11","0","4","lose","no-go","0"
"pit-trial","132","1042600","0.0-15.0","battery-v0.2","","""event"",""trial"",""time""
""fullscreenenter"",""1"",""2490""
","
","
","""event"",""trial"",""time""
""fullscreenenter"",""1"",""2490""
","
","","","916.4000000059605","","","18","9595","2402","&#9733;","elianto","#3366ff99","-1"," ","0","+10","[1768.7000000178814]","1","1","","","9595","12","2","2","win","no-go","1"
"pit-trial","133","1046294","0.0-16.0","battery-v0.2","","""event"",""trial"",""time""
""fullscreenenter"",""1"",""2490""
","
","
","""event"",""trial"",""time""
""fullscreenenter"",""1"",""2490""
","
","","","835","","","18","9595","2402","&#9733;","elianto","#3366ff99","-1"," ","0","0","[1687.7000000178814]","1","1","","","9595","13","2","2","win","no-go","0"
"pit-trial","134","1050734","0.0-17.0","battery-v0.2","","""event"",""trial"",""time""
""fullscreenenter"",""1"",""2490""
","
","
","""event"",""trial"",""time""
""fullscreenenter"",""1"",""2490""
","
","","","1577.9000000059605","","","18","9595","2402","&#9728;","elianto","#f73b6a7A","-1"," ","0","-10","[2428.9000000059605]","1","1","","","9595","14","0","4","lose","no-go","0"
"pit-trial","135","1055156","0.0-18.0","battery-v0.2","","""event"",""trial"",""time""
""fullscreenenter"",""1"",""2490""
","
","
","""event"",""trial"",""time""
""fullscreenenter"",""1"",""2490""
","
","","","1561.5","","","18","9595","2402","&#9752;","elianto","#f73b6a7A"," "," ","1","0","[2414.9000000059605]","1","1","","","9595","15","3","3","lose","go","0"
"pit-trial","136","1059534","0.0-19.0","battery-v0.2","","""event"",""trial"",""time""
""fullscreenenter"",""1"",""2490""
","
","
","""event"",""trial"",""time""
""fullscreenenter"",""1"",""2490""
","
","","","1515.9000000059605","","","18","9595","2402","&#9730;","elianto","#3366ff99"," "," ","1","+10","[2369]","1","1","","","9595","16","1","1","win","go","0"
"pit-trial","137","1064404","0.0-20.0","battery-v0.2","","""event"",""trial"",""time""
""fullscreenenter"",""1"",""2490""
","
","
","""event"",""trial"",""time""
""fullscreenenter"",""1"",""2490""
","
","","","-1","","","18","9595","2402","&#9728;","elianto","#f73b6a7A","-1","-1","1","-10","[]","0","1","","","9595","17","0","4","lose","no-go","1"
"pit-trial","138","1068641","0.0-21.0","battery-v0.2","","""event"",""trial"",""time""
""fullscreenenter"",""1"",""2490""
","
","
","""event"",""trial"",""time""
""fullscreenenter"",""1"",""2490""
","
","","","1365.2999999821186","","","18","9595","2402","&#9730;","elianto","#3366ff99"," "," ","1","+10","[2220.0999999940395]","1","1","","","9595","18","1","1","win","go","0"
"pit-trial","139","1072216","0.0-22.0","battery-v0.2","","""event"",""trial"",""time""
""fullscreenenter"",""1"",""2490""
","
","
","""event"",""trial"",""time""
""fullscreenenter"",""1"",""2490""
","
","","","715.5999999940395","","","18","9595","2402","&#9733;","elianto","#3366ff99","-1"," ","0","0","[1569.300000011921]","1","1","","","9595","19","2","2","win","no-go","0"
"pit-trial","140","1077083","0.0-23.0","battery-v0.2","","""event"",""trial"",""time""
""fullscreenenter"",""1"",""2490""
","
","
","""event"",""trial"",""time""
""fullscreenenter"",""1"",""2490""
","
","","","-1","","","18","9595","2402","&#9752;","elianto","#f73b6a7A"," ","-1","0","-10","[2936.2999999821186]","1","1","","","9595","20","3","3","lose","go","0"
"pit-instructions","141","1109404","0.0-24.0","battery-v0.2","","""event"",""trial"",""time""
""fullscreenenter"",""1"",""2490""
","
","
","""event"",""trial"",""time""
""fullscreenenter"",""1"",""2490""
","
","","[{""page_index"":0,""viewing_time"":6049.5},{""page_index"":1,""viewing_time"":26268.69999998808}]","32318.59999999404","","","","","","","","","","","","","","","","","","","","","","","",""
"pit-trial","142","1113657","0.0-25.0","battery-v0.2","","""event"",""trial"",""time""
""fullscreenenter"",""1"",""2490""
","
","
","""event"",""trial"",""time""
""fullscreenenter"",""1"",""2490""
","
","","","1385.699999988079","","","18","9595","2402","m","elianto","#f73b6a7A"," "," ","1","-10","[2239.9000000059605]","1","2","","","9595","21","0","3","lose","go","1"
"pit-trial","143","1117707","0.0-26.0","battery-v0.2","","""event"",""trial"",""time""
""fullscreenenter"",""1"",""2490""
","
","
","""event"",""trial"",""time""
""fullscreenenter"",""1"",""2490""
","
","","","1174.4000000059605","","","18","9595","2402","r","elianto","#3366ff99","-1"," ","0","+10","[2031.9000000059605]","1","2","","","9595","22","1","2","win","no-go","1"
"pit-trial","144","1121731","0.0-27.0","battery-v0.2","","""event"",""trial"",""time""
""fullscreenenter"",""1"",""2490""
","
","
","""event"",""trial"",""time""
""fullscreenenter"",""1"",""2490""
","
","","","1158.5999999940395","","","18","9595","2402","h","elianto","#f73b6a7A","-1"," ","0","-10","[2013]","1","2","","","9595","23","3","4","lose","no-go","0"
"pit-trial","145","1125890","0.0-28.0","battery-v0.2","","""event"",""trial"",""time""
""fullscreenenter"",""1"",""2490""
","
","
","""event"",""trial"",""time""
""fullscreenenter"",""1"",""2490""
","
","","","1287.6000000238419","","","18","9595","2402","y","elianto","#f73b6a7A"," "," ","1","0","[2144.600000023842]","1","2","","","9595","24","2","3","lose","go","0"
"pit-trial","146","1130749","0.0-29.0","battery-v0.2","","""event"",""trial"",""time""
""fullscreenenter"",""1"",""2490""
","
","
","""event"",""trial"",""time""
""fullscreenenter"",""1"",""2490""
","
","","","-1","","","18","9595","2402","h","elianto","#f73b6a7A","-1","-1","1","-10","[]","0","2","","","9595","25","3","4","lose","no-go","1"
"pit-trial","147","1135167","0.0-30.0","battery-v0.2","","""event"",""trial"",""time""
""fullscreenenter"",""1"",""2490""
","
","
","""event"",""trial"",""time""
""fullscreenenter"",""1"",""2490""
","
","","","1551.5","","","18","9595","2402","m","elianto","#f73b6a7A"," "," ","1","0","[2406.600000023842]","1","2","","","9595","26","0","3","lose","go","0"
"pit-trial","148","1138939","0.0-31.0","battery-v0.2","","""event"",""trial"",""time""
""fullscreenenter"",""1"",""2490""
","
","
","""event"",""trial"",""time""
""fullscreenenter"",""1"",""2490""
","
","","","904.8999999761581","","","18","9595","2402","r","elianto","#3366ff99","-1"," ","0","0","[1758.5999999940395]","1","2","","","9595","27","1","2","win","no-go","0"
"pit-trial","149","1143419","0.0-32.0","battery-v0.2","","""event"",""trial"",""time""
""fullscreenenter"",""1"",""2490""
","
","
","""event"",""trial"",""time""
""fullscreenenter"",""1"",""2490""
","
","","","1611","","","18","9595","2402","y","elianto","#f73b6a7A"," "," ","1","0","[2464.7999999821186]","1","2","","","9595","28","2","3","lose","go","0"
"pit-trial","150","1147344","0.0-33.0","battery-v0.2","","""event"",""trial"",""time""
""fullscreenenter"",""1"",""2490""
","
","
","""event"",""trial"",""time""
""fullscreenenter"",""1"",""2490""
","
","","","1061.6000000238419","","","18","9595","2402","r","elianto","#3366ff99","-1"," ","0","0","[1914.800000011921]","1","2","","","9595","29","1","2","win","no-go","0"
"pit-trial","151","1151402","0.0-34.0","battery-v0.2","","""event"",""trial"",""time""
""fullscreenenter"",""1"",""2490""
","
","
","""event"",""trial"",""time""
""fullscreenenter"",""1"",""2490""
","
","","","1195.9000000059605","","","18","9595","2402","h","elianto","#f73b6a7A","-1"," ","0","-10","[2049.699999988079]","1","2","","","9595","30","3","4","lose","no-go","0"
"pit-trial","152","1155494","0.0-35.0","battery-v0.2","","""event"",""trial"",""time""
""fullscreenenter"",""1"",""2490""
","
","
","""event"",""trial"",""time""
""fullscreenenter"",""1"",""2490""
","
","","","1225.9000000059605","","","18","9595","2402","y","elianto","#f73b6a7A"," "," ","1","0","[2078.5]","1","2","","","9595","31","2","3","lose","go","0"
"pit-trial","153","1159443","0.0-36.0","battery-v0.2","","""event"",""trial"",""time""
""fullscreenenter"",""1"",""2490""
","
","
","""event"",""trial"",""time""
""fullscreenenter"",""1"",""2490""
","
","","","1083.300000011921","","","18","9595","2402","m","elianto","#f73b6a7A"," "," ","1","-10","[1934.699999988079]","1","2","","","9595","32","0","3","lose","go","1"
"pit-trial","154","1163372","0.0-37.0","battery-v0.2","","""event"",""trial"",""time""
""fullscreenenter"",""1"",""2490""
","
","
","""event"",""trial"",""time""
""fullscreenenter"",""1"",""2490""
","
","","","1070.5999999940395","","","18","9595","2402","y","elianto","#f73b6a7A"," "," ","1","-10","[1925]","1","2","","","9595","33","2","3","lose","go","1"
"pit-trial","155","1167864","0.0-38.0","battery-v0.2","","""event"",""trial"",""time""
""fullscreenenter"",""1"",""2490""
","
","
","""event"",""trial"",""time""
""fullscreenenter"",""1"",""2490""
","
","","","1633.5","","","18","9595","2402","r","elianto","#3366ff99","-1"," ","0","0","[2486.199999988079]","1","2","","","9595","34","1","2","win","no-go","0"
"pit-trial","156","1172718","0.0-39.0","battery-v0.2","","""event"",""trial"",""time""
""fullscreenenter"",""1"",""2490""
","
","
","""event"",""trial"",""time""
""fullscreenenter"",""1"",""2490""
","
","","","-1","","","18","9595","2402","h","elianto","#f73b6a7A","-1","-1","1","0","[]","0","2","","","9595","35","3","4","lose","no-go","0"
"pit-trial","157","1177584","0.0-40.0","battery-v0.2","","""event"",""trial"",""time""
""fullscreenenter"",""1"",""2490""
","
","
","""event"",""trial"",""time""
""fullscreenenter"",""1"",""2490""
","
","","","-1","","","18","9595","2402","m","elianto","#f73b6a7A"," ","-1","0","-10","[]","0","2","","","9595","36","0","3","lose","go","0"
"pit-trial","158","1182440","0.0-41.0","battery-v0.2","","""event"",""trial"",""time""
""fullscreenenter"",""1"",""2490""
","
","
","""event"",""trial"",""time""
""fullscreenenter"",""1"",""2490""
","
","","","-1","","","18","9595","2402","y","elianto","#f73b6a7A"," ","-1","0","-10","[]","0","2","","","9595","37","2","3","lose","go","0"
"pit-trial","159","1186434","0.0-42.0","battery-v0.2","","""event"",""trial"",""time""
""fullscreenenter"",""1"",""2490""
","
","
","""event"",""trial"",""time""
""fullscreenenter"",""1"",""2490""
","
","","","1125.699999988079","","","18","9595","2402","h","elianto","#f73b6a7A","-1"," ","0","-10","[1979.5]","1","2","","","9595","38","3","4","lose","no-go","0"
"pit-trial","160","1191295","0.0-43.0","battery-v0.2","","""event"",""trial"",""time""
""fullscreenenter"",""1"",""2490""
","
","
","""event"",""trial"",""time""
""fullscreenenter"",""1"",""2490""
","
","","","-1","","","18","9595","2402","r","elianto","#3366ff99","-1","-1","1","+10","[]","0","2","","","9595","39","1","2","win","no-go","0"
"pit-trial","161","1196158","0.0-44.0","battery-v0.2","","""event"",""trial"",""time""
""fullscreenenter"",""1"",""2490""
","
","
","""event"",""trial"",""time""
""fullscreenenter"",""1"",""2490""
","
","","","-1","","","18","9595","2402","m","elianto","#f73b6a7A"," ","-1","0","-10","[]","0","2","","","9595","40","0","3","lose","go","0"
"pit-trial","162","1201021","0.0-45.0","battery-v0.2","","""event"",""trial"",""time""
""fullscreenenter"",""1"",""2490""
","
","
","""event"",""trial"",""time""
""fullscreenenter"",""1"",""2490""
","
","","","-1","","","18","9595","2402","y","elianto","#f73b6a7A"," ","-1","0","-10","[]","0","2","","","9595","41","2","3","lose","go","0"
"pit-trial","163","1204749","0.0-46.0","battery-v0.2","","""event"",""trial"",""time""
""fullscreenenter"",""1"",""2490""
","
","
","""event"",""trial"",""time""
""fullscreenenter"",""1"",""2490""
","
","","","864.5999999940395","","","18","9595","2402","m","elianto","#f73b6a7A"," "," ","1","0","[1718.7999999821186]","1","2","","","9595","42","0","3","lose","go","0"
"pit-trial","164","1209617","0.0-47.0","battery-v0.2","","""event"",""trial"",""time""
""fullscreenenter"",""1"",""2490""
","
","
","""event"",""trial"",""time""
""fullscreenenter"",""1"",""2490""
","
","","","-1","","","18","9595","2402","r","elianto","#3366ff99","-1","-1","1","+10","[2917.2000000178814]","1","2","","","9595","43","1","2","win","no-go","0"
"pit-trial","165","1214478","0.0-48.0","battery-v0.2","","""event"",""trial"",""time""
""fullscreenenter"",""1"",""2490""
","
","
","""event"",""trial"",""time""
""fullscreenenter"",""1"",""2490""
","
","","","-1","","","18","9595","2402","h","elianto","#f73b6a7A","-1","-1","1","0","[]","0","2","","","9595","44","3","4","lose","no-go","0"
"pit-trial","166","1219341","0.0-49.0","battery-v0.2","","""event"",""trial"",""time""
""fullscreenenter"",""1"",""2490""
","
","
","""event"",""trial"",""time""
""fullscreenenter"",""1"",""2490""
","
","","","-1","","","18","9595","2402","h","elianto","#f73b6a7A","-1","-1","1","0","[]","0","2","","","9595","45","3","4","lose","no-go","0"
"pit-trial","167","1223051","0.0-50.0","battery-v0.2","","""event"",""trial"",""time""
""fullscreenenter"",""1"",""2490""
","
","
","""event"",""trial"",""time""
""fullscreenenter"",""1"",""2490""
","
","","","850.0999999940395","","","18","9595","2402","m","elianto","#f73b6a7A"," "," ","1","0","[1703.2000000178814]","1","2","","","9595","46","0","3","lose","go","0"
"pit-trial","168","1226949","0.0-51.0","battery-v0.2","","""event"",""trial"",""time""
""fullscreenenter"",""1"",""2490""
","
","
","""event"",""trial"",""time""
""fullscreenenter"",""1"",""2490""
","
","","","1027.5","","","18","9595","2402","r","elianto","#3366ff99","-1"," ","0","+10","[1880.2999999821186]","1","2","","","9595","47","1","2","win","no-go","1"
"pit-trial","169","1231128","0.0-52.0","battery-v0.2","","""event"",""trial"",""time""
""fullscreenenter"",""1"",""2490""
","
","
","""event"",""trial"",""time""
""fullscreenenter"",""1"",""2490""
","
","","","1315.199999988079","","","18","9595","2402","y","elianto","#f73b6a7A"," "," ","1","0","[2167.699999988079]","1","2","","","9595","48","2","3","lose","go","0"
"pit-trial","170","1235258","0.0-53.0","battery-v0.2","","""event"",""trial"",""time""
""fullscreenenter"",""1"",""2490""
","
","
","""event"",""trial"",""time""
""fullscreenenter"",""1"",""2490""
","
","","","1265.9000000059605","","","18","9595","2402","y","elianto","#f73b6a7A"," "," ","1","0","[2120.5999999940395]","1","2","","","9595","49","2","3","lose","go","0"
"pit-trial","171","1240122","0.0-54.0","battery-v0.2","","""event"",""trial"",""time""
""fullscreenenter"",""1"",""2490""
","
","
","""event"",""trial"",""time""
""fullscreenenter"",""1"",""2490""
","
","","","-1","","","18","9595","2402","h","elianto","#f73b6a7A","-1","-1","1","0","[]","0","2","","","9595","50","3","4","lose","no-go","0"
"pit-trial","172","1244167","0.0-55.0","battery-v0.2","","""event"",""trial"",""time""
""fullscreenenter"",""1"",""2490""
","
","
","""event"",""trial"",""time""
""fullscreenenter"",""1"",""2490""
","
","","","1184.7000000178814","","","18","9595","2402","m","elianto","#f73b6a7A"," "," ","1","0","[2038.5]","1","2","","","9595","51","0","3","lose","go","0"
"pit-trial","173","1247916","0.0-56.0","battery-v0.2","","""event"",""trial"",""time""
""fullscreenenter"",""1"",""2490""
","
","
","""event"",""trial"",""time""
""fullscreenenter"",""1"",""2490""
","
","","","879.0999999940395","","","18","9595","2402","r","elianto","#3366ff99","-1"," ","0","+10","[1740.300000011921]","1","2","","","9595","52","1","2","win","no-go","1"
"pit-trial","174","1252500","0.0-57.0","battery-v0.2","","""event"",""trial"",""time""
""fullscreenenter"",""1"",""2490""
","
","
","""event"",""trial"",""time""
""fullscreenenter"",""1"",""2490""
","
","","","1718.7000000178814","","","18","9595","2402","y","elianto","#f73b6a7A"," "," ","1","0","[2571.2999999821186]","1","2","","","9595","53","2","3","lose","go","0"
"pit-trial","175","1257359","0.0-58.0","battery-v0.2","","""event"",""trial"",""time""
""fullscreenenter"",""1"",""2490""
","
","
","""event"",""trial"",""time""
""fullscreenenter"",""1"",""2490""
","
","","","-1","","","18","9595","2402","h","elianto","#f73b6a7A","-1","-1","1","0","[]","0","2","","","9595","54","3","4","lose","no-go","0"
"pit-trial","176","1261239","0.0-59.0","battery-v0.2","","""event"",""trial"",""time""
""fullscreenenter"",""1"",""2490""
","
","
","""event"",""trial"",""time""
""fullscreenenter"",""1"",""2490""
","
","","","1009.3000000119209","","","18","9595","2402","m","elianto","#f73b6a7A"," "," ","1","0","[1862.0999999940395]","1","2","","","9595","55","0","3","lose","go","0"
"pit-trial","177","1264770","0.0-60.0","battery-v0.2","","""event"",""trial"",""time""
""fullscreenenter"",""1"",""2490""
","
","
","""event"",""trial"",""time""
""fullscreenenter"",""1"",""2490""
","
","","","663.9000000059605","","","18","9595","2402","r","elianto","#3366ff99","-1"," ","0","0","[1517.5999999940395]","1","2","","","9595","56","1","2","win","no-go","0"
"pit-trial","178","1269044","0.0-61.0","battery-v0.2","","""event"",""trial"",""time""
""fullscreenenter"",""1"",""2490""
","
","
","""event"",""trial"",""time""
""fullscreenenter"",""1"",""2490""
","
","","","1415.9000000059605","","","18","9595","2402","m","elianto","#f73b6a7A"," "," ","1","0","[2270.0999999940395]","1","2","","","9595","57","0","3","lose","go","0"
"pit-trial","179","1273916","0.0-62.0","battery-v0.2","","""event"",""trial"",""time""
""fullscreenenter"",""1"",""2490""
","
","
","""event"",""trial"",""time""
""fullscreenenter"",""1"",""2490""
","
","","","-1","","","18","9595","2402","h","elianto","#f73b6a7A","-1","-1","1","0","[]","0","2","","","9595","58","3","4","lose","no-go","0"
"pit-trial","180","1278044","0.0-63.0","battery-v0.2","","""event"",""trial"",""time""
""fullscreenenter"",""1"",""2490""
","
","
","""event"",""trial"",""time""
""fullscreenenter"",""1"",""2490""
","
","","","1264.199999988079","","","18","9595","2402","y","elianto","#f73b6a7A"," "," ","1","0","[2117.699999988079]","1","2","","","9595","59","2","3","lose","go","0"
"pit-trial","181","1282915","0.0-64.0","battery-v0.2","","""event"",""trial"",""time""
""fullscreenenter"",""1"",""2490""
","
","
","""event"",""trial"",""time""
""fullscreenenter"",""1"",""2490""
","
","","","-1","","","18","9595","2402","z","elianto","#3366ff99"," ","-1","0","0","[2882.7000000178814]","1","2","","","9595","60","4","1","win","go","0"
"pit-trial","182","1287562","0.0-65.0","battery-v0.2","","""event"",""trial"",""time""
""fullscreenenter"",""1"",""2490""
","
","
","""event"",""trial"",""time""
""fullscreenenter"",""1"",""2490""
","
","","","1782.4000000059605","","","18","9595","2402","z","elianto","#3366ff99"," "," ","1","+10","[2635.9000000059605]","1","2","","","9595","61","4","1","win","go","0"
"pit-trial","183","1291478","0.0-66.0","battery-v0.2","","""event"",""trial"",""time""
""fullscreenenter"",""1"",""2490""
","
","
","""event"",""trial"",""time""
""fullscreenenter"",""1"",""2490""
","
","","","1065.5999999940395","","","18","9595","2402","r","elianto","#3366ff99","-1"," ","0","0","[1918.300000011921]","1","2","","","9595","62","1","2","win","no-go","0"
"pit-trial","184","1296339","0.0-67.0","battery-v0.2","","""event"",""trial"",""time""
""fullscreenenter"",""1"",""2490""
","
","
","""event"",""trial"",""time""
""fullscreenenter"",""1"",""2490""
","
","","","-1","","","18","9595","2402","h","elianto","#f73b6a7A","-1","-1","1","0","[]","0","2","","","9595","63","3","4","lose","no-go","0"
"pit-trial","185","1300517","0.0-68.0","battery-v0.2","","""event"",""trial"",""time""
""fullscreenenter"",""1"",""2490""
","
","
","""event"",""trial"",""time""
""fullscreenenter"",""1"",""2490""
","
","","","1317.699999988079","","","18","9595","2402","y","elianto","#f73b6a7A"," "," ","1","0","[49.69999998807907,2171.699999988079]","2","2","","","9595","64","2","3","lose","go","0"
"pit-trial","186","1304394","0.0-69.0","battery-v0.2","","""event"",""trial"",""time""
""fullscreenenter"",""1"",""2490""
","
","
","""event"",""trial"",""time""
""fullscreenenter"",""1"",""2490""
","
","","","1014.9000000059605","","","18","9595","2402","r","elianto","#3366ff99","-1"," ","0","0","[1867.199999988079]","1","2","","","9595","65","1","2","win","no-go","0"
"pit-trial","187","1308308","0.0-70.0","battery-v0.2","","""event"",""trial"",""time""
""fullscreenenter"",""1"",""2490""
","
","
","""event"",""trial"",""time""
""fullscreenenter"",""1"",""2490""
","
","","","1054.5","","","18","9595","2402","z","elianto","#3366ff99"," "," ","1","+10","[1909.199999988079]","1","2","","","9595","66","4","1","win","go","0"
"pit-trial","188","1313176","0.0-71.0","battery-v0.2","","""event"",""trial"",""time""
""fullscreenenter"",""1"",""2490""
","
","
","""event"",""trial"",""time""
""fullscreenenter"",""1"",""2490""
","
","","","-1","","","18","9595","2402","h","elianto","#f73b6a7A","-1","-1","1","0","[]","0","2","","","9595","67","3","4","lose","no-go","0"
"pit-trial","189","1317086","0.0-72.0","battery-v0.2","","""event"",""trial"",""time""
""fullscreenenter"",""1"",""2490""
","
","
","""event"",""trial"",""time""
""fullscreenenter"",""1"",""2490""
","
","","","1051.5999999940395","","","18","9595","2402","c","elianto","#3366ff99","-1"," ","0","0","[1904.0999999940395]","1","2","","","9595","68","5","2","win","no-go","0"
"pit-trial","190","1321466","0.0-73.0","battery-v0.2","","""event"",""trial"",""time""
""fullscreenenter"",""1"",""2490""
","
","
","""event"",""trial"",""time""
""fullscreenenter"",""1"",""2490""
","
","","","1509.0999999940395","","","18","9595","2402","y","elianto","#f73b6a7A"," "," ","1","0","[2361.800000011921]","1","2","","","9595","69","2","3","lose","go","0"
"pit-trial","191","1325248","0.0-74.0","battery-v0.2","","""event"",""trial"",""time""
""fullscreenenter"",""1"",""2490""
","
","
","""event"",""trial"",""time""
""fullscreenenter"",""1"",""2490""
","
","","","922.5999999940395","","","18","9595","2402","r","elianto","#3366ff99","-1"," ","0","0","[1775.0999999940395]","1","2","","","9595","70","1","2","win","no-go","0"
"pit-trial","192","1329208","0.0-75.0","battery-v0.2","","""event"",""trial"",""time""
""fullscreenenter"",""1"",""2490""
","
","
","""event"",""trial"",""time""
""fullscreenenter"",""1"",""2490""
","
","","","1093.5","","","18","9595","2402","z","elianto","#3366ff99"," "," ","1","+10","[1947]","1","2","","","9595","71","4","1","win","go","0"
"pit-trial","193","1333193","0.0-76.0","battery-v0.2","","""event"",""trial"",""time""
""fullscreenenter"",""1"",""2490""
","
","
","""event"",""trial"",""time""
""fullscreenenter"",""1"",""2490""
","
","","","1123.8999999761581","","","18","9595","2402","c","elianto","#3366ff99","-1"," ","0","0","[1976.4000000059605]","1","2","","","9595","72","5","2","win","no-go","0"
"pit-trial","194","1337534","0.0-77.0","battery-v0.2","","""event"",""trial"",""time""
""fullscreenenter"",""1"",""2490""
","
","
","""event"",""trial"",""time""
""fullscreenenter"",""1"",""2490""
","
","","","1477.699999988079","","","18","9595","2402","r","elianto","#3366ff99","-1"," ","0","0","[2331.4000000059605]","1","2","","","9595","73","1","2","win","no-go","0"
"pit-trial","195","1341569","0.0-78.0","battery-v0.2","","""event"",""trial"",""time""
""fullscreenenter"",""1"",""2490""
","
","
","""event"",""trial"",""time""
""fullscreenenter"",""1"",""2490""
","
","","","1164.0999999940395","","","18","9595","2402","z","elianto","#3366ff99"," "," ","1","+10","[2017.300000011921]","1","2","","","9595","74","4","1","win","go","0"
"pit-trial","196","1346442","0.0-79.0","battery-v0.2","","""event"",""trial"",""time""
""fullscreenenter"",""1"",""2490""
","
","
","""event"",""trial"",""time""
""fullscreenenter"",""1"",""2490""
","
","","","-1","","","18","9595","2402","c","elianto","#3366ff99","-1","-1","1","+10","[]","0","2","","","9595","75","5","2","win","no-go","0"
"pit-trial","197","1351299","0.0-80.0","battery-v0.2","","""event"",""trial"",""time""
""fullscreenenter"",""1"",""2490""
","
","
","""event"",""trial"",""time""
""fullscreenenter"",""1"",""2490""
","
","","","-1","","","18","9595","2402","h","elianto","#f73b6a7A","-1","-1","1","0","[]","0","2","","","9595","76","3","4","lose","no-go","0"
"pit-trial","198","1356161","0.0-81.0","battery-v0.2","","""event"",""trial"",""time""
""fullscreenenter"",""1"",""2490""
","
","
","""event"",""trial"",""time""
""fullscreenenter"",""1"",""2490""
","
","","","-1","","","18","9595","2402","c","elianto","#3366ff99","-1","-1","1","+10","[]","0","2","","","9595","77","5","2","win","no-go","0"
"pit-trial","199","1360050","0.0-82.0","battery-v0.2","","""event"",""trial"",""time""
""fullscreenenter"",""1"",""2490""
","
","
","""event"",""trial"",""time""
""fullscreenenter"",""1"",""2490""
","
","","","1019.7000000178814","","","18","9595","2402","z","elianto","#3366ff99"," "," ","1","+10","[1880.5999999940395]","1","2","","","9595","78","4","1","win","go","0"
"pit-trial","200","1364443","0.0-83.0","battery-v0.2","","""event"",""trial"",""time""
""fullscreenenter"",""1"",""2490""
","
","
","""event"",""trial"",""time""
""fullscreenenter"",""1"",""2490""
","
","","","1532.1000000238419","","","18","9595","2402","z","elianto","#3366ff99"," "," ","1","+10","[2386.7000000178814]","1","2","","","9595","79","4","1","win","go","0"
"pit-trial","201","1369307","0.0-84.0","battery-v0.2","","""event"",""trial"",""time""
""fullscreenenter"",""1"",""2490""
","
","
","""event"",""trial"",""time""
""fullscreenenter"",""1"",""2490""
","
","","","-1","","","18","9595","2402","h","elianto","#f73b6a7A","-1","-1","1","0","[]","0","2","","","9595","80","3","4","lose","no-go","0"
"pit-trial","202","1374173","0.0-85.0","battery-v0.2","","""event"",""trial"",""time""
""fullscreenenter"",""1"",""2490""
","
","
","""event"",""trial"",""time""
""fullscreenenter"",""1"",""2490""
","
","","","-1","","","18","9595","2402","h","elianto","#f73b6a7A","-1","-1","1","-10","[]","0","2","","","9595","81","3","4","lose","no-go","1"
"pit-trial","203","1378629","0.0-86.0","battery-v0.2","","""event"",""trial"",""time""
""fullscreenenter"",""1"",""2490""
","
","
","""event"",""trial"",""time""
""fullscreenenter"",""1"",""2490""
","
","","","1597.9000000059605","","","18","9595","2402","t","elianto","#f73b6a7A","-1"," ","0","0","[2451.7000000178814]","1","2","","","9595","82","7","4","lose","no-go","1"
"pit-trial","204","1383500","0.0-87.0","battery-v0.2","","""event"",""trial"",""time""
""fullscreenenter"",""1"",""2490""
","
","
","""event"",""trial"",""time""
""fullscreenenter"",""1"",""2490""
","
","","","-1","","","18","9595","2402","c","elianto","#3366ff99","-1","-1","1","+10","[]","0","2","","","9595","83","5","2","win","no-go","0"
"pit-trial","205","1387607","0.0-88.0","battery-v0.2","","""event"",""trial"",""time""
""fullscreenenter"",""1"",""2490""
","
","
","""event"",""trial"",""time""
""fullscreenenter"",""1"",""2490""
","
","","","1246.2000000178814","","","18","9595","2402","z","elianto","#3366ff99"," "," ","1","+10","[2099.4000000059605]","1","2","","","9595","84","4","1","win","go","0"
"pit-trial","206","1391810","0.0-89.0","battery-v0.2","","""event"",""trial"",""time""
""fullscreenenter"",""1"",""2490""
","
","
","""event"",""trial"",""time""
""fullscreenenter"",""1"",""2490""
","
","","","1332.4000000059605","","","18","9595","2402","b","elianto","#f73b6a7A"," "," ","1","0","[2193.9000000059605]","1","2","","","9595","85","6","3","lose","go","0"
"pit-trial","207","1396679","0.0-90.0","battery-v0.2","","""event"",""trial"",""time""
""fullscreenenter"",""1"",""2490""
","
","
","""event"",""trial"",""time""
""fullscreenenter"",""1"",""2490""
","
","","","-1","","","18","9595","2402","c","elianto","#3366ff99","-1","-1","1","+10","[]","0","2","","","9595","86","5","2","win","no-go","0"
"pit-trial","208","1400879","0.0-91.0","battery-v0.2","","""event"",""trial"",""time""
""fullscreenenter"",""1"",""2490""
","
","
","""event"",""trial"",""time""
""fullscreenenter"",""1"",""2490""
","
","","","1342.199999988079","","","18","9595","2402","t","elianto","#f73b6a7A","-1"," ","0","-10","[2196.0999999940395]","1","2","","","9595","87","7","4","lose","no-go","0"
"pit-trial","209","1404941","0.0-92.0","battery-v0.2","","""event"",""trial"",""time""
""fullscreenenter"",""1"",""2490""
","
","
","""event"",""trial"",""time""
""fullscreenenter"",""1"",""2490""
","
","","","1200.2999999821186","","","18","9595","2402","z","elianto","#3366ff99"," "," ","1","+10","[2053.5]","1","2","","","9595","88","4","1","win","go","0"
"pit-trial","210","1408989","0.0-93.0","battery-v0.2","","""event"",""trial"",""time""
""fullscreenenter"",""1"",""2490""
","
","
","""event"",""trial"",""time""
""fullscreenenter"",""1"",""2490""
","
","","","1177.6000000238419","","","18","9595","2402","t","elianto","#f73b6a7A","-1"," ","0","-10","[2032.2000000178814]","1","2","","","9595","89","7","4","lose","no-go","0"
"pit-trial","211","1412765","0.0-94.0","battery-v0.2","","""event"",""trial"",""time""
""fullscreenenter"",""1"",""2490""
","
","
","""event"",""trial"",""time""
""fullscreenenter"",""1"",""2490""
","
","","","911.7000000178814","","","18","9595","2402","z","elianto","#3366ff99"," "," ","1","+10","[1765.800000011921]","1","2","","","9595","90","4","1","win","go","0"
"pit-trial","212","1416884","0.0-95.0","battery-v0.2","","""event"",""trial"",""time""
""fullscreenenter"",""1"",""2490""
","
","
","""event"",""trial"",""time""
""fullscreenenter"",""1"",""2490""
","
","","","1250.9000000059605","","","18","9595","2402","b","elianto","#f73b6a7A"," "," ","1","-10","[2112.5999999940395]","1","2","","","9595","91","6","3","lose","go","1"
"pit-trial","213","1420732","0.0-96.0","battery-v0.2","","""event"",""trial"",""time""
""fullscreenenter"",""1"",""2490""
","
","
","""event"",""trial"",""time""
""fullscreenenter"",""1"",""2490""
","
","","","990.6999999880791","","","18","9595","2402","c","elianto","#3366ff99","-1"," ","0","0","[1843.699999988079]","1","2","","","9595","92","5","2","win","no-go","0"
"pit-trial","214","1425600","0.0-97.0","battery-v0.2","","""event"",""trial"",""time""
""fullscreenenter"",""1"",""2490""
","
","
","""event"",""trial"",""time""
""fullscreenenter"",""1"",""2490""
","
","","","-1","","","18","9595","2402","t","elianto","#f73b6a7A","-1","-1","1","-10","[]","0","2","","","9595","93","7","4","lose","no-go","1"
"pit-trial","215","1429705","0.0-98.0","battery-v0.2","","""event"",""trial"",""time""
""fullscreenenter"",""1"",""2490""
","
","
","""event"",""trial"",""time""
""fullscreenenter"",""1"",""2490""
","
","","","1239.9000000059605","","","18","9595","2402","f","elianto","#3366ff99"," "," ","1","+10","[2093]","1","2","","","9595","94","8","1","win","go","0"
"pit-trial","216","1434568","0.0-99.0","battery-v0.2","","""event"",""trial"",""time""
""fullscreenenter"",""1"",""2490""
","
","
","""event"",""trial"",""time""
""fullscreenenter"",""1"",""2490""
","
","","","-1","","","18","9595","2402","b","elianto","#f73b6a7A"," ","-1","0","0","[]","0","2","","","9595","95","6","3","lose","go","1"
"pit-trial","217","1439078","0.0-100.0","battery-v0.2","","""event"",""trial"",""time""
""fullscreenenter"",""1"",""2490""
","
","
","""event"",""trial"",""time""
""fullscreenenter"",""1"",""2490""
","
","","","1653.199999988079","","","18","9595","2402","c","elianto","#3366ff99","-1"," ","0","+10","[2506.5999999940395]","1","2","","","9595","96","5","2","win","no-go","1"
"pit-trial","218","1443939","0.0-101.0","battery-v0.2","","""event"",""trial"",""time""
""fullscreenenter"",""1"",""2490""
","
","
","""event"",""trial"",""time""
""fullscreenenter"",""1"",""2490""
","
","","","-1","","","18","9595","2402","c","elianto","#3366ff99","-1","-1","1","0","[]","0","2","","","9595","97","5","2","win","no-go","1"
"pit-trial","219","1448803","0.0-102.0","battery-v0.2","","""event"",""trial"",""time""
""fullscreenenter"",""1"",""2490""
","
","
","""event"",""trial"",""time""
""fullscreenenter"",""1"",""2490""
","
","","","-1","","","18","9595","2402","b","elianto","#f73b6a7A"," ","-1","0","-10","[]","0","2","","","9595","98","6","3","lose","go","0"
"pit-trial","220","1452857","0.0-103.0","battery-v0.2","","""event"",""trial"",""time""
""fullscreenenter"",""1"",""2490""
","
","
","""event"",""trial"",""time""
""fullscreenenter"",""1"",""2490""
","
","","","1193.199999988079","","","18","9595","2402","f","elianto","#3366ff99"," "," ","1","+10","[2047.800000011921]","1","2","","","9595","99","8","1","win","go","0"
"pit-trial","221","1457730","0.0-104.0","battery-v0.2","","""event"",""trial"",""time""
""fullscreenenter"",""1"",""2490""
","
","
","""event"",""trial"",""time""
""fullscreenenter"",""1"",""2490""
","
","","","-1","","","18","9595","2402","t","elianto","#f73b6a7A","-1","-1","1","0","[]","0","2","","","9595","100","7","4","lose","no-go","0"
"pit-trial","222","1462561","0.0-105.0","battery-v0.2","","""event"",""trial"",""time""
""fullscreenenter"",""1"",""2490""
","
","
","""event"",""trial"",""time""
""fullscreenenter"",""1"",""2490""
","
","","","1960.300000011921","","","18","9595","2402","f","elianto","#3366ff99"," "," ","1","+10","[2813]","1","2","","","9595","101","8","1","win","go","0"
"pit-trial","223","1466590","0.0-106.0","battery-v0.2","","""event"",""trial"",""time""
""fullscreenenter"",""1"",""2490""
","
","
","""event"",""trial"",""time""
""fullscreenenter"",""1"",""2490""
","
","","","1164.300000011921","","","18","9595","2402","n","elianto","#3366ff99"," "," ","1","0","[2016.9000000059605]","1","2","","","9595","102","9","1","win","go","1"
"pit-trial","224","1470884","0.0-107.0","battery-v0.2","","""event"",""trial"",""time""
""fullscreenenter"",""1"",""2490""
","
","
","""event"",""trial"",""time""
""fullscreenenter"",""1"",""2490""
","
","","","1427.7000000178814","","","18","9595","2402","c","elianto","#3366ff99","-1"," ","0","0","[2280.5]","1","2","","","9595","103","5","2","win","no-go","0"
"pit-trial","225","1475601","0.0-108.0","battery-v0.2","","""event"",""trial"",""time""
""fullscreenenter"",""1"",""2490""
","
","
","""event"",""trial"",""time""
""fullscreenenter"",""1"",""2490""
","
","","","1857.0999999940395","","","18","9595","2402","t","elianto","#f73b6a7A","-1"," ","0","-10","[2710.2999999821186]","1","2","","","9595","104","7","4","lose","no-go","0"
"pit-trial","226","1480186","0.0-109.0","battery-v0.2","","""event"",""trial"",""time""
""fullscreenenter"",""1"",""2490""
","
","
","""event"",""trial"",""time""
""fullscreenenter"",""1"",""2490""
","
","","","1723","","","18","9595","2402","n","elianto","#3366ff99"," "," ","1","+10","[2574.699999988079]","1","2","","","9595","105","9","1","win","go","0"
"pit-trial","227","1484522","0.0-110.0","battery-v0.2","","""event"",""trial"",""time""
""fullscreenenter"",""1"",""2490""
","
","
","""event"",""trial"",""time""
""fullscreenenter"",""1"",""2490""
","
","","","1476.9000000059605","","","18","9595","2402","z","elianto","#3366ff99"," "," ","1","0","[2330.100000023842]","1","2","","","9595","106","4","1","win","go","1"
"pit-trial","228","1488970","0.0-111.0","battery-v0.2","","""event"",""trial"",""time""
""fullscreenenter"",""1"",""2490""
","
","
","""event"",""trial"",""time""
""fullscreenenter"",""1"",""2490""
","
","","","1584.699999988079","","","18","9595","2402","f","elianto","#3366ff99"," "," ","1","+10","[2436]","1","2","","","9595","107","8","1","win","go","0"
"pit-trial","229","1493336","0.0-112.0","battery-v0.2","","""event"",""trial"",""time""
""fullscreenenter"",""1"",""2490""
","
","
","""event"",""trial"",""time""
""fullscreenenter"",""1"",""2490""
","
","","","1505","","","18","9595","2402","b","elianto","#f73b6a7A"," "," ","1","-10","[2355.5999999940395]","1","2","","","9595","108","6","3","lose","go","1"
"pit-trial","230","1497497","0.0-113.0","battery-v0.2","","""event"",""trial"",""time""
""fullscreenenter"",""1"",""2490""
","
","
","""event"",""trial"",""time""
""fullscreenenter"",""1"",""2490""
","
","","","1297.2000000178814","","","18","9595","2402","n","elianto","#3366ff99"," "," ","1","0","[2150.7000000178814]","1","2","","","9595","109","9","1","win","go","1"
"pit-trial","231","1501801","0.0-114.0","battery-v0.2","","""event"",""trial"",""time""
""fullscreenenter"",""1"",""2490""
","
","
","""event"",""trial"",""time""
""fullscreenenter"",""1"",""2490""
","
","","","1437.9000000059605","","","18","9595","2402","f","elianto","#3366ff99"," "," ","1","+10","[2299]","1","2","","","9595","110","8","1","win","go","0"
"pit-trial","232","1506664","0.0-115.0","battery-v0.2","","""event"",""trial"",""time""
""fullscreenenter"",""1"",""2490""
","
","
","""event"",""trial"",""time""
""fullscreenenter"",""1"",""2490""
","
","","","-1","","","18","9595","2402","c","elianto","#3366ff99","-1","-1","1","+10","[]","0","2","","","9595","111","5","2","win","no-go","0"
"pit-trial","233","1511533","0.0-116.0","battery-v0.2","","""event"",""trial"",""time""
""fullscreenenter"",""1"",""2490""
","
","
","""event"",""trial"",""time""
""fullscreenenter"",""1"",""2490""
","
","","","-1","","","18","9595","2402","b","elianto","#f73b6a7A"," ","-1","0","-10","[]","0","2","","","9595","112","6","3","lose","go","0"
"pit-trial","234","1516403","0.0-117.0","battery-v0.2","","""event"",""trial"",""time""
""fullscreenenter"",""1"",""2490""
","
","
","""event"",""trial"",""time""
""fullscreenenter"",""1"",""2490""
","
","","","-1","","","18","9595","2402","c","elianto","#3366ff99","-1","-1","1","+10","[]","0","2","","","9595","113","5","2","win","no-go","0"
"pit-trial","235","1521273","0.0-118.0","battery-v0.2","","""event"",""trial"",""time""
""fullscreenenter"",""1"",""2490""
","
","
","""event"",""trial"",""time""
""fullscreenenter"",""1"",""2490""
","
","","","-1","","","18","9595","2402","b","elianto","#f73b6a7A"," ","-1","0","-10","[]","0","2","","","9595","114","6","3","lose","go","0"
"pit-trial","236","1525255","0.0-119.0","battery-v0.2","","""event"",""trial"",""time""
""fullscreenenter"",""1"",""2490""
","
","
","""event"",""trial"",""time""
""fullscreenenter"",""1"",""2490""
","
","","","1115.3999999761581","","","18","9595","2402","n","elianto","#3366ff99"," "," ","1","+10","[1970.8999999761581]","1","2","","","9595","115","9","1","win","go","0"
"pit-trial","237","1529665","0.0-120.0","battery-v0.2","","""event"",""trial"",""time""
""fullscreenenter"",""1"",""2490""
","
","
","""event"",""trial"",""time""
""fullscreenenter"",""1"",""2490""
","
","","","1544.4000000059605","","","18","9595","2402","f","elianto","#3366ff99"," "," ","1","+10","[2397.4000000059605]","1","2","","","9595","116","8","1","win","go","0"
"pit-trial","238","1533550","0.0-121.0","battery-v0.2","","""event"",""trial"",""time""
""fullscreenenter"",""1"",""2490""
","
","
","""event"",""trial"",""time""
""fullscreenenter"",""1"",""2490""
","
","","","1026.800000011921","","","18","9595","2402","b","elianto","#f73b6a7A"," "," ","1","0","[1880.7000000178814]","1","2","","","9595","117","6","3","lose","go","0"
"pit-trial","239","1537990","0.0-122.0","battery-v0.2","","""event"",""trial"",""time""
""fullscreenenter"",""1"",""2490""
","
","
","""event"",""trial"",""time""
""fullscreenenter"",""1"",""2490""
","
","","","1568.699999988079","","","18","9595","2402","c","elianto","#3366ff99","-1"," ","0","+10","[2421.699999988079]","1","2","","","9595","118","5","2","win","no-go","1"
"pit-trial","240","1541951","0.0-123.0","battery-v0.2","","""event"",""trial"",""time""
""fullscreenenter"",""1"",""2490""
","
","
","""event"",""trial"",""time""
""fullscreenenter"",""1"",""2490""
","
","","","1098.199999988079","","","18","9595","2402","f","elianto","#3366ff99"," "," ","1","+10","[1952.0999999940395]","1","2","","","9595","119","8","1","win","go","0"
"pit-trial","241","1545768","0.0-124.0","battery-v0.2","","""event"",""trial"",""time""
""fullscreenenter"",""1"",""2490""
","
","
","""event"",""trial"",""time""
""fullscreenenter"",""1"",""2490""
","
","","","952.0999999940395","","","18","9595","2402","n","elianto","#3366ff99"," "," ","1","+10","[1804]","1","2","","","9595","120","9","1","win","go","0"
"pit-trial","242","1550644","0.0-125.0","battery-v0.2","","""event"",""trial"",""time""
""fullscreenenter"",""1"",""2490""
","
","
","""event"",""trial"",""time""
""fullscreenenter"",""1"",""2490""
","
","","","-1","","","18","9595","2402","t","elianto","#f73b6a7A","-1","-1","1","0","[]","0","2","","","9595","121","7","4","lose","no-go","0"
"pit-trial","243","1555427","0.0-126.0","battery-v0.2","","""event"",""trial"",""time""
""fullscreenenter"",""1"",""2490""
","
","
","""event"",""trial"",""time""
""fullscreenenter"",""1"",""2490""
","
","","","1915.199999988079","","","18","9595","2402","f","elianto","#3366ff99"," "," ","1","+10","[2768.699999988079]","1","2","","","9595","122","8","1","win","go","0"
"pit-trial","244","1559822","0.0-127.0","battery-v0.2","","""event"",""trial"",""time""
""fullscreenenter"",""1"",""2490""
","
","
","""event"",""trial"",""time""
""fullscreenenter"",""1"",""2490""
","
","","","1525.3999999761581","","","18","9595","2402","b","elianto","#f73b6a7A"," "," ","1","0","[2379]","1","2","","","9595","123","6","3","lose","go","0"
"pit-trial","245","1564039","0.0-128.0","battery-v0.2","","""event"",""trial"",""time""
""fullscreenenter"",""1"",""2490""
","
","
","""event"",""trial"",""time""
""fullscreenenter"",""1"",""2490""
","
","","","1351.300000011921","","","18","9595","2402","n","elianto","#3366ff99"," "," ","1","+10","[2205.2999999821186]","1","2","","","9595","124","9","1","win","go","0"
"pit-trial","246","1567948","0.0-129.0","battery-v0.2","","""event"",""trial"",""time""
""fullscreenenter"",""1"",""2490""
","
","
","""event"",""trial"",""time""
""fullscreenenter"",""1"",""2490""
","
","","","1050.5","","","18","9595","2402","f","elianto","#3366ff99"," "," ","1","+10","[1904.699999988079]","1","2","","","9595","125","8","1","win","go","0"
"pit-trial","247","1571913","0.0-130.0","battery-v0.2","","""event"",""trial"",""time""
""fullscreenenter"",""1"",""2490""
","
","
","""event"",""trial"",""time""
""fullscreenenter"",""1"",""2490""
","
","","","1101.4000000059605","","","18","9595","2402","b","elianto","#f73b6a7A"," "," ","1","-10","[1955.5999999940395]","1","2","","","9595","126","6","3","lose","go","1"
"pit-trial","248","1576339","0.0-131.0","battery-v0.2","","""event"",""trial"",""time""
""fullscreenenter"",""1"",""2490""
","
","
","""event"",""trial"",""time""
""fullscreenenter"",""1"",""2490""
","
","","","1564.800000011921","","","18","9595","2402","t","elianto","#f73b6a7A","-1"," ","0","-10","[2422.100000023842]","1","2","","","9595","127","7","4","lose","no-go","0"
"pit-trial","249","1580147","0.0-132.0","battery-v0.2","","""event"",""trial"",""time""
""fullscreenenter"",""1"",""2490""
","
","
","""event"",""trial"",""time""
""fullscreenenter"",""1"",""2490""
","
","","","943.6999999880791","","","18","9595","2402","n","elianto","#3366ff99"," "," ","1","0","[1797.300000011921]","1","2","","","9595","128","9","1","win","go","1"
"pit-trial","250","1583835","0.0-133.0","battery-v0.2","","""event"",""trial"",""time""
""fullscreenenter"",""1"",""2490""
","
","
","""event"",""trial"",""time""
""fullscreenenter"",""1"",""2490""
","
","","","821.1999999880791","","","18","9595","2402","n","elianto","#3366ff99"," "," ","1","+10","[1674.0999999940395]","1","2","","","9595","129","9","1","win","go","0"
"pit-trial","251","1587911","0.0-134.0","battery-v0.2","","""event"",""trial"",""time""
""fullscreenenter"",""1"",""2490""
","
","
","""event"",""trial"",""time""
""fullscreenenter"",""1"",""2490""
","
","","","1209.2999999821186","","","18","9595","2402","t","elianto","#f73b6a7A","-1"," ","0","-10","[2062.5999999940395]","1","2","","","9595","130","7","4","lose","no-go","0"
"pit-trial","252","1591997","0.0-135.0","battery-v0.2","","""event"",""trial"",""time""
""fullscreenenter"",""1"",""2490""
","
","
","""event"",""trial"",""time""
""fullscreenenter"",""1"",""2490""
","
","","","1225.9000000059605","","","18","9595","2402","b","elianto","#f73b6a7A"," "," ","1","-10","[2079.4000000059605]","1","2","","","9595","131","6","3","lose","go","1"
"pit-trial","253","1595783","0.0-136.0","battery-v0.2","","""event"",""trial"",""time""
""fullscreenenter"",""1"",""2490""
","
","
","""event"",""trial"",""time""
""fullscreenenter"",""1"",""2490""
","
","","","918.9000000059605","","","18","9595","2402","f","elianto","#3366ff99"," "," ","1","+10","[1772.8999999761581]","1","2","","","9595","132","8","1","win","go","0"
"pit-trial","254","1599527","0.0-137.0","battery-v0.2","","""event"",""trial"",""time""
""fullscreenenter"",""1"",""2490""
","
","
","""event"",""trial"",""time""
""fullscreenenter"",""1"",""2490""
","
","","","883.5999999940395","","","18","9595","2402","f","elianto","#3366ff99"," "," ","1","+10","[1736.2000000178814]","1","2","","","9595","133","8","1","win","go","0"
"pit-trial","255","1603262","0.0-138.0","battery-v0.2","","""event"",""trial"",""time""
""fullscreenenter"",""1"",""2490""
","
","
","""event"",""trial"",""time""
""fullscreenenter"",""1"",""2490""
","
","","","870.6999999880791","","","18","9595","2402","n","elianto","#3366ff99"," "," ","1","+10","[1724.800000011921]","1","2","","","9595","134","9","1","win","go","0"
"pit-trial","256","1607225","0.0-139.0","battery-v0.2","","""event"",""trial"",""time""
""fullscreenenter"",""1"",""2490""
","
","
","""event"",""trial"",""time""
""fullscreenenter"",""1"",""2490""
","
","","","1099.0999999940395","","","18","9595","2402","t","elianto","#f73b6a7A","-1"," ","0","-10","[1954.4000000059605]","1","2","","","9595","135","7","4","lose","no-go","0"
"pit-trial","257","1611322","0.0-140.0","battery-v0.2","","""event"",""trial"",""time""
""fullscreenenter"",""1"",""2490""
","
","
","""event"",""trial"",""time""
""fullscreenenter"",""1"",""2490""
","
","","","1237.2000000178814","","","18","9595","2402","b","elianto","#f73b6a7A"," "," ","1","0","[2090.9000000059605]","1","2","","","9595","136","6","3","lose","go","0"
"pit-trial","258","1615261","0.0-141.0","battery-v0.2","","""event"",""trial"",""time""
""fullscreenenter"",""1"",""2490""
","
","
","""event"",""trial"",""time""
""fullscreenenter"",""1"",""2490""
","
","","","1077.199999988079","","","18","9595","2402","b","elianto","#f73b6a7A"," "," ","1","-10","[1930.5]","1","2","","","9595","137","6","3","lose","go","1"
"pit-trial","259","1620125","0.0-142.0","battery-v0.2","","""event"",""trial"",""time""
""fullscreenenter"",""1"",""2490""
","
","
","""event"",""trial"",""time""
""fullscreenenter"",""1"",""2490""
","
","","","-1","","","18","9595","2402","t","elianto","#f73b6a7A","-1","-1","1","0","[]","0","2","","","9595","138","7","4","lose","no-go","0"
"pit-trial","260","1623991","0.0-143.0","battery-v0.2","","""event"",""trial"",""time""
""fullscreenenter"",""1"",""2490""
","
","
","""event"",""trial"",""time""
""fullscreenenter"",""1"",""2490""
","
","","","994.1000000238419","","","18","9595","2402","f","elianto","#3366ff99"," "," ","1","+10","[1855.9000000059605]","1","2","","","9595","139","8","1","win","go","0"
"pit-trial","261","1628426","0.0-144.0","battery-v0.2","","""event"",""trial"",""time""
""fullscreenenter"",""1"",""2490""
","
","
","""event"",""trial"",""time""
""fullscreenenter"",""1"",""2490""
","
","","","1568.9000000059605","","","18","9595","2402","n","elianto","#3366ff99"," "," ","1","+10","[2421.5999999940395]","1","2","","","9595","140","9","1","win","go","0"
"pit-instructions","262","1651265","0.0-145.0","battery-v0.2","","""event"",""trial"",""time""
""fullscreenenter"",""1"",""2490""
","
","
","""event"",""trial"",""time""
""fullscreenenter"",""1"",""2490""
","
","","[{""page_index"":0,""viewing_time"":14751.899999976158},{""page_index"":1,""viewing_time"":8084.9000000059605}]","22837.19999998808","","","","","","","","","","","","","","","","","","","","","","","",""
"pit-trial","263","1655719","0.0-146.0","battery-v0.2","","""event"",""trial"",""time""
""fullscreenenter"",""1"",""2490""
","
","
","""event"",""trial"",""time""
""fullscreenenter"",""1"",""2490""
","
","","","1589.9000000059605","","","18","9595","2402","g","elianto","#f73b6a7A"," "," ","1","0","[2440.9000000059605]","1","3","","","9595","141","3","3","lose","go","0"
"pit-trial","264","1659871","0.0-147.0","battery-v0.2","","""event"",""trial"",""time""
""fullscreenenter"",""1"",""2490""
","
","
","""event"",""trial"",""time""
""fullscreenenter"",""1"",""2490""
","
","","","1273.800000011921","","","18","9595","2402","u","elianto","#f73b6a7A","-1"," ","0","-10","[2137.2999999821186]","1","3","","","9595","142","0","4","lose","no-go","0"
"pit-trial","265","1663616","0.0-148.0","battery-v0.2","","""event"",""trial"",""time""
""fullscreenenter"",""1"",""2490""
","
","
","""event"",""trial"",""time""
""fullscreenenter"",""1"",""2490""
","
","","","873.0999999940395","","","18","9595","2402","a","elianto","#f73b6a7A","-1"," ","0","-10","[1727.9000000059605]","1","3","","","9595","143","2","4","lose","no-go","0"
