"trial_type","trial_index","time_elapsed","internal_node_id","task_version","subject_id","interactions","blur_events","focus_events","fullscreenenter_events","fullscreenexit_events","success","view_history","rt","responses","num_errors","age","subject","participantId","rune","rune_set","hex","correct","choice","accuracy","outcome","keys","total_keys","block","practice","value","sub","trial","stimulus","robot","valence","action","sham"
"pavlovia","0","96","0.0-0.0","battery-v0.2","","""event"",""trial"",""time""
""fullscreenenter"",""1"",""2379""
","
","
","""event"",""trial"",""time""
""fullscreenenter"",""1"",""2379""
","
","","","","","","","","","","","","","","","","","","","","","","","","","","",""
"fullscreen","1","3276","0.0-1.0","battery-v0.2","","""event"",""trial"",""time""
""fullscreenenter"",""1"",""2379""
","
","
","""event"",""trial"",""time""
""fullscreenenter"",""1"",""2379""
","
","true","","","","","","","","","","","","","","","","","","","","","","","","","",""
"pit-instructions","2","13611","0.0-2.0-0.0","battery-v0.2","","""event"",""trial"",""time""
""fullscreenenter"",""1"",""2379""
","
","
","""event"",""trial"",""time""
""fullscreenenter"",""1"",""2379""
","
","","[{""page_index"":0,""viewing_time"":10295.399999976158}]","10298.599999964237","","","","","","","","","","","","","","","","","","","","","","","",""
"pit-comprehension","3","17961","0.0-2.0-1.0-0.0","battery-v0.2","","""event"",""trial"",""time""
""fullscreenenter"",""1"",""2379""
","
","
","""event"",""trial"",""time""
""fullscreenenter"",""1"",""2379""
","
","","","4321.400000035763","[""shark""]","0","13","4113","1993","","","","","","","","","","","","","","","","","","",""
"pit-instructions","4","22103","0.0-2.0-1.0-1.0","battery-v0.2","","""event"",""trial"",""time""
""fullscreenenter"",""1"",""2379""
","
","
","""event"",""trial"",""time""
""fullscreenenter"",""1"",""2379""
","
","","[{""page_index"":0,""viewing_time"":4091.5}]","4092.599999964237","","","","","","","","","","","","","","","","","","","","","","","",""
"pit-comprehension","5","26469","0.0-2.0-2.0-0.0","battery-v0.2","","""event"",""trial"",""time""
""fullscreenenter"",""1"",""2379""
","
","
","""event"",""trial"",""time""
""fullscreenenter"",""1"",""2379""
","
","","","4334.400000035763","[""tiger""]","0","13","4113","1993","","","","","","","","","","","","","","","","","","",""
"pit-instructions","6","32642","0.0-2.0-2.0-1.0","battery-v0.2","","""event"",""trial"",""time""
""fullscreenenter"",""1"",""2379""
","
","
","""event"",""trial"",""time""
""fullscreenenter"",""1"",""2379""
","
","","[{""page_index"":0,""viewing_time"":6158.5}]","6159.699999988079","","","","","","","","","","","","","","","","","","","","","","","",""
"pit-instructions","7","166544","0.0-2.0-3.0","battery-v0.2","","""event"",""trial"",""time""
""fullscreenenter"",""1"",""2379""
","
","
","""event"",""trial"",""time""
""fullscreenenter"",""1"",""2379""
","
","","[{""page_index"":0,""viewing_time"":11133.899999976158},{""page_index"":1,""viewing_time"":8929},{""page_index"":2,""viewing_time"":8967.699999988079},{""page_index"":3,""viewing_time"":9209.200000047684},{""page_index"":4,""viewing_time"":8438.5},{""page_index"":5,""viewing_time"":9833},{""page_index"":6,""viewing_time"":9360.199999988079},{""page_index"":7,""viewing_time"":9329.899999976158},{""page_index"":8,""viewing_time"":16422},{""page_index"":9,""viewing_time"":12195.900000035763},{""page_index"":10,""viewing_time"":7071.599999964237},{""page_index"":11,""viewing_time"":9654.800000011921},{""page_index"":12,""viewing_time"":7112.600000023842},{""page_index"":13,""viewing_time"":6214.5}]","133874","","","","","","","","","","","","","","","","","","","","","","","",""
"pit-trial","8","170227","0.0-2.0-4.0-0.0","battery-v0.2","","""event"",""trial"",""time""
""fullscreenenter"",""1"",""2379""
","
","
","""event"",""trial"",""time""
""fullscreenenter"",""1"",""2379""
","
","","","811.3000000119209","","","13","4113","1993","&#9784;","elianto","#FFFFF080"," "," ","1","&#10004","[1664.6000000238419]","1","0","0","","","","","","","",""
"pit-trial","9","173766","0.0-2.0-4.1-0.1","battery-v0.2","","""event"",""trial"",""time""
""fullscreenenter"",""1"",""2379""
","
","
","""event"",""trial"",""time""
""fullscreenenter"",""1"",""2379""
","
","","","654.3000000119209","","","13","4113","1993","&#9784;","elianto","#FFFFF080"," "," ","1","&#10004","[1508.3999999761581]","1","0","0","","","","","","","",""
"pit-trial","10","177276","0.0-2.0-4.2-0.2","battery-v0.2","","""event"",""trial"",""time""
""fullscreenenter"",""1"",""2379""
","
","
","""event"",""trial"",""time""
""fullscreenenter"",""1"",""2379""
","
","","","622.8000000119209","","","13","4113","1993","&#9784;","elianto","#FFFFF080"," "," ","1","&#10004","[1478.8999999761581]","1","0","0","","","","","","","",""
"pit-trial","11","180956","0.0-2.0-4.3-0.3","battery-v0.2","","""event"",""trial"",""time""
""fullscreenenter"",""1"",""2379""
","
","
","""event"",""trial"",""time""
""fullscreenenter"",""1"",""2379""
","
","","","808.4000000357628","","","13","4113","1993","&#9784;","elianto","#FFFFF080"," "," ","1","&#10004","[1658.6000000238419]","1","0","0","","","","","","","",""
"pit-trial","12","184455","0.0-2.0-4.4-0.4","battery-v0.2","","""event"",""trial"",""time""
""fullscreenenter"",""1"",""2379""
","
","
","""event"",""trial"",""time""
""fullscreenenter"",""1"",""2379""
","
","","","616.5","","","13","4113","1993","&#9784;","elianto","#FFFFF080"," "," ","1","&#10004","[1469]","1","0","0","","","","","","","",""
"pit-instructions","13","214931","0.0-2.0-5.0","battery-v0.2","","""event"",""trial"",""time""
""fullscreenenter"",""1"",""2379""
","
","
","""event"",""trial"",""time""
""fullscreenenter"",""1"",""2379""
","
","","[{""page_index"":0,""viewing_time"":9090.399999976158},{""page_index"":1,""viewing_time"":8081.100000023842},{""page_index"":2,""viewing_time"":6580.899999976158},{""page_index"":3,""viewing_time"":6708.300000011921}]","30461.69999998808","","","","","","","","","","","","","","","","","","","","","","","",""
"pit-trial","14","219806","0.0-2.0-6.0-0.0","battery-v0.2","","""event"",""trial"",""time""
""fullscreenenter"",""1"",""2379""
","
","
","""event"",""trial"",""time""
""fullscreenenter"",""1"",""2379""
","
","","","-1","","","13","4113","1993","&#9854;","elianto","#FFFFF080","-1","-1","1","&#10004","[]","0","0","1","","","","","","","",""
"pit-trial","15","224696","0.0-2.0-6.1-0.1","battery-v0.2","","""event"",""trial"",""time""
""fullscreenenter"",""1"",""2379""
","
","
","""event"",""trial"",""time""
""fullscreenenter"",""1"",""2379""
","
","","","-1","","","13","4113","1993","&#9854;","elianto","#FFFFF080","-1","-1","1","&#10004","[]","0","0","1","","","","","","","",""
"pit-trial","16","229595","0.0-2.0-6.2-0.2","battery-v0.2","","""event"",""trial"",""time""
""fullscreenenter"",""1"",""2379""
","
","
","""event"",""trial"",""time""
""fullscreenenter"",""1"",""2379""
","
","","","-1","","","13","4113","1993","&#9854;","elianto","#FFFFF080","-1","-1","1","&#10004","[]","0","0","1","","","","","","","",""
"pit-trial","17","234481","0.0-2.0-6.3-0.3","battery-v0.2","","""event"",""trial"",""time""
""fullscreenenter"",""1"",""2379""
","
","
","""event"",""trial"",""time""
""fullscreenenter"",""1"",""2379""
","
","","","-1","","","13","4113","1993","&#9854;","elianto","#FFFFF080","-1","-1","1","&#10004","[]","0","0","1","","","","","","","",""
"pit-trial","18","239365","0.0-2.0-6.4-0.4","battery-v0.2","","""event"",""trial"",""time""
""fullscreenenter"",""1"",""2379""
","
","
","""event"",""trial"",""time""
""fullscreenenter"",""1"",""2379""
","
","","","-1","","","13","4113","1993","&#9854;","elianto","#FFFFF080","-1","-1","1","&#10004","[]","0","0","1","","","","","","","",""
"pit-instructions","19","467818","0.0-2.0-7.0","battery-v0.2","","""event"",""trial"",""time""
""fullscreenenter"",""1"",""2379""
","
","
","""event"",""trial"",""time""
""fullscreenenter"",""1"",""2379""
","
","","[{""page_index"":0,""viewing_time"":20243.399999976158},{""page_index"":1,""viewing_time"":9857.5},{""page_index"":2,""viewing_time"":12260.800000011921},{""page_index"":3,""viewing_time"":10263.300000011921},{""page_index"":4,""viewing_time"":12066.399999976158},{""page_index"":5,""viewing_time"":8330.400000035763},{""page_index"":6,""viewing_time"":11059.199999988079},{""page_index"":7,""viewing_time"":13250.399999976158},{""page_index"":8,""viewing_time"":12580.100000023842},{""page_index"":9,""viewing_time"":21063.69999998808},{""page_index"":10,""viewing_time"":8519.5},{""page_index"":11,""viewing_time"":27678},{""page_index"":12,""viewing_time"":11068.399999976158},{""page_index"":13,""viewing_time"":9260.600000023842},{""page_index"":14,""viewing_time"":8969.800000011921},{""page_index"":15,""viewing_time"":8892.5},{""page_index"":16,""viewing_time"":9148.199999988079},{""page_index"":17,""viewing_time"":13930}]","228443.30000001192","","","","","","","","","","","","","","","","","","","","","","","",""
"pit-trial","20","472024","0.0-2.0-8.0-0.0","battery-v0.2","","""event"",""trial"",""time""
""fullscreenenter"",""1"",""2379""
","
","
","""event"",""trial"",""time""
""fullscreenenter"",""1"",""2379""
","
","","","1309.4000000357628","","","13","4113","1993","&#9776;","elianto","#3366ff99"," "," ","1","+10","[2179.199999988079]","1","0","1","","","","","","","",""
"pit-trial","21","475523","0.0-2.0-8.0-1.0","battery-v0.2","","""event"",""trial"",""time""
""fullscreenenter"",""1"",""2379""
","
","
","""event"",""trial"",""time""
""fullscreenenter"",""1"",""2379""
","
","","","618.1000000238419","","","13","4113","1993","&#9776;","elianto","#3366ff99"," "," ","1","+10","[1475.5]","1","0","1","","","","","","","",""
"pit-trial","22","478932","0.0-2.0-8.0-2.0","battery-v0.2","","""event"",""trial"",""time""
""fullscreenenter"",""1"",""2379""
","
","
","""event"",""trial"",""time""
""fullscreenenter"",""1"",""2379""
","
","","","512.1000000238419","","","13","4113","1993","&#9776;","elianto","#3366ff99"," "," ","1","+10","[1376.5]","1","0","1","","","","","","","",""
"pit-trial","23","482482","0.0-2.0-8.0-3.0","battery-v0.2","","""event"",""trial"",""time""
""fullscreenenter"",""1"",""2379""
","
","
","""event"",""trial"",""time""
""fullscreenenter"",""1"",""2379""
","
","","","667.1999999880791","","","13","4113","1993","&#9776;","elianto","#3366ff99"," "," ","1","0","[1520.5999999642372]","1","0","1","","","","","","","",""
"pit-trial","24","485932","0.0-2.0-8.0-4.0","battery-v0.2","","""event"",""trial"",""time""
""fullscreenenter"",""1"",""2379""
","
","
","""event"",""trial"",""time""
""fullscreenenter"",""1"",""2379""
","
","","","587.1000000238419","","","13","4113","1993","&#9776;","elianto","#3366ff99"," "," ","1","+10","[1439.5999999642372]","1","0","1","","","","","","","",""
"pit-trial","25","489353","0.0-2.0-8.1-0.1","battery-v0.2","","""event"",""trial"",""time""
""fullscreenenter"",""1"",""2379""
","
","
","""event"",""trial"",""time""
""fullscreenenter"",""1"",""2379""
","
","","","537.8999999761581","","","13","4113","1993","&#9776;","elianto","#3366ff99"," "," ","1","+10","[1398]","1","0","1","","","","","","","",""
"pit-trial","26","493150","0.0-2.0-8.1-1.1","battery-v0.2","","""event"",""trial"",""time""
""fullscreenenter"",""1"",""2379""
","
","
","""event"",""trial"",""time""
""fullscreenenter"",""1"",""2379""
","
","","","527.3000000119209","","","13","4113","1993","&#9776;","elianto","#3366ff99"," "," ","1","+10","[1384.8999999761581]","1","0","1","","","","","","","",""
"pit-trial","27","496794","0.0-2.0-8.1-2.1","battery-v0.2","","""event"",""trial"",""time""
""fullscreenenter"",""1"",""2379""
","
","
","""event"",""trial"",""time""
""fullscreenenter"",""1"",""2379""
","
","","","633","","","13","4113","1993","&#9776;","elianto","#3366ff99"," "," ","1","+10","[1621.0999999642372]","1","0","1","","","","","","","",""
"pit-trial","28","501153","0.0-2.0-8.1-3.1","battery-v0.2","","""event"",""trial"",""time""
""fullscreenenter"",""1"",""2379""
","
","
","""event"",""trial"",""time""
""fullscreenenter"",""1"",""2379""
","
","","","580.1000000238419","","","13","4113","1993","&#9776;","elianto","#3366ff99"," "," ","1","0","[1433.5]","1","0","1","","","","","","","",""
"pit-trial","29","504512","0.0-2.0-8.1-4.1","battery-v0.2","","""event"",""trial"",""time""
""fullscreenenter"",""1"",""2379""
","
","
","""event"",""trial"",""time""
""fullscreenenter"",""1"",""2379""
","
","","","362.4000000357628","","","13","4113","1993","&#9776;","elianto","#3366ff99"," "," ","1","+10","[1349.199999988079]","1","0","1","","","","","","","",""
"pit-trial","30","508153","0.0-2.0-8.2-0.2","battery-v0.2","","""event"",""trial"",""time""
""fullscreenenter"",""1"",""2379""
","
","
","""event"",""trial"",""time""
""fullscreenenter"",""1"",""2379""
","
","","","490.19999998807907","","","13","4113","1993","&#9776;","elianto","#3366ff99"," "," ","1","+10","[1355.300000011921]","1","0","1","","","","","","","",""
"pit-trial","31","511497","0.0-2.0-8.2-1.2","battery-v0.2","","""event"",""trial"",""time""
""fullscreenenter"",""1"",""2379""
","
","
","""event"",""trial"",""time""
""fullscreenenter"",""1"",""2379""
","
","","","337.80000001192093","","","13","4113","1993","&#9776;","elianto","#3366ff99"," "," ","1","+10","[1329.8999999761581]","1","0","1","","","","","","","",""
"pit-trial","32","515153","0.0-2.0-8.2-2.2","battery-v0.2","","""event"",""trial"",""time""
""fullscreenenter"",""1"",""2379""
","
","
","""event"",""trial"",""time""
""fullscreenenter"",""1"",""2379""
","
","","","605.8000000119209","","","13","4113","1993","&#9776;","elianto","#3366ff99"," "," ","1","+10","[1456.699999988079]","1","0","1","","","","","","","",""
"pit-trial","33","518700","0.0-2.0-8.2-3.2","battery-v0.2","","""event"",""trial"",""time""
""fullscreenenter"",""1"",""2379""
","
","
","""event"",""trial"",""time""
""fullscreenenter"",""1"",""2379""
","
","","","534.4000000357628","","","13","4113","1993","&#9776;","elianto","#3366ff99"," "," ","1","0","[1530.5]","1","0","1","","","","","","","",""
"pit-trial","34","521700","0.0-2.0-8.2-4.2","battery-v0.2","","""event"",""trial"",""time""
""fullscreenenter"",""1"",""2379""
","
","
","""event"",""trial"",""time""
""fullscreenenter"",""1"",""2379""
","
","","","129","","","13","4113","1993","&#9776;","elianto","#3366ff99"," "," ","1","+10","[989.3999999761581]","1","0","1","","","","","","","",""
"call-function","35","521705","0.0-2.0-9.0","battery-v0.2","","""event"",""trial"",""time""
""fullscreenenter"",""1"",""2379""
","
","
","""event"",""trial"",""time""
""fullscreenenter"",""1"",""2379""
","
","","","","","","","","","","","","","","","","","","","","","","","","","","",""
"pit-instructions","36","601992","0.0-2.0-10.0","battery-v0.2","","""event"",""trial"",""time""
""fullscreenenter"",""1"",""2379""
","
","
","""event"",""trial"",""time""
""fullscreenenter"",""1"",""2379""
","
","","[{""page_index"":0,""viewing_time"":8754.800000011921},{""page_index"":1,""viewing_time"":9990.5},{""page_index"":2,""viewing_time"":18713.80000001192},{""page_index"":3,""viewing_time"":32285},{""page_index"":4,""viewing_time"":10542}]","80288.60000002384","","","","","","","","","","","","","","","","","","","","","","","",""
"pit-trial","37","606880","0.0-2.0-11.0-0.0","battery-v0.2","","""event"",""trial"",""time""
""fullscreenenter"",""1"",""2379""
","
","
","""event"",""trial"",""time""
""fullscreenenter"",""1"",""2379""
","
","","","-1","","","13","4113","1993","&#9761;","elianto","#3366ff99","-1","-1","1","+10","[]","0","0","2","","","","","","","",""
"pit-trial","38","611782","0.0-2.0-11.0-1.0","battery-v0.2","","""event"",""trial"",""time""
""fullscreenenter"",""1"",""2379""
","
","
","""event"",""trial"",""time""
""fullscreenenter"",""1"",""2379""
","
","","","-1","","","13","4113","1993","&#9761;","elianto","#3366ff99","-1","-1","1","+10","[]","0","0","2","","","","","","","",""
"pit-trial","39","616670","0.0-2.0-11.0-2.0","battery-v0.2","","""event"",""trial"",""time""
""fullscreenenter"",""1"",""2379""
","
","
","""event"",""trial"",""time""
""fullscreenenter"",""1"",""2379""
","
","","","-1","","","13","4113","1993","&#9761;","elianto","#3366ff99","-1","-1","1","+10","[]","0","0","2","","","","","","","",""
"pit-trial","40","620254","0.0-2.0-11.0-3.0","battery-v0.2","","""event"",""trial"",""time""
""fullscreenenter"",""1"",""2379""
","
","
","""event"",""trial"",""time""
""fullscreenenter"",""1"",""2379""
","
","","","714.1000000238419","","","13","4113","1993","&#9761;","elianto","#3366ff99","-1"," ","0","+10","[1566.8999999761581]","1","0","2","","","","","","","",""
"pit-trial","41","625150","0.0-2.0-11.0-4.0","battery-v0.2","","""event"",""trial"",""time""
""fullscreenenter"",""1"",""2379""
","
","
","""event"",""trial"",""time""
""fullscreenenter"",""1"",""2379""
","
","","","-1","","","13","4113","1993","&#9761;","elianto","#3366ff99","-1","-1","1","+10","[]","0","0","2","","","","","","","",""
"pit-trial","42","630153","0.0-2.0-11.1-0.1","battery-v0.2","","""event"",""trial"",""time""
""fullscreenenter"",""1"",""2379""
","
","
","""event"",""trial"",""time""
""fullscreenenter"",""1"",""2379""
","
","","","-1","","","13","4113","1993","&#9761;","elianto","#3366ff99","-1","-1","1","+10","[]","0","0","2","","","","","","","",""
"pit-trial","43","636147","0.0-2.0-11.1-1.1","battery-v0.2","","""event"",""trial"",""time""
""fullscreenenter"",""1"",""2379""
","
","
","""event"",""trial"",""time""
""fullscreenenter"",""1"",""2379""
","
","","","-1","","","13","4113","1993","&#9761;","elianto","#3366ff99","-1","-1","1","+10","[]","0","0","2","","","","","","","",""
"pit-trial","44","642147","0.0-2.0-11.1-2.1","battery-v0.2","","""event"",""trial"",""time""
""fullscreenenter"",""1"",""2379""
","
","
","""event"",""trial"",""time""
""fullscreenenter"",""1"",""2379""
","
","","","-1","","","13","4113","1993","&#9761;","elianto","#3366ff99","-1","-1","1","+10","[]","0","0","2","","","","","","","",""
"pit-trial","45","648147","0.0-2.0-11.1-3.1","battery-v0.2","","""event"",""trial"",""time""
""fullscreenenter"",""1"",""2379""
","
","
","""event"",""trial"",""time""
""fullscreenenter"",""1"",""2379""
","
","","","-1","","","13","4113","1993","&#9761;","elianto","#3366ff99","-1","-1","1","0","[]","0","0","2","","","","","","","",""
"pit-trial","46","654148","0.0-2.0-11.1-4.1","battery-v0.2","","""event"",""trial"",""time""
""fullscreenenter"",""1"",""2379""
","
","
","""event"",""trial"",""time""
""fullscreenenter"",""1"",""2379""
","
","","","-1","","","13","4113","1993","&#9761;","elianto","#3366ff99","-1","-1","1","+10","[]","0","0","2","","","","","","","",""
"pit-trial","47","659163","0.0-2.0-11.2-0.2","battery-v0.2","","""event"",""trial"",""time""
""fullscreenenter"",""1"",""2379""
","
","
","""event"",""trial"",""time""
""fullscreenenter"",""1"",""2379""
","
","","","-1","","","13","4113","1993","&#9761;","elianto","#3366ff99","-1","-1","1","+10","[]","0","0","2","","","","","","","",""
"pit-trial","48","664146","0.0-2.0-11.2-1.2","battery-v0.2","","""event"",""trial"",""time""
""fullscreenenter"",""1"",""2379""
","
","
","""event"",""trial"",""time""
""fullscreenenter"",""1"",""2379""
","
","","","-1","","","13","4113","1993","&#9761;","elianto","#3366ff99","-1","-1","1","+10","[]","0","0","2","","","","","","","",""
"pit-trial","49","670147","0.0-2.0-11.2-2.2","battery-v0.2","","""event"",""trial"",""time""
""fullscreenenter"",""1"",""2379""
","
","
","""event"",""trial"",""time""
""fullscreenenter"",""1"",""2379""
","
","","","-1","","","13","4113","1993","&#9761;","elianto","#3366ff99","-1","-1","1","+10","[]","0","0","2","","","","","","","",""
"pit-trial","50","676146","0.0-2.0-11.2-3.2","battery-v0.2","","""event"",""trial"",""time""
""fullscreenenter"",""1"",""2379""
","
","
","""event"",""trial"",""time""
""fullscreenenter"",""1"",""2379""
","
","","","-1","","","13","4113","1993","&#9761;","elianto","#3366ff99","-1","-1","1","0","[]","0","0","2","","","","","","","",""
"pit-trial","51","682150","0.0-2.0-11.2-4.2","battery-v0.2","","""event"",""trial"",""time""
""fullscreenenter"",""1"",""2379""
","
","
","""event"",""trial"",""time""
""fullscreenenter"",""1"",""2379""
","
","","","-1","","","13","4113","1993","&#9761;","elianto","#3366ff99","-1","-1","1","+10","[]","0","0","2","","","","","","","",""
"pit-trial","52","688150","0.0-2.0-11.3-0.3","battery-v0.2","","""event"",""trial"",""time""
""fullscreenenter"",""1"",""2379""
","
","
","""event"",""trial"",""time""
""fullscreenenter"",""1"",""2379""
","
","","","-1","","","13","4113","1993","&#9761;","elianto","#3366ff99","-1","-1","1","+10","[]","0","0","2","","","","","","","",""
"pit-trial","53","694149","0.0-2.0-11.3-1.3","battery-v0.2","","""event"",""trial"",""time""
""fullscreenenter"",""1"",""2379""
","
","
","""event"",""trial"",""time""
""fullscreenenter"",""1"",""2379""
","
","","","-1","","","13","4113","1993","&#9761;","elianto","#3366ff99","-1","-1","1","+10","[]","0","0","2","","","","","","","",""
"pit-trial","54","700150","0.0-2.0-11.3-2.3","battery-v0.2","","""event"",""trial"",""time""
""fullscreenenter"",""1"",""2379""
","
","
","""event"",""trial"",""time""
""fullscreenenter"",""1"",""2379""
","
","","","-1","","","13","4113","1993","&#9761;","elianto","#3366ff99","-1","-1","1","+10","[]","0","0","2","","","","","","","",""
"pit-trial","55","706149","0.0-2.0-11.3-3.3","battery-v0.2","","""event"",""trial"",""time""
""fullscreenenter"",""1"",""2379""
","
","
","""event"",""trial"",""time""
""fullscreenenter"",""1"",""2379""
","
","","","-1","","","13","4113","1993","&#9761;","elianto","#3366ff99","-1","-1","1","0","[]","0","0","2","","","","","","","",""
"pit-trial","56","711165","0.0-2.0-11.3-4.3","battery-v0.2","","""event"",""trial"",""time""
""fullscreenenter"",""1"",""2379""
","
","
","""event"",""trial"",""time""
""fullscreenenter"",""1"",""2379""
","
","","","-1","","","13","4113","1993","&#9761;","elianto","#3366ff99","-1","-1","1","+10","[3116]","1","0","2","","","","","","","",""
"call-function","57","711169","0.0-2.0-12.0","battery-v0.2","","""event"",""trial"",""time""
""fullscreenenter"",""1"",""2379""
","
","
","""event"",""trial"",""time""
""fullscreenenter"",""1"",""2379""
","
","","","","","","","","","","","","","","","","","","","","","","","","","","",""
"pit-instructions","58","761428","0.0-2.0-13.0","battery-v0.2","","""event"",""trial"",""time""
""fullscreenenter"",""1"",""2379""
","
","
","""event"",""trial"",""time""
""fullscreenenter"",""1"",""2379""
","
","","[{""page_index"":0,""viewing_time"":8613.400000035763},{""page_index"":1,""viewing_time"":16378.599999964237},{""page_index"":2,""viewing_time"":6535.900000035763},{""page_index"":3,""viewing_time"":14466.199999988079},{""page_index"":4,""viewing_time"":4264.199999988079}]","50259.80000001192","","","","","","","","","","","","","","","","","","","","","","","",""
"pit-trial","59","766307","0.0-2.0-14.0-0.0","battery-v0.2","","""event"",""trial"",""time""
""fullscreenenter"",""1"",""2379""
","
","
","""event"",""trial"",""time""
""fullscreenenter"",""1"",""2379""
","
","","","-1","","","13","4113","1993","&#9826;","elianto","#f73b6a7A","-1","-1","1","0","[]","0","0","3","","","","","","","",""
"pit-trial","60","769664","0.0-2.0-14.0-1.0","battery-v0.2","","""event"",""trial"",""time""
""fullscreenenter"",""1"",""2379""
","
","
","""event"",""trial"",""time""
""fullscreenenter"",""1"",""2379""
","
","","","485.30000001192093","","","13","4113","1993","&#9826;","elianto","#f73b6a7A","-1"," ","0","-10","[1338.9000000357628]","1","0","3","","","","","","","",""
"pit-trial","61","774544","0.0-2.0-14.0-2.0","battery-v0.2","","""event"",""trial"",""time""
""fullscreenenter"",""1"",""2379""
","
","
","""event"",""trial"",""time""
""fullscreenenter"",""1"",""2379""
","
","","","-1","","","13","4113","1993","&#9826;","elianto","#f73b6a7A","-1","-1","1","0","[]","0","0","3","","","","","","","",""
"pit-trial","62","779445","0.0-2.0-14.0-3.0","battery-v0.2","","""event"",""trial"",""time""
""fullscreenenter"",""1"",""2379""
","
","
","""event"",""trial"",""time""
""fullscreenenter"",""1"",""2379""
","
","","","-1","","","13","4113","1993","&#9826;","elianto","#f73b6a7A","-1","-1","1","-10","[]","0","0","3","","","","","","","",""
"pit-trial","63","782784","0.0-2.0-14.0-4.0","battery-v0.2","","""event"",""trial"",""time""
""fullscreenenter"",""1"",""2379""
","
","
","""event"",""trial"",""time""
""fullscreenenter"",""1"",""2379""
","
","","","443.10000002384186","","","13","4113","1993","&#9826;","elianto","#f73b6a7A","-1"," ","0","-10","[1314.6000000238419]","1","0","3","","","","","","","",""
"pit-trial","64","787674","0.0-2.0-14.1-0.1","battery-v0.2","","""event"",""trial"",""time""
""fullscreenenter"",""1"",""2379""
","
","
","""event"",""trial"",""time""
""fullscreenenter"",""1"",""2379""
","
","","","-1","","","13","4113","1993","&#9826;","elianto","#f73b6a7A","-1","-1","1","0","[]","0","0","3","","","","","","","",""
"pit-trial","65","793154","0.0-2.0-14.1-1.1","battery-v0.2","","""event"",""trial"",""time""
""fullscreenenter"",""1"",""2379""
","
","
","""event"",""trial"",""time""
""fullscreenenter"",""1"",""2379""
","
","","","-1","","","13","4113","1993","&#9826;","elianto","#f73b6a7A","-1","-1","1","0","[]","0","0","3","","","","","","","",""
"pit-trial","66","799156","0.0-2.0-14.1-2.1","battery-v0.2","","""event"",""trial"",""time""
""fullscreenenter"",""1"",""2379""
","
","
","""event"",""trial"",""time""
""fullscreenenter"",""1"",""2379""
","
","","","-1","","","13","4113","1993","&#9826;","elianto","#f73b6a7A","-1","-1","1","0","[]","0","0","3","","","","","","","",""
"pit-trial","67","805146","0.0-2.0-14.1-3.1","battery-v0.2","","""event"",""trial"",""time""
""fullscreenenter"",""1"",""2379""
","
","
","""event"",""trial"",""time""
""fullscreenenter"",""1"",""2379""
","
","","","-1","","","13","4113","1993","&#9826;","elianto","#f73b6a7A","-1","-1","1","-10","[]","0","0","3","","","","","","","",""
"pit-trial","68","811146","0.0-2.0-14.1-4.1","battery-v0.2","","""event"",""trial"",""time""
""fullscreenenter"",""1"",""2379""
","
","
","""event"",""trial"",""time""
""fullscreenenter"",""1"",""2379""
","
","","","-1","","","13","4113","1993","&#9826;","elianto","#f73b6a7A","-1","-1","1","0","[]","0","0","3","","","","","","","",""
"pit-trial","69","817148","0.0-2.0-14.2-0.2","battery-v0.2","","""event"",""trial"",""time""
""fullscreenenter"",""1"",""2379""
","
","
","""event"",""trial"",""time""
""fullscreenenter"",""1"",""2379""
","
","","","-1","","","13","4113","1993","&#9826;","elianto","#f73b6a7A","-1","-1","1","0","[]","0","0","3","","","","","","","",""
"pit-trial","70","823146","0.0-2.0-14.2-1.2","battery-v0.2","","""event"",""trial"",""time""
""fullscreenenter"",""1"",""2379""
","
","
","""event"",""trial"",""time""
""fullscreenenter"",""1"",""2379""
","
","","","-1","","","13","4113","1993","&#9826;","elianto","#f73b6a7A","-1","-1","1","0","[]","0","0","3","","","","","","","",""
"pit-trial","71","829146","0.0-2.0-14.2-2.2","battery-v0.2","","""event"",""trial"",""time""
""fullscreenenter"",""1"",""2379""
","
","
","""event"",""trial"",""time""
""fullscreenenter"",""1"",""2379""
","
","","","-1","","","13","4113","1993","&#9826;","elianto","#f73b6a7A","-1","-1","1","0","[]","0","0","3","","","","","","","",""
"pit-trial","72","835145","0.0-2.0-14.2-3.2","battery-v0.2","","""event"",""trial"",""time""
""fullscreenenter"",""1"",""2379""
","
","
","""event"",""trial"",""time""
""fullscreenenter"",""1"",""2379""
","
","","","-1","","","13","4113","1993","&#9826;","elianto","#f73b6a7A","-1","-1","1","-10","[]","0","0","3","","","","","","","",""
"pit-trial","73","838505","0.0-2.0-14.2-4.2","battery-v0.2","","""event"",""trial"",""time""
""fullscreenenter"",""1"",""2379""
","
","
","""event"",""trial"",""time""
""fullscreenenter"",""1"",""2379""
","
","","","340","","","13","4113","1993","&#9826;","elianto","#f73b6a7A","-1"," ","0","-10","[1341.0999999642372]","1","0","3","","","","","","","",""
"pit-trial","74","842156","0.0-2.0-14.3-0.3","battery-v0.2","","""event"",""trial"",""time""
""fullscreenenter"",""1"",""2379""
","
","
","""event"",""trial"",""time""
""fullscreenenter"",""1"",""2379""
","
","","","257.30000001192093","","","13","4113","1993","&#9826;","elianto","#f73b6a7A","-1"," ","0","-10","[1113.300000011921]","1","0","3","","","","","","","",""
"pit-trial","75","848157","0.0-2.0-14.3-1.3","battery-v0.2","","""event"",""trial"",""time""
""fullscreenenter"",""1"",""2379""
","
","
","""event"",""trial"",""time""
""fullscreenenter"",""1"",""2379""
","
","","","-1","","","13","4113","1993","&#9826;","elianto","#f73b6a7A","-1","-1","1","0","[]","0","0","3","","","","","","","",""
"pit-trial","76","854161","0.0-2.0-14.3-2.3","battery-v0.2","","""event"",""trial"",""time""
""fullscreenenter"",""1"",""2379""
","
","
","""event"",""trial"",""time""
""fullscreenenter"",""1"",""2379""
","
","","","-1","","","13","4113","1993","&#9826;","elianto","#f73b6a7A","-1","-1","1","0","[]","0","0","3","","","","","","","",""
"pit-trial","77","860156","0.0-2.0-14.3-3.3","battery-v0.2","","""event"",""trial"",""time""
""fullscreenenter"",""1"",""2379""
","
","
","""event"",""trial"",""time""
""fullscreenenter"",""1"",""2379""
","
","","","-1","","","13","4113","1993","&#9826;","elianto","#f73b6a7A","-1","-1","1","-10","[]","0","0","3","","","","","","","",""
"pit-trial","78","866156","0.0-2.0-14.3-4.3","battery-v0.2","","""event"",""trial"",""time""
""fullscreenenter"",""1"",""2379""
","
","
","""event"",""trial"",""time""
""fullscreenenter"",""1"",""2379""
","
","","","-1","","","13","4113","1993","&#9826;","elianto","#f73b6a7A","-1","-1","1","0","[]","0","0","3","","","","","","","",""
"call-function","79","866160","0.0-2.0-15.0","battery-v0.2","","""event"",""trial"",""time""
""fullscreenenter"",""1"",""2379""
","
","
","""event"",""trial"",""time""
""fullscreenenter"",""1"",""2379""
","
","","","","","","","","","","","","","","","","","","","","","","","","","","",""
"pit-instructions","80","956588","0.0-2.0-16.0","battery-v0.2","","""event"",""trial"",""time""
""fullscreenenter"",""1"",""2379""
","
","
","""event"",""trial"",""time""
""fullscreenenter"",""1"",""2379""
","
","","[{""page_index"":0,""viewing_time"":11090.100000023842},{""page_index"":1,""viewing_time"":28978.19999998808},{""page_index"":2,""viewing_time"":44343.60000002384},{""page_index"":3,""viewing_time"":6014.199999988079}]","90428.70000004768","","","","","","","","","","","","","","","","","","","","","","","",""
"pit-trial","81","960757","0.0-2.0-17.0-0.0","battery-v0.2","","""event"",""trial"",""time""
""fullscreenenter"",""1"",""2379""
","
","
","""event"",""trial"",""time""
""fullscreenenter"",""1"",""2379""
","
","","","1298.4000000357628","","","13","4113","1993","&#9789;","elianto","#f73b6a7A"," "," ","1","0","[2150.5]","1","0","4","","","","","","","",""
"pit-trial","82","963907","0.0-2.0-17.0-1.0","battery-v0.2","","""event"",""trial"",""time""
""fullscreenenter"",""1"",""2379""
","
","
","""event"",""trial"",""time""
""fullscreenenter"",""1"",""2379""
","
","","","283.19999998807907","","","13","4113","1993","&#9789;","elianto","#f73b6a7A"," "," ","1","0","[1133.5]","1","0","4","","","","","","","",""
"pit-trial","83","966937","0.0-2.0-17.0-2.0","battery-v0.2","","""event"",""trial"",""time""
""fullscreenenter"",""1"",""2379""
","
","
","""event"",""trial"",""time""
""fullscreenenter"",""1"",""2379""
","
","","","158.80000001192093","","","13","4113","1993","&#9789;","elianto","#f73b6a7A"," "," ","1","0","[1013.1999999880791]","1","0","4","","","","","","","",""
"pit-trial","84","970227","0.0-2.0-17.0-3.0","battery-v0.2","","""event"",""trial"",""time""
""fullscreenenter"",""1"",""2379""
","
","
","""event"",""trial"",""time""
""fullscreenenter"",""1"",""2379""
","
","","","425.19999998807907","","","13","4113","1993","&#9789;","elianto","#f73b6a7A"," "," ","1","-10","[1277.0999999642372]","1","0","4","","","","","","","",""
"pit-trial","85","973481","0.0-2.0-17.0-4.0","battery-v0.2","","""event"",""trial"",""time""
""fullscreenenter"",""1"",""2379""
","
","
","""event"",""trial"",""time""
""fullscreenenter"",""1"",""2379""
","
","","","367.5999999642372","","","13","4113","1993","&#9789;","elianto","#f73b6a7A"," "," ","1","0","[1227.800000011921]","1","0","4","","","","","","","",""
"pit-trial","86","976652","0.0-2.0-17.1-0.1","battery-v0.2","","""event"",""trial"",""time""
""fullscreenenter"",""1"",""2379""
","
","
","""event"",""trial"",""time""
""fullscreenenter"",""1"",""2379""
","
","","","289.5","","","13","4113","1993","&#9789;","elianto","#f73b6a7A"," "," ","1","0","[1141.7999999523163]","1","0","4","","","","","","","",""
"pit-trial","87","980106","0.0-2.0-17.1-1.1","battery-v0.2","","""event"",""trial"",""time""
""fullscreenenter"",""1"",""2379""
","
","
","""event"",""trial"",""time""
""fullscreenenter"",""1"",""2379""
","
","","","571.6999999880791","","","13","4113","1993","&#9789;","elianto","#f73b6a7A"," "," ","1","0","[1430.300000011921]","1","0","4","","","","","","","",""
"pit-trial","88","983336","0.0-2.0-17.1-2.1","battery-v0.2","","""event"",""trial"",""time""
""fullscreenenter"",""1"",""2379""
","
","
","""event"",""trial"",""time""
""fullscreenenter"",""1"",""2379""
","
","","","348.7000000476837","","","13","4113","1993","&#9789;","elianto","#f73b6a7A"," "," ","1","0","[311.10000002384186,1200.6000000238419]","2","0","4","","","","","","","",""
"pit-trial","89","987146","0.0-2.0-17.1-3.1","battery-v0.2","","""event"",""trial"",""time""
""fullscreenenter"",""1"",""2379""
","
","
","""event"",""trial"",""time""
""fullscreenenter"",""1"",""2379""
","
","","","425.10000002384186","","","13","4113","1993","&#9789;","elianto","#f73b6a7A"," "," ","1","-10","[1275.0999999642372]","1","0","4","","","","","","","",""
"pit-trial","90","990334","0.0-2.0-17.1-4.1","battery-v0.2","","""event"",""trial"",""time""
""fullscreenenter"",""1"",""2379""
","
","
","""event"",""trial"",""time""
""fullscreenenter"",""1"",""2379""
","
","","","171.10000002384186","","","13","4113","1993","&#9789;","elianto","#f73b6a7A"," "," ","1","0","[1165.5]","1","0","4","","","","","","","",""
"pit-trial","91","994156","0.0-2.0-17.2-0.2","battery-v0.2","","""event"",""trial"",""time""
""fullscreenenter"",""1"",""2379""
","
","
","""event"",""trial"",""time""
""fullscreenenter"",""1"",""2379""
","
","","","470.89999997615814","","","13","4113","1993","&#9789;","elianto","#f73b6a7A"," "," ","1","0","[1324.800000011921]","1","0","4","","","","","","","",""
"pit-trial","92","997389","0.0-2.0-17.2-1.2","battery-v0.2","","""event"",""trial"",""time""
""fullscreenenter"",""1"",""2379""
","
","
","""event"",""trial"",""time""
""fullscreenenter"",""1"",""2379""
","
","","","238","","","13","4113","1993","&#9789;","elianto","#f73b6a7A"," "," ","1","0","[1220.1000000238419]","1","0","4","","","","","","","",""
"pit-trial","93","1001158","0.0-2.0-17.2-2.2","battery-v0.2","","""event"",""trial"",""time""
""fullscreenenter"",""1"",""2379""
","
","
","""event"",""trial"",""time""
""fullscreenenter"",""1"",""2379""
","
","","","286.30000001192093","","","13","4113","1993","&#9789;","elianto","#f73b6a7A"," "," ","1","0","[1144.5]","1","0","4","","","","","","","",""
"pit-trial","94","1004407","0.0-2.0-17.2-3.2","battery-v0.2","","""event"",""trial"",""time""
""fullscreenenter"",""1"",""2379""
","
","
","""event"",""trial"",""time""
""fullscreenenter"",""1"",""2379""
","
","","","257.60000002384186","","","13","4113","1993","&#9789;","elianto","#f73b6a7A"," "," ","1","-10","[1238.2000000476837]","1","0","4","","","","","","","",""
"pit-trial","95","1010158","0.0-2.0-17.2-4.2","battery-v0.2","","""event"",""trial"",""time""
""fullscreenenter"",""1"",""2379""
","
","
","""event"",""trial"",""time""
""fullscreenenter"",""1"",""2379""
","
","","","-1","","","13","4113","1993","&#9789;","elianto","#f73b6a7A"," ","-1","0","-10","[]","0","0","4","","","","","","","",""
"pit-trial","96","1013517","0.0-2.0-17.3-0.3","battery-v0.2","","""event"",""trial"",""time""
""fullscreenenter"",""1"",""2379""
","
","
","""event"",""trial"",""time""
""fullscreenenter"",""1"",""2379""
","
","","","350.5","","","13","4113","1993","&#9789;","elianto","#f73b6a7A"," "," ","1","0","[1341.0999999642372]","1","0","4","","","","","","","",""
"pit-trial","97","1017158","0.0-2.0-17.3-1.3","battery-v0.2","","""event"",""trial"",""time""
""fullscreenenter"",""1"",""2379""
","
","
","""event"",""trial"",""time""
""fullscreenenter"",""1"",""2379""
","
","","","362.19999998807907","","","13","4113","1993","&#9789;","elianto","#f73b6a7A"," "," ","1","0","[1215.800000011921]","1","0","4","","","","","","","",""
"pit-trial","98","1020267","0.0-2.0-17.3-2.3","battery-v0.2","","""event"",""trial"",""time""
""fullscreenenter"",""1"",""2379""
","
","
","""event"",""trial"",""time""
""fullscreenenter"",""1"",""2379""
","
","","","99.90000003576279","","","13","4113","1993","&#9789;","elianto","#f73b6a7A"," "," ","1","0","[1091.1000000238419]","1","0","4","","","","","","","",""
"pit-trial","99","1024158","0.0-2.0-17.3-3.3","battery-v0.2","","""event"",""trial"",""time""
""fullscreenenter"",""1"",""2379""
","
","
","""event"",""trial"",""time""
""fullscreenenter"",""1"",""2379""
","
","","","274.9000000357628","","","13","4113","1993","&#9789;","elianto","#f73b6a7A"," "," ","1","-10","[1128]","1","0","4","","","","","","","",""
"pit-trial","100","1027313","0.0-2.0-17.3-4.3","battery-v0.2","","""event"",""trial"",""time""
""fullscreenenter"",""1"",""2379""
","
","
","""event"",""trial"",""time""
""fullscreenenter"",""1"",""2379""
","
","","","143.5999999642372","","","13","4113","1993","&#9789;","elianto","#f73b6a7A"," "," ","1","0","[1138.5]","1","0","4","","","","","","","",""
"call-function","101","1027317","0.0-2.0-18.0","battery-v0.2","","""event"",""trial"",""time""
""fullscreenenter"",""1"",""2379""
","
","
","""event"",""trial"",""time""
""fullscreenenter"",""1"",""2379""
","
","","","","","","","","","","","","","","","","","","","","","","","","","","",""
"pit-instructions","102","1139413","0.0-2.0-19.0","battery-v0.2","","""event"",""trial"",""time""
""fullscreenenter"",""1"",""2379""
","
","
","""event"",""trial"",""time""
""fullscreenenter"",""1"",""2379""
","
","","[{""page_index"":0,""viewing_time"":14196.799999952316},{""page_index"":1,""viewing_time"":24509.100000023842},{""page_index"":2,""viewing_time"":9992},{""page_index"":3,""viewing_time"":15234},{""page_index"":4,""viewing_time"":13527.399999976158},{""page_index"":5,""viewing_time"":12478.800000011921},{""page_index"":6,""viewing_time"":4193.699999988079},{""page_index"":7,""viewing_time"":7524.400000035763},{""page_index"":8,""viewing_time"":10443.5}]","112101.29999995232","","","","","","","","","","","","","","","","","","","","","","","",""
"pit-comprehension","103","1146332","0.0-2.0-20.0-0.0","battery-v0.2","","""event"",""trial"",""time""
""fullscreenenter"",""1"",""2379""
","
","
","""event"",""trial"",""time""
""fullscreenenter"",""1"",""2379""
","
","","","6895.800000011921","[""SPACE""]","0","13","4113","1993","","","","","","","","","","","","","","","","","","",""
"pit-instructions","104","1160081","0.0-2.0-20.0-1.0","battery-v0.2","","""event"",""trial"",""time""
""fullscreenenter"",""1"",""2379""
","
","
","""event"",""trial"",""time""
""fullscreenenter"",""1"",""2379""
","
","","[{""page_index"":0,""viewing_time"":13557.699999988079}]","13558.699999988079","","","","","","","","","","","","","","","","","","","","","","","",""
"pit-comprehension","105","1166558","0.0-2.0-21.0-0.0","battery-v0.2","","""event"",""trial"",""time""
""fullscreenenter"",""1"",""2379""
","
","
","""event"",""trial"",""time""
""fullscreenenter"",""1"",""2379""
","
","","","6449.5","[""10""]","0","13","4113","1993","","","","","","","","","","","","","","","","","","",""
"pit-instructions","106","1174605","0.0-2.0-21.0-1.0","battery-v0.2","","""event"",""trial"",""time""
""fullscreenenter"",""1"",""2379""
","
","
","""event"",""trial"",""time""
""fullscreenenter"",""1"",""2379""
","
","","[{""page_index"":0,""viewing_time"":7845.200000047684}]","7849.900000035763","","","","","","","","","","","","","","","","","","","","","","","",""
"pit-comprehension","107","1184577","0.0-2.0-22.0-0.0","battery-v0.2","","""event"",""trial"",""time""
""fullscreenenter"",""1"",""2379""
","
","
","""event"",""trial"",""time""
""fullscreenenter"",""1"",""2379""
","
","","","9946.799999952316","[""0""]","0","13","4113","1993","","","","","","","","","","","","","","","","","","",""
"pit-instructions","108","1188204","0.0-2.0-22.0-1.0","battery-v0.2","","""event"",""trial"",""time""
""fullscreenenter"",""1"",""2379""
","
","
","""event"",""trial"",""time""
""fullscreenenter"",""1"",""2379""
","
","","[{""page_index"":0,""viewing_time"":3376.199999988079}]","3380.699999988079","","","","","","","","","","","","","","","","","","","","","","","",""
"pit-comprehension","109","1199539","0.0-2.0-23.0-0.0","battery-v0.2","","""event"",""trial"",""time""
""fullscreenenter"",""1"",""2379""
","
","
","""event"",""trial"",""time""
""fullscreenenter"",""1"",""2379""
","
","","","11311.699999988079","[""True""]","0","13","4113","1993","","","","","","","","","","","","","","","","","","",""
"pit-instructions","110","1203374","0.0-2.0-23.0-1.0","battery-v0.2","","""event"",""trial"",""time""
""fullscreenenter"",""1"",""2379""
","
","
","""event"",""trial"",""time""
""fullscreenenter"",""1"",""2379""
","
","","[{""page_index"":0,""viewing_time"":3530.199999988079}]","3531.300000011921","","","","","","","","","","","","","","","","","","","","","","","",""
"pit-comprehension","111","1215243","0.0-2.0-24.0-0.0","battery-v0.2","","""event"",""trial"",""time""
""fullscreenenter"",""1"",""2379""
","
","
","""event"",""trial"",""time""
""fullscreenenter"",""1"",""2379""
","
","","","11848.300000011921","[""True""]","0","13","4113","1993","","","","","","","","","","","","","","","","","","",""
"pit-instructions","112","1222684","0.0-2.0-24.0-1.0","battery-v0.2","","""event"",""trial"",""time""
""fullscreenenter"",""1"",""2379""
","
","
","""event"",""trial"",""time""
""fullscreenenter"",""1"",""2379""
","
","","[{""page_index"":0,""viewing_time"":7262.600000023842}]","7263.900000035763","","","","","","","","","","","","","","","","","","","","","","","",""
"pit-comprehension","113","1250453","0.0-2.0-25.0-0.0","battery-v0.2","","""event"",""trial"",""time""
""fullscreenenter"",""1"",""2379""
","
","
","""event"",""trial"",""time""
""fullscreenenter"",""1"",""2379""
","
","","","27747.899999976158","[""True""]","0","13","4113","1993","","","","","","","","","","","","","","","","","","",""
"pit-instructions","114","1257344","0.0-2.0-25.0-1.0","battery-v0.2","","""event"",""trial"",""time""
""fullscreenenter"",""1"",""2379""
","
","
","""event"",""trial"",""time""
""fullscreenenter"",""1"",""2379""
","
","","[{""page_index"":0,""viewing_time"":6709.100000023842}]","6710.200000047684","","","","","","","","","","","","","","","","","","","","","","","",""
"pit-comprehension","115","1268610","0.0-2.0-26.0-0.0","battery-v0.2","","""event"",""trial"",""time""
""fullscreenenter"",""1"",""2379""
","
","
","""event"",""trial"",""time""
""fullscreenenter"",""1"",""2379""
","
","","","11245.100000023842","[""False""]","0","13","4113","1993","","","","","","","","","","","","","","","","","","",""
"pit-instructions","116","1272148","0.0-2.0-26.0-1.0","battery-v0.2","","""event"",""trial"",""time""
""fullscreenenter"",""1"",""2379""
","
","
","""event"",""trial"",""time""
""fullscreenenter"",""1"",""2379""
","
","","[{""page_index"":0,""viewing_time"":3389.800000011921}]","3391.300000011921","","","","","","","","","","","","","","","","","","","","","","","",""
"pit-instructions","117","1306667","0.0-3.0","battery-v0.2","","""event"",""trial"",""time""
""fullscreenenter"",""1"",""2379""
","
","
","""event"",""trial"",""time""
""fullscreenenter"",""1"",""2379""
","
","","[{""page_index"":0,""viewing_time"":18876.400000035763},{""page_index"":1,""viewing_time"":9516.799999952316},{""page_index"":2,""viewing_time"":6114.5}]","34508.90000003576","","","","","","","","","","","","","","","","","","","","","","","",""
"pit-trial","118","1311189","0.0-4.0","battery-v0.2","","""event"",""trial"",""time""
""fullscreenenter"",""1"",""2379""
","
","
","""event"",""trial"",""time""
""fullscreenenter"",""1"",""2379""
","
","","","1632.699999988079","","","13","4113","1993","&#9728;","elianto","#f73b6a7A","-1"," ","0","-10","[2495.7999999523163]","1","1","","","4113","1","0","4","lose","no-go","0"
"pit-trial","119","1314853","0.0-5.0","battery-v0.2","","""event"",""trial"",""time""
""fullscreenenter"",""1"",""2379""
","
","
","""event"",""trial"",""time""
""fullscreenenter"",""1"",""2379""
","
","","","788.7999999523163","","","13","4113","1993","&#9733;","elianto","#3366ff99","-1"," ","0","0","[1641.5]","1","1","","","4113","2","2","2","win","no-go","0"
"pit-trial","120","1318680","0.0-6.0","battery-v0.2","","""event"",""trial"",""time""
""fullscreenenter"",""1"",""2379""
","
","
","""event"",""trial"",""time""
""fullscreenenter"",""1"",""2379""
","
","","","952.7999999523163","","","13","4113","1993","&#9752;","elianto","#f73b6a7A"," "," ","1","0","[1807.3999999761581]","1","1","","","4113","3","3","3","lose","go","0"
"pit-trial","121","1322369","0.0-7.0","battery-v0.2","","""event"",""trial"",""time""
""fullscreenenter"",""1"",""2379""
","
","
","""event"",""trial"",""time""
""fullscreenenter"",""1"",""2379""
","
","","","796.1999999880791","","","13","4113","1993","&#9730;","elianto","#3366ff99"," "," ","1","0","[1651.699999988079]","1","1","","","4113","4","1","1","win","go","1"
"pit-trial","122","1326149","0.0-8.0","battery-v0.2","","""event"",""trial"",""time""
""fullscreenenter"",""1"",""2379""
","
","
","""event"",""trial"",""time""
""fullscreenenter"",""1"",""2379""
","
","","","917.8000000119209","","","13","4113","1993","&#9752;","elianto","#f73b6a7A"," "," ","1","0","[1768.300000011921]","1","1","","","4113","5","3","3","lose","go","0"
"pit-trial","123","1331034","0.0-9.0","battery-v0.2","","""event"",""trial"",""time""
""fullscreenenter"",""1"",""2379""
","
","
","""event"",""trial"",""time""
""fullscreenenter"",""1"",""2379""
","
","","","-1","","","13","4113","1993","&#9730;","elianto","#3366ff99"," ","-1","0","+10","[]","0","1","","","4113","6","1","1","win","go","1"
"pit-trial","124","1335239","0.0-10.0","battery-v0.2","","""event"",""trial"",""time""
""fullscreenenter"",""1"",""2379""
","
","
","""event"",""trial"",""time""
""fullscreenenter"",""1"",""2379""
","
","","","1298.5","","","13","4113","1993","&#9728;","elianto","#f73b6a7A","-1"," ","0","-10","[2184.900000035763]","1","1","","","4113","7","0","4","lose","no-go","0"
"pit-trial","125","1339141","0.0-11.0","battery-v0.2","","""event"",""trial"",""time""
""fullscreenenter"",""1"",""2379""
","
","
","""event"",""trial"",""time""
""fullscreenenter"",""1"",""2379""
","
","","","917","","","13","4113","1993","&#9733;","elianto","#3366ff99","-1"," ","0","0","[1775.300000011921]","1","1","","","4113","8","2","2","win","no-go","0"
"pit-trial","126","1345148","0.0-12.0","battery-v0.2","","""event"",""trial"",""time""
""fullscreenenter"",""1"",""2379""
","
","
","""event"",""trial"",""time""
""fullscreenenter"",""1"",""2379""
","
","","","-1","","","13","4113","1993","&#9728;","elianto","#f73b6a7A","-1","-1","1","0","[]","0","1","","","4113","9","0","4","lose","no-go","0"
"pit-trial","127","1348757","0.0-13.0","battery-v0.2","","""event"",""trial"",""time""
""fullscreenenter"",""1"",""2379""
","
","
","""event"",""trial"",""time""
""fullscreenenter"",""1"",""2379""
","
","","","599.8999999761581","","","13","4113","1993","&#9730;","elianto","#3366ff99"," "," ","1","+10","[1587.3999999761581]","1","1","","","4113","10","1","1","win","go","0"
"pit-trial","128","1354148","0.0-14.0","battery-v0.2","","""event"",""trial"",""time""
""fullscreenenter"",""1"",""2379""
","
","
","""event"",""trial"",""time""
""fullscreenenter"",""1"",""2379""
","
","","","-1","","","13","4113","1993","&#9733;","elianto","#3366ff99","-1","-1","1","+10","[]","0","1","","","4113","11","2","2","win","no-go","0"
"pit-trial","129","1357851","0.0-15.0","battery-v0.2","","""event"",""trial"",""time""
""fullscreenenter"",""1"",""2379""
","
","
","""event"",""trial"",""time""
""fullscreenenter"",""1"",""2379""
","
","","","691.8000000119209","","","13","4113","1993","&#9752;","elianto","#f73b6a7A"," "," ","1","0","[1688.5]","1","1","","","4113","12","3","3","lose","go","0"
"pit-trial","130","1362147","0.0-16.0","battery-v0.2","","""event"",""trial"",""time""
""fullscreenenter"",""1"",""2379""
","
","
","""event"",""trial"",""time""
""fullscreenenter"",""1"",""2379""
","
","","","1363.199999988079","","","13","4113","1993","&#9728;","elianto","#f73b6a7A","-1"," ","0","-10","[2220.399999976158]","1","1","","","4113","13","0","4","lose","no-go","0"
"pit-trial","131","1366397","0.0-17.0","battery-v0.2","","""event"",""trial"",""time""
""fullscreenenter"",""1"",""2379""
","
","
","""event"",""trial"",""time""
""fullscreenenter"",""1"",""2379""
","
","","","1236.800000011921","","","13","4113","1993","&#9752;","elianto","#f73b6a7A"," "," ","1","0","[2232]","1","1","","","4113","14","3","3","lose","go","0"
"pit-trial","132","1371146","0.0-18.0","battery-v0.2","","""event"",""trial"",""time""
""fullscreenenter"",""1"",""2379""
","
","
","""event"",""trial"",""time""
""fullscreenenter"",""1"",""2379""
","
","","","1159","","","13","4113","1993","&#9733;","elianto","#3366ff99","-1"," ","0","0","[2009.8999999761581]","1","1","","","4113","15","2","2","win","no-go","0"
"pit-trial","133","1375131","0.0-19.0","battery-v0.2","","""event"",""trial"",""time""
""fullscreenenter"",""1"",""2379""
","
","
","""event"",""trial"",""time""
""fullscreenenter"",""1"",""2379""
","
","","","976.8000000119209","","","13","4113","1993","&#9730;","elianto","#3366ff99"," "," ","1","+10","[1968.3999999761581]","1","1","","","4113","16","1","1","win","go","0"
"pit-trial","134","1379147","0.0-20.0","battery-v0.2","","""event"",""trial"",""time""
""fullscreenenter"",""1"",""2379""
","
","
","""event"",""trial"",""time""
""fullscreenenter"",""1"",""2379""
","
","","","880.7000000476837","","","13","4113","1993","&#9730;","elianto","#3366ff99"," "," ","1","+10","[1750.699999988079]","1","1","","","4113","17","1","1","win","go","0"
"pit-trial","135","1382662","0.0-21.0","battery-v0.2","","""event"",""trial"",""time""
""fullscreenenter"",""1"",""2379""
","
","
","""event"",""trial"",""time""
""fullscreenenter"",""1"",""2379""
","
","","","509.80000001192093","","","13","4113","1993","&#9752;","elianto","#f73b6a7A"," "," ","1","-10","[1500.0999999642372]","1","1","","","4113","18","3","3","lose","go","1"
"pit-trial","136","1387146","0.0-22.0","battery-v0.2","","""event"",""trial"",""time""
""fullscreenenter"",""1"",""2379""
","
","
","""event"",""trial"",""time""
""fullscreenenter"",""1"",""2379""
","
","","","777.1999999880791","","","13","4113","1993","&#9733;","elianto","#3366ff99","-1"," ","0","+10","[1634.1000000238419]","1","1","","","4113","19","2","2","win","no-go","1"
"pit-trial","137","1391053","0.0-23.0","battery-v0.2","","""event"",""trial"",""time""
""fullscreenenter"",""1"",""2379""
","
","
","""event"",""trial"",""time""
""fullscreenenter"",""1"",""2379""
","
","","","895.3000000119209","","","13","4113","1993","&#9728;","elianto","#f73b6a7A","-1"," ","0","-10","[1890.199999988079]","1","1","","","4113","20","0","4","lose","no-go","0"
"pit-instructions","138","1410500","0.0-24.0","battery-v0.2","","""event"",""trial"",""time""
""fullscreenenter"",""1"",""2379""
","
","
","""event"",""trial"",""time""
""fullscreenenter"",""1"",""2379""
","
","","[{""page_index"":0,""viewing_time"":8693.399999976158},{""page_index"":1,""viewing_time"":10749}]","19443.80000001192","","","","","","","","","","","","","","","","","","","","","","","",""
"pit-trial","139","1415195","0.0-25.0","battery-v0.2","","""event"",""trial"",""time""
""fullscreenenter"",""1"",""2379""
","
","
","""event"",""trial"",""time""
""fullscreenenter"",""1"",""2379""
","
","","","1816.7000000476837","","","13","4113","1993","y","elianto","#f73b6a7A","-1"," ","0","0","[2667.600000023842]","1","2","","","4113","21","2","4","lose","no-go","1"
"pit-trial","140","1418645","0.0-26.0","battery-v0.2","","""event"",""trial"",""time""
""fullscreenenter"",""1"",""2379""
","
","
","""event"",""trial"",""time""
""fullscreenenter"",""1"",""2379""
","
","","","586.8000000119209","","","13","4113","1993","m","elianto","#f73b6a7A","-1"," ","0","0","[1440.5999999642372]","1","2","","","4113","22","0","4","lose","no-go","1"
"pit-trial","141","1422135","0.0-27.0","battery-v0.2","","""event"",""trial"",""time""
""fullscreenenter"",""1"",""2379""
","
","
","""event"",""trial"",""time""
""fullscreenenter"",""1"",""2379""
","
","","","616.1000000238419","","","13","4113","1993","h","elianto","#f73b6a7A"," "," ","1","-10","[1469.0999999642372]","1","2","","","4113","23","3","3","lose","go","1"
"pit-trial","142","1427008","0.0-28.0","battery-v0.2","","""event"",""trial"",""time""
""fullscreenenter"",""1"",""2379""
","
","
","""event"",""trial"",""time""
""fullscreenenter"",""1"",""2379""
","
","","","-1","","","13","4113","1993","r","elianto","#3366ff99"," ","-1","0","0","[]","0","2","","","4113","24","1","1","win","go","0"
"pit-trial","143","1431898","0.0-29.0","battery-v0.2","","""event"",""trial"",""time""
""fullscreenenter"",""1"",""2379""
","
","
","""event"",""trial"",""time""
""fullscreenenter"",""1"",""2379""
","
","","","-1","","","13","4113","1993","m","elianto","#f73b6a7A","-1","-1","1","-10","[]","0","2","","","4113","25","0","4","lose","no-go","1"
"pit-trial","144","1435387","0.0-30.0","battery-v0.2","","""event"",""trial"",""time""
""fullscreenenter"",""1"",""2379""
","
","
","""event"",""trial"",""time""
""fullscreenenter"",""1"",""2379""
","
","","","606.6000000238419","","","13","4113","1993","r","elianto","#3366ff99"," "," ","1","+10","[1468.199999988079]","1","2","","","4113","26","1","1","win","go","0"
"pit-trial","145","1439153","0.0-31.0","battery-v0.2","","""event"",""trial"",""time""
""fullscreenenter"",""1"",""2379""
","
","
","""event"",""trial"",""time""
""fullscreenenter"",""1"",""2379""
","
","","","699.4000000357628","","","13","4113","1993","y","elianto","#f73b6a7A","-1"," ","0","-10","[1559.0999999642372]","1","2","","","4113","27","2","4","lose","no-go","0"
"pit-trial","146","1442722","0.0-32.0","battery-v0.2","","""event"",""trial"",""time""
""fullscreenenter"",""1"",""2379""
","
","
","""event"",""trial"",""time""
""fullscreenenter"",""1"",""2379""
","
","","","564.8000000119209","","","13","4113","1993","h","elianto","#f73b6a7A"," "," ","1","0","[1553.800000011921]","1","2","","","4113","28","3","3","lose","go","0"
"pit-trial","147","1447144","0.0-33.0","battery-v0.2","","""event"",""trial"",""time""
""fullscreenenter"",""1"",""2379""
","
","
","""event"",""trial"",""time""
""fullscreenenter"",""1"",""2379""
","
","","","846.5","","","13","4113","1993","m","elianto","#f73b6a7A","-1"," ","0","-10","[1702.9000000357628]","1","2","","","4113","29","0","4","lose","no-go","0"
"pit-trial","148","1451707","0.0-34.0","battery-v0.2","","""event"",""trial"",""time""
""fullscreenenter"",""1"",""2379""
","
","
","""event"",""trial"",""time""
""fullscreenenter"",""1"",""2379""
","
","","","1544.300000011921","","","13","4113","1993","h","elianto","#f73b6a7A"," "," ","1","0","[2544.5]","1","2","","","4113","30","3","3","lose","go","0"
"pit-trial","149","1457144","0.0-35.0","battery-v0.2","","""event"",""trial"",""time""
""fullscreenenter"",""1"",""2379""
","
","
","""event"",""trial"",""time""
""fullscreenenter"",""1"",""2379""
","
","","","-1","","","13","4113","1993","y","elianto","#f73b6a7A","-1","-1","1","0","[]","0","2","","","4113","31","2","4","lose","no-go","0"
"pit-trial","150","1460738","0.0-36.0","battery-v0.2","","""event"",""trial"",""time""
""fullscreenenter"",""1"",""2379""
","
","
","""event"",""trial"",""time""
""fullscreenenter"",""1"",""2379""
","
","","","569.8999999761581","","","13","4113","1993","r","elianto","#3366ff99"," "," ","1","0","[1568.8999999761581]","1","2","","","4113","32","1","1","win","go","1"
"pit-trial","151","1464143","0.0-37.0","battery-v0.2","","""event"",""trial"",""time""
""fullscreenenter"",""1"",""2379""
","
","
","""event"",""trial"",""time""
""fullscreenenter"",""1"",""2379""
","
","","","370.4000000357628","","","13","4113","1993","m","elianto","#f73b6a7A","-1"," ","0","-10","[1221.5]","1","2","","","4113","33","0","4","lose","no-go","0"
"pit-trial","152","1467565","0.0-38.0","battery-v0.2","","""event"",""trial"",""time""
""fullscreenenter"",""1"",""2379""
","
","
","""event"",""trial"",""time""
""fullscreenenter"",""1"",""2379""
","
","","","540.1000000238419","","","13","4113","1993","y","elianto","#f73b6a7A","-1"," ","0","-10","[303.19999998807907,1406]","2","2","","","4113","34","2","4","lose","no-go","0"
"pit-trial","153","1472143","0.0-39.0","battery-v0.2","","""event"",""trial"",""time""
""fullscreenenter"",""1"",""2379""
","
","
","""event"",""trial"",""time""
""fullscreenenter"",""1"",""2379""
","
","","","839.8000000119209","","","13","4113","1993","r","elianto","#3366ff99"," "," ","1","+10","[1699.1000000238419]","1","2","","","4113","35","1","1","win","go","0"
"pit-trial","154","1475768","0.0-40.0","battery-v0.2","","""event"",""trial"",""time""
""fullscreenenter"",""1"",""2379""
","
","
","""event"",""trial"",""time""
""fullscreenenter"",""1"",""2379""
","
","","","606.3000000119209","","","13","4113","1993","h","elianto","#f73b6a7A"," "," ","1","0","[1602.4000000357628]","1","2","","","4113","36","3","3","lose","go","0"
"pit-trial","155","1480143","0.0-41.0","battery-v0.2","","""event"",""trial"",""time""
""fullscreenenter"",""1"",""2379""
","
","
","""event"",""trial"",""time""
""fullscreenenter"",""1"",""2379""
","
","","","565.5","","","13","4113","1993","r","elianto","#3366ff99"," "," ","1","+10","[1417.4000000357628]","1","2","","","4113","37","1","1","win","go","0"
"pit-trial","156","1483502","0.0-42.0","battery-v0.2","","""event"",""trial"",""time""
""fullscreenenter"",""1"",""2379""
","
","
","""event"",""trial"",""time""
""fullscreenenter"",""1"",""2379""
","
","","","354","","","13","4113","1993","y","elianto","#f73b6a7A","-1"," ","0","-10","[1347]","1","2","","","4113","38","2","4","lose","no-go","0"
"pit-trial","157","1487146","0.0-43.0","battery-v0.2","","""event"",""trial"",""time""
""fullscreenenter"",""1"",""2379""
","
","
","""event"",""trial"",""time""
""fullscreenenter"",""1"",""2379""
","
","","","285.69999998807907","","","13","4113","1993","h","elianto","#f73b6a7A"," "," ","1","0","[1139.199999988079]","1","2","","","4113","39","3","3","lose","go","0"
"pit-trial","158","1490287","0.0-44.0","battery-v0.2","","""event"",""trial"",""time""
""fullscreenenter"",""1"",""2379""
","
","
","""event"",""trial"",""time""
""fullscreenenter"",""1"",""2379""
","
","","","129.5","","","13","4113","1993","m","elianto","#f73b6a7A","-1"," ","0","-10","[1124.7000000476837]","1","2","","","4113","40","0","4","lose","no-go","0"
"pit-trial","159","1494145","0.0-45.0","battery-v0.2","","""event"",""trial"",""time""
""fullscreenenter"",""1"",""2379""
","
","
","""event"",""trial"",""time""
""fullscreenenter"",""1"",""2379""
","
","","","645","","","13","4113","1993","r","elianto","#3366ff99"," "," ","1","+10","[1496.5]","1","2","","","4113","41","1","1","win","go","0"
"pit-trial","160","1497771","0.0-46.0","battery-v0.2","","""event"",""trial"",""time""
""fullscreenenter"",""1"",""2379""
","
","
","""event"",""trial"",""time""
""fullscreenenter"",""1"",""2379""
","
","","","610.0999999642372","","","13","4113","1993","y","elianto","#f73b6a7A","-1"," ","0","0","[1603.9000000357628]","1","2","","","4113","42","2","4","lose","no-go","1"
"pit-trial","161","1502145","0.0-47.0","battery-v0.2","","""event"",""trial"",""time""
""fullscreenenter"",""1"",""2379""
","
","
","""event"",""trial"",""time""
""fullscreenenter"",""1"",""2379""
","
","","","745","","","13","4113","1993","h","elianto","#f73b6a7A"," "," ","1","0","[1600.5]","1","2","","","4113","43","3","3","lose","go","0"
"pit-trial","162","1505583","0.0-48.0","battery-v0.2","","""event"",""trial"",""time""
""fullscreenenter"",""1"",""2379""
","
","
","""event"",""trial"",""time""
""fullscreenenter"",""1"",""2379""
","
","","","424.69999998807907","","","13","4113","1993","m","elianto","#f73b6a7A","-1"," ","0","-10","[1419.7000000476837]","1","2","","","4113","44","0","4","lose","no-go","0"
"pit-trial","163","1509145","0.0-49.0","battery-v0.2","","""event"",""trial"",""time""
""fullscreenenter"",""1"",""2379""
","
","
","""event"",""trial"",""time""
""fullscreenenter"",""1"",""2379""
","
","","","516.1999999880791","","","13","4113","1993","z","elianto","#3366ff99","-1"," ","0","0","[1366.8999999761581]","1","2","","","4113","45","4","2","win","no-go","0"
"pit-trial","164","1512442","0.0-50.0","battery-v0.2","","""event"",""trial"",""time""
""fullscreenenter"",""1"",""2379""
","
","
","""event"",""trial"",""time""
""fullscreenenter"",""1"",""2379""
","
","","","279.30000001192093","","","13","4113","1993","h","elianto","#f73b6a7A"," "," ","1","0","[1275]","1","2","","","4113","46","3","3","lose","go","0"
"pit-trial","165","1516147","0.0-51.0","battery-v0.2","","""event"",""trial"",""time""
""fullscreenenter"",""1"",""2379""
","
","
","""event"",""trial"",""time""
""fullscreenenter"",""1"",""2379""
","
","","","279.5","","","13","4113","1993","m","elianto","#f73b6a7A","-1"," ","0","-10","[1137.0999999642372]","1","2","","","4113","47","0","4","lose","no-go","0"
"pit-trial","166","1519458","0.0-52.0","battery-v0.2","","""event"",""trial"",""time""
""fullscreenenter"",""1"",""2379""
","
","
","""event"",""trial"",""time""
""fullscreenenter"",""1"",""2379""
","
","","","295.2999999523163","","","13","4113","1993","y","elianto","#f73b6a7A","-1"," ","0","-10","[1281.9000000357628]","1","2","","","4113","48","2","4","lose","no-go","0"
"pit-trial","167","1523148","0.0-53.0","battery-v0.2","","""event"",""trial"",""time""
""fullscreenenter"",""1"",""2379""
","
","
","""event"",""trial"",""time""
""fullscreenenter"",""1"",""2379""
","
","","","513.3000000119209","","","13","4113","1993","h","elianto","#f73b6a7A"," "," ","1","-10","[1371.5]","1","2","","","4113","49","3","3","lose","go","1"
"pit-trial","168","1526929","0.0-54.0","battery-v0.2","","""event"",""trial"",""time""
""fullscreenenter"",""1"",""2379""
","
","
","""event"",""trial"",""time""
""fullscreenenter"",""1"",""2379""
","
","","","766.7000000476837","","","13","4113","1993","r","elianto","#3366ff99"," "," ","1","+10","[1756.800000011921]","1","2","","","4113","50","1","1","win","go","0"
"pit-trial","169","1531148","0.0-55.0","battery-v0.2","","""event"",""trial"",""time""
""fullscreenenter"",""1"",""2379""
","
","
","""event"",""trial"",""time""
""fullscreenenter"",""1"",""2379""
","
","","","841.8999999761581","","","13","4113","1993","z","elianto","#3366ff99","-1"," ","0","+10","[1693.800000011921]","1","2","","","4113","51","4","2","win","no-go","1"
"pit-trial","170","1534648","0.0-56.0","battery-v0.2","","""event"",""trial"",""time""
""fullscreenenter"",""1"",""2379""
","
","
","""event"",""trial"",""time""
""fullscreenenter"",""1"",""2379""
","
","","","488.10000002384186","","","13","4113","1993","m","elianto","#f73b6a7A","-1"," ","0","-10","[1485.699999988079]","1","2","","","4113","52","0","4","lose","no-go","0"
"pit-trial","171","1538149","0.0-57.0","battery-v0.2","","""event"",""trial"",""time""
""fullscreenenter"",""1"",""2379""
","
","
","""event"",""trial"",""time""
""fullscreenenter"",""1"",""2379""
","
","","","477.10000002384186","","","13","4113","1993","z","elianto","#3366ff99","-1"," ","0","0","[1332.199999988079]","1","2","","","4113","53","4","2","win","no-go","0"
"pit-trial","172","1541273","0.0-58.0","battery-v0.2","","""event"",""trial"",""time""
""fullscreenenter"",""1"",""2379""
","
","
","""event"",""trial"",""time""
""fullscreenenter"",""1"",""2379""
","
","","","104.80000001192093","","","13","4113","1993","r","elianto","#3366ff99"," "," ","1","+10","[1102.199999988079]","1","2","","","4113","54","1","1","win","go","0"
"pit-trial","173","1545147","0.0-59.0","battery-v0.2","","""event"",""trial"",""time""
""fullscreenenter"",""1"",""2379""
","
","
","""event"",""trial"",""time""
""fullscreenenter"",""1"",""2379""
","
","","","455.10000002384186","","","13","4113","1993","m","elianto","#f73b6a7A","-1"," ","0","-10","[1311]","1","2","","","4113","55","0","4","lose","no-go","0"
"pit-trial","174","1548444","0.0-60.0","battery-v0.2","","""event"",""trial"",""time""
""fullscreenenter"",""1"",""2379""
","
","
","""event"",""trial"",""time""
""fullscreenenter"",""1"",""2379""
","
","","","419.80000001192093","","","13","4113","1993","y","elianto","#f73b6a7A","-1"," ","0","-10","[655.8000000119209,1273.5]","2","2","","","4113","56","2","4","lose","no-go","0"
"pit-trial","175","1552147","0.0-61.0","battery-v0.2","","""event"",""trial"",""time""
""fullscreenenter"",""1"",""2379""
","
","
","""event"",""trial"",""time""
""fullscreenenter"",""1"",""2379""
","
","","","515.5","","","13","4113","1993","h","elianto","#f73b6a7A"," "," ","1","0","[1370.5]","1","2","","","4113","57","3","3","lose","go","0"
"pit-trial","176","1555694","0.0-62.0","battery-v0.2","","""event"",""trial"",""time""
""fullscreenenter"",""1"",""2379""
","
","
","""event"",""trial"",""time""
""fullscreenenter"",""1"",""2379""
","
","","","534","","","13","4113","1993","z","elianto","#3366ff99","-1"," ","0","0","[1528.300000011921]","1","2","","","4113","58","4","2","win","no-go","0"
"pit-trial","177","1559147","0.0-63.0","battery-v0.2","","""event"",""trial"",""time""
""fullscreenenter"",""1"",""2379""
","
","
","""event"",""trial"",""time""
""fullscreenenter"",""1"",""2379""
","
","","","573.7999999523163","","","13","4113","1993","m","elianto","#f73b6a7A","-1"," ","0","-10","[1428.1000000238419]","1","2","","","4113","59","0","4","lose","no-go","0"
"pit-trial","178","1562710","0.0-64.0","battery-v0.2","","""event"",""trial"",""time""
""fullscreenenter"",""1"",""2379""
","
","
","""event"",""trial"",""time""
""fullscreenenter"",""1"",""2379""
","
","","","552.3999999761581","","","13","4113","1993","r","elianto","#3366ff99"," "," ","1","+10","[1547.0999999642372]","1","2","","","4113","60","1","1","win","go","0"
"pit-trial","179","1566147","0.0-65.0","battery-v0.2","","""event"",""trial"",""time""
""fullscreenenter"",""1"",""2379""
","
","
","""event"",""trial"",""time""
""fullscreenenter"",""1"",""2379""
","
","","","487.0999999642372","","","13","4113","1993","z","elianto","#3366ff99","-1"," ","0","0","[449.69999998807907,1341.5999999642372]","2","2","","","4113","61","4","2","win","no-go","0"
"pit-trial","180","1569412","0.0-66.0","battery-v0.2","","""event"",""trial"",""time""
""fullscreenenter"",""1"",""2379""
","
","
","""event"",""trial"",""time""
""fullscreenenter"",""1"",""2379""
","
","","","378.69999998807907","","","13","4113","1993","y","elianto","#f73b6a7A","-1"," ","0","-10","[227.9000000357628,1237]","2","2","","","4113","62","2","4","lose","no-go","0"
"pit-trial","181","1573154","0.0-67.0","battery-v0.2","","""event"",""trial"",""time""
""fullscreenenter"",""1"",""2379""
","
","
","""event"",""trial"",""time""
""fullscreenenter"",""1"",""2379""
","
","","","210.5","","","13","4113","1993","r","elianto","#3366ff99"," "," ","1","+10","[1068.8999999761581]","1","2","","","4113","63","1","1","win","go","0"
"pit-trial","182","1576210","0.0-68.0","battery-v0.2","","""event"",""trial"",""time""
""fullscreenenter"",""1"",""2379""
","
","
","""event"",""trial"",""time""
""fullscreenenter"",""1"",""2379""
","
","","","55","","","13","4113","1993","h","elianto","#f73b6a7A"," "," ","1","-10","[1034.199999988079]","1","2","","","4113","64","3","3","lose","go","1"
"pit-trial","183","1580147","0.0-69.0","battery-v0.2","","""event"",""trial"",""time""
""fullscreenenter"",""1"",""2379""
","
","
","""event"",""trial"",""time""
""fullscreenenter"",""1"",""2379""
","
","","","196.0999999642372","","","13","4113","1993","r","elianto","#3366ff99"," "," ","1","0","[1047.4000000357628]","1","2","","","4113","65","1","1","win","go","1"
"pit-trial","184","1583960","0.0-70.0","battery-v0.2","","""event"",""trial"",""time""
""fullscreenenter"",""1"",""2379""
","
","
","""event"",""trial"",""time""
""fullscreenenter"",""1"",""2379""
","
","","","807","","","13","4113","1993","h","elianto","#f73b6a7A"," "," ","1","0","[1802.2000000476837]","1","2","","","4113","66","3","3","lose","go","0"
"pit-trial","185","1589147","0.0-71.0","battery-v0.2","","""event"",""trial"",""time""
""fullscreenenter"",""1"",""2379""
","
","
","""event"",""trial"",""time""
""fullscreenenter"",""1"",""2379""
","
","","","-1","","","13","4113","1993","y","elianto","#f73b6a7A","-1","-1","1","0","[]","0","2","","","4113","67","2","4","lose","no-go","0"
"pit-trial","186","1595146","0.0-72.0","battery-v0.2","","""event"",""trial"",""time""
""fullscreenenter"",""1"",""2379""
","
","
","""event"",""trial"",""time""
""fullscreenenter"",""1"",""2379""
","
","","","-1","","","13","4113","1993","z","elianto","#3366ff99","-1","-1","1","+10","[]","0","2","","","4113","68","4","2","win","no-go","0"
"pit-trial","187","1598975","0.0-73.0","battery-v0.2","","""event"",""trial"",""time""
""fullscreenenter"",""1"",""2379""
","
","
","""event"",""trial"",""time""
""fullscreenenter"",""1"",""2379""
","
","","","817.8000000119209","","","13","4113","1993","h","elianto","#f73b6a7A"," "," ","1","0","[1811.699999988079]","1","2","","","4113","69","3","3","lose","go","0"
"pit-trial","188","1604147","0.0-74.0","battery-v0.2","","""event"",""trial"",""time""
""fullscreenenter"",""1"",""2379""
","
","
","""event"",""trial"",""time""
""fullscreenenter"",""1"",""2379""
","
","","","-1","","","13","4113","1993","c","elianto","#3366ff99"," ","-1","0","0","[]","0","2","","","4113","70","5","1","win","go","0"
"pit-trial","189","1608178","0.0-75.0","battery-v0.2","","""event"",""trial"",""time""
""fullscreenenter"",""1"",""2379""
","
","
","""event"",""trial"",""time""
""fullscreenenter"",""1"",""2379""
","
","","","1016.6000000238419","","","13","4113","1993","r","elianto","#3366ff99"," "," ","1","0","[2009.199999988079]","1","2","","","4113","71","1","1","win","go","1"
"pit-trial","190","1613146","0.0-76.0","battery-v0.2","","""event"",""trial"",""time""
""fullscreenenter"",""1"",""2379""
","
","
","""event"",""trial"",""time""
""fullscreenenter"",""1"",""2379""
","
","","","-1","","","13","4113","1993","z","elianto","#3366ff99","-1","-1","1","+10","[]","0","2","","","4113","72","4","2","win","no-go","0"
"pit-trial","191","1619146","0.0-77.0","battery-v0.2","","""event"",""trial"",""time""
""fullscreenenter"",""1"",""2379""
","
","
","""event"",""trial"",""time""
""fullscreenenter"",""1"",""2379""
","
","","","-1","","","13","4113","1993","r","elianto","#3366ff99"," ","-1","0","+10","[]","0","2","","","4113","73","1","1","win","go","1"
"pit-trial","192","1622818","0.0-78.0","battery-v0.2","","""event"",""trial"",""time""
""fullscreenenter"",""1"",""2379""
","
","
","""event"",""trial"",""time""
""fullscreenenter"",""1"",""2379""
","
","","","657.3000000119209","","","13","4113","1993","h","elianto","#f73b6a7A"," "," ","1","0","[1657.1000000238419]","1","2","","","4113","74","3","3","lose","go","0"
"pit-trial","193","1627146","0.0-79.0","battery-v0.2","","""event"",""trial"",""time""
""fullscreenenter"",""1"",""2379""
","
","
","""event"",""trial"",""time""
""fullscreenenter"",""1"",""2379""
","
","","","1136.4000000357628","","","13","4113","1993","c","elianto","#3366ff99"," "," ","1","+10","[1987.5]","1","2","","","4113","75","5","1","win","go","0"
"pit-trial","194","1633145","0.0-80.0","battery-v0.2","","""event"",""trial"",""time""
""fullscreenenter"",""1"",""2379""
","
","
","""event"",""trial"",""time""
""fullscreenenter"",""1"",""2379""
","
","","","-1","","","13","4113","1993","z","elianto","#3366ff99","-1","-1","1","+10","[]","0","2","","","4113","76","4","2","win","no-go","0"
"pit-trial","195","1636536","0.0-81.0","battery-v0.2","","""event"",""trial"",""time""
""fullscreenenter"",""1"",""2379""
","
","
","""event"",""trial"",""time""
""fullscreenenter"",""1"",""2379""
","
","","","372.5999999642372","","","13","4113","1993","h","elianto","#f73b6a7A"," "," ","1","0","[1375.6000000238419]","1","2","","","4113","77","3","3","lose","go","0"
"pit-trial","196","1640146","0.0-82.0","battery-v0.2","","""event"",""trial"",""time""
""fullscreenenter"",""1"",""2379""
","
","
","""event"",""trial"",""time""
""fullscreenenter"",""1"",""2379""
","
","","","621.8999999761581","","","13","4113","1993","z","elianto","#3366ff99","-1"," ","0","0","[1480.4000000357628]","1","2","","","4113","78","4","2","win","no-go","0"
"pit-trial","197","1644277","0.0-83.0","battery-v0.2","","""event"",""trial"",""time""
""fullscreenenter"",""1"",""2379""
","
","
","""event"",""trial"",""time""
""fullscreenenter"",""1"",""2379""
","
","","","1108.199999988079","","","13","4113","1993","c","elianto","#3366ff99"," "," ","1","+10","[2105]","1","2","","","4113","79","5","1","win","go","0"
"pit-trial","198","1649152","0.0-84.0","battery-v0.2","","""event"",""trial"",""time""
""fullscreenenter"",""1"",""2379""
","
","
","""event"",""trial"",""time""
""fullscreenenter"",""1"",""2379""
","
","","","-1","","","13","4113","1993","b","elianto","#f73b6a7A","-1","-1","1","0","[]","0","2","","","4113","80","6","4","lose","no-go","0"
"pit-trial","199","1652761","0.0-85.0","battery-v0.2","","""event"",""trial"",""time""
""fullscreenenter"",""1"",""2379""
","
","
","""event"",""trial"",""time""
""fullscreenenter"",""1"",""2379""
","
","","","607.6999999880791","","","13","4113","1993","c","elianto","#3366ff99"," "," ","1","+10","[1597.3999999761581]","1","2","","","4113","81","5","1","win","go","0"
"pit-trial","200","1657151","0.0-86.0","battery-v0.2","","""event"",""trial"",""time""
""fullscreenenter"",""1"",""2379""
","
","
","""event"",""trial"",""time""
""fullscreenenter"",""1"",""2379""
","
","","","1108.5","","","13","4113","1993","b","elianto","#f73b6a7A","-1"," ","0","-10","[1960.7000000476837]","1","2","","","4113","82","6","4","lose","no-go","0"
"pit-trial","201","1663151","0.0-87.0","battery-v0.2","","""event"",""trial"",""time""
""fullscreenenter"",""1"",""2379""
","
","
","""event"",""trial"",""time""
""fullscreenenter"",""1"",""2379""
","
","","","-1","","","13","4113","1993","z","elianto","#3366ff99","-1","-1","1","0","[]","0","2","","","4113","83","4","2","win","no-go","1"
"pit-trial","202","1667448","0.0-88.0","battery-v0.2","","""event"",""trial"",""time""
""fullscreenenter"",""1"",""2379""
","
","
","""event"",""trial"",""time""
""fullscreenenter"",""1"",""2379""
","
","","","1301.4000000357628","","","13","4113","1993","t","elianto","#f73b6a7A"," "," ","1","0","[2288.5]","1","2","","","4113","84","7","3","lose","go","0"
"pit-trial","203","1672151","0.0-89.0","battery-v0.2","","""event"",""trial"",""time""
""fullscreenenter"",""1"",""2379""
","
","
","""event"",""trial"",""time""
""fullscreenenter"",""1"",""2379""
","
","","","1047.6000000238419","","","13","4113","1993","t","elianto","#f73b6a7A"," "," ","1","0","[1904.3999999761581]","1","2","","","4113","85","7","3","lose","go","0"
"pit-trial","204","1675823","0.0-90.0","battery-v0.2","","""event"",""trial"",""time""
""fullscreenenter"",""1"",""2379""
","
","
","""event"",""trial"",""time""
""fullscreenenter"",""1"",""2379""
","
","","","647.4000000357628","","","13","4113","1993","z","elianto","#3366ff99","-1"," ","0","0","[1646.4000000357628]","1","2","","","4113","86","4","2","win","no-go","0"
"pit-trial","205","1681151","0.0-91.0","battery-v0.2","","""event"",""trial"",""time""
""fullscreenenter"",""1"",""2379""
","
","
","""event"",""trial"",""time""
""fullscreenenter"",""1"",""2379""
","
","","","-1","","","13","4113","1993","c","elianto","#3366ff99"," ","-1","0","0","[]","0","2","","","4113","87","5","1","win","go","0"
"pit-trial","206","1687151","0.0-92.0","battery-v0.2","","""event"",""trial"",""time""
""fullscreenenter"",""1"",""2379""
","
","
","""event"",""trial"",""time""
""fullscreenenter"",""1"",""2379""
","
","","","-1","","","13","4113","1993","b","elianto","#f73b6a7A","-1","-1","1","0","[]","0","2","","","4113","88","6","4","lose","no-go","0"
"pit-trial","207","1693152","0.0-93.0","battery-v0.2","","""event"",""trial"",""time""
""fullscreenenter"",""1"",""2379""
","
","
","""event"",""trial"",""time""
""fullscreenenter"",""1"",""2379""
","
","","","-1","","","13","4113","1993","z","elianto","#3366ff99","-1","-1","1","0","[]","0","2","","","4113","89","4","2","win","no-go","1"
"pit-trial","208","1697182","0.0-94.0","battery-v0.2","","""event"",""trial"",""time""
""fullscreenenter"",""1"",""2379""
","
","
","""event"",""trial"",""time""
""fullscreenenter"",""1"",""2379""
","
","","","1026.800000011921","","","13","4113","1993","c","elianto","#3366ff99"," "," ","1","+10","[2013.5]","1","2","","","4113","90","5","1","win","go","0"
"pit-trial","209","1702151","0.0-95.0","battery-v0.2","","""event"",""trial"",""time""
""fullscreenenter"",""1"",""2379""
","
","
","""event"",""trial"",""time""
""fullscreenenter"",""1"",""2379""
","
","","","-1","","","13","4113","1993","t","elianto","#f73b6a7A"," ","-1","0","-10","[]","0","2","","","4113","91","7","3","lose","go","0"
"pit-trial","210","1706182","0.0-96.0","battery-v0.2","","""event"",""trial"",""time""
""fullscreenenter"",""1"",""2379""
","
","
","""event"",""trial"",""time""
""fullscreenenter"",""1"",""2379""
","
","","","1003","","","13","4113","1993","b","elianto","#f73b6a7A","-1"," ","0","0","[2003.3999999761581]","1","2","","","4113","92","6","4","lose","no-go","1"
"pit-trial","211","1711150","0.0-97.0","battery-v0.2","","""event"",""trial"",""time""
""fullscreenenter"",""1"",""2379""
","
","
","""event"",""trial"",""time""
""fullscreenenter"",""1"",""2379""
","
","","","-1","","","13","4113","1993","t","elianto","#f73b6a7A"," ","-1","0","-10","[]","0","2","","","4113","93","7","3","lose","go","0"
"pit-trial","212","1714868","0.0-98.0","battery-v0.2","","""event"",""trial"",""time""
""fullscreenenter"",""1"",""2379""
","
","
","""event"",""trial"",""time""
""fullscreenenter"",""1"",""2379""
","
","","","699.2000000476837","","","13","4113","1993","b","elianto","#f73b6a7A","-1"," ","0","0","[1694.800000011921]","1","2","","","4113","94","6","4","lose","no-go","1"
"pit-trial","213","1719151","0.0-99.0","battery-v0.2","","""event"",""trial"",""time""
""fullscreenenter"",""1"",""2379""
","
","
","""event"",""trial"",""time""
""fullscreenenter"",""1"",""2379""
","
","","","1161.199999988079","","","13","4113","1993","f","elianto","#3366ff99","-1"," ","0","0","[2018]","1","2","","","4113","95","8","2","win","no-go","0"
"pit-trial","214","1722785","0.0-100.0","battery-v0.2","","""event"",""trial"",""time""
""fullscreenenter"",""1"",""2379""
","
","
","""event"",""trial"",""time""
""fullscreenenter"",""1"",""2379""
","
","","","622.8000000119209","","","13","4113","1993","c","elianto","#3366ff99"," "," ","1","+10","[1613.5]","1","2","","","4113","96","5","1","win","go","0"
"pit-trial","215","1727665","0.0-101.0","battery-v0.2","","""event"",""trial"",""time""
""fullscreenenter"",""1"",""2379""
","
","
","""event"",""trial"",""time""
""fullscreenenter"",""1"",""2379""
","
","","","-1","","","13","4113","1993","t","elianto","#f73b6a7A"," ","-1","0","-10","[4271.699999988079]","1","2","","","4113","97","7","3","lose","go","0"
"pit-trial","216","1731493","0.0-102.0","battery-v0.2","","""event"",""trial"",""time""
""fullscreenenter"",""1"",""2379""
","
","
","""event"",""trial"",""time""
""fullscreenenter"",""1"",""2379""
","
","","","944.5999999642372","","","13","4113","1993","f","elianto","#3366ff99","-1"," ","0","0","[1802.8999999761581]","1","2","","","4113","98","8","2","win","no-go","0"
"pit-trial","217","1738150","0.0-103.0","battery-v0.2","","""event"",""trial"",""time""
""fullscreenenter"",""1"",""2379""
","
","
","""event"",""trial"",""time""
""fullscreenenter"",""1"",""2379""
","
","","","-1","","","13","4113","1993","b","elianto","#f73b6a7A","-1","-1","1","0","[]","0","2","","","4113","99","6","4","lose","no-go","0"
"pit-trial","218","1741572","0.0-104.0","battery-v0.2","","""event"",""trial"",""time""
""fullscreenenter"",""1"",""2379""
","
","
","""event"",""trial"",""time""
""fullscreenenter"",""1"",""2379""
","
","","","414","","","13","4113","1993","c","elianto","#3366ff99"," "," ","1","+10","[1403.0999999642372]","1","2","","","4113","100","5","1","win","go","0"
"pit-trial","219","1746150","0.0-105.0","battery-v0.2","","""event"",""trial"",""time""
""fullscreenenter"",""1"",""2379""
","
","
","""event"",""trial"",""time""
""fullscreenenter"",""1"",""2379""
","
","","","1065.9000000357628","","","13","4113","1993","c","elianto","#3366ff99"," "," ","1","+10","[1919.4000000357628]","1","2","","","4113","101","5","1","win","go","0"
"pit-trial","220","1750118","0.0-106.0","battery-v0.2","","""event"",""trial"",""time""
""fullscreenenter"",""1"",""2379""
","
","
","""event"",""trial"",""time""
""fullscreenenter"",""1"",""2379""
","
","","","957.3999999761581","","","13","4113","1993","b","elianto","#f73b6a7A","-1"," ","0","0","[1950.4000000357628]","1","2","","","4113","102","6","4","lose","no-go","1"
"pit-trial","221","1755150","0.0-107.0","battery-v0.2","","""event"",""trial"",""time""
""fullscreenenter"",""1"",""2379""
","
","
","""event"",""trial"",""time""
""fullscreenenter"",""1"",""2379""
","
","","","-1","","","13","4113","1993","f","elianto","#3366ff99","-1","-1","1","+10","[]","0","2","","","4113","103","8","2","win","no-go","0"
"pit-trial","222","1758666","0.0-108.0","battery-v0.2","","""event"",""trial"",""time""
""fullscreenenter"",""1"",""2379""
","
","
","""event"",""trial"",""time""
""fullscreenenter"",""1"",""2379""
","
","","","509.9000000357628","","","13","4113","1993","n","elianto","#3366ff99","-1"," ","0","0","[1503.5]","1","2","","","4113","104","9","2","win","no-go","0"
"pit-trial","223","1763152","0.0-109.0","battery-v0.2","","""event"",""trial"",""time""
""fullscreenenter"",""1"",""2379""
","
","
","""event"",""trial"",""time""
""fullscreenenter"",""1"",""2379""
","
","","","1343.5999999642372","","","13","4113","1993","f","elianto","#3366ff99","-1"," ","0","0","[2198]","1","2","","","4113","105","8","2","win","no-go","0"
"pit-trial","224","1767089","0.0-110.0","battery-v0.2","","""event"",""trial"",""time""
""fullscreenenter"",""1"",""2379""
","
","
","""event"",""trial"",""time""
""fullscreenenter"",""1"",""2379""
","
","","","938.1999999880791","","","13","4113","1993","n","elianto","#3366ff99","-1"," ","0","0","[1927.800000011921]","1","2","","","4113","106","9","2","win","no-go","0"
"pit-trial","225","1771152","0.0-111.0","battery-v0.2","","""event"",""trial"",""time""
""fullscreenenter"",""1"",""2379""
","
","
","""event"",""trial"",""time""
""fullscreenenter"",""1"",""2379""
","
","","","864","","","13","4113","1993","b","elianto","#f73b6a7A","-1"," ","0","-10","[1715.9000000357628]","1","2","","","4113","107","6","4","lose","no-go","0"
"pit-trial","226","1774652","0.0-112.0","battery-v0.2","","""event"",""trial"",""time""
""fullscreenenter"",""1"",""2379""
","
","
","""event"",""trial"",""time""
""fullscreenenter"",""1"",""2379""
","
","","","490","","","13","4113","1993","c","elianto","#3366ff99"," "," ","1","+10","[1477]","1","2","","","4113","108","5","1","win","go","0"
"pit-trial","227","1779152","0.0-113.0","battery-v0.2","","""event"",""trial"",""time""
""fullscreenenter"",""1"",""2379""
","
","
","""event"",""trial"",""time""
""fullscreenenter"",""1"",""2379""
","
","","","948.5999999642372","","","13","4113","1993","c","elianto","#3366ff99"," "," ","1","0","[1802.4000000357628]","1","2","","","4113","109","5","1","win","go","1"
"pit-trial","228","1783214","0.0-114.0","battery-v0.2","","""event"",""trial"",""time""
""fullscreenenter"",""1"",""2379""
","
","
","""event"",""trial"",""time""
""fullscreenenter"",""1"",""2379""
","
","","","1054","","","13","4113","1993","f","elianto","#3366ff99","-1"," ","0","0","[2040.6000000238419]","1","2","","","4113","110","8","2","win","no-go","0"
"pit-trial","229","1788153","0.0-115.0","battery-v0.2","","""event"",""trial"",""time""
""fullscreenenter"",""1"",""2379""
","
","
","""event"",""trial"",""time""
""fullscreenenter"",""1"",""2379""
","
","","","1329.300000011921","","","13","4113","1993","b","elianto","#f73b6a7A","-1"," ","0","-10","[2183.099999964237]","1","2","","","4113","111","6","4","lose","no-go","0"
"pit-trial","230","1792465","0.0-116.0","battery-v0.2","","""event"",""trial"",""time""
""fullscreenenter"",""1"",""2379""
","
","
","""event"",""trial"",""time""
""fullscreenenter"",""1"",""2379""
","
","","","1299.4000000357628","","","13","4113","1993","n","elianto","#3366ff99","-1"," ","0","+10","[2292.900000035763]","1","2","","","4113","112","9","2","win","no-go","1"
"pit-trial","231","1796152","0.0-117.0","battery-v0.2","","""event"",""trial"",""time""
""fullscreenenter"",""1"",""2379""
","
","
","""event"",""trial"",""time""
""fullscreenenter"",""1"",""2379""
","
","","","747.9000000357628","","","13","4113","1993","c","elianto","#3366ff99"," "," ","1","+10","[1602.699999988079]","1","2","","","4113","113","5","1","win","go","0"
"pit-trial","232","1802152","0.0-118.0","battery-v0.2","","""event"",""trial"",""time""
""fullscreenenter"",""1"",""2379""
","
","
","""event"",""trial"",""time""
""fullscreenenter"",""1"",""2379""
","
","","","-1","","","13","4113","1993","n","elianto","#3366ff99","-1","-1","1","0","[]","0","2","","","4113","114","9","2","win","no-go","1"
"pit-trial","233","1807167","0.0-119.0","battery-v0.2","","""event"",""trial"",""time""
""fullscreenenter"",""1"",""2379""
","
","
","""event"",""trial"",""time""
""fullscreenenter"",""1"",""2379""
","
","","","-1","","","13","4113","1993","f","elianto","#3366ff99","-1","-1","1","+10","[3517.2000000476837]","1","2","","","4113","115","8","2","win","no-go","0"
"pit-trial","234","1811953","0.0-120.0","battery-v0.2","","""event"",""trial"",""time""
""fullscreenenter"",""1"",""2379""
","
","
","""event"",""trial"",""time""
""fullscreenenter"",""1"",""2379""
","
","","","1375.5","","","13","4113","1993","t","elianto","#f73b6a7A"," "," ","1","0","[2233.5,4779.199999988079]","2","2","","","4113","116","7","3","lose","go","0"
"pit-trial","235","1815714","0.0-121.0","battery-v0.2","","""event"",""trial"",""time""
""fullscreenenter"",""1"",""2379""
","
","
","""event"",""trial"",""time""
""fullscreenenter"",""1"",""2379""
","
","","","894.1999999880791","","","13","4113","1993","c","elianto","#3366ff99"," "," ","1","0","[1748.4000000357628]","1","2","","","4113","117","5","1","win","go","1"
"pit-trial","236","1822151","0.0-122.0","battery-v0.2","","""event"",""trial"",""time""
""fullscreenenter"",""1"",""2379""
","
","
","""event"",""trial"",""time""
""fullscreenenter"",""1"",""2379""
","
","","","-1","","","13","4113","1993","b","elianto","#f73b6a7A","-1","-1","1","0","[]","0","2","","","4113","118","6","4","lose","no-go","0"
"pit-trial","237","1825776","0.0-123.0","battery-v0.2","","""event"",""trial"",""time""
""fullscreenenter"",""1"",""2379""
","
","
","""event"",""trial"",""time""
""fullscreenenter"",""1"",""2379""
","
","","","616.6000000238419","","","13","4113","1993","n","elianto","#3366ff99","-1"," ","0","0","[1603.9000000357628]","1","2","","","4113","119","9","2","win","no-go","0"
"pit-trial","238","1830151","0.0-124.0","battery-v0.2","","""event"",""trial"",""time""
""fullscreenenter"",""1"",""2379""
","
","
","""event"",""trial"",""time""
""fullscreenenter"",""1"",""2379""
","
","","","944","","","13","4113","1993","f","elianto","#3366ff99","-1"," ","0","+10","[1796.6000000238419]","1","2","","","4113","120","8","2","win","no-go","1"
"pit-trial","239","1833623","0.0-125.0","battery-v0.2","","""event"",""trial"",""time""
""fullscreenenter"",""1"",""2379""
","
","
","""event"",""trial"",""time""
""fullscreenenter"",""1"",""2379""
","
","","","448.39999997615814","","","13","4113","1993","c","elianto","#3366ff99"," "," ","1","+10","[1433.4000000357628]","1","2","","","4113","121","5","1","win","go","0"
"pit-trial","240","1839151","0.0-126.0","battery-v0.2","","""event"",""trial"",""time""
""fullscreenenter"",""1"",""2379""
","
","
","""event"",""trial"",""time""
""fullscreenenter"",""1"",""2379""
","
","","","-1","","","13","4113","1993","f","elianto","#3366ff99","-1","-1","1","+10","[]","0","2","","","4113","122","8","2","win","no-go","0"
"pit-trial","241","1842323","0.0-127.0","battery-v0.2","","""event"",""trial"",""time""
""fullscreenenter"",""1"",""2379""
","
","
","""event"",""trial"",""time""
""fullscreenenter"",""1"",""2379""
","
","","","146.0999999642372","","","13","4113","1993","t","elianto","#f73b6a7A"," "," ","1","0","[1147.199999988079]","1","2","","","4113","123","7","3","lose","go","0"
"pit-trial","242","1847150","0.0-128.0","battery-v0.2","","""event"",""trial"",""time""
""fullscreenenter"",""1"",""2379""
","
","
","""event"",""trial"",""time""
""fullscreenenter"",""1"",""2379""
","
","","","1598.0999999642372","","","13","4113","1993","n","elianto","#3366ff99","-1"," ","0","0","[2453.099999964237]","1","2","","","4113","124","9","2","win","no-go","0"
"pit-trial","243","1850728","0.0-129.0","battery-v0.2","","""event"",""trial"",""time""
""fullscreenenter"",""1"",""2379""
","
","
","""event"",""trial"",""time""
""fullscreenenter"",""1"",""2379""
","
","","","574.2999999523163","","","13","4113","1993","b","elianto","#f73b6a7A","-1"," ","0","-10","[1563.300000011921]","1","2","","","4113","125","6","4","lose","no-go","0"
"pit-trial","244","1855151","0.0-130.0","battery-v0.2","","""event"",""trial"",""time""
""fullscreenenter"",""1"",""2379""
","
","
","""event"",""trial"",""time""
""fullscreenenter"",""1"",""2379""
","
","","","1495.699999988079","","","13","4113","1993","t","elianto","#f73b6a7A"," "," ","1","0","[2351.900000035763]","1","2","","","4113","126","7","3","lose","go","0"
"pit-trial","245","1861152","0.0-131.0","battery-v0.2","","""event"",""trial"",""time""
""fullscreenenter"",""1"",""2379""
","
","
","""event"",""trial"",""time""
""fullscreenenter"",""1"",""2379""
","
","","","-1","","","13","4113","1993","n","elianto","#3366ff99","-1","-1","1","0","[]","0","2","","","4113","127","9","2","win","no-go","1"
"pit-trial","246","1864479","0.0-132.0","battery-v0.2","","""event"",""trial"",""time""
""fullscreenenter"",""1"",""2379""
","
","
","""event"",""trial"",""time""
""fullscreenenter"",""1"",""2379""
","
","","","312.5999999642372","","","13","4113","1993","f","elianto","#3366ff99","-1"," ","0","0","[1300.300000011921]","1","2","","","4113","128","8","2","win","no-go","0"
"pit-trial","247","1868151","0.0-133.0","battery-v0.2","","""event"",""trial"",""time""
""fullscreenenter"",""1"",""2379""
","
","
","""event"",""trial"",""time""
""fullscreenenter"",""1"",""2379""
","
","","","439.5","","","13","4113","1993","b","elianto","#f73b6a7A","-1"," ","0","-10","[1292.3999999761581]","1","2","","","4113","129","6","4","lose","no-go","0"
"pit-trial","248","1871551","0.0-134.0","battery-v0.2","","""event"",""trial"",""time""
""fullscreenenter"",""1"",""2379""
","
","
","""event"",""trial"",""time""
""fullscreenenter"",""1"",""2379""
","
","","","375.5","","","13","4113","1993","n","elianto","#3366ff99","-1"," ","0","0","[1371.699999988079]","1","2","","","4113","130","9","2","win","no-go","0"
"pit-trial","249","1875151","0.0-135.0","battery-v0.2","","""event"",""trial"",""time""
""fullscreenenter"",""1"",""2379""
","
","
","""event"",""trial"",""time""
""fullscreenenter"",""1"",""2379""
","
","","","637.8999999761581","","","13","4113","1993","f","elianto","#3366ff99","-1"," ","0","+10","[1499]","1","2","","","4113","131","8","2","win","no-go","1"
"pit-trial","250","1880166","0.0-136.0","battery-v0.2","","""event"",""trial"",""time""
""fullscreenenter"",""1"",""2379""
","
","
","""event"",""trial"",""time""
""fullscreenenter"",""1"",""2379""
","
","","","-1","","","13","4113","1993","t","elianto","#f73b6a7A"," ","-1","0","-10","[3313.099999964237]","1","2","","","4113","132","7","3","lose","go","0"
"pit-trial","251","1883356","0.0-137.0","battery-v0.2","","""event"",""trial"",""time""
""fullscreenenter"",""1"",""2379""
","
","
","""event"",""trial"",""time""
""fullscreenenter"",""1"",""2379""
","
","","","308.30000001192093","","","13","4113","1993","b","elianto","#f73b6a7A","-1"," ","0","-10","[1160.5]","1","2","","","4113","133","6","4","lose","no-go","0"
"pit-trial","252","1887449","0.0-138.0","battery-v0.2","","""event"",""trial"",""time""
""fullscreenenter"",""1"",""2379""
","
","
","""event"",""trial"",""time""
""fullscreenenter"",""1"",""2379""
","
","","","949.4000000357628","","","13","4113","1993","n","elianto","#3366ff99","-1"," ","0","0","[1121.8999999761581,2072.099999964237]","2","2","","","4113","134","9","2","win","no-go","0"
"pit-trial","253","1891153","0.0-139.0","battery-v0.2","","""event"",""trial"",""time""
""fullscreenenter"",""1"",""2379""
","
","
","""event"",""trial"",""time""
""fullscreenenter"",""1"",""2379""
","
","","","391.60000002384186","","","13","4113","1993","t","elianto","#f73b6a7A"," "," ","1","0","[1243.199999988079]","1","2","","","4113","135","7","3","lose","go","0"
"pit-trial","254","1894779","0.0-140.0","battery-v0.2","","""event"",""trial"",""time""
""fullscreenenter"",""1"",""2379""
","
","
","""event"",""trial"",""time""
""fullscreenenter"",""1"",""2379""
","
","","","584.1999999880791","","","13","4113","1993","f","elianto","#3366ff99","-1"," ","0","+10","[1609.5]","1","2","","","4113","136","8","2","win","no-go","1"
"pit-trial","255","1898153","0.0-141.0","battery-v0.2","","""event"",""trial"",""time""
""fullscreenenter"",""1"",""2379""
","
","
","""event"",""trial"",""time""
""fullscreenenter"",""1"",""2379""
","
","","","454.19999998807907","","","13","4113","1993","b","elianto","#f73b6a7A","-1"," ","0","-10","[1307.4000000357628]","1","2","","","4113","137","6","4","lose","no-go","0"
"pit-trial","256","1901746","0.0-142.0","battery-v0.2","","""event"",""trial"",""time""
""fullscreenenter"",""1"",""2379""
","
","
","""event"",""trial"",""time""
""fullscreenenter"",""1"",""2379""
","
","","","593.6999999880791","","","13","4113","1993","t","elianto","#f73b6a7A"," "," ","1","0","[1583.0999999642372]","1","2","","","4113","138","7","3","lose","go","0"
"pit-trial","257","1905152","0.0-143.0","battery-v0.2","","""event"",""trial"",""time""
""fullscreenenter"",""1"",""2379""
","
","
","""event"",""trial"",""time""
""fullscreenenter"",""1"",""2379""
","
","","","189.69999998807907","","","13","4113","1993","n","elianto","#3366ff99","-1"," ","0","0","[1042.0999999642372]","1","2","","","4113","139","9","2","win","no-go","0"
"pit-trial","258","1908464","0.0-144.0","battery-v0.2","","""event"",""trial"",""time""
""fullscreenenter"",""1"",""2379""
","
","
","""event"",""trial"",""time""
""fullscreenenter"",""1"",""2379""
","
","","","432.0999999642372","","","13","4113","1993","f","elianto","#3366ff99","-1"," ","0","0","[709.1000000238419,1293.8999999761581]","2","2","","","4113","140","8","2","win","no-go","0"
"pit-instructions","259","2114198","0.0-145.0","battery-v0.2","","""event"",""trial"",""time""
""fullscreenenter"",""1"",""2379""
","
","
","""event"",""trial"",""time""
""fullscreenenter"",""1"",""2379""
","
","","[{""page_index"":0,""viewing_time"":192307.19999998808},{""page_index"":1,""viewing_time"":13420.300000011921}]","205728.59999996424","","","","","","","","","","","","","","","","","","","","","","","",""
"pit-trial","260","2119099","0.0-146.0","battery-v0.2","","""event"",""trial"",""time""
""fullscreenenter"",""1"",""2379""
","
","
","""event"",""trial"",""time""
""fullscreenenter"",""1"",""2379""
","
","","","2015.5","","","13","4113","1993","u","elianto","#f73b6a7A"," "," ","1","0","[2866.600000023842]","1","3","","","4113","141","0","3","lose","go","0"
"pit-trial","261","2122450","0.0-147.0","battery-v0.2","","""event"",""trial"",""time""
""fullscreenenter"",""1"",""2379""
","
","
","""event"",""trial"",""time""
""fullscreenenter"",""1"",""2379""
","
","","","488","","","13","4113","1993","a","elianto","#f73b6a7A"," "," ","1","-10","[1338.199999988079]","1","3","","","4113","142","2","3","lose","go","1"
"pit-trial","262","2125856","0.0-148.0","battery-v0.2","","""event"",""trial"",""time""
""fullscreenenter"",""1"",""2379""
","
","
","""event"",""trial"",""time""
""fullscreenenter"",""1"",""2379""
","
","","","531.8999999761581","","","13","4113","1993","l","elianto","#3366ff99","-1"," ","0","0","[1383.5]","1","3","","","4113","143","1","2","win","no-go","0"
"pit-trial","263","2130745","0.0-149.0","battery-v0.2","","""event"",""trial"",""time""
""fullscreenenter"",""1"",""2379""
","
","
","""event"",""trial"",""time""
""fullscreenenter"",""1"",""2379""
","
","","","-1","","","13","4113","1993","g","elianto","#f73b6a7A","-1","-1","1","0","[]","0","3","","","4113","144","3","4","lose","no-go","0"
"pit-trial","264","2134475","0.0-150.0","battery-v0.2","","""event"",""trial"",""time""
""fullscreenenter"",""1"",""2379""
","
","
","""event"",""trial"",""time""
""fullscreenenter"",""1"",""2379""
","
","","","850.6999999880791","","","13","4113","1993","g","elianto","#f73b6a7A","-1"," ","0","-10","[1704.1000000238419]","1","3","","","4113","145","3","4","lose","no-go","0"
