"trial_type","trial_index","time_elapsed","internal_node_id","task_version","subject_id","interactions","blur_events","focus_events","fullscreenenter_events","fullscreenexit_events","success","view_history","rt","responses","num_errors","age","subject","participantId","rune","rune_set","hex","correct","choice","accuracy","outcome","keys","total_keys","block","practice","value","sub","trial","stimulus","robot","valence","action","sham"
"pavlovia","0","14","0.0-0.0","battery-v0.2","","""event"",""trial"",""time""
""fullscreenenter"",""1"",""2708""
","
","
","""event"",""trial"",""time""
""fullscreenenter"",""1"",""2708""
","
","","","","","","","","","","","","","","","","","","","","","","","","","","",""
"fullscreen","1","3663","0.0-1.0","battery-v0.2","","""event"",""trial"",""time""
""fullscreenenter"",""1"",""2708""
","
","
","""event"",""trial"",""time""
""fullscreenenter"",""1"",""2708""
","
","true","","","","","","","","","","","","","","","","","","","","","","","","","",""
"pit-instructions","2","8272","0.0-2.0-0.0","battery-v0.2","","""event"",""trial"",""time""
""fullscreenenter"",""1"",""2708""
","
","
","""event"",""trial"",""time""
""fullscreenenter"",""1"",""2708""
","
","","[{""page_index"":0,""viewing_time"":4600.9000000003725}]","4601.299999998882","","","","","","","","","","","","","","","","","","","","","","","",""
"pit-comprehension","3","11463","0.0-2.0-1.0-0.0","battery-v0.2","","""event"",""trial"",""time""
""fullscreenenter"",""1"",""2708""
","
","
","""event"",""trial"",""time""
""fullscreenenter"",""1"",""2708""
","
","","","3186.2999999988824","[""shark""]","0","10","12466","202","","","","","","","","","","","","","","","","","","",""
"pit-instructions","4","15296","0.0-2.0-1.0-1.0","battery-v0.2","","""event"",""trial"",""time""
""fullscreenenter"",""1"",""2708""
","
","
","""event"",""trial"",""time""
""fullscreenenter"",""1"",""2708""
","
","","[{""page_index"":0,""viewing_time"":3821.300000000745}]","3821.5","","","","","","","","","","","","","","","","","","","","","","","",""
"pit-comprehension","5","18439","0.0-2.0-2.0-0.0","battery-v0.2","","""event"",""trial"",""time""
""fullscreenenter"",""1"",""2708""
","
","
","""event"",""trial"",""time""
""fullscreenenter"",""1"",""2708""
","
","","","3140.5999999996275","[""tiger""]","0","10","12466","202","","","","","","","","","","","","","","","","","","",""
"pit-instructions","6","20111","0.0-2.0-2.0-1.0","battery-v0.2","","""event"",""trial"",""time""
""fullscreenenter"",""1"",""2708""
""blur"",""7"",""41872""
""focus"",""7"",""46646""
","""event"",""trial"",""time""
""blur"",""7"",""41872""
","""event"",""trial"",""time""
""focus"",""7"",""46646""
","""event"",""trial"",""time""
""fullscreenenter"",""1"",""2708""
","
","","[{""page_index"":0,""viewing_time"":1667.5999999996275}]","1667.9000000003725","","","","","","","","","","","","","","","","","","","","","","","",""
"pit-instructions","7","139710","0.0-2.0-3.0","battery-v0.2","","""event"",""trial"",""time""
""fullscreenenter"",""1"",""2708""
""blur"",""7"",""41872""
""focus"",""7"",""46646""
","""event"",""trial"",""time""
""blur"",""7"",""41872""
","""event"",""trial"",""time""
""focus"",""7"",""46646""
","""event"",""trial"",""time""
""fullscreenenter"",""1"",""2708""
","
","","[{""page_index"":0,""viewing_time"":9107.60000000149},{""page_index"":1,""viewing_time"":6199.89999999851},{""page_index"":2,""viewing_time"":11296.10000000149},{""page_index"":3,""viewing_time"":5872.799999998882},{""page_index"":4,""viewing_time"":6199},{""page_index"":5,""viewing_time"":9289.900000000373},{""page_index"":6,""viewing_time"":10623.099999999627},{""page_index"":7,""viewing_time"":6983.300000000745},{""page_index"":8,""viewing_time"":8760.799999998882},{""page_index"":9,""viewing_time"":8927.200000001118},{""page_index"":10,""viewing_time"":16409},{""page_index"":11,""viewing_time"":7415.5},{""page_index"":12,""viewing_time"":6746.699999999255},{""page_index"":13,""viewing_time"":5765.0999999996275}]","119596.30000000075","","","","","","","","","","","","","","","","","","","","","","","",""
"pit-trial","8","143192","0.0-2.0-4.0-0.0","battery-v0.2","","""event"",""trial"",""time""
""fullscreenenter"",""1"",""2708""
""blur"",""7"",""41872""
""focus"",""7"",""46646""
","""event"",""trial"",""time""
""blur"",""7"",""41872""
","""event"",""trial"",""time""
""focus"",""7"",""46646""
","""event"",""trial"",""time""
""fullscreenenter"",""1"",""2708""
","
","","","618.8000000007451","","","10","12466","202","&#9784;","elianto","#FFFFF080"," "," ","1","&#10004","[1476.0999999996275]","1","0","0","","","","","","","",""
"pit-trial","9","146983","0.0-2.0-4.1-0.1","battery-v0.2","","""event"",""trial"",""time""
""fullscreenenter"",""1"",""2708""
""blur"",""7"",""41872""
""focus"",""7"",""46646""
","""event"",""trial"",""time""
""blur"",""7"",""41872""
","""event"",""trial"",""time""
""focus"",""7"",""46646""
","""event"",""trial"",""time""
""fullscreenenter"",""1"",""2708""
","
","","","929.9000000003725","","","10","12466","202","&#9784;","elianto","#FFFFF080"," "," ","1","&#10004","[1784.300000000745]","1","0","0","","","","","","","",""
"pit-trial","10","150869","0.0-2.0-4.2-0.2","battery-v0.2","","""event"",""trial"",""time""
""fullscreenenter"",""1"",""2708""
""blur"",""7"",""41872""
""focus"",""7"",""46646""
","""event"",""trial"",""time""
""blur"",""7"",""41872""
","""event"",""trial"",""time""
""focus"",""7"",""46646""
","""event"",""trial"",""time""
""fullscreenenter"",""1"",""2708""
","
","","","1017.6999999992549","","","10","12466","202","&#9784;","elianto","#FFFFF080"," "," ","1","&#10004","[1869.2999999988824]","1","0","0","","","","","","","",""
"pit-trial","11","154511","0.0-2.0-4.3-0.3","battery-v0.2","","""event"",""trial"",""time""
""fullscreenenter"",""1"",""2708""
""blur"",""7"",""41872""
""focus"",""7"",""46646""
","""event"",""trial"",""time""
""blur"",""7"",""41872""
","""event"",""trial"",""time""
""focus"",""7"",""46646""
","""event"",""trial"",""time""
""fullscreenenter"",""1"",""2708""
","
","","","767.0999999996275","","","10","12466","202","&#9784;","elianto","#FFFFF080"," "," ","1","&#10004","[1627.199999999255]","1","0","0","","","","","","","",""
"pit-trial","12","157945","0.0-2.0-4.4-0.4","battery-v0.2","","""event"",""trial"",""time""
""fullscreenenter"",""1"",""2708""
""blur"",""7"",""41872""
""focus"",""7"",""46646""
","""event"",""trial"",""time""
""blur"",""7"",""41872""
","""event"",""trial"",""time""
""focus"",""7"",""46646""
","""event"",""trial"",""time""
""fullscreenenter"",""1"",""2708""
","
","","","570.7999999988824","","","10","12466","202","&#9784;","elianto","#FFFFF080"," "," ","1","&#10004","[1425.2000000011176]","1","0","0","","","","","","","",""
"pit-instructions","13","180077","0.0-2.0-5.0","battery-v0.2","","""event"",""trial"",""time""
""fullscreenenter"",""1"",""2708""
""blur"",""7"",""41872""
""focus"",""7"",""46646""
","""event"",""trial"",""time""
""blur"",""7"",""41872""
","""event"",""trial"",""time""
""focus"",""7"",""46646""
","""event"",""trial"",""time""
""fullscreenenter"",""1"",""2708""
","
","","[{""page_index"":0,""viewing_time"":5022.5},{""page_index"":1,""viewing_time"":6449},{""page_index"":2,""viewing_time"":5624},{""page_index"":3,""viewing_time"":5031.200000001118}]","22126.900000000373","","","","","","","","","","","","","","","","","","","","","","","",""
"pit-trial","14","184942","0.0-2.0-6.0-0.0","battery-v0.2","","""event"",""trial"",""time""
""fullscreenenter"",""1"",""2708""
""blur"",""7"",""41872""
""focus"",""7"",""46646""
","""event"",""trial"",""time""
""blur"",""7"",""41872""
","""event"",""trial"",""time""
""focus"",""7"",""46646""
","""event"",""trial"",""time""
""fullscreenenter"",""1"",""2708""
","
","","","-1","","","10","12466","202","&#9854;","elianto","#FFFFF080","-1","-1","1","&#10004","[]","0","0","1","","","","","","","",""
"pit-trial","15","189816","0.0-2.0-6.1-0.1","battery-v0.2","","""event"",""trial"",""time""
""fullscreenenter"",""1"",""2708""
""blur"",""7"",""41872""
""focus"",""7"",""46646""
","""event"",""trial"",""time""
""blur"",""7"",""41872""
","""event"",""trial"",""time""
""focus"",""7"",""46646""
","""event"",""trial"",""time""
""fullscreenenter"",""1"",""2708""
","
","","","-1","","","10","12466","202","&#9854;","elianto","#FFFFF080","-1","-1","1","&#10004","[]","0","0","1","","","","","","","",""
"pit-trial","16","194688","0.0-2.0-6.2-0.2","battery-v0.2","","""event"",""trial"",""time""
""fullscreenenter"",""1"",""2708""
""blur"",""7"",""41872""
""focus"",""7"",""46646""
","""event"",""trial"",""time""
""blur"",""7"",""41872""
","""event"",""trial"",""time""
""focus"",""7"",""46646""
","""event"",""trial"",""time""
""fullscreenenter"",""1"",""2708""
","
","","","-1","","","10","12466","202","&#9854;","elianto","#FFFFF080","-1","-1","1","&#10004","[]","0","0","1","","","","","","","",""
"pit-trial","17","199572","0.0-2.0-6.3-0.3","battery-v0.2","","""event"",""trial"",""time""
""fullscreenenter"",""1"",""2708""
""blur"",""7"",""41872""
""focus"",""7"",""46646""
","""event"",""trial"",""time""
""blur"",""7"",""41872""
","""event"",""trial"",""time""
""focus"",""7"",""46646""
","""event"",""trial"",""time""
""fullscreenenter"",""1"",""2708""
","
","","","-1","","","10","12466","202","&#9854;","elianto","#FFFFF080","-1","-1","1","&#10004","[]","0","0","1","","","","","","","",""
"pit-trial","18","204447","0.0-2.0-6.4-0.4","battery-v0.2","","""event"",""trial"",""time""
""fullscreenenter"",""1"",""2708""
""blur"",""7"",""41872""
""focus"",""7"",""46646""
""blur"",""19"",""210090""
""focus"",""19"",""229132""
""blur"",""19"",""284192""
""focus"",""19"",""288955""
""blur"",""19"",""305402""
""focus"",""19"",""307518""
""blur"",""19"",""316367""
""focus"",""19"",""330818""
","""event"",""trial"",""time""
""blur"",""7"",""41872""
""blur"",""19"",""210090""
""blur"",""19"",""284192""
""blur"",""19"",""305402""
""blur"",""19"",""316367""
","""event"",""trial"",""time""
""focus"",""7"",""46646""
""focus"",""19"",""229132""
""focus"",""19"",""288955""
""focus"",""19"",""307518""
""focus"",""19"",""330818""
","""event"",""trial"",""time""
""fullscreenenter"",""1"",""2708""
","
","","","-1","","","10","12466","202","&#9854;","elianto","#FFFFF080","-1","-1","1","&#10004","[]","0","0","1","","","","","","","",""
"pit-instructions","19","360653","0.0-2.0-7.0","battery-v0.2","","""event"",""trial"",""time""
""fullscreenenter"",""1"",""2708""
""blur"",""7"",""41872""
""focus"",""7"",""46646""
""blur"",""19"",""210090""
""focus"",""19"",""229132""
""blur"",""19"",""284192""
""focus"",""19"",""288955""
""blur"",""19"",""305402""
""focus"",""19"",""307518""
""blur"",""19"",""316367""
""focus"",""19"",""330818""
","""event"",""trial"",""time""
""blur"",""7"",""41872""
""blur"",""19"",""210090""
""blur"",""19"",""284192""
""blur"",""19"",""305402""
""blur"",""19"",""316367""
","""event"",""trial"",""time""
""focus"",""7"",""46646""
""focus"",""19"",""229132""
""focus"",""19"",""288955""
""focus"",""19"",""307518""
""focus"",""19"",""330818""
","""event"",""trial"",""time""
""fullscreenenter"",""1"",""2708""
","
","","[{""page_index"":0,""viewing_time"":24758.800000000745},{""page_index"":1,""viewing_time"":6648},{""page_index"":2,""viewing_time"":8919.799999998882},{""page_index"":3,""viewing_time"":7921.200000001118},{""page_index"":4,""viewing_time"":6650.199999999255},{""page_index"":5,""viewing_time"":5565.5999999996275},{""page_index"":6,""viewing_time"":8423.900000000373},{""page_index"":7,""viewing_time"":7952},{""page_index"":8,""viewing_time"":7735.300000000745},{""page_index"":9,""viewing_time"":5648.9000000003725},{""page_index"":10,""viewing_time"":6232},{""page_index"":11,""viewing_time"":6679.699999999255},{""page_index"":12,""viewing_time"":7188.800000000745},{""page_index"":13,""viewing_time"":16138.599999999627},{""page_index"":14,""viewing_time"":8289.900000000373},{""page_index"":15,""viewing_time"":8006.5},{""page_index"":16,""viewing_time"":6328},{""page_index"":17,""viewing_time"":7111.699999999255}]","156199.09999999963","","","","","","","","","","","","","","","","","","","","","","","",""
"pit-trial","20","364520","0.0-2.0-8.0-0.0","battery-v0.2","","""event"",""trial"",""time""
""fullscreenenter"",""1"",""2708""
""blur"",""7"",""41872""
""focus"",""7"",""46646""
""blur"",""19"",""210090""
""focus"",""19"",""229132""
""blur"",""19"",""284192""
""focus"",""19"",""288955""
""blur"",""19"",""305402""
""focus"",""19"",""307518""
""blur"",""19"",""316367""
""focus"",""19"",""330818""
","""event"",""trial"",""time""
""blur"",""7"",""41872""
""blur"",""19"",""210090""
""blur"",""19"",""284192""
""blur"",""19"",""305402""
""blur"",""19"",""316367""
","""event"",""trial"",""time""
""focus"",""7"",""46646""
""focus"",""19"",""229132""
""focus"",""19"",""288955""
""focus"",""19"",""307518""
""focus"",""19"",""330818""
","""event"",""trial"",""time""
""fullscreenenter"",""1"",""2708""
","
","","","1005.9000000003725","","","10","12466","202","&#9776;","elianto","#3366ff99"," "," ","1","+10","[1856.5999999996275]","1","0","1","","","","","","","",""
"pit-trial","21","367971","0.0-2.0-8.0-1.0","battery-v0.2","","""event"",""trial"",""time""
""fullscreenenter"",""1"",""2708""
""blur"",""7"",""41872""
""focus"",""7"",""46646""
""blur"",""19"",""210090""
""focus"",""19"",""229132""
""blur"",""19"",""284192""
""focus"",""19"",""288955""
""blur"",""19"",""305402""
""focus"",""19"",""307518""
""blur"",""19"",""316367""
""focus"",""19"",""330818""
","""event"",""trial"",""time""
""blur"",""7"",""41872""
""blur"",""19"",""210090""
""blur"",""19"",""284192""
""blur"",""19"",""305402""
""blur"",""19"",""316367""
","""event"",""trial"",""time""
""focus"",""7"",""46646""
""focus"",""19"",""229132""
""focus"",""19"",""288955""
""focus"",""19"",""307518""
""focus"",""19"",""330818""
","""event"",""trial"",""time""
""fullscreenenter"",""1"",""2708""
","
","","","588.4000000003725","","","10","12466","202","&#9776;","elianto","#3366ff99"," "," ","1","+10","[1440.2000000011176]","1","0","1","","","","","","","",""
"pit-trial","22","371432","0.0-2.0-8.0-2.0","battery-v0.2","","""event"",""trial"",""time""
""fullscreenenter"",""1"",""2708""
""blur"",""7"",""41872""
""focus"",""7"",""46646""
""blur"",""19"",""210090""
""focus"",""19"",""229132""
""blur"",""19"",""284192""
""focus"",""19"",""288955""
""blur"",""19"",""305402""
""focus"",""19"",""307518""
""blur"",""19"",""316367""
""focus"",""19"",""330818""
","""event"",""trial"",""time""
""blur"",""7"",""41872""
""blur"",""19"",""210090""
""blur"",""19"",""284192""
""blur"",""19"",""305402""
""blur"",""19"",""316367""
","""event"",""trial"",""time""
""focus"",""7"",""46646""
""focus"",""19"",""229132""
""focus"",""19"",""288955""
""focus"",""19"",""307518""
""focus"",""19"",""330818""
","""event"",""trial"",""time""
""fullscreenenter"",""1"",""2708""
","
","","","607.5","","","10","12466","202","&#9776;","elianto","#3366ff99"," "," ","1","+10","[1458.5999999996275]","1","0","1","","","","","","","",""
"pit-trial","23","374834","0.0-2.0-8.0-3.0","battery-v0.2","","""event"",""trial"",""time""
""fullscreenenter"",""1"",""2708""
""blur"",""7"",""41872""
""focus"",""7"",""46646""
""blur"",""19"",""210090""
""focus"",""19"",""229132""
""blur"",""19"",""284192""
""focus"",""19"",""288955""
""blur"",""19"",""305402""
""focus"",""19"",""307518""
""blur"",""19"",""316367""
""focus"",""19"",""330818""
","""event"",""trial"",""time""
""blur"",""7"",""41872""
""blur"",""19"",""210090""
""blur"",""19"",""284192""
""blur"",""19"",""305402""
""blur"",""19"",""316367""
","""event"",""trial"",""time""
""focus"",""7"",""46646""
""focus"",""19"",""229132""
""focus"",""19"",""288955""
""focus"",""19"",""307518""
""focus"",""19"",""330818""
","""event"",""trial"",""time""
""fullscreenenter"",""1"",""2708""
","
","","","528.7000000011176","","","10","12466","202","&#9776;","elianto","#3366ff99"," "," ","1","0","[1381.2000000011176]","1","0","1","","","","","","","",""
"pit-trial","24","378270","0.0-2.0-8.0-4.0","battery-v0.2","","""event"",""trial"",""time""
""fullscreenenter"",""1"",""2708""
""blur"",""7"",""41872""
""focus"",""7"",""46646""
""blur"",""19"",""210090""
""focus"",""19"",""229132""
""blur"",""19"",""284192""
""focus"",""19"",""288955""
""blur"",""19"",""305402""
""focus"",""19"",""307518""
""blur"",""19"",""316367""
""focus"",""19"",""330818""
","""event"",""trial"",""time""
""blur"",""7"",""41872""
""blur"",""19"",""210090""
""blur"",""19"",""284192""
""blur"",""19"",""305402""
""blur"",""19"",""316367""
","""event"",""trial"",""time""
""focus"",""7"",""46646""
""focus"",""19"",""229132""
""focus"",""19"",""288955""
""focus"",""19"",""307518""
""focus"",""19"",""330818""
","""event"",""trial"",""time""
""fullscreenenter"",""1"",""2708""
","
","","","572.5","","","10","12466","202","&#9776;","elianto","#3366ff99"," "," ","1","+10","[1423.300000000745]","1","0","1","","","","","","","",""
"pit-trial","25","381832","0.0-2.0-8.1-0.1","battery-v0.2","","""event"",""trial"",""time""
""fullscreenenter"",""1"",""2708""
""blur"",""7"",""41872""
""focus"",""7"",""46646""
""blur"",""19"",""210090""
""focus"",""19"",""229132""
""blur"",""19"",""284192""
""focus"",""19"",""288955""
""blur"",""19"",""305402""
""focus"",""19"",""307518""
""blur"",""19"",""316367""
""focus"",""19"",""330818""
","""event"",""trial"",""time""
""blur"",""7"",""41872""
""blur"",""19"",""210090""
""blur"",""19"",""284192""
""blur"",""19"",""305402""
""blur"",""19"",""316367""
","""event"",""trial"",""time""
""focus"",""7"",""46646""
""focus"",""19"",""229132""
""focus"",""19"",""288955""
""focus"",""19"",""307518""
""focus"",""19"",""330818""
","""event"",""trial"",""time""
""fullscreenenter"",""1"",""2708""
","
","","","688.7999999988824","","","10","12466","202","&#9776;","elianto","#3366ff99"," "," ","1","+10","[1540.199999999255]","1","0","1","","","","","","","",""
"pit-trial","26","385279","0.0-2.0-8.1-1.1","battery-v0.2","","""event"",""trial"",""time""
""fullscreenenter"",""1"",""2708""
""blur"",""7"",""41872""
""focus"",""7"",""46646""
""blur"",""19"",""210090""
""focus"",""19"",""229132""
""blur"",""19"",""284192""
""focus"",""19"",""288955""
""blur"",""19"",""305402""
""focus"",""19"",""307518""
""blur"",""19"",""316367""
""focus"",""19"",""330818""
","""event"",""trial"",""time""
""blur"",""7"",""41872""
""blur"",""19"",""210090""
""blur"",""19"",""284192""
""blur"",""19"",""305402""
""blur"",""19"",""316367""
","""event"",""trial"",""time""
""focus"",""7"",""46646""
""focus"",""19"",""229132""
""focus"",""19"",""288955""
""focus"",""19"",""307518""
""focus"",""19"",""330818""
","""event"",""trial"",""time""
""fullscreenenter"",""1"",""2708""
","
","","","589.8000000007451","","","10","12466","202","&#9776;","elianto","#3366ff99"," "," ","1","+10","[1444.3999999985099]","1","0","1","","","","","","","",""
"pit-trial","27","388682","0.0-2.0-8.1-2.1","battery-v0.2","","""event"",""trial"",""time""
""fullscreenenter"",""1"",""2708""
""blur"",""7"",""41872""
""focus"",""7"",""46646""
""blur"",""19"",""210090""
""focus"",""19"",""229132""
""blur"",""19"",""284192""
""focus"",""19"",""288955""
""blur"",""19"",""305402""
""focus"",""19"",""307518""
""blur"",""19"",""316367""
""focus"",""19"",""330818""
","""event"",""trial"",""time""
""blur"",""7"",""41872""
""blur"",""19"",""210090""
""blur"",""19"",""284192""
""blur"",""19"",""305402""
""blur"",""19"",""316367""
","""event"",""trial"",""time""
""focus"",""7"",""46646""
""focus"",""19"",""229132""
""focus"",""19"",""288955""
""focus"",""19"",""307518""
""focus"",""19"",""330818""
","""event"",""trial"",""time""
""fullscreenenter"",""1"",""2708""
","
","","","537.1999999992549","","","10","12466","202","&#9776;","elianto","#3366ff99"," "," ","1","+10","[1393.800000000745]","1","0","1","","","","","","","",""
"pit-trial","28","392166","0.0-2.0-8.1-3.1","battery-v0.2","","""event"",""trial"",""time""
""fullscreenenter"",""1"",""2708""
""blur"",""7"",""41872""
""focus"",""7"",""46646""
""blur"",""19"",""210090""
""focus"",""19"",""229132""
""blur"",""19"",""284192""
""focus"",""19"",""288955""
""blur"",""19"",""305402""
""focus"",""19"",""307518""
""blur"",""19"",""316367""
""focus"",""19"",""330818""
","""event"",""trial"",""time""
""blur"",""7"",""41872""
""blur"",""19"",""210090""
""blur"",""19"",""284192""
""blur"",""19"",""305402""
""blur"",""19"",""316367""
","""event"",""trial"",""time""
""focus"",""7"",""46646""
""focus"",""19"",""229132""
""focus"",""19"",""288955""
""focus"",""19"",""307518""
""focus"",""19"",""330818""
","""event"",""trial"",""time""
""fullscreenenter"",""1"",""2708""
","
","","","622.9000000003725","","","10","12466","202","&#9776;","elianto","#3366ff99"," "," ","1","0","[1479]","1","0","1","","","","","","","",""
"pit-trial","29","395539","0.0-2.0-8.1-4.1","battery-v0.2","","""event"",""trial"",""time""
""fullscreenenter"",""1"",""2708""
""blur"",""7"",""41872""
""focus"",""7"",""46646""
""blur"",""19"",""210090""
""focus"",""19"",""229132""
""blur"",""19"",""284192""
""focus"",""19"",""288955""
""blur"",""19"",""305402""
""focus"",""19"",""307518""
""blur"",""19"",""316367""
""focus"",""19"",""330818""
","""event"",""trial"",""time""
""blur"",""7"",""41872""
""blur"",""19"",""210090""
""blur"",""19"",""284192""
""blur"",""19"",""305402""
""blur"",""19"",""316367""
","""event"",""trial"",""time""
""focus"",""7"",""46646""
""focus"",""19"",""229132""
""focus"",""19"",""288955""
""focus"",""19"",""307518""
""focus"",""19"",""330818""
","""event"",""trial"",""time""
""fullscreenenter"",""1"",""2708""
","
","","","519.1999999992549","","","10","12466","202","&#9776;","elianto","#3366ff99"," "," ","1","+10","[1369.5999999996275]","1","0","1","","","","","","","",""
"pit-trial","30","399095","0.0-2.0-8.2-0.2","battery-v0.2","","""event"",""trial"",""time""
""fullscreenenter"",""1"",""2708""
""blur"",""7"",""41872""
""focus"",""7"",""46646""
""blur"",""19"",""210090""
""focus"",""19"",""229132""
""blur"",""19"",""284192""
""focus"",""19"",""288955""
""blur"",""19"",""305402""
""focus"",""19"",""307518""
""blur"",""19"",""316367""
""focus"",""19"",""330818""
","""event"",""trial"",""time""
""blur"",""7"",""41872""
""blur"",""19"",""210090""
""blur"",""19"",""284192""
""blur"",""19"",""305402""
""blur"",""19"",""316367""
","""event"",""trial"",""time""
""focus"",""7"",""46646""
""focus"",""19"",""229132""
""focus"",""19"",""288955""
""focus"",""19"",""307518""
""focus"",""19"",""330818""
","""event"",""trial"",""time""
""fullscreenenter"",""1"",""2708""
","
","","","700.5","","","10","12466","202","&#9776;","elianto","#3366ff99"," "," ","1","+10","[1551.5]","1","0","1","","","","","","","",""
"pit-trial","31","402465","0.0-2.0-8.2-1.2","battery-v0.2","","""event"",""trial"",""time""
""fullscreenenter"",""1"",""2708""
""blur"",""7"",""41872""
""focus"",""7"",""46646""
""blur"",""19"",""210090""
""focus"",""19"",""229132""
""blur"",""19"",""284192""
""focus"",""19"",""288955""
""blur"",""19"",""305402""
""focus"",""19"",""307518""
""blur"",""19"",""316367""
""focus"",""19"",""330818""
","""event"",""trial"",""time""
""blur"",""7"",""41872""
""blur"",""19"",""210090""
""blur"",""19"",""284192""
""blur"",""19"",""305402""
""blur"",""19"",""316367""
","""event"",""trial"",""time""
""focus"",""7"",""46646""
""focus"",""19"",""229132""
""focus"",""19"",""288955""
""focus"",""19"",""307518""
""focus"",""19"",""330818""
","""event"",""trial"",""time""
""fullscreenenter"",""1"",""2708""
","
","","","515.5","","","10","12466","202","&#9776;","elianto","#3366ff99"," "," ","1","+10","[1365.5999999996275]","1","0","1","","","","","","","",""
"pit-trial","32","405867","0.0-2.0-8.2-2.2","battery-v0.2","","""event"",""trial"",""time""
""fullscreenenter"",""1"",""2708""
""blur"",""7"",""41872""
""focus"",""7"",""46646""
""blur"",""19"",""210090""
""focus"",""19"",""229132""
""blur"",""19"",""284192""
""focus"",""19"",""288955""
""blur"",""19"",""305402""
""focus"",""19"",""307518""
""blur"",""19"",""316367""
""focus"",""19"",""330818""
","""event"",""trial"",""time""
""blur"",""7"",""41872""
""blur"",""19"",""210090""
""blur"",""19"",""284192""
""blur"",""19"",""305402""
""blur"",""19"",""316367""
","""event"",""trial"",""time""
""focus"",""7"",""46646""
""focus"",""19"",""229132""
""focus"",""19"",""288955""
""focus"",""19"",""307518""
""focus"",""19"",""330818""
","""event"",""trial"",""time""
""fullscreenenter"",""1"",""2708""
","
","","","545.1999999992549","","","10","12466","202","&#9776;","elianto","#3366ff99"," "," ","1","+10","[1397]","1","0","1","","","","","","","",""
"pit-trial","33","409209","0.0-2.0-8.2-3.2","battery-v0.2","","""event"",""trial"",""time""
""fullscreenenter"",""1"",""2708""
""blur"",""7"",""41872""
""focus"",""7"",""46646""
""blur"",""19"",""210090""
""focus"",""19"",""229132""
""blur"",""19"",""284192""
""focus"",""19"",""288955""
""blur"",""19"",""305402""
""focus"",""19"",""307518""
""blur"",""19"",""316367""
""focus"",""19"",""330818""
","""event"",""trial"",""time""
""blur"",""7"",""41872""
""blur"",""19"",""210090""
""blur"",""19"",""284192""
""blur"",""19"",""305402""
""blur"",""19"",""316367""
","""event"",""trial"",""time""
""focus"",""7"",""46646""
""focus"",""19"",""229132""
""focus"",""19"",""288955""
""focus"",""19"",""307518""
""focus"",""19"",""330818""
","""event"",""trial"",""time""
""fullscreenenter"",""1"",""2708""
","
","","","487.2999999988824","","","10","12466","202","&#9776;","elianto","#3366ff99"," "," ","1","0","[1339]","1","0","1","","","","","","","",""
"pit-trial","34","412598","0.0-2.0-8.2-4.2","battery-v0.2","","""event"",""trial"",""time""
""fullscreenenter"",""1"",""2708""
""blur"",""7"",""41872""
""focus"",""7"",""46646""
""blur"",""19"",""210090""
""focus"",""19"",""229132""
""blur"",""19"",""284192""
""focus"",""19"",""288955""
""blur"",""19"",""305402""
""focus"",""19"",""307518""
""blur"",""19"",""316367""
""focus"",""19"",""330818""
","""event"",""trial"",""time""
""blur"",""7"",""41872""
""blur"",""19"",""210090""
""blur"",""19"",""284192""
""blur"",""19"",""305402""
""blur"",""19"",""316367""
","""event"",""trial"",""time""
""focus"",""7"",""46646""
""focus"",""19"",""229132""
""focus"",""19"",""288955""
""focus"",""19"",""307518""
""focus"",""19"",""330818""
","""event"",""trial"",""time""
""fullscreenenter"",""1"",""2708""
","
","","","535.5999999996275","","","10","12466","202","&#9776;","elianto","#3366ff99"," "," ","1","+10","[1386.7000000011176]","1","0","1","","","","","","","",""
"call-function","35","412599","0.0-2.0-9.0","battery-v0.2","","""event"",""trial"",""time""
""fullscreenenter"",""1"",""2708""
""blur"",""7"",""41872""
""focus"",""7"",""46646""
""blur"",""19"",""210090""
""focus"",""19"",""229132""
""blur"",""19"",""284192""
""focus"",""19"",""288955""
""blur"",""19"",""305402""
""focus"",""19"",""307518""
""blur"",""19"",""316367""
""focus"",""19"",""330818""
","""event"",""trial"",""time""
""blur"",""7"",""41872""
""blur"",""19"",""210090""
""blur"",""19"",""284192""
""blur"",""19"",""305402""
""blur"",""19"",""316367""
","""event"",""trial"",""time""
""focus"",""7"",""46646""
""focus"",""19"",""229132""
""focus"",""19"",""288955""
""focus"",""19"",""307518""
""focus"",""19"",""330818""
","""event"",""trial"",""time""
""fullscreenenter"",""1"",""2708""
","
","","","","","","","","","","","","","","","","","","","","","","","","","","",""
"pit-instructions","36","453159","0.0-2.0-10.0","battery-v0.2","","""event"",""trial"",""time""
""fullscreenenter"",""1"",""2708""
""blur"",""7"",""41872""
""focus"",""7"",""46646""
""blur"",""19"",""210090""
""focus"",""19"",""229132""
""blur"",""19"",""284192""
""focus"",""19"",""288955""
""blur"",""19"",""305402""
""focus"",""19"",""307518""
""blur"",""19"",""316367""
""focus"",""19"",""330818""
","""event"",""trial"",""time""
""blur"",""7"",""41872""
""blur"",""19"",""210090""
""blur"",""19"",""284192""
""blur"",""19"",""305402""
""blur"",""19"",""316367""
","""event"",""trial"",""time""
""focus"",""7"",""46646""
""focus"",""19"",""229132""
""focus"",""19"",""288955""
""focus"",""19"",""307518""
""focus"",""19"",""330818""
","""event"",""trial"",""time""
""fullscreenenter"",""1"",""2708""
","
","","[{""page_index"":0,""viewing_time"":6117.5},{""page_index"":1,""viewing_time"":7241.9000000003725},{""page_index"":2,""viewing_time"":9526.099999999627},{""page_index"":3,""viewing_time"":8696.60000000149},{""page_index"":4,""viewing_time"":8976.699999999255}]","40559.10000000149","","","","","","","","","","","","","","","","","","","","","","","",""
"pit-trial","37","456944","0.0-2.0-11.0-0.0","battery-v0.2","","""event"",""trial"",""time""
""fullscreenenter"",""1"",""2708""
""blur"",""7"",""41872""
""focus"",""7"",""46646""
""blur"",""19"",""210090""
""focus"",""19"",""229132""
""blur"",""19"",""284192""
""focus"",""19"",""288955""
""blur"",""19"",""305402""
""focus"",""19"",""307518""
""blur"",""19"",""316367""
""focus"",""19"",""330818""
","""event"",""trial"",""time""
""blur"",""7"",""41872""
""blur"",""19"",""210090""
""blur"",""19"",""284192""
""blur"",""19"",""305402""
""blur"",""19"",""316367""
","""event"",""trial"",""time""
""focus"",""7"",""46646""
""focus"",""19"",""229132""
""focus"",""19"",""288955""
""focus"",""19"",""307518""
""focus"",""19"",""330818""
","""event"",""trial"",""time""
""fullscreenenter"",""1"",""2708""
","
","","","920.3999999985099","","","10","12466","202","&#9761;","elianto","#3366ff99","-1"," ","0","0","[1770.9000000003725]","1","0","2","","","","","","","",""
"pit-trial","38","460384","0.0-2.0-11.0-1.0","battery-v0.2","","""event"",""trial"",""time""
""fullscreenenter"",""1"",""2708""
""blur"",""7"",""41872""
""focus"",""7"",""46646""
""blur"",""19"",""210090""
""focus"",""19"",""229132""
""blur"",""19"",""284192""
""focus"",""19"",""288955""
""blur"",""19"",""305402""
""focus"",""19"",""307518""
""blur"",""19"",""316367""
""focus"",""19"",""330818""
","""event"",""trial"",""time""
""blur"",""7"",""41872""
""blur"",""19"",""210090""
""blur"",""19"",""284192""
""blur"",""19"",""305402""
""blur"",""19"",""316367""
","""event"",""trial"",""time""
""focus"",""7"",""46646""
""focus"",""19"",""229132""
""focus"",""19"",""288955""
""focus"",""19"",""307518""
""focus"",""19"",""330818""
","""event"",""trial"",""time""
""fullscreenenter"",""1"",""2708""
","
","","","572.6999999992549","","","10","12466","202","&#9761;","elianto","#3366ff99","-1"," ","0","0","[1424.199999999255]","1","0","2","","","","","","","",""
"pit-trial","39","465253","0.0-2.0-11.0-2.0","battery-v0.2","","""event"",""trial"",""time""
""fullscreenenter"",""1"",""2708""
""blur"",""7"",""41872""
""focus"",""7"",""46646""
""blur"",""19"",""210090""
""focus"",""19"",""229132""
""blur"",""19"",""284192""
""focus"",""19"",""288955""
""blur"",""19"",""305402""
""focus"",""19"",""307518""
""blur"",""19"",""316367""
""focus"",""19"",""330818""
","""event"",""trial"",""time""
""blur"",""7"",""41872""
""blur"",""19"",""210090""
""blur"",""19"",""284192""
""blur"",""19"",""305402""
""blur"",""19"",""316367""
","""event"",""trial"",""time""
""focus"",""7"",""46646""
""focus"",""19"",""229132""
""focus"",""19"",""288955""
""focus"",""19"",""307518""
""focus"",""19"",""330818""
","""event"",""trial"",""time""
""fullscreenenter"",""1"",""2708""
","
","","","-1","","","10","12466","202","&#9761;","elianto","#3366ff99","-1","-1","1","+10","[]","0","0","2","","","","","","","",""
"pit-trial","40","468705","0.0-2.0-11.0-3.0","battery-v0.2","","""event"",""trial"",""time""
""fullscreenenter"",""1"",""2708""
""blur"",""7"",""41872""
""focus"",""7"",""46646""
""blur"",""19"",""210090""
""focus"",""19"",""229132""
""blur"",""19"",""284192""
""focus"",""19"",""288955""
""blur"",""19"",""305402""
""focus"",""19"",""307518""
""blur"",""19"",""316367""
""focus"",""19"",""330818""
","""event"",""trial"",""time""
""blur"",""7"",""41872""
""blur"",""19"",""210090""
""blur"",""19"",""284192""
""blur"",""19"",""305402""
""blur"",""19"",""316367""
","""event"",""trial"",""time""
""focus"",""7"",""46646""
""focus"",""19"",""229132""
""focus"",""19"",""288955""
""focus"",""19"",""307518""
""focus"",""19"",""330818""
","""event"",""trial"",""time""
""fullscreenenter"",""1"",""2708""
","
","","","592.5999999996275","","","10","12466","202","&#9761;","elianto","#3366ff99","-1"," ","0","+10","[1443.4000000003725]","1","0","2","","","","","","","",""
"pit-trial","41","472410","0.0-2.0-11.0-4.0","battery-v0.2","","""event"",""trial"",""time""
""fullscreenenter"",""1"",""2708""
""blur"",""7"",""41872""
""focus"",""7"",""46646""
""blur"",""19"",""210090""
""focus"",""19"",""229132""
""blur"",""19"",""284192""
""focus"",""19"",""288955""
""blur"",""19"",""305402""
""focus"",""19"",""307518""
""blur"",""19"",""316367""
""focus"",""19"",""330818""
","""event"",""trial"",""time""
""blur"",""7"",""41872""
""blur"",""19"",""210090""
""blur"",""19"",""284192""
""blur"",""19"",""305402""
""blur"",""19"",""316367""
","""event"",""trial"",""time""
""focus"",""7"",""46646""
""focus"",""19"",""229132""
""focus"",""19"",""288955""
""focus"",""19"",""307518""
""focus"",""19"",""330818""
","""event"",""trial"",""time""
""fullscreenenter"",""1"",""2708""
","
","","","842","","","10","12466","202","&#9761;","elianto","#3366ff99","-1"," ","0","0","[1693.300000000745]","1","0","2","","","","","","","",""
"pit-trial","42","477280","0.0-2.0-11.1-0.1","battery-v0.2","","""event"",""trial"",""time""
""fullscreenenter"",""1"",""2708""
""blur"",""7"",""41872""
""focus"",""7"",""46646""
""blur"",""19"",""210090""
""focus"",""19"",""229132""
""blur"",""19"",""284192""
""focus"",""19"",""288955""
""blur"",""19"",""305402""
""focus"",""19"",""307518""
""blur"",""19"",""316367""
""focus"",""19"",""330818""
","""event"",""trial"",""time""
""blur"",""7"",""41872""
""blur"",""19"",""210090""
""blur"",""19"",""284192""
""blur"",""19"",""305402""
""blur"",""19"",""316367""
","""event"",""trial"",""time""
""focus"",""7"",""46646""
""focus"",""19"",""229132""
""focus"",""19"",""288955""
""focus"",""19"",""307518""
""focus"",""19"",""330818""
","""event"",""trial"",""time""
""fullscreenenter"",""1"",""2708""
","
","","","-1","","","10","12466","202","&#9761;","elianto","#3366ff99","-1","-1","1","+10","[]","0","0","2","","","","","","","",""
"pit-trial","43","480546","0.0-2.0-11.1-1.1","battery-v0.2","","""event"",""trial"",""time""
""fullscreenenter"",""1"",""2708""
""blur"",""7"",""41872""
""focus"",""7"",""46646""
""blur"",""19"",""210090""
""focus"",""19"",""229132""
""blur"",""19"",""284192""
""focus"",""19"",""288955""
""blur"",""19"",""305402""
""focus"",""19"",""307518""
""blur"",""19"",""316367""
""focus"",""19"",""330818""
","""event"",""trial"",""time""
""blur"",""7"",""41872""
""blur"",""19"",""210090""
""blur"",""19"",""284192""
""blur"",""19"",""305402""
""blur"",""19"",""316367""
","""event"",""trial"",""time""
""focus"",""7"",""46646""
""focus"",""19"",""229132""
""focus"",""19"",""288955""
""focus"",""19"",""307518""
""focus"",""19"",""330818""
","""event"",""trial"",""time""
""fullscreenenter"",""1"",""2708""
","
","","","401.40000000037253","","","10","12466","202","&#9761;","elianto","#3366ff99","-1"," ","0","0","[1254.6000000014901]","1","0","2","","","","","","","",""
"pit-trial","44","484120","0.0-2.0-11.1-2.1","battery-v0.2","","""event"",""trial"",""time""
""fullscreenenter"",""1"",""2708""
""blur"",""7"",""41872""
""focus"",""7"",""46646""
""blur"",""19"",""210090""
""focus"",""19"",""229132""
""blur"",""19"",""284192""
""focus"",""19"",""288955""
""blur"",""19"",""305402""
""focus"",""19"",""307518""
""blur"",""19"",""316367""
""focus"",""19"",""330818""
","""event"",""trial"",""time""
""blur"",""7"",""41872""
""blur"",""19"",""210090""
""blur"",""19"",""284192""
""blur"",""19"",""305402""
""blur"",""19"",""316367""
","""event"",""trial"",""time""
""focus"",""7"",""46646""
""focus"",""19"",""229132""
""focus"",""19"",""288955""
""focus"",""19"",""307518""
""focus"",""19"",""330818""
","""event"",""trial"",""time""
""fullscreenenter"",""1"",""2708""
","
","","","716.8999999985099","","","10","12466","202","&#9761;","elianto","#3366ff99","-1"," ","0","0","[1571.7999999988824]","1","0","2","","","","","","","",""
"pit-trial","45","487528","0.0-2.0-11.1-3.1","battery-v0.2","","""event"",""trial"",""time""
""fullscreenenter"",""1"",""2708""
""blur"",""7"",""41872""
""focus"",""7"",""46646""
""blur"",""19"",""210090""
""focus"",""19"",""229132""
""blur"",""19"",""284192""
""focus"",""19"",""288955""
""blur"",""19"",""305402""
""focus"",""19"",""307518""
""blur"",""19"",""316367""
""focus"",""19"",""330818""
","""event"",""trial"",""time""
""blur"",""7"",""41872""
""blur"",""19"",""210090""
""blur"",""19"",""284192""
""blur"",""19"",""305402""
""blur"",""19"",""316367""
","""event"",""trial"",""time""
""focus"",""7"",""46646""
""focus"",""19"",""229132""
""focus"",""19"",""288955""
""focus"",""19"",""307518""
""focus"",""19"",""330818""
","""event"",""trial"",""time""
""fullscreenenter"",""1"",""2708""
","
","","","553.2000000011176","","","10","12466","202","&#9761;","elianto","#3366ff99","-1"," ","0","+10","[1403.9000000003725]","1","0","2","","","","","","","",""
"pit-trial","46","492384","0.0-2.0-11.1-4.1","battery-v0.2","","""event"",""trial"",""time""
""fullscreenenter"",""1"",""2708""
""blur"",""7"",""41872""
""focus"",""7"",""46646""
""blur"",""19"",""210090""
""focus"",""19"",""229132""
""blur"",""19"",""284192""
""focus"",""19"",""288955""
""blur"",""19"",""305402""
""focus"",""19"",""307518""
""blur"",""19"",""316367""
""focus"",""19"",""330818""
","""event"",""trial"",""time""
""blur"",""7"",""41872""
""blur"",""19"",""210090""
""blur"",""19"",""284192""
""blur"",""19"",""305402""
""blur"",""19"",""316367""
","""event"",""trial"",""time""
""focus"",""7"",""46646""
""focus"",""19"",""229132""
""focus"",""19"",""288955""
""focus"",""19"",""307518""
""focus"",""19"",""330818""
","""event"",""trial"",""time""
""fullscreenenter"",""1"",""2708""
","
","","","-1","","","10","12466","202","&#9761;","elianto","#3366ff99","-1","-1","1","+10","[]","0","0","2","","","","","","","",""
"pit-trial","47","497237","0.0-2.0-11.2-0.2","battery-v0.2","","""event"",""trial"",""time""
""fullscreenenter"",""1"",""2708""
""blur"",""7"",""41872""
""focus"",""7"",""46646""
""blur"",""19"",""210090""
""focus"",""19"",""229132""
""blur"",""19"",""284192""
""focus"",""19"",""288955""
""blur"",""19"",""305402""
""focus"",""19"",""307518""
""blur"",""19"",""316367""
""focus"",""19"",""330818""
","""event"",""trial"",""time""
""blur"",""7"",""41872""
""blur"",""19"",""210090""
""blur"",""19"",""284192""
""blur"",""19"",""305402""
""blur"",""19"",""316367""
","""event"",""trial"",""time""
""focus"",""7"",""46646""
""focus"",""19"",""229132""
""focus"",""19"",""288955""
""focus"",""19"",""307518""
""focus"",""19"",""330818""
","""event"",""trial"",""time""
""fullscreenenter"",""1"",""2708""
","
","","","-1","","","10","12466","202","&#9761;","elianto","#3366ff99","-1","-1","1","+10","[]","0","0","2","","","","","","","",""
"pit-trial","48","500597","0.0-2.0-11.2-1.2","battery-v0.2","","""event"",""trial"",""time""
""fullscreenenter"",""1"",""2708""
""blur"",""7"",""41872""
""focus"",""7"",""46646""
""blur"",""19"",""210090""
""focus"",""19"",""229132""
""blur"",""19"",""284192""
""focus"",""19"",""288955""
""blur"",""19"",""305402""
""focus"",""19"",""307518""
""blur"",""19"",""316367""
""focus"",""19"",""330818""
","""event"",""trial"",""time""
""blur"",""7"",""41872""
""blur"",""19"",""210090""
""blur"",""19"",""284192""
""blur"",""19"",""305402""
""blur"",""19"",""316367""
","""event"",""trial"",""time""
""focus"",""7"",""46646""
""focus"",""19"",""229132""
""focus"",""19"",""288955""
""focus"",""19"",""307518""
""focus"",""19"",""330818""
","""event"",""trial"",""time""
""fullscreenenter"",""1"",""2708""
","
","","","505.7999999988824","","","10","12466","202","&#9761;","elianto","#3366ff99","-1"," ","0","0","[1356.4000000003725]","1","0","2","","","","","","","",""
"pit-trial","49","503851","0.0-2.0-11.2-2.2","battery-v0.2","","""event"",""trial"",""time""
""fullscreenenter"",""1"",""2708""
""blur"",""7"",""41872""
""focus"",""7"",""46646""
""blur"",""19"",""210090""
""focus"",""19"",""229132""
""blur"",""19"",""284192""
""focus"",""19"",""288955""
""blur"",""19"",""305402""
""focus"",""19"",""307518""
""blur"",""19"",""316367""
""focus"",""19"",""330818""
","""event"",""trial"",""time""
""blur"",""7"",""41872""
""blur"",""19"",""210090""
""blur"",""19"",""284192""
""blur"",""19"",""305402""
""blur"",""19"",""316367""
","""event"",""trial"",""time""
""focus"",""7"",""46646""
""focus"",""19"",""229132""
""focus"",""19"",""288955""
""focus"",""19"",""307518""
""focus"",""19"",""330818""
","""event"",""trial"",""time""
""fullscreenenter"",""1"",""2708""
","
","","","401.30000000074506","","","10","12466","202","&#9761;","elianto","#3366ff99","-1"," ","0","0","[1251.4000000003725]","1","0","2","","","","","","","",""
"pit-trial","50","507196","0.0-2.0-11.2-3.2","battery-v0.2","","""event"",""trial"",""time""
""fullscreenenter"",""1"",""2708""
""blur"",""7"",""41872""
""focus"",""7"",""46646""
""blur"",""19"",""210090""
""focus"",""19"",""229132""
""blur"",""19"",""284192""
""focus"",""19"",""288955""
""blur"",""19"",""305402""
""focus"",""19"",""307518""
""blur"",""19"",""316367""
""focus"",""19"",""330818""
","""event"",""trial"",""time""
""blur"",""7"",""41872""
""blur"",""19"",""210090""
""blur"",""19"",""284192""
""blur"",""19"",""305402""
""blur"",""19"",""316367""
","""event"",""trial"",""time""
""focus"",""7"",""46646""
""focus"",""19"",""229132""
""focus"",""19"",""288955""
""focus"",""19"",""307518""
""focus"",""19"",""330818""
","""event"",""trial"",""time""
""fullscreenenter"",""1"",""2708""
","
","","","491.80000000074506","","","10","12466","202","&#9761;","elianto","#3366ff99","-1"," ","0","+10","[1342.5999999996275]","1","0","2","","","","","","","",""
"pit-trial","51","510550","0.0-2.0-11.2-4.2","battery-v0.2","","""event"",""trial"",""time""
""fullscreenenter"",""1"",""2708""
""blur"",""7"",""41872""
""focus"",""7"",""46646""
""blur"",""19"",""210090""
""focus"",""19"",""229132""
""blur"",""19"",""284192""
""focus"",""19"",""288955""
""blur"",""19"",""305402""
""focus"",""19"",""307518""
""blur"",""19"",""316367""
""focus"",""19"",""330818""
","""event"",""trial"",""time""
""blur"",""7"",""41872""
""blur"",""19"",""210090""
""blur"",""19"",""284192""
""blur"",""19"",""305402""
""blur"",""19"",""316367""
","""event"",""trial"",""time""
""focus"",""7"",""46646""
""focus"",""19"",""229132""
""focus"",""19"",""288955""
""focus"",""19"",""307518""
""focus"",""19"",""330818""
","""event"",""trial"",""time""
""fullscreenenter"",""1"",""2708""
","
","","","499.7000000011176","","","10","12466","202","&#9761;","elianto","#3366ff99","-1"," ","0","0","[1350.699999999255]","1","0","2","","","","","","","",""
"pit-trial","52","513819","0.0-2.0-11.3-0.3","battery-v0.2","","""event"",""trial"",""time""
""fullscreenenter"",""1"",""2708""
""blur"",""7"",""41872""
""focus"",""7"",""46646""
""blur"",""19"",""210090""
""focus"",""19"",""229132""
""blur"",""19"",""284192""
""focus"",""19"",""288955""
""blur"",""19"",""305402""
""focus"",""19"",""307518""
""blur"",""19"",""316367""
""focus"",""19"",""330818""
","""event"",""trial"",""time""
""blur"",""7"",""41872""
""blur"",""19"",""210090""
""blur"",""19"",""284192""
""blur"",""19"",""305402""
""blur"",""19"",""316367""
","""event"",""trial"",""time""
""focus"",""7"",""46646""
""focus"",""19"",""229132""
""focus"",""19"",""288955""
""focus"",""19"",""307518""
""focus"",""19"",""330818""
","""event"",""trial"",""time""
""fullscreenenter"",""1"",""2708""
","
","","","412.5","","","10","12466","202","&#9761;","elianto","#3366ff99","-1"," ","0","0","[1263.5]","1","0","2","","","","","","","",""
"pit-trial","53","517295","0.0-2.0-11.3-1.3","battery-v0.2","","""event"",""trial"",""time""
""fullscreenenter"",""1"",""2708""
""blur"",""7"",""41872""
""focus"",""7"",""46646""
""blur"",""19"",""210090""
""focus"",""19"",""229132""
""blur"",""19"",""284192""
""focus"",""19"",""288955""
""blur"",""19"",""305402""
""focus"",""19"",""307518""
""blur"",""19"",""316367""
""focus"",""19"",""330818""
","""event"",""trial"",""time""
""blur"",""7"",""41872""
""blur"",""19"",""210090""
""blur"",""19"",""284192""
""blur"",""19"",""305402""
""blur"",""19"",""316367""
","""event"",""trial"",""time""
""focus"",""7"",""46646""
""focus"",""19"",""229132""
""focus"",""19"",""288955""
""focus"",""19"",""307518""
""focus"",""19"",""330818""
","""event"",""trial"",""time""
""fullscreenenter"",""1"",""2708""
","
","","","619.8000000007451","","","10","12466","202","&#9761;","elianto","#3366ff99","-1"," ","0","0","[1471.5999999996275]","1","0","2","","","","","","","",""
"pit-trial","54","520984","0.0-2.0-11.3-2.3","battery-v0.2","","""event"",""trial"",""time""
""fullscreenenter"",""1"",""2708""
""blur"",""7"",""41872""
""focus"",""7"",""46646""
""blur"",""19"",""210090""
""focus"",""19"",""229132""
""blur"",""19"",""284192""
""focus"",""19"",""288955""
""blur"",""19"",""305402""
""focus"",""19"",""307518""
""blur"",""19"",""316367""
""focus"",""19"",""330818""
","""event"",""trial"",""time""
""blur"",""7"",""41872""
""blur"",""19"",""210090""
""blur"",""19"",""284192""
""blur"",""19"",""305402""
""blur"",""19"",""316367""
","""event"",""trial"",""time""
""focus"",""7"",""46646""
""focus"",""19"",""229132""
""focus"",""19"",""288955""
""focus"",""19"",""307518""
""focus"",""19"",""330818""
","""event"",""trial"",""time""
""fullscreenenter"",""1"",""2708""
","
","","","834.2999999988824","","","10","12466","202","&#9761;","elianto","#3366ff99","-1"," ","0","0","[1685.2999999988824]","1","0","2","","","","","","","",""
"pit-trial","55","525840","0.0-2.0-11.3-3.3","battery-v0.2","","""event"",""trial"",""time""
""fullscreenenter"",""1"",""2708""
""blur"",""7"",""41872""
""focus"",""7"",""46646""
""blur"",""19"",""210090""
""focus"",""19"",""229132""
""blur"",""19"",""284192""
""focus"",""19"",""288955""
""blur"",""19"",""305402""
""focus"",""19"",""307518""
""blur"",""19"",""316367""
""focus"",""19"",""330818""
","""event"",""trial"",""time""
""blur"",""7"",""41872""
""blur"",""19"",""210090""
""blur"",""19"",""284192""
""blur"",""19"",""305402""
""blur"",""19"",""316367""
","""event"",""trial"",""time""
""focus"",""7"",""46646""
""focus"",""19"",""229132""
""focus"",""19"",""288955""
""focus"",""19"",""307518""
""focus"",""19"",""330818""
","""event"",""trial"",""time""
""fullscreenenter"",""1"",""2708""
","
","","","-1","","","10","12466","202","&#9761;","elianto","#3366ff99","-1","-1","1","0","[]","0","0","2","","","","","","","",""
"pit-trial","56","530033","0.0-2.0-11.3-4.3","battery-v0.2","","""event"",""trial"",""time""
""fullscreenenter"",""1"",""2708""
""blur"",""7"",""41872""
""focus"",""7"",""46646""
""blur"",""19"",""210090""
""focus"",""19"",""229132""
""blur"",""19"",""284192""
""focus"",""19"",""288955""
""blur"",""19"",""305402""
""focus"",""19"",""307518""
""blur"",""19"",""316367""
""focus"",""19"",""330818""
","""event"",""trial"",""time""
""blur"",""7"",""41872""
""blur"",""19"",""210090""
""blur"",""19"",""284192""
""blur"",""19"",""305402""
""blur"",""19"",""316367""
","""event"",""trial"",""time""
""focus"",""7"",""46646""
""focus"",""19"",""229132""
""focus"",""19"",""288955""
""focus"",""19"",""307518""
""focus"",""19"",""330818""
","""event"",""trial"",""time""
""fullscreenenter"",""1"",""2708""
","
","","","1337.199999999255","","","10","12466","202","&#9761;","elianto","#3366ff99","-1"," ","0","0","[2188.199999999255]","1","0","2","","","","","","","",""
"call-function","57","530035","0.0-2.0-12.0","battery-v0.2","","""event"",""trial"",""time""
""fullscreenenter"",""1"",""2708""
""blur"",""7"",""41872""
""focus"",""7"",""46646""
""blur"",""19"",""210090""
""focus"",""19"",""229132""
""blur"",""19"",""284192""
""focus"",""19"",""288955""
""blur"",""19"",""305402""
""focus"",""19"",""307518""
""blur"",""19"",""316367""
""focus"",""19"",""330818""
","""event"",""trial"",""time""
""blur"",""7"",""41872""
""blur"",""19"",""210090""
""blur"",""19"",""284192""
""blur"",""19"",""305402""
""blur"",""19"",""316367""
","""event"",""trial"",""time""
""focus"",""7"",""46646""
""focus"",""19"",""229132""
""focus"",""19"",""288955""
""focus"",""19"",""307518""
""focus"",""19"",""330818""
","""event"",""trial"",""time""
""fullscreenenter"",""1"",""2708""
","
","","","","","","","","","","","","","","","","","","","","","","","","","","",""
"pit-instructions","58","564511","0.0-2.0-13.0","battery-v0.2","","""event"",""trial"",""time""
""fullscreenenter"",""1"",""2708""
""blur"",""7"",""41872""
""focus"",""7"",""46646""
""blur"",""19"",""210090""
""focus"",""19"",""229132""
""blur"",""19"",""284192""
""focus"",""19"",""288955""
""blur"",""19"",""305402""
""focus"",""19"",""307518""
""blur"",""19"",""316367""
""focus"",""19"",""330818""
","""event"",""trial"",""time""
""blur"",""7"",""41872""
""blur"",""19"",""210090""
""blur"",""19"",""284192""
""blur"",""19"",""305402""
""blur"",""19"",""316367""
","""event"",""trial"",""time""
""focus"",""7"",""46646""
""focus"",""19"",""229132""
""focus"",""19"",""288955""
""focus"",""19"",""307518""
""focus"",""19"",""330818""
","""event"",""trial"",""time""
""fullscreenenter"",""1"",""2708""
","
","","[{""page_index"":0,""viewing_time"":6138.0999999996275},{""page_index"":1,""viewing_time"":8070.9000000003725},{""page_index"":2,""viewing_time"":3801.0999999996275},{""page_index"":3,""viewing_time"":11630.5},{""page_index"":4,""viewing_time"":4832.700000001118}]","34473.699999999255","","","","","","","","","","","","","","","","","","","","","","","",""
"pit-trial","59","567732","0.0-2.0-14.0-0.0","battery-v0.2","","""event"",""trial"",""time""
""fullscreenenter"",""1"",""2708""
""blur"",""7"",""41872""
""focus"",""7"",""46646""
""blur"",""19"",""210090""
""focus"",""19"",""229132""
""blur"",""19"",""284192""
""focus"",""19"",""288955""
""blur"",""19"",""305402""
""focus"",""19"",""307518""
""blur"",""19"",""316367""
""focus"",""19"",""330818""
","""event"",""trial"",""time""
""blur"",""7"",""41872""
""blur"",""19"",""210090""
""blur"",""19"",""284192""
""blur"",""19"",""305402""
""blur"",""19"",""316367""
","""event"",""trial"",""time""
""focus"",""7"",""46646""
""focus"",""19"",""229132""
""focus"",""19"",""288955""
""focus"",""19"",""307518""
""focus"",""19"",""330818""
","""event"",""trial"",""time""
""fullscreenenter"",""1"",""2708""
","
","","","341.1000000014901","","","10","12466","202","&#9826;","elianto","#f73b6a7A","-1"," ","0","-10","[1202.300000000745]","1","0","3","","","","","","","",""
"pit-trial","60","570987","0.0-2.0-14.0-1.0","battery-v0.2","","""event"",""trial"",""time""
""fullscreenenter"",""1"",""2708""
""blur"",""7"",""41872""
""focus"",""7"",""46646""
""blur"",""19"",""210090""
""focus"",""19"",""229132""
""blur"",""19"",""284192""
""focus"",""19"",""288955""
""blur"",""19"",""305402""
""focus"",""19"",""307518""
""blur"",""19"",""316367""
""focus"",""19"",""330818""
","""event"",""trial"",""time""
""blur"",""7"",""41872""
""blur"",""19"",""210090""
""blur"",""19"",""284192""
""blur"",""19"",""305402""
""blur"",""19"",""316367""
","""event"",""trial"",""time""
""focus"",""7"",""46646""
""focus"",""19"",""229132""
""focus"",""19"",""288955""
""focus"",""19"",""307518""
""focus"",""19"",""330818""
","""event"",""trial"",""time""
""fullscreenenter"",""1"",""2708""
","
","","","393.59999999962747","","","10","12466","202","&#9826;","elianto","#f73b6a7A","-1"," ","0","-10","[1246]","1","0","3","","","","","","","",""
"pit-trial","61","575855","0.0-2.0-14.0-2.0","battery-v0.2","","""event"",""trial"",""time""
""fullscreenenter"",""1"",""2708""
""blur"",""7"",""41872""
""focus"",""7"",""46646""
""blur"",""19"",""210090""
""focus"",""19"",""229132""
""blur"",""19"",""284192""
""focus"",""19"",""288955""
""blur"",""19"",""305402""
""focus"",""19"",""307518""
""blur"",""19"",""316367""
""focus"",""19"",""330818""
","""event"",""trial"",""time""
""blur"",""7"",""41872""
""blur"",""19"",""210090""
""blur"",""19"",""284192""
""blur"",""19"",""305402""
""blur"",""19"",""316367""
","""event"",""trial"",""time""
""focus"",""7"",""46646""
""focus"",""19"",""229132""
""focus"",""19"",""288955""
""focus"",""19"",""307518""
""focus"",""19"",""330818""
","""event"",""trial"",""time""
""fullscreenenter"",""1"",""2708""
","
","","","-1","","","10","12466","202","&#9826;","elianto","#f73b6a7A","-1","-1","1","0","[]","0","0","3","","","","","","","",""
"pit-trial","62","580720","0.0-2.0-14.0-3.0","battery-v0.2","","""event"",""trial"",""time""
""fullscreenenter"",""1"",""2708""
""blur"",""7"",""41872""
""focus"",""7"",""46646""
""blur"",""19"",""210090""
""focus"",""19"",""229132""
""blur"",""19"",""284192""
""focus"",""19"",""288955""
""blur"",""19"",""305402""
""focus"",""19"",""307518""
""blur"",""19"",""316367""
""focus"",""19"",""330818""
","""event"",""trial"",""time""
""blur"",""7"",""41872""
""blur"",""19"",""210090""
""blur"",""19"",""284192""
""blur"",""19"",""305402""
""blur"",""19"",""316367""
","""event"",""trial"",""time""
""focus"",""7"",""46646""
""focus"",""19"",""229132""
""focus"",""19"",""288955""
""focus"",""19"",""307518""
""focus"",""19"",""330818""
","""event"",""trial"",""time""
""fullscreenenter"",""1"",""2708""
","
","","","-1","","","10","12466","202","&#9826;","elianto","#f73b6a7A","-1","-1","1","-10","[]","0","0","3","","","","","","","",""
"pit-trial","63","585585","0.0-2.0-14.0-4.0","battery-v0.2","","""event"",""trial"",""time""
""fullscreenenter"",""1"",""2708""
""blur"",""7"",""41872""
""focus"",""7"",""46646""
""blur"",""19"",""210090""
""focus"",""19"",""229132""
""blur"",""19"",""284192""
""focus"",""19"",""288955""
""blur"",""19"",""305402""
""focus"",""19"",""307518""
""blur"",""19"",""316367""
""focus"",""19"",""330818""
","""event"",""trial"",""time""
""blur"",""7"",""41872""
""blur"",""19"",""210090""
""blur"",""19"",""284192""
""blur"",""19"",""305402""
""blur"",""19"",""316367""
","""event"",""trial"",""time""
""focus"",""7"",""46646""
""focus"",""19"",""229132""
""focus"",""19"",""288955""
""focus"",""19"",""307518""
""focus"",""19"",""330818""
","""event"",""trial"",""time""
""fullscreenenter"",""1"",""2708""
","
","","","-1","","","10","12466","202","&#9826;","elianto","#f73b6a7A","-1","-1","1","0","[]","0","0","3","","","","","","","",""
"pit-trial","64","590399","0.0-2.0-14.1-0.1","battery-v0.2","","""event"",""trial"",""time""
""fullscreenenter"",""1"",""2708""
""blur"",""7"",""41872""
""focus"",""7"",""46646""
""blur"",""19"",""210090""
""focus"",""19"",""229132""
""blur"",""19"",""284192""
""focus"",""19"",""288955""
""blur"",""19"",""305402""
""focus"",""19"",""307518""
""blur"",""19"",""316367""
""focus"",""19"",""330818""
","""event"",""trial"",""time""
""blur"",""7"",""41872""
""blur"",""19"",""210090""
""blur"",""19"",""284192""
""blur"",""19"",""305402""
""blur"",""19"",""316367""
","""event"",""trial"",""time""
""focus"",""7"",""46646""
""focus"",""19"",""229132""
""focus"",""19"",""288955""
""focus"",""19"",""307518""
""focus"",""19"",""330818""
","""event"",""trial"",""time""
""fullscreenenter"",""1"",""2708""
","
","","","1953.5999999996275","","","10","12466","202","&#9826;","elianto","#f73b6a7A","-1"," ","0","-10","[2807.2000000011176]","1","0","3","","","","","","","",""
"pit-trial","65","595259","0.0-2.0-14.1-1.1","battery-v0.2","","""event"",""trial"",""time""
""fullscreenenter"",""1"",""2708""
""blur"",""7"",""41872""
""focus"",""7"",""46646""
""blur"",""19"",""210090""
""focus"",""19"",""229132""
""blur"",""19"",""284192""
""focus"",""19"",""288955""
""blur"",""19"",""305402""
""focus"",""19"",""307518""
""blur"",""19"",""316367""
""focus"",""19"",""330818""
","""event"",""trial"",""time""
""blur"",""7"",""41872""
""blur"",""19"",""210090""
""blur"",""19"",""284192""
""blur"",""19"",""305402""
""blur"",""19"",""316367""
","""event"",""trial"",""time""
""focus"",""7"",""46646""
""focus"",""19"",""229132""
""focus"",""19"",""288955""
""focus"",""19"",""307518""
""focus"",""19"",""330818""
","""event"",""trial"",""time""
""fullscreenenter"",""1"",""2708""
","
","","","-1","","","10","12466","202","&#9826;","elianto","#f73b6a7A","-1","-1","1","0","[]","0","0","3","","","","","","","",""
"pit-trial","66","600113","0.0-2.0-14.1-2.1","battery-v0.2","","""event"",""trial"",""time""
""fullscreenenter"",""1"",""2708""
""blur"",""7"",""41872""
""focus"",""7"",""46646""
""blur"",""19"",""210090""
""focus"",""19"",""229132""
""blur"",""19"",""284192""
""focus"",""19"",""288955""
""blur"",""19"",""305402""
""focus"",""19"",""307518""
""blur"",""19"",""316367""
""focus"",""19"",""330818""
","""event"",""trial"",""time""
""blur"",""7"",""41872""
""blur"",""19"",""210090""
""blur"",""19"",""284192""
""blur"",""19"",""305402""
""blur"",""19"",""316367""
","""event"",""trial"",""time""
""focus"",""7"",""46646""
""focus"",""19"",""229132""
""focus"",""19"",""288955""
""focus"",""19"",""307518""
""focus"",""19"",""330818""
","""event"",""trial"",""time""
""fullscreenenter"",""1"",""2708""
","
","","","-1","","","10","12466","202","&#9826;","elianto","#f73b6a7A","-1","-1","1","0","[]","0","0","3","","","","","","","",""
"pit-trial","67","604967","0.0-2.0-14.1-3.1","battery-v0.2","","""event"",""trial"",""time""
""fullscreenenter"",""1"",""2708""
""blur"",""7"",""41872""
""focus"",""7"",""46646""
""blur"",""19"",""210090""
""focus"",""19"",""229132""
""blur"",""19"",""284192""
""focus"",""19"",""288955""
""blur"",""19"",""305402""
""focus"",""19"",""307518""
""blur"",""19"",""316367""
""focus"",""19"",""330818""
","""event"",""trial"",""time""
""blur"",""7"",""41872""
""blur"",""19"",""210090""
""blur"",""19"",""284192""
""blur"",""19"",""305402""
""blur"",""19"",""316367""
","""event"",""trial"",""time""
""focus"",""7"",""46646""
""focus"",""19"",""229132""
""focus"",""19"",""288955""
""focus"",""19"",""307518""
""focus"",""19"",""330818""
","""event"",""trial"",""time""
""fullscreenenter"",""1"",""2708""
","
","","","-1","","","10","12466","202","&#9826;","elianto","#f73b6a7A","-1","-1","1","-10","[]","0","0","3","","","","","","","",""
"pit-trial","68","609823","0.0-2.0-14.1-4.1","battery-v0.2","","""event"",""trial"",""time""
""fullscreenenter"",""1"",""2708""
""blur"",""7"",""41872""
""focus"",""7"",""46646""
""blur"",""19"",""210090""
""focus"",""19"",""229132""
""blur"",""19"",""284192""
""focus"",""19"",""288955""
""blur"",""19"",""305402""
""focus"",""19"",""307518""
""blur"",""19"",""316367""
""focus"",""19"",""330818""
","""event"",""trial"",""time""
""blur"",""7"",""41872""
""blur"",""19"",""210090""
""blur"",""19"",""284192""
""blur"",""19"",""305402""
""blur"",""19"",""316367""
","""event"",""trial"",""time""
""focus"",""7"",""46646""
""focus"",""19"",""229132""
""focus"",""19"",""288955""
""focus"",""19"",""307518""
""focus"",""19"",""330818""
","""event"",""trial"",""time""
""fullscreenenter"",""1"",""2708""
","
","","","-1","","","10","12466","202","&#9826;","elianto","#f73b6a7A","-1","-1","1","0","[]","0","0","3","","","","","","","",""
"pit-trial","69","614680","0.0-2.0-14.2-0.2","battery-v0.2","","""event"",""trial"",""time""
""fullscreenenter"",""1"",""2708""
""blur"",""7"",""41872""
""focus"",""7"",""46646""
""blur"",""19"",""210090""
""focus"",""19"",""229132""
""blur"",""19"",""284192""
""focus"",""19"",""288955""
""blur"",""19"",""305402""
""focus"",""19"",""307518""
""blur"",""19"",""316367""
""focus"",""19"",""330818""
","""event"",""trial"",""time""
""blur"",""7"",""41872""
""blur"",""19"",""210090""
""blur"",""19"",""284192""
""blur"",""19"",""305402""
""blur"",""19"",""316367""
","""event"",""trial"",""time""
""focus"",""7"",""46646""
""focus"",""19"",""229132""
""focus"",""19"",""288955""
""focus"",""19"",""307518""
""focus"",""19"",""330818""
","""event"",""trial"",""time""
""fullscreenenter"",""1"",""2708""
","
","","","-1","","","10","12466","202","&#9826;","elianto","#f73b6a7A","-1","-1","1","0","[]","0","0","3","","","","","","","",""
"pit-trial","70","619533","0.0-2.0-14.2-1.2","battery-v0.2","","""event"",""trial"",""time""
""fullscreenenter"",""1"",""2708""
""blur"",""7"",""41872""
""focus"",""7"",""46646""
""blur"",""19"",""210090""
""focus"",""19"",""229132""
""blur"",""19"",""284192""
""focus"",""19"",""288955""
""blur"",""19"",""305402""
""focus"",""19"",""307518""
""blur"",""19"",""316367""
""focus"",""19"",""330818""
","""event"",""trial"",""time""
""blur"",""7"",""41872""
""blur"",""19"",""210090""
""blur"",""19"",""284192""
""blur"",""19"",""305402""
""blur"",""19"",""316367""
","""event"",""trial"",""time""
""focus"",""7"",""46646""
""focus"",""19"",""229132""
""focus"",""19"",""288955""
""focus"",""19"",""307518""
""focus"",""19"",""330818""
","""event"",""trial"",""time""
""fullscreenenter"",""1"",""2708""
","
","","","-1","","","10","12466","202","&#9826;","elianto","#f73b6a7A","-1","-1","1","0","[]","0","0","3","","","","","","","",""
"pit-trial","71","624400","0.0-2.0-14.2-2.2","battery-v0.2","","""event"",""trial"",""time""
""fullscreenenter"",""1"",""2708""
""blur"",""7"",""41872""
""focus"",""7"",""46646""
""blur"",""19"",""210090""
""focus"",""19"",""229132""
""blur"",""19"",""284192""
""focus"",""19"",""288955""
""blur"",""19"",""305402""
""focus"",""19"",""307518""
""blur"",""19"",""316367""
""focus"",""19"",""330818""
","""event"",""trial"",""time""
""blur"",""7"",""41872""
""blur"",""19"",""210090""
""blur"",""19"",""284192""
""blur"",""19"",""305402""
""blur"",""19"",""316367""
","""event"",""trial"",""time""
""focus"",""7"",""46646""
""focus"",""19"",""229132""
""focus"",""19"",""288955""
""focus"",""19"",""307518""
""focus"",""19"",""330818""
","""event"",""trial"",""time""
""fullscreenenter"",""1"",""2708""
","
","","","-1","","","10","12466","202","&#9826;","elianto","#f73b6a7A","-1","-1","1","0","[]","0","0","3","","","","","","","",""
"pit-trial","72","629254","0.0-2.0-14.2-3.2","battery-v0.2","","""event"",""trial"",""time""
""fullscreenenter"",""1"",""2708""
""blur"",""7"",""41872""
""focus"",""7"",""46646""
""blur"",""19"",""210090""
""focus"",""19"",""229132""
""blur"",""19"",""284192""
""focus"",""19"",""288955""
""blur"",""19"",""305402""
""focus"",""19"",""307518""
""blur"",""19"",""316367""
""focus"",""19"",""330818""
","""event"",""trial"",""time""
""blur"",""7"",""41872""
""blur"",""19"",""210090""
""blur"",""19"",""284192""
""blur"",""19"",""305402""
""blur"",""19"",""316367""
","""event"",""trial"",""time""
""focus"",""7"",""46646""
""focus"",""19"",""229132""
""focus"",""19"",""288955""
""focus"",""19"",""307518""
""focus"",""19"",""330818""
","""event"",""trial"",""time""
""fullscreenenter"",""1"",""2708""
","
","","","-1","","","10","12466","202","&#9826;","elianto","#f73b6a7A","-1","-1","1","-10","[]","0","0","3","","","","","","","",""
"pit-trial","73","634108","0.0-2.0-14.2-4.2","battery-v0.2","","""event"",""trial"",""time""
""fullscreenenter"",""1"",""2708""
""blur"",""7"",""41872""
""focus"",""7"",""46646""
""blur"",""19"",""210090""
""focus"",""19"",""229132""
""blur"",""19"",""284192""
""focus"",""19"",""288955""
""blur"",""19"",""305402""
""focus"",""19"",""307518""
""blur"",""19"",""316367""
""focus"",""19"",""330818""
","""event"",""trial"",""time""
""blur"",""7"",""41872""
""blur"",""19"",""210090""
""blur"",""19"",""284192""
""blur"",""19"",""305402""
""blur"",""19"",""316367""
","""event"",""trial"",""time""
""focus"",""7"",""46646""
""focus"",""19"",""229132""
""focus"",""19"",""288955""
""focus"",""19"",""307518""
""focus"",""19"",""330818""
","""event"",""trial"",""time""
""fullscreenenter"",""1"",""2708""
","
","","","-1","","","10","12466","202","&#9826;","elianto","#f73b6a7A","-1","-1","1","0","[]","0","0","3","","","","","","","",""
"pit-trial","74","638965","0.0-2.0-14.3-0.3","battery-v0.2","","""event"",""trial"",""time""
""fullscreenenter"",""1"",""2708""
""blur"",""7"",""41872""
""focus"",""7"",""46646""
""blur"",""19"",""210090""
""focus"",""19"",""229132""
""blur"",""19"",""284192""
""focus"",""19"",""288955""
""blur"",""19"",""305402""
""focus"",""19"",""307518""
""blur"",""19"",""316367""
""focus"",""19"",""330818""
","""event"",""trial"",""time""
""blur"",""7"",""41872""
""blur"",""19"",""210090""
""blur"",""19"",""284192""
""blur"",""19"",""305402""
""blur"",""19"",""316367""
","""event"",""trial"",""time""
""focus"",""7"",""46646""
""focus"",""19"",""229132""
""focus"",""19"",""288955""
""focus"",""19"",""307518""
""focus"",""19"",""330818""
","""event"",""trial"",""time""
""fullscreenenter"",""1"",""2708""
","
","","","-1","","","10","12466","202","&#9826;","elianto","#f73b6a7A","-1","-1","1","0","[]","0","0","3","","","","","","","",""
"pit-trial","75","642442","0.0-2.0-14.3-1.3","battery-v0.2","","""event"",""trial"",""time""
""fullscreenenter"",""1"",""2708""
""blur"",""7"",""41872""
""focus"",""7"",""46646""
""blur"",""19"",""210090""
""focus"",""19"",""229132""
""blur"",""19"",""284192""
""focus"",""19"",""288955""
""blur"",""19"",""305402""
""focus"",""19"",""307518""
""blur"",""19"",""316367""
""focus"",""19"",""330818""
","""event"",""trial"",""time""
""blur"",""7"",""41872""
""blur"",""19"",""210090""
""blur"",""19"",""284192""
""blur"",""19"",""305402""
""blur"",""19"",""316367""
","""event"",""trial"",""time""
""focus"",""7"",""46646""
""focus"",""19"",""229132""
""focus"",""19"",""288955""
""focus"",""19"",""307518""
""focus"",""19"",""330818""
","""event"",""trial"",""time""
""fullscreenenter"",""1"",""2708""
","
","","","623.5","","","10","12466","202","&#9826;","elianto","#f73b6a7A","-1"," ","0","-10","[1473.699999999255]","1","0","3","","","","","","","",""
"pit-trial","76","646643","0.0-2.0-14.3-2.3","battery-v0.2","","""event"",""trial"",""time""
""fullscreenenter"",""1"",""2708""
""blur"",""7"",""41872""
""focus"",""7"",""46646""
""blur"",""19"",""210090""
""focus"",""19"",""229132""
""blur"",""19"",""284192""
""focus"",""19"",""288955""
""blur"",""19"",""305402""
""focus"",""19"",""307518""
""blur"",""19"",""316367""
""focus"",""19"",""330818""
","""event"",""trial"",""time""
""blur"",""7"",""41872""
""blur"",""19"",""210090""
""blur"",""19"",""284192""
""blur"",""19"",""305402""
""blur"",""19"",""316367""
","""event"",""trial"",""time""
""focus"",""7"",""46646""
""focus"",""19"",""229132""
""focus"",""19"",""288955""
""focus"",""19"",""307518""
""focus"",""19"",""330818""
","""event"",""trial"",""time""
""fullscreenenter"",""1"",""2708""
","
","","","1345.800000000745","","","10","12466","202","&#9826;","elianto","#f73b6a7A","-1"," ","0","-10","[2196.2000000011176]","1","0","3","","","","","","","",""
"pit-trial","77","651498","0.0-2.0-14.3-3.3","battery-v0.2","","""event"",""trial"",""time""
""fullscreenenter"",""1"",""2708""
""blur"",""7"",""41872""
""focus"",""7"",""46646""
""blur"",""19"",""210090""
""focus"",""19"",""229132""
""blur"",""19"",""284192""
""focus"",""19"",""288955""
""blur"",""19"",""305402""
""focus"",""19"",""307518""
""blur"",""19"",""316367""
""focus"",""19"",""330818""
""blur"",""78"",""655407""
","""event"",""trial"",""time""
""blur"",""7"",""41872""
""blur"",""19"",""210090""
""blur"",""19"",""284192""
""blur"",""19"",""305402""
""blur"",""19"",""316367""
""blur"",""78"",""655407""
","""event"",""trial"",""time""
""focus"",""7"",""46646""
""focus"",""19"",""229132""
""focus"",""19"",""288955""
""focus"",""19"",""307518""
""focus"",""19"",""330818""
","""event"",""trial"",""time""
""fullscreenenter"",""1"",""2708""
","
","","","-1","","","10","12466","202","&#9826;","elianto","#f73b6a7A","-1","-1","1","-10","[]","0","0","3","","","","","","","",""
"pit-trial","78","656350","0.0-2.0-14.3-4.3","battery-v0.2","","""event"",""trial"",""time""
""fullscreenenter"",""1"",""2708""
""blur"",""7"",""41872""
""focus"",""7"",""46646""
""blur"",""19"",""210090""
""focus"",""19"",""229132""
""blur"",""19"",""284192""
""focus"",""19"",""288955""
""blur"",""19"",""305402""
""focus"",""19"",""307518""
""blur"",""19"",""316367""
""focus"",""19"",""330818""
""blur"",""78"",""655407""
","""event"",""trial"",""time""
""blur"",""7"",""41872""
""blur"",""19"",""210090""
""blur"",""19"",""284192""
""blur"",""19"",""305402""
""blur"",""19"",""316367""
""blur"",""78"",""655407""
","""event"",""trial"",""time""
""focus"",""7"",""46646""
""focus"",""19"",""229132""
""focus"",""19"",""288955""
""focus"",""19"",""307518""
""focus"",""19"",""330818""
","""event"",""trial"",""time""
""fullscreenenter"",""1"",""2708""
","
","","","-1","","","10","12466","202","&#9826;","elianto","#f73b6a7A","-1","-1","1","0","[]","0","0","3","","","","","","","",""
"call-function","79","656351","0.0-2.0-15.0","battery-v0.2","","""event"",""trial"",""time""
""fullscreenenter"",""1"",""2708""
""blur"",""7"",""41872""
""focus"",""7"",""46646""
""blur"",""19"",""210090""
""focus"",""19"",""229132""
""blur"",""19"",""284192""
""focus"",""19"",""288955""
""blur"",""19"",""305402""
""focus"",""19"",""307518""
""blur"",""19"",""316367""
""focus"",""19"",""330818""
""blur"",""78"",""655407""
""focus"",""80"",""666704""
","""event"",""trial"",""time""
""blur"",""7"",""41872""
""blur"",""19"",""210090""
""blur"",""19"",""284192""
""blur"",""19"",""305402""
""blur"",""19"",""316367""
""blur"",""78"",""655407""
","""event"",""trial"",""time""
""focus"",""7"",""46646""
""focus"",""19"",""229132""
""focus"",""19"",""288955""
""focus"",""19"",""307518""
""focus"",""19"",""330818""
""focus"",""80"",""666704""
","""event"",""trial"",""time""
""fullscreenenter"",""1"",""2708""
","
","","","","","","","","","","","","","","","","","","","","","","","","","","",""
"pit-instructions","80","686550","0.0-2.0-16.0","battery-v0.2","","""event"",""trial"",""time""
""fullscreenenter"",""1"",""2708""
""blur"",""7"",""41872""
""focus"",""7"",""46646""
""blur"",""19"",""210090""
""focus"",""19"",""229132""
""blur"",""19"",""284192""
""focus"",""19"",""288955""
""blur"",""19"",""305402""
""focus"",""19"",""307518""
""blur"",""19"",""316367""
""focus"",""19"",""330818""
""blur"",""78"",""655407""
""focus"",""80"",""666704""
","""event"",""trial"",""time""
""blur"",""7"",""41872""
""blur"",""19"",""210090""
""blur"",""19"",""284192""
""blur"",""19"",""305402""
""blur"",""19"",""316367""
""blur"",""78"",""655407""
","""event"",""trial"",""time""
""focus"",""7"",""46646""
""focus"",""19"",""229132""
""focus"",""19"",""288955""
""focus"",""19"",""307518""
""focus"",""19"",""330818""
""focus"",""80"",""666704""
","""event"",""trial"",""time""
""fullscreenenter"",""1"",""2708""
","
","","[{""page_index"":0,""viewing_time"":10453.400000000373},{""page_index"":1,""viewing_time"":9698.599999999627},{""page_index"":2,""viewing_time"":4717.300000000745},{""page_index"":3,""viewing_time"":5328.300000000745}]","30197.900000000373","","","","","","","","","","","","","","","","","","","","","","","",""
"pit-trial","81","689661","0.0-2.0-17.0-0.0","battery-v0.2","","""event"",""trial"",""time""
""fullscreenenter"",""1"",""2708""
""blur"",""7"",""41872""
""focus"",""7"",""46646""
""blur"",""19"",""210090""
""focus"",""19"",""229132""
""blur"",""19"",""284192""
""focus"",""19"",""288955""
""blur"",""19"",""305402""
""focus"",""19"",""307518""
""blur"",""19"",""316367""
""focus"",""19"",""330818""
""blur"",""78"",""655407""
""focus"",""80"",""666704""
","""event"",""trial"",""time""
""blur"",""7"",""41872""
""blur"",""19"",""210090""
""blur"",""19"",""284192""
""blur"",""19"",""305402""
""blur"",""19"",""316367""
""blur"",""78"",""655407""
","""event"",""trial"",""time""
""focus"",""7"",""46646""
""focus"",""19"",""229132""
""focus"",""19"",""288955""
""focus"",""19"",""307518""
""focus"",""19"",""330818""
""focus"",""80"",""666704""
","""event"",""trial"",""time""
""fullscreenenter"",""1"",""2708""
","
","","","237.19999999925494","","","10","12466","202","&#9789;","elianto","#f73b6a7A"," "," ","1","0","[1098]","1","0","4","","","","","","","",""
"pit-trial","82","693079","0.0-2.0-17.0-1.0","battery-v0.2","","""event"",""trial"",""time""
""fullscreenenter"",""1"",""2708""
""blur"",""7"",""41872""
""focus"",""7"",""46646""
""blur"",""19"",""210090""
""focus"",""19"",""229132""
""blur"",""19"",""284192""
""focus"",""19"",""288955""
""blur"",""19"",""305402""
""focus"",""19"",""307518""
""blur"",""19"",""316367""
""focus"",""19"",""330818""
""blur"",""78"",""655407""
""focus"",""80"",""666704""
","""event"",""trial"",""time""
""blur"",""7"",""41872""
""blur"",""19"",""210090""
""blur"",""19"",""284192""
""blur"",""19"",""305402""
""blur"",""19"",""316367""
""blur"",""78"",""655407""
","""event"",""trial"",""time""
""focus"",""7"",""46646""
""focus"",""19"",""229132""
""focus"",""19"",""288955""
""focus"",""19"",""307518""
""focus"",""19"",""330818""
""focus"",""80"",""666704""
","""event"",""trial"",""time""
""fullscreenenter"",""1"",""2708""
","
","","","555","","","10","12466","202","&#9789;","elianto","#f73b6a7A"," "," ","1","0","[1407.2000000011176]","1","0","4","","","","","","","",""
"pit-trial","83","696636","0.0-2.0-17.0-2.0","battery-v0.2","","""event"",""trial"",""time""
""fullscreenenter"",""1"",""2708""
""blur"",""7"",""41872""
""focus"",""7"",""46646""
""blur"",""19"",""210090""
""focus"",""19"",""229132""
""blur"",""19"",""284192""
""focus"",""19"",""288955""
""blur"",""19"",""305402""
""focus"",""19"",""307518""
""blur"",""19"",""316367""
""focus"",""19"",""330818""
""blur"",""78"",""655407""
""focus"",""80"",""666704""
","""event"",""trial"",""time""
""blur"",""7"",""41872""
""blur"",""19"",""210090""
""blur"",""19"",""284192""
""blur"",""19"",""305402""
""blur"",""19"",""316367""
""blur"",""78"",""655407""
","""event"",""trial"",""time""
""focus"",""7"",""46646""
""focus"",""19"",""229132""
""focus"",""19"",""288955""
""focus"",""19"",""307518""
""focus"",""19"",""330818""
""focus"",""80"",""666704""
","""event"",""trial"",""time""
""fullscreenenter"",""1"",""2708""
","
","","","693.5","","","10","12466","202","&#9789;","elianto","#f73b6a7A"," "," ","1","0","[1544.9000000003725]","1","0","4","","","","","","","",""
"pit-trial","84","699934","0.0-2.0-17.0-3.0","battery-v0.2","","""event"",""trial"",""time""
""fullscreenenter"",""1"",""2708""
""blur"",""7"",""41872""
""focus"",""7"",""46646""
""blur"",""19"",""210090""
""focus"",""19"",""229132""
""blur"",""19"",""284192""
""focus"",""19"",""288955""
""blur"",""19"",""305402""
""focus"",""19"",""307518""
""blur"",""19"",""316367""
""focus"",""19"",""330818""
""blur"",""78"",""655407""
""focus"",""80"",""666704""
","""event"",""trial"",""time""
""blur"",""7"",""41872""
""blur"",""19"",""210090""
""blur"",""19"",""284192""
""blur"",""19"",""305402""
""blur"",""19"",""316367""
""blur"",""78"",""655407""
","""event"",""trial"",""time""
""focus"",""7"",""46646""
""focus"",""19"",""229132""
""focus"",""19"",""288955""
""focus"",""19"",""307518""
""focus"",""19"",""330818""
""focus"",""80"",""666704""
","""event"",""trial"",""time""
""fullscreenenter"",""1"",""2708""
","
","","","431.5","","","10","12466","202","&#9789;","elianto","#f73b6a7A"," "," ","1","-10","[1285.5999999996275]","1","0","4","","","","","","","",""
"pit-trial","85","704798","0.0-2.0-17.0-4.0","battery-v0.2","","""event"",""trial"",""time""
""fullscreenenter"",""1"",""2708""
""blur"",""7"",""41872""
""focus"",""7"",""46646""
""blur"",""19"",""210090""
""focus"",""19"",""229132""
""blur"",""19"",""284192""
""focus"",""19"",""288955""
""blur"",""19"",""305402""
""focus"",""19"",""307518""
""blur"",""19"",""316367""
""focus"",""19"",""330818""
""blur"",""78"",""655407""
""focus"",""80"",""666704""
","""event"",""trial"",""time""
""blur"",""7"",""41872""
""blur"",""19"",""210090""
""blur"",""19"",""284192""
""blur"",""19"",""305402""
""blur"",""19"",""316367""
""blur"",""78"",""655407""
","""event"",""trial"",""time""
""focus"",""7"",""46646""
""focus"",""19"",""229132""
""focus"",""19"",""288955""
""focus"",""19"",""307518""
""focus"",""19"",""330818""
""focus"",""80"",""666704""
","""event"",""trial"",""time""
""fullscreenenter"",""1"",""2708""
","
","","","-1","","","10","12466","202","&#9789;","elianto","#f73b6a7A"," ","-1","0","-10","[]","0","0","4","","","","","","","",""
"pit-trial","86","709663","0.0-2.0-17.1-0.1","battery-v0.2","","""event"",""trial"",""time""
""fullscreenenter"",""1"",""2708""
""blur"",""7"",""41872""
""focus"",""7"",""46646""
""blur"",""19"",""210090""
""focus"",""19"",""229132""
""blur"",""19"",""284192""
""focus"",""19"",""288955""
""blur"",""19"",""305402""
""focus"",""19"",""307518""
""blur"",""19"",""316367""
""focus"",""19"",""330818""
""blur"",""78"",""655407""
""focus"",""80"",""666704""
","""event"",""trial"",""time""
""blur"",""7"",""41872""
""blur"",""19"",""210090""
""blur"",""19"",""284192""
""blur"",""19"",""305402""
""blur"",""19"",""316367""
""blur"",""78"",""655407""
","""event"",""trial"",""time""
""focus"",""7"",""46646""
""focus"",""19"",""229132""
""focus"",""19"",""288955""
""focus"",""19"",""307518""
""focus"",""19"",""330818""
""focus"",""80"",""666704""
","""event"",""trial"",""time""
""fullscreenenter"",""1"",""2708""
","
","","","-1","","","10","12466","202","&#9789;","elianto","#f73b6a7A"," ","-1","0","-10","[]","0","0","4","","","","","","","",""
"pit-trial","87","714525","0.0-2.0-17.1-1.1","battery-v0.2","","""event"",""trial"",""time""
""fullscreenenter"",""1"",""2708""
""blur"",""7"",""41872""
""focus"",""7"",""46646""
""blur"",""19"",""210090""
""focus"",""19"",""229132""
""blur"",""19"",""284192""
""focus"",""19"",""288955""
""blur"",""19"",""305402""
""focus"",""19"",""307518""
""blur"",""19"",""316367""
""focus"",""19"",""330818""
""blur"",""78"",""655407""
""focus"",""80"",""666704""
","""event"",""trial"",""time""
""blur"",""7"",""41872""
""blur"",""19"",""210090""
""blur"",""19"",""284192""
""blur"",""19"",""305402""
""blur"",""19"",""316367""
""blur"",""78"",""655407""
","""event"",""trial"",""time""
""focus"",""7"",""46646""
""focus"",""19"",""229132""
""focus"",""19"",""288955""
""focus"",""19"",""307518""
""focus"",""19"",""330818""
""focus"",""80"",""666704""
","""event"",""trial"",""time""
""fullscreenenter"",""1"",""2708""
","
","","","-1","","","10","12466","202","&#9789;","elianto","#f73b6a7A"," ","-1","0","-10","[]","0","0","4","","","","","","","",""
"pit-trial","88","719399","0.0-2.0-17.1-2.1","battery-v0.2","","""event"",""trial"",""time""
""fullscreenenter"",""1"",""2708""
""blur"",""7"",""41872""
""focus"",""7"",""46646""
""blur"",""19"",""210090""
""focus"",""19"",""229132""
""blur"",""19"",""284192""
""focus"",""19"",""288955""
""blur"",""19"",""305402""
""focus"",""19"",""307518""
""blur"",""19"",""316367""
""focus"",""19"",""330818""
""blur"",""78"",""655407""
""focus"",""80"",""666704""
","""event"",""trial"",""time""
""blur"",""7"",""41872""
""blur"",""19"",""210090""
""blur"",""19"",""284192""
""blur"",""19"",""305402""
""blur"",""19"",""316367""
""blur"",""78"",""655407""
","""event"",""trial"",""time""
""focus"",""7"",""46646""
""focus"",""19"",""229132""
""focus"",""19"",""288955""
""focus"",""19"",""307518""
""focus"",""19"",""330818""
""focus"",""80"",""666704""
","""event"",""trial"",""time""
""fullscreenenter"",""1"",""2708""
","
","","","-1","","","10","12466","202","&#9789;","elianto","#f73b6a7A"," ","-1","0","-10","[]","0","0","4","","","","","","","",""
"pit-trial","89","724252","0.0-2.0-17.1-3.1","battery-v0.2","","""event"",""trial"",""time""
""fullscreenenter"",""1"",""2708""
""blur"",""7"",""41872""
""focus"",""7"",""46646""
""blur"",""19"",""210090""
""focus"",""19"",""229132""
""blur"",""19"",""284192""
""focus"",""19"",""288955""
""blur"",""19"",""305402""
""focus"",""19"",""307518""
""blur"",""19"",""316367""
""focus"",""19"",""330818""
""blur"",""78"",""655407""
""focus"",""80"",""666704""
","""event"",""trial"",""time""
""blur"",""7"",""41872""
""blur"",""19"",""210090""
""blur"",""19"",""284192""
""blur"",""19"",""305402""
""blur"",""19"",""316367""
""blur"",""78"",""655407""
","""event"",""trial"",""time""
""focus"",""7"",""46646""
""focus"",""19"",""229132""
""focus"",""19"",""288955""
""focus"",""19"",""307518""
""focus"",""19"",""330818""
""focus"",""80"",""666704""
","""event"",""trial"",""time""
""fullscreenenter"",""1"",""2708""
","
","","","-1","","","10","12466","202","&#9789;","elianto","#f73b6a7A"," ","-1","0","0","[]","0","0","4","","","","","","","",""
"pit-trial","90","729105","0.0-2.0-17.1-4.1","battery-v0.2","","""event"",""trial"",""time""
""fullscreenenter"",""1"",""2708""
""blur"",""7"",""41872""
""focus"",""7"",""46646""
""blur"",""19"",""210090""
""focus"",""19"",""229132""
""blur"",""19"",""284192""
""focus"",""19"",""288955""
""blur"",""19"",""305402""
""focus"",""19"",""307518""
""blur"",""19"",""316367""
""focus"",""19"",""330818""
""blur"",""78"",""655407""
""focus"",""80"",""666704""
","""event"",""trial"",""time""
""blur"",""7"",""41872""
""blur"",""19"",""210090""
""blur"",""19"",""284192""
""blur"",""19"",""305402""
""blur"",""19"",""316367""
""blur"",""78"",""655407""
","""event"",""trial"",""time""
""focus"",""7"",""46646""
""focus"",""19"",""229132""
""focus"",""19"",""288955""
""focus"",""19"",""307518""
""focus"",""19"",""330818""
""focus"",""80"",""666704""
","""event"",""trial"",""time""
""fullscreenenter"",""1"",""2708""
","
","","","-1","","","10","12466","202","&#9789;","elianto","#f73b6a7A"," ","-1","0","-10","[]","0","0","4","","","","","","","",""
"pit-trial","91","733958","0.0-2.0-17.2-0.2","battery-v0.2","","""event"",""trial"",""time""
""fullscreenenter"",""1"",""2708""
""blur"",""7"",""41872""
""focus"",""7"",""46646""
""blur"",""19"",""210090""
""focus"",""19"",""229132""
""blur"",""19"",""284192""
""focus"",""19"",""288955""
""blur"",""19"",""305402""
""focus"",""19"",""307518""
""blur"",""19"",""316367""
""focus"",""19"",""330818""
""blur"",""78"",""655407""
""focus"",""80"",""666704""
","""event"",""trial"",""time""
""blur"",""7"",""41872""
""blur"",""19"",""210090""
""blur"",""19"",""284192""
""blur"",""19"",""305402""
""blur"",""19"",""316367""
""blur"",""78"",""655407""
","""event"",""trial"",""time""
""focus"",""7"",""46646""
""focus"",""19"",""229132""
""focus"",""19"",""288955""
""focus"",""19"",""307518""
""focus"",""19"",""330818""
""focus"",""80"",""666704""
","""event"",""trial"",""time""
""fullscreenenter"",""1"",""2708""
","
","","","-1","","","10","12466","202","&#9789;","elianto","#f73b6a7A"," ","-1","0","-10","[]","0","0","4","","","","","","","",""
"pit-trial","92","738814","0.0-2.0-17.2-1.2","battery-v0.2","","""event"",""trial"",""time""
""fullscreenenter"",""1"",""2708""
""blur"",""7"",""41872""
""focus"",""7"",""46646""
""blur"",""19"",""210090""
""focus"",""19"",""229132""
""blur"",""19"",""284192""
""focus"",""19"",""288955""
""blur"",""19"",""305402""
""focus"",""19"",""307518""
""blur"",""19"",""316367""
""focus"",""19"",""330818""
""blur"",""78"",""655407""
""focus"",""80"",""666704""
","""event"",""trial"",""time""
""blur"",""7"",""41872""
""blur"",""19"",""210090""
""blur"",""19"",""284192""
""blur"",""19"",""305402""
""blur"",""19"",""316367""
""blur"",""78"",""655407""
","""event"",""trial"",""time""
""focus"",""7"",""46646""
""focus"",""19"",""229132""
""focus"",""19"",""288955""
""focus"",""19"",""307518""
""focus"",""19"",""330818""
""focus"",""80"",""666704""
","""event"",""trial"",""time""
""fullscreenenter"",""1"",""2708""
","
","","","-1","","","10","12466","202","&#9789;","elianto","#f73b6a7A"," ","-1","0","-10","[]","0","0","4","","","","","","","",""
"pit-trial","93","743667","0.0-2.0-17.2-2.2","battery-v0.2","","""event"",""trial"",""time""
""fullscreenenter"",""1"",""2708""
""blur"",""7"",""41872""
""focus"",""7"",""46646""
""blur"",""19"",""210090""
""focus"",""19"",""229132""
""blur"",""19"",""284192""
""focus"",""19"",""288955""
""blur"",""19"",""305402""
""focus"",""19"",""307518""
""blur"",""19"",""316367""
""focus"",""19"",""330818""
""blur"",""78"",""655407""
""focus"",""80"",""666704""
","""event"",""trial"",""time""
""blur"",""7"",""41872""
""blur"",""19"",""210090""
""blur"",""19"",""284192""
""blur"",""19"",""305402""
""blur"",""19"",""316367""
""blur"",""78"",""655407""
","""event"",""trial"",""time""
""focus"",""7"",""46646""
""focus"",""19"",""229132""
""focus"",""19"",""288955""
""focus"",""19"",""307518""
""focus"",""19"",""330818""
""focus"",""80"",""666704""
","""event"",""trial"",""time""
""fullscreenenter"",""1"",""2708""
","
","","","-1","","","10","12466","202","&#9789;","elianto","#f73b6a7A"," ","-1","0","-10","[]","0","0","4","","","","","","","",""
"pit-trial","94","748521","0.0-2.0-17.2-3.2","battery-v0.2","","""event"",""trial"",""time""
""fullscreenenter"",""1"",""2708""
""blur"",""7"",""41872""
""focus"",""7"",""46646""
""blur"",""19"",""210090""
""focus"",""19"",""229132""
""blur"",""19"",""284192""
""focus"",""19"",""288955""
""blur"",""19"",""305402""
""focus"",""19"",""307518""
""blur"",""19"",""316367""
""focus"",""19"",""330818""
""blur"",""78"",""655407""
""focus"",""80"",""666704""
","""event"",""trial"",""time""
""blur"",""7"",""41872""
""blur"",""19"",""210090""
""blur"",""19"",""284192""
""blur"",""19"",""305402""
""blur"",""19"",""316367""
""blur"",""78"",""655407""
","""event"",""trial"",""time""
""focus"",""7"",""46646""
""focus"",""19"",""229132""
""focus"",""19"",""288955""
""focus"",""19"",""307518""
""focus"",""19"",""330818""
""focus"",""80"",""666704""
","""event"",""trial"",""time""
""fullscreenenter"",""1"",""2708""
","
","","","-1","","","10","12466","202","&#9789;","elianto","#f73b6a7A"," ","-1","0","0","[]","0","0","4","","","","","","","",""
"pit-trial","95","753375","0.0-2.0-17.2-4.2","battery-v0.2","","""event"",""trial"",""time""
""fullscreenenter"",""1"",""2708""
""blur"",""7"",""41872""
""focus"",""7"",""46646""
""blur"",""19"",""210090""
""focus"",""19"",""229132""
""blur"",""19"",""284192""
""focus"",""19"",""288955""
""blur"",""19"",""305402""
""focus"",""19"",""307518""
""blur"",""19"",""316367""
""focus"",""19"",""330818""
""blur"",""78"",""655407""
""focus"",""80"",""666704""
","""event"",""trial"",""time""
""blur"",""7"",""41872""
""blur"",""19"",""210090""
""blur"",""19"",""284192""
""blur"",""19"",""305402""
""blur"",""19"",""316367""
""blur"",""78"",""655407""
","""event"",""trial"",""time""
""focus"",""7"",""46646""
""focus"",""19"",""229132""
""focus"",""19"",""288955""
""focus"",""19"",""307518""
""focus"",""19"",""330818""
""focus"",""80"",""666704""
","""event"",""trial"",""time""
""fullscreenenter"",""1"",""2708""
","
","","","-1","","","10","12466","202","&#9789;","elianto","#f73b6a7A"," ","-1","0","-10","[]","0","0","4","","","","","","","",""
"pit-trial","96","758231","0.0-2.0-17.3-0.3","battery-v0.2","","""event"",""trial"",""time""
""fullscreenenter"",""1"",""2708""
""blur"",""7"",""41872""
""focus"",""7"",""46646""
""blur"",""19"",""210090""
""focus"",""19"",""229132""
""blur"",""19"",""284192""
""focus"",""19"",""288955""
""blur"",""19"",""305402""
""focus"",""19"",""307518""
""blur"",""19"",""316367""
""focus"",""19"",""330818""
""blur"",""78"",""655407""
""focus"",""80"",""666704""
","""event"",""trial"",""time""
""blur"",""7"",""41872""
""blur"",""19"",""210090""
""blur"",""19"",""284192""
""blur"",""19"",""305402""
""blur"",""19"",""316367""
""blur"",""78"",""655407""
","""event"",""trial"",""time""
""focus"",""7"",""46646""
""focus"",""19"",""229132""
""focus"",""19"",""288955""
""focus"",""19"",""307518""
""focus"",""19"",""330818""
""focus"",""80"",""666704""
","""event"",""trial"",""time""
""fullscreenenter"",""1"",""2708""
","
","","","-1","","","10","12466","202","&#9789;","elianto","#f73b6a7A"," ","-1","0","-10","[]","0","0","4","","","","","","","",""
"pit-trial","97","763086","0.0-2.0-17.3-1.3","battery-v0.2","","""event"",""trial"",""time""
""fullscreenenter"",""1"",""2708""
""blur"",""7"",""41872""
""focus"",""7"",""46646""
""blur"",""19"",""210090""
""focus"",""19"",""229132""
""blur"",""19"",""284192""
""focus"",""19"",""288955""
""blur"",""19"",""305402""
""focus"",""19"",""307518""
""blur"",""19"",""316367""
""focus"",""19"",""330818""
""blur"",""78"",""655407""
""focus"",""80"",""666704""
","""event"",""trial"",""time""
""blur"",""7"",""41872""
""blur"",""19"",""210090""
""blur"",""19"",""284192""
""blur"",""19"",""305402""
""blur"",""19"",""316367""
""blur"",""78"",""655407""
","""event"",""trial"",""time""
""focus"",""7"",""46646""
""focus"",""19"",""229132""
""focus"",""19"",""288955""
""focus"",""19"",""307518""
""focus"",""19"",""330818""
""focus"",""80"",""666704""
","""event"",""trial"",""time""
""fullscreenenter"",""1"",""2708""
","
","","","-1","","","10","12466","202","&#9789;","elianto","#f73b6a7A"," ","-1","0","-10","[]","0","0","4","","","","","","","",""
"pit-trial","98","767940","0.0-2.0-17.3-2.3","battery-v0.2","","""event"",""trial"",""time""
""fullscreenenter"",""1"",""2708""
""blur"",""7"",""41872""
""focus"",""7"",""46646""
""blur"",""19"",""210090""
""focus"",""19"",""229132""
""blur"",""19"",""284192""
""focus"",""19"",""288955""
""blur"",""19"",""305402""
""focus"",""19"",""307518""
""blur"",""19"",""316367""
""focus"",""19"",""330818""
""blur"",""78"",""655407""
""focus"",""80"",""666704""
","""event"",""trial"",""time""
""blur"",""7"",""41872""
""blur"",""19"",""210090""
""blur"",""19"",""284192""
""blur"",""19"",""305402""
""blur"",""19"",""316367""
""blur"",""78"",""655407""
","""event"",""trial"",""time""
""focus"",""7"",""46646""
""focus"",""19"",""229132""
""focus"",""19"",""288955""
""focus"",""19"",""307518""
""focus"",""19"",""330818""
""focus"",""80"",""666704""
","""event"",""trial"",""time""
""fullscreenenter"",""1"",""2708""
","
","","","-1","","","10","12466","202","&#9789;","elianto","#f73b6a7A"," ","-1","0","-10","[]","0","0","4","","","","","","","",""
"pit-trial","99","772793","0.0-2.0-17.3-3.3","battery-v0.2","","""event"",""trial"",""time""
""fullscreenenter"",""1"",""2708""
""blur"",""7"",""41872""
""focus"",""7"",""46646""
""blur"",""19"",""210090""
""focus"",""19"",""229132""
""blur"",""19"",""284192""
""focus"",""19"",""288955""
""blur"",""19"",""305402""
""focus"",""19"",""307518""
""blur"",""19"",""316367""
""focus"",""19"",""330818""
""blur"",""78"",""655407""
""focus"",""80"",""666704""
","""event"",""trial"",""time""
""blur"",""7"",""41872""
""blur"",""19"",""210090""
""blur"",""19"",""284192""
""blur"",""19"",""305402""
""blur"",""19"",""316367""
""blur"",""78"",""655407""
","""event"",""trial"",""time""
""focus"",""7"",""46646""
""focus"",""19"",""229132""
""focus"",""19"",""288955""
""focus"",""19"",""307518""
""focus"",""19"",""330818""
""focus"",""80"",""666704""
","""event"",""trial"",""time""
""fullscreenenter"",""1"",""2708""
","
","","","-1","","","10","12466","202","&#9789;","elianto","#f73b6a7A"," ","-1","0","0","[]","0","0","4","","","","","","","",""
"pit-trial","100","775880","0.0-2.0-17.3-4.3","battery-v0.2","","""event"",""trial"",""time""
""fullscreenenter"",""1"",""2708""
""blur"",""7"",""41872""
""focus"",""7"",""46646""
""blur"",""19"",""210090""
""focus"",""19"",""229132""
""blur"",""19"",""284192""
""focus"",""19"",""288955""
""blur"",""19"",""305402""
""focus"",""19"",""307518""
""blur"",""19"",""316367""
""focus"",""19"",""330818""
""blur"",""78"",""655407""
""focus"",""80"",""666704""
","""event"",""trial"",""time""
""blur"",""7"",""41872""
""blur"",""19"",""210090""
""blur"",""19"",""284192""
""blur"",""19"",""305402""
""blur"",""19"",""316367""
""blur"",""78"",""655407""
","""event"",""trial"",""time""
""focus"",""7"",""46646""
""focus"",""19"",""229132""
""focus"",""19"",""288955""
""focus"",""19"",""307518""
""focus"",""19"",""330818""
""focus"",""80"",""666704""
","""event"",""trial"",""time""
""fullscreenenter"",""1"",""2708""
","
","","","232.90000000037253","","","10","12466","202","&#9789;","elianto","#f73b6a7A"," "," ","1","0","[1083.4000000003725]","1","0","4","","","","","","","",""
"call-function","101","775884","0.0-2.0-18.0","battery-v0.2","","""event"",""trial"",""time""
""fullscreenenter"",""1"",""2708""
""blur"",""7"",""41872""
""focus"",""7"",""46646""
""blur"",""19"",""210090""
""focus"",""19"",""229132""
""blur"",""19"",""284192""
""focus"",""19"",""288955""
""blur"",""19"",""305402""
""focus"",""19"",""307518""
""blur"",""19"",""316367""
""focus"",""19"",""330818""
""blur"",""78"",""655407""
""focus"",""80"",""666704""
","""event"",""trial"",""time""
""blur"",""7"",""41872""
""blur"",""19"",""210090""
""blur"",""19"",""284192""
""blur"",""19"",""305402""
""blur"",""19"",""316367""
""blur"",""78"",""655407""
","""event"",""trial"",""time""
""focus"",""7"",""46646""
""focus"",""19"",""229132""
""focus"",""19"",""288955""
""focus"",""19"",""307518""
""focus"",""19"",""330818""
""focus"",""80"",""666704""
","""event"",""trial"",""time""
""fullscreenenter"",""1"",""2708""
","
","","","","","","","","","","","","","","","","","","","","","","","","","","",""
"pit-instructions","102","848953","0.0-2.0-19.0","battery-v0.2","","""event"",""trial"",""time""
""fullscreenenter"",""1"",""2708""
""blur"",""7"",""41872""
""focus"",""7"",""46646""
""blur"",""19"",""210090""
""focus"",""19"",""229132""
""blur"",""19"",""284192""
""focus"",""19"",""288955""
""blur"",""19"",""305402""
""focus"",""19"",""307518""
""blur"",""19"",""316367""
""focus"",""19"",""330818""
""blur"",""78"",""655407""
""focus"",""80"",""666704""
","""event"",""trial"",""time""
""blur"",""7"",""41872""
""blur"",""19"",""210090""
""blur"",""19"",""284192""
""blur"",""19"",""305402""
""blur"",""19"",""316367""
""blur"",""78"",""655407""
","""event"",""trial"",""time""
""focus"",""7"",""46646""
""focus"",""19"",""229132""
""focus"",""19"",""288955""
""focus"",""19"",""307518""
""focus"",""19"",""330818""
""focus"",""80"",""666704""
","""event"",""trial"",""time""
""fullscreenenter"",""1"",""2708""
","
","","[{""page_index"":0,""viewing_time"":7953.199999999255},{""page_index"":1,""viewing_time"":7071.699999999255},{""page_index"":2,""viewing_time"":14568.10000000149},{""page_index"":3,""viewing_time"":6503.39999999851},{""page_index"":4,""viewing_time"":8703.200000001118},{""page_index"":5,""viewing_time"":8824.799999998882},{""page_index"":6,""viewing_time"":8191.800000000745},{""page_index"":7,""viewing_time"":7351.4000000003725},{""page_index"":8,""viewing_time"":3898.199999999255}]","73066.29999999888","","","","","","","","","","","","","","","","","","","","","","","",""
"pit-comprehension","103","853815","0.0-2.0-20.0-0.0","battery-v0.2","","""event"",""trial"",""time""
""fullscreenenter"",""1"",""2708""
""blur"",""7"",""41872""
""focus"",""7"",""46646""
""blur"",""19"",""210090""
""focus"",""19"",""229132""
""blur"",""19"",""284192""
""focus"",""19"",""288955""
""blur"",""19"",""305402""
""focus"",""19"",""307518""
""blur"",""19"",""316367""
""focus"",""19"",""330818""
""blur"",""78"",""655407""
""focus"",""80"",""666704""
","""event"",""trial"",""time""
""blur"",""7"",""41872""
""blur"",""19"",""210090""
""blur"",""19"",""284192""
""blur"",""19"",""305402""
""blur"",""19"",""316367""
""blur"",""78"",""655407""
","""event"",""trial"",""time""
""focus"",""7"",""46646""
""focus"",""19"",""229132""
""focus"",""19"",""288955""
""focus"",""19"",""307518""
""focus"",""19"",""330818""
""focus"",""80"",""666704""
","""event"",""trial"",""time""
""fullscreenenter"",""1"",""2708""
","
","","","4857.699999999255","[""SPACE""]","0","10","12466","202","","","","","","","","","","","","","","","","","","",""
"pit-instructions","104","856735","0.0-2.0-20.0-1.0","battery-v0.2","","""event"",""trial"",""time""
""fullscreenenter"",""1"",""2708""
""blur"",""7"",""41872""
""focus"",""7"",""46646""
""blur"",""19"",""210090""
""focus"",""19"",""229132""
""blur"",""19"",""284192""
""focus"",""19"",""288955""
""blur"",""19"",""305402""
""focus"",""19"",""307518""
""blur"",""19"",""316367""
""focus"",""19"",""330818""
""blur"",""78"",""655407""
""focus"",""80"",""666704""
","""event"",""trial"",""time""
""blur"",""7"",""41872""
""blur"",""19"",""210090""
""blur"",""19"",""284192""
""blur"",""19"",""305402""
""blur"",""19"",""316367""
""blur"",""78"",""655407""
","""event"",""trial"",""time""
""focus"",""7"",""46646""
""focus"",""19"",""229132""
""focus"",""19"",""288955""
""focus"",""19"",""307518""
""focus"",""19"",""330818""
""focus"",""80"",""666704""
","""event"",""trial"",""time""
""fullscreenenter"",""1"",""2708""
","
","","[{""page_index"":0,""viewing_time"":2860.800000000745}]","2861.0999999996275","","","","","","","","","","","","","","","","","","","","","","","",""
"pit-comprehension","105","863199","0.0-2.0-21.0-0.0","battery-v0.2","","""event"",""trial"",""time""
""fullscreenenter"",""1"",""2708""
""blur"",""7"",""41872""
""focus"",""7"",""46646""
""blur"",""19"",""210090""
""focus"",""19"",""229132""
""blur"",""19"",""284192""
""focus"",""19"",""288955""
""blur"",""19"",""305402""
""focus"",""19"",""307518""
""blur"",""19"",""316367""
""focus"",""19"",""330818""
""blur"",""78"",""655407""
""focus"",""80"",""666704""
","""event"",""trial"",""time""
""blur"",""7"",""41872""
""blur"",""19"",""210090""
""blur"",""19"",""284192""
""blur"",""19"",""305402""
""blur"",""19"",""316367""
