"trial_type","trial_index","time_elapsed","internal_node_id","task_version","subject_id","interactions","blur_events","focus_events","fullscreenenter_events","fullscreenexit_events","success","view_history","rt","responses","num_errors","age","subject","participantId","rune","rune_set","hex","correct","choice","accuracy","outcome","keys","total_keys","block","practice","value","sub","trial","stimulus","robot","valence","action","sham"
"pavlovia","0","12","0.0-0.0","battery-v0.2","","""event"",""trial"",""time""
""fullscreenenter"",""1"",""2683""
","
","
","""event"",""trial"",""time""
""fullscreenenter"",""1"",""2683""
","
","","","","","","","","","","","","","","","","","","","","","","","","","","",""
"fullscreen","1","3674","0.0-1.0","battery-v0.2","","""event"",""trial"",""time""
""fullscreenenter"",""1"",""2683""
","
","
","""event"",""trial"",""time""
""fullscreenenter"",""1"",""2683""
","
","true","","","","","","","","","","","","","","","","","","","","","","","","","",""
"pit-instructions","2","13280","0.0-2.0-0.0","battery-v0.2","","""event"",""trial"",""time""
""fullscreenenter"",""1"",""2683""
","
","
","""event"",""trial"",""time""
""fullscreenenter"",""1"",""2683""
","
","","[{""page_index"":0,""viewing_time"":9602.09999999404}]","9602.799999982119","","","","","","","","","","","","","","","","","","","","","","","",""
"pit-comprehension","3","20234","0.0-2.0-1.0-0.0","battery-v0.2","","""event"",""trial"",""time""
""fullscreenenter"",""1"",""2683""
","
","
","""event"",""trial"",""time""
""fullscreenenter"",""1"",""2683""
","
","","","6949.299999982119","[""shark""]","0","10","3500","2874","","","","","","","","","","","","","","","","","","",""
"pit-instructions","4","21685","0.0-2.0-1.0-1.0","battery-v0.2","","""event"",""trial"",""time""
""fullscreenenter"",""1"",""2683""
","
","
","""event"",""trial"",""time""
""fullscreenenter"",""1"",""2683""
","
","","[{""page_index"":0,""viewing_time"":1444.4000000059605}]","1444.7999999821186","","","","","","","","","","","","","","","","","","","","","","","",""
"pit-comprehension","5","26635","0.0-2.0-2.0-0.0","battery-v0.2","","""event"",""trial"",""time""
""fullscreenenter"",""1"",""2683""
","
","
","""event"",""trial"",""time""
""fullscreenenter"",""1"",""2683""
","
","","","4946.5999999940395","[""tiger""]","0","10","3500","2874","","","","","","","","","","","","","","","","","","",""
"pit-instructions","6","41169","0.0-2.0-2.0-1.0","battery-v0.2","","""event"",""trial"",""time""
""fullscreenenter"",""1"",""2683""
","
","
","""event"",""trial"",""time""
""fullscreenenter"",""1"",""2683""
","
","","[{""page_index"":0,""viewing_time"":14530.800000011921}]","14531.199999988079","","","","","","","","","","","","","","","","","","","","","","","",""
"pit-instructions","7","172065","0.0-2.0-3.0","battery-v0.2","","""event"",""trial"",""time""
""fullscreenenter"",""1"",""2683""
","
","
","""event"",""trial"",""time""
""fullscreenenter"",""1"",""2683""
","
","","[{""page_index"":0,""viewing_time"":11664.199999988079},{""page_index"":1,""viewing_time"":6210.200000017881},{""page_index"":2,""viewing_time"":6333.799999982119},{""page_index"":3,""viewing_time"":5220.5},{""page_index"":4,""viewing_time"":5927.9000000059605},{""page_index"":5,""viewing_time"":26842.5},{""page_index"":6,""viewing_time"":6481.300000011921},{""page_index"":7,""viewing_time"":11046.59999999404},{""page_index"":8,""viewing_time"":6300.300000011921},{""page_index"":9,""viewing_time"":10034.399999976158},{""page_index"":10,""viewing_time"":11464.100000023842},{""page_index"":11,""viewing_time"":5546.199999988079},{""page_index"":12,""viewing_time"":6266.199999988079},{""page_index"":13,""viewing_time"":11553.5}]","130892","","","","","","","","","","","","","","","","","","","","","","","",""
"pit-trial","8","176926","0.0-2.0-4.0-0.0","battery-v0.2","","""event"",""trial"",""time""
""fullscreenenter"",""1"",""2683""
","
","
","""event"",""trial"",""time""
""fullscreenenter"",""1"",""2683""
","
","","","-1","","","10","3500","2874","&#9784;","elianto","#FFFFF080"," ","-1","0","&#10060","[]","0","0","0","","","","","","","",""
"pit-trial","9","181783","0.0-2.0-4.1-0.1","battery-v0.2","","""event"",""trial"",""time""
""fullscreenenter"",""1"",""2683""
","
","
","""event"",""trial"",""time""
""fullscreenenter"",""1"",""2683""
","
","","","-1","","","10","3500","2874","&#9784;","elianto","#FFFFF080"," ","-1","0","&#10060","[]","0","0","0","","","","","","","",""
"pit-trial","10","186642","0.0-2.0-4.2-0.2","battery-v0.2","","""event"",""trial"",""time""
""fullscreenenter"",""1"",""2683""
","
","
","""event"",""trial"",""time""
""fullscreenenter"",""1"",""2683""
","
","","","-1","","","10","3500","2874","&#9784;","elianto","#FFFFF080"," ","-1","0","&#10060","[]","0","0","0","","","","","","","",""
"pit-trial","11","190805","0.0-2.0-4.3-0.3","battery-v0.2","","""event"",""trial"",""time""
""fullscreenenter"",""1"",""2683""
","
","
","""event"",""trial"",""time""
""fullscreenenter"",""1"",""2683""
","
","","","1308.300000011921","","","10","3500","2874","&#9784;","elianto","#FFFFF080"," "," ","1","&#10004","[2159.300000011921]","1","0","0","","","","","","","",""
"pit-trial","12","194138","0.0-2.0-4.4-0.4","battery-v0.2","","""event"",""trial"",""time""
""fullscreenenter"",""1"",""2683""
","
","
","""event"",""trial"",""time""
""fullscreenenter"",""1"",""2683""
","
","","","472.80000001192093","","","10","3500","2874","&#9784;","elianto","#FFFFF080"," "," ","1","&#10004","[1327.699999988079]","1","0","0","","","","","","","",""
"pit-trial","13","197517","0.0-2.0-4.5-0.5","battery-v0.2","","""event"",""trial"",""time""
""fullscreenenter"",""1"",""2683""
","
","
","""event"",""trial"",""time""
""fullscreenenter"",""1"",""2683""
","
","","","515.5","","","10","3500","2874","&#9784;","elianto","#FFFFF080"," "," ","1","&#10004","[1369.5]","1","0","0","","","","","","","",""
"pit-instructions","14","225010","0.0-2.0-5.0","battery-v0.2","","""event"",""trial"",""time""
""fullscreenenter"",""1"",""2683""
","
","
","""event"",""trial"",""time""
""fullscreenenter"",""1"",""2683""
","
","","[{""page_index"":0,""viewing_time"":6800.899999976158},{""page_index"":1,""viewing_time"":9405.300000011921},{""page_index"":2,""viewing_time"":4016.4000000059605},{""page_index"":3,""viewing_time"":7267.199999988079}]","27490.29999998212","","","","","","","","","","","","","","","","","","","","","","","",""
"pit-trial","15","229867","0.0-2.0-6.0-0.0","battery-v0.2","","""event"",""trial"",""time""
""fullscreenenter"",""1"",""2683""
","
","
","""event"",""trial"",""time""
""fullscreenenter"",""1"",""2683""
","
","","","-1","","","10","3500","2874","&#9854;","elianto","#FFFFF080","-1","-1","1","&#10004","[]","0","0","1","","","","","","","",""
"pit-trial","16","234727","0.0-2.0-6.1-0.1","battery-v0.2","","""event"",""trial"",""time""
""fullscreenenter"",""1"",""2683""
","
","
","""event"",""trial"",""time""
""fullscreenenter"",""1"",""2683""
","
","","","-1","","","10","3500","2874","&#9854;","elianto","#FFFFF080","-1","-1","1","&#10004","[]","0","0","1","","","","","","","",""
"pit-trial","17","239584","0.0-2.0-6.2-0.2","battery-v0.2","","""event"",""trial"",""time""
""fullscreenenter"",""1"",""2683""
","
","
","""event"",""trial"",""time""
""fullscreenenter"",""1"",""2683""
","
","","","-1","","","10","3500","2874","&#9854;","elianto","#FFFFF080","-1","-1","1","&#10004","[]","0","0","1","","","","","","","",""
"pit-trial","18","244442","0.0-2.0-6.3-0.3","battery-v0.2","","""event"",""trial"",""time""
""fullscreenenter"",""1"",""2683""
","
","
","""event"",""trial"",""time""
""fullscreenenter"",""1"",""2683""
","
","","","-1","","","10","3500","2874","&#9854;","elianto","#FFFFF080","-1","-1","1","&#10004","[]","0","0","1","","","","","","","",""
"pit-trial","19","249302","0.0-2.0-6.4-0.4","battery-v0.2","","""event"",""trial"",""time""
""fullscreenenter"",""1"",""2683""
","
","
","""event"",""trial"",""time""
""fullscreenenter"",""1"",""2683""
","
","","","-1","","","10","3500","2874","&#9854;","elianto","#FFFFF080","-1","-1","1","&#10004","[]","0","0","1","","","","","","","",""
"pit-instructions","20","405891","0.0-2.0-7.0","battery-v0.2","","""event"",""trial"",""time""
""fullscreenenter"",""1"",""2683""
","
","
","""event"",""trial"",""time""
""fullscreenenter"",""1"",""2683""
","
","","[{""page_index"":0,""viewing_time"":14709.300000011921},{""page_index"":1,""viewing_time"":12924.799999982119},{""page_index"":2,""viewing_time"":5006.9000000059605},{""page_index"":3,""viewing_time"":10754.300000011921},{""page_index"":4,""viewing_time"":9136.799999982119},{""page_index"":5,""viewing_time"":5792},{""page_index"":6,""viewing_time"":6166.9000000059605},{""page_index"":7,""viewing_time"":10327.09999999404},{""page_index"":8,""viewing_time"":9776.5},{""page_index"":9,""viewing_time"":5062.100000023842},{""page_index"":10,""viewing_time"":7526.5999999940395},{""page_index"":11,""viewing_time"":9090.40000000596},{""page_index"":12,""viewing_time"":8313.5},{""page_index"":13,""viewing_time"":11227.699999988079},{""page_index"":14,""viewing_time"":6862.4000000059605},{""page_index"":15,""viewing_time"":9438.799999982119},{""page_index"":16,""viewing_time"":7660.600000023842},{""page_index"":17,""viewing_time"":6806.899999976158}]","156584.20000001788","","","","","","","","","","","","","","","","","","","","","","","",""
"pit-trial","21","410304","0.0-2.0-8.0-0.0","battery-v0.2","","""event"",""trial"",""time""
""fullscreenenter"",""1"",""2683""
","
","
","""event"",""trial"",""time""
""fullscreenenter"",""1"",""2683""
","
","","","1555.2999999821186","","","10","3500","2874","&#9776;","elianto","#3366ff99"," "," ","1","+10","[2407.5]","1","0","1","","","","","","","",""
"pit-trial","22","415163","0.0-2.0-8.0-1.0","battery-v0.2","","""event"",""trial"",""time""
""fullscreenenter"",""1"",""2683""
","
","
","""event"",""trial"",""time""
""fullscreenenter"",""1"",""2683""
","
","","","-1","","","10","3500","2874","&#9776;","elianto","#3366ff99"," ","-1","0","0","[3090.0999999940395]","1","0","1","","","","","","","",""
"pit-trial","23","419332","0.0-2.0-8.0-2.0","battery-v0.2","","""event"",""trial"",""time""
""fullscreenenter"",""1"",""2683""
","
","
","""event"",""trial"",""time""
""fullscreenenter"",""1"",""2683""
","
","","","1313.0999999940395","","","10","3500","2874","&#9776;","elianto","#3366ff99"," "," ","1","+10","[2165]","1","0","1","","","","","","","",""
"pit-trial","24","424191","0.0-2.0-8.0-3.0","battery-v0.2","","""event"",""trial"",""time""
""fullscreenenter"",""1"",""2683""
","
","
","""event"",""trial"",""time""
""fullscreenenter"",""1"",""2683""
","
","","","-1","","","10","3500","2874","&#9776;","elianto","#3366ff99"," ","-1","0","+10","[]","0","0","1","","","","","","","",""
"pit-trial","25","428711","0.0-2.0-8.0-4.0","battery-v0.2","","""event"",""trial"",""time""
""fullscreenenter"",""1"",""2683""
","
","
","""event"",""trial"",""time""
""fullscreenenter"",""1"",""2683""
","
","","","1661.9000000059605","","","10","3500","2874","&#9776;","elianto","#3366ff99"," "," ","1","+10","[2513.800000011921]","1","0","1","","","","","","","",""
"pit-trial","26","431913","0.0-2.0-8.1-0.1","battery-v0.2","","""event"",""trial"",""time""
""fullscreenenter"",""1"",""2683""
","
","
","""event"",""trial"",""time""
""fullscreenenter"",""1"",""2683""
","
","","","344.5","","","10","3500","2874","&#9776;","elianto","#3366ff99"," "," ","1","+10","[1195]","1","0","1","","","","","","","",""
"pit-trial","27","435202","0.0-2.0-8.1-1.1","battery-v0.2","","""event"",""trial"",""time""
""fullscreenenter"",""1"",""2683""
","
","
","""event"",""trial"",""time""
""fullscreenenter"",""1"",""2683""
","
","","","431.10000002384186","","","10","3500","2874","&#9776;","elianto","#3366ff99"," "," ","1","+10","[1283.7999999821186,1771]","2","0","1","","","","","","","",""
"pit-trial","28","439215","0.0-2.0-8.1-2.1","battery-v0.2","","""event"",""trial"",""time""
""fullscreenenter"",""1"",""2683""
","
","
","""event"",""trial"",""time""
""fullscreenenter"",""1"",""2683""
","
","","","1158.2999999821186","","","10","3500","2874","&#9776;","elianto","#3366ff99"," "," ","1","+10","[2009.4000000059605]","1","0","1","","","","","","","",""
"pit-trial","29","442829","0.0-2.0-8.1-3.1","battery-v0.2","","""event"",""trial"",""time""
""fullscreenenter"",""1"",""2683""
","
","
","""event"",""trial"",""time""
""fullscreenenter"",""1"",""2683""
","
","","","755.4000000059605","","","10","3500","2874","&#9776;","elianto","#3366ff99"," "," ","1","0","[1607.0999999940395]","1","0","1","","","","","","","",""
"pit-trial","30","446135","0.0-2.0-8.1-4.1","battery-v0.2","","""event"",""trial"",""time""
""fullscreenenter"",""1"",""2683""
","
","
","""event"",""trial"",""time""
""fullscreenenter"",""1"",""2683""
","
","","","445.19999998807907","","","10","3500","2874","&#9776;","elianto","#3366ff99"," "," ","1","+10","[1298.5999999940395]","1","0","1","","","","","","","",""
"pit-trial","31","450994","0.0-2.0-8.2-0.2","battery-v0.2","","""event"",""trial"",""time""
""fullscreenenter"",""1"",""2683""
","
","
","""event"",""trial"",""time""
""fullscreenenter"",""1"",""2683""
","
","","","-1","","","10","3500","2874","&#9776;","elianto","#3366ff99"," ","-1","0","0","[3562.4000000059605]","1","0","1","","","","","","","",""
"pit-trial","32","454302","0.0-2.0-8.2-1.2","battery-v0.2","","""event"",""trial"",""time""
""fullscreenenter"",""1"",""2683""
","
","
","""event"",""trial"",""time""
""fullscreenenter"",""1"",""2683""
","
","","","451.89999997615814","","","10","3500","2874","&#9776;","elianto","#3366ff99"," "," ","1","+10","[1303.2999999821186]","1","0","1","","","","","","","",""
"pit-trial","33","458720","0.0-2.0-8.2-2.2","battery-v0.2","","""event"",""trial"",""time""
""fullscreenenter"",""1"",""2683""
","
","
","""event"",""trial"",""time""
""fullscreenenter"",""1"",""2683""
","
","","","1561.8999999761581","","","10","3500","2874","&#9776;","elianto","#3366ff99"," "," ","1","+10","[2413]","1","0","1","","","","","","","",""
"pit-trial","34","462439","0.0-2.0-8.2-3.2","battery-v0.2","","""event"",""trial"",""time""
""fullscreenenter"",""1"",""2683""
","
","
","""event"",""trial"",""time""
""fullscreenenter"",""1"",""2683""
","
","","","861","","","10","3500","2874","&#9776;","elianto","#3366ff99"," "," ","1","0","[1712.300000011921]","1","0","1","","","","","","","",""
"pit-trial","35","466529","0.0-2.0-8.2-4.2","battery-v0.2","","""event"",""trial"",""time""
""fullscreenenter"",""1"",""2683""
","
","
","""event"",""trial"",""time""
""fullscreenenter"",""1"",""2683""
","
","","","1230.4000000059605","","","10","3500","2874","&#9776;","elianto","#3366ff99"," "," ","1","+10","[2083.600000023842]","1","0","1","","","","","","","",""
"call-function","36","466531","0.0-2.0-9.0","battery-v0.2","","""event"",""trial"",""time""
""fullscreenenter"",""1"",""2683""
","
","
","""event"",""trial"",""time""
""fullscreenenter"",""1"",""2683""
","
","","","","","","","","","","","","","","","","","","","","","","","","","","",""
"pit-instructions","37","526887","0.0-2.0-10.0","battery-v0.2","","""event"",""trial"",""time""
""fullscreenenter"",""1"",""2683""
","
","
","""event"",""trial"",""time""
""fullscreenenter"",""1"",""2683""
","
","","[{""page_index"":0,""viewing_time"":6354.0999999940395},{""page_index"":1,""viewing_time"":16031.40000000596},{""page_index"":2,""viewing_time"":19901.69999998808},{""page_index"":3,""viewing_time"":10349.40000000596},{""page_index"":4,""viewing_time"":7717.800000011921}]","60354.69999998808","","","","","","","","","","","","","","","","","","","","","","","",""
"pit-trial","38","531746","0.0-2.0-11.0-0.0","battery-v0.2","","""event"",""trial"",""time""
""fullscreenenter"",""1"",""2683""
","
","
","""event"",""trial"",""time""
""fullscreenenter"",""1"",""2683""
","
","","","-1","","","10","3500","2874","&#9761;","elianto","#3366ff99","-1","-1","1","+10","[]","0","0","2","","","","","","","",""
"pit-trial","39","536604","0.0-2.0-11.0-1.0","battery-v0.2","","""event"",""trial"",""time""
""fullscreenenter"",""1"",""2683""
","
","
","""event"",""trial"",""time""
""fullscreenenter"",""1"",""2683""
","
","","","-1","","","10","3500","2874","&#9761;","elianto","#3366ff99","-1","-1","1","+10","[]","0","0","2","","","","","","","",""
"pit-trial","40","541463","0.0-2.0-11.0-2.0","battery-v0.2","","""event"",""trial"",""time""
""fullscreenenter"",""1"",""2683""
","
","
","""event"",""trial"",""time""
""fullscreenenter"",""1"",""2683""
","
","","","-1","","","10","3500","2874","&#9761;","elianto","#3366ff99","-1","-1","1","+10","[]","0","0","2","","","","","","","",""
"pit-trial","41","546322","0.0-2.0-11.0-3.0","battery-v0.2","","""event"",""trial"",""time""
""fullscreenenter"",""1"",""2683""
","
","
","""event"",""trial"",""time""
""fullscreenenter"",""1"",""2683""
","
","","","-1","","","10","3500","2874","&#9761;","elianto","#3366ff99","-1","-1","1","0","[]","0","0","2","","","","","","","",""
"pit-trial","42","551181","0.0-2.0-11.0-4.0","battery-v0.2","","""event"",""trial"",""time""
""fullscreenenter"",""1"",""2683""
","
","
","""event"",""trial"",""time""
""fullscreenenter"",""1"",""2683""
","
","","","-1","","","10","3500","2874","&#9761;","elianto","#3366ff99","-1","-1","1","+10","[]","0","0","2","","","","","","","",""
"pit-trial","43","556040","0.0-2.0-11.1-0.1","battery-v0.2","","""event"",""trial"",""time""
""fullscreenenter"",""1"",""2683""
","
","
","""event"",""trial"",""time""
""fullscreenenter"",""1"",""2683""
","
","","","-1","","","10","3500","2874","&#9761;","elianto","#3366ff99","-1","-1","1","+10","[]","0","0","2","","","","","","","",""
"pit-trial","44","560899","0.0-2.0-11.1-1.1","battery-v0.2","","""event"",""trial"",""time""
""fullscreenenter"",""1"",""2683""
","
","
","""event"",""trial"",""time""
""fullscreenenter"",""1"",""2683""
","
","","","-1","","","10","3500","2874","&#9761;","elianto","#3366ff99","-1","-1","1","+10","[]","0","0","2","","","","","","","",""
"pit-trial","45","565758","0.0-2.0-11.1-2.1","battery-v0.2","","""event"",""trial"",""time""
""fullscreenenter"",""1"",""2683""
","
","
","""event"",""trial"",""time""
""fullscreenenter"",""1"",""2683""
","
","","","-1","","","10","3500","2874","&#9761;","elianto","#3366ff99","-1","-1","1","+10","[]","0","0","2","","","","","","","",""
"pit-trial","46","570616","0.0-2.0-11.1-3.1","battery-v0.2","","""event"",""trial"",""time""
""fullscreenenter"",""1"",""2683""
","
","
","""event"",""trial"",""time""
""fullscreenenter"",""1"",""2683""
","
","","","-1","","","10","3500","2874","&#9761;","elianto","#3366ff99","-1","-1","1","0","[]","0","0","2","","","","","","","",""
"pit-trial","47","575475","0.0-2.0-11.1-4.1","battery-v0.2","","""event"",""trial"",""time""
""fullscreenenter"",""1"",""2683""
","
","
","""event"",""trial"",""time""
""fullscreenenter"",""1"",""2683""
","
","","","-1","","","10","3500","2874","&#9761;","elianto","#3366ff99","-1","-1","1","+10","[]","0","0","2","","","","","","","",""
"pit-trial","48","580333","0.0-2.0-11.2-0.2","battery-v0.2","","""event"",""trial"",""time""
""fullscreenenter"",""1"",""2683""
","
","
","""event"",""trial"",""time""
""fullscreenenter"",""1"",""2683""
","
","","","-1","","","10","3500","2874","&#9761;","elianto","#3366ff99","-1","-1","1","+10","[]","0","0","2","","","","","","","",""
"pit-trial","49","585193","0.0-2.0-11.2-1.2","battery-v0.2","","""event"",""trial"",""time""
""fullscreenenter"",""1"",""2683""
","
","
","""event"",""trial"",""time""
""fullscreenenter"",""1"",""2683""
","
","","","-1","","","10","3500","2874","&#9761;","elianto","#3366ff99","-1","-1","1","+10","[]","0","0","2","","","","","","","",""
"pit-trial","50","590052","0.0-2.0-11.2-2.2","battery-v0.2","","""event"",""trial"",""time""
""fullscreenenter"",""1"",""2683""
","
","
","""event"",""trial"",""time""
""fullscreenenter"",""1"",""2683""
","
","","","-1","","","10","3500","2874","&#9761;","elianto","#3366ff99","-1","-1","1","+10","[]","0","0","2","","","","","","","",""
"pit-trial","51","594912","0.0-2.0-11.2-3.2","battery-v0.2","","""event"",""trial"",""time""
""fullscreenenter"",""1"",""2683""
","
","
","""event"",""trial"",""time""
""fullscreenenter"",""1"",""2683""
","
","","","-1","","","10","3500","2874","&#9761;","elianto","#3366ff99","-1","-1","1","0","[]","0","0","2","","","","","","","",""
"pit-trial","52","599772","0.0-2.0-11.2-4.2","battery-v0.2","","""event"",""trial"",""time""
""fullscreenenter"",""1"",""2683""
","
","
","""event"",""trial"",""time""
""fullscreenenter"",""1"",""2683""
","
","","","-1","","","10","3500","2874","&#9761;","elianto","#3366ff99","-1","-1","1","+10","[]","0","0","2","","","","","","","",""
"pit-trial","53","604631","0.0-2.0-11.3-0.3","battery-v0.2","","""event"",""trial"",""time""
""fullscreenenter"",""1"",""2683""
","
","
","""event"",""trial"",""time""
""fullscreenenter"",""1"",""2683""
","
","","","-1","","","10","3500","2874","&#9761;","elianto","#3366ff99","-1","-1","1","+10","[]","0","0","2","","","","","","","",""
"pit-trial","54","609487","0.0-2.0-11.3-1.3","battery-v0.2","","""event"",""trial"",""time""
""fullscreenenter"",""1"",""2683""
","
","
","""event"",""trial"",""time""
""fullscreenenter"",""1"",""2683""
","
","","","-1","","","10","3500","2874","&#9761;","elianto","#3366ff99","-1","-1","1","+10","[]","0","0","2","","","","","","","",""
"pit-trial","55","614346","0.0-2.0-11.3-2.3","battery-v0.2","","""event"",""trial"",""time""
""fullscreenenter"",""1"",""2683""
","
","
","""event"",""trial"",""time""
""fullscreenenter"",""1"",""2683""
","
","","","-1","","","10","3500","2874","&#9761;","elianto","#3366ff99","-1","-1","1","+10","[]","0","0","2","","","","","","","",""
"pit-trial","56","619206","0.0-2.0-11.3-3.3","battery-v0.2","","""event"",""trial"",""time""
""fullscreenenter"",""1"",""2683""
","
","
","""event"",""trial"",""time""
""fullscreenenter"",""1"",""2683""
","
","","","-1","","","10","3500","2874","&#9761;","elianto","#3366ff99","-1","-1","1","0","[]","0","0","2","","","","","","","",""
"pit-trial","57","624064","0.0-2.0-11.3-4.3","battery-v0.2","","""event"",""trial"",""time""
""fullscreenenter"",""1"",""2683""
","
","
","""event"",""trial"",""time""
""fullscreenenter"",""1"",""2683""
","
","","","-1","","","10","3500","2874","&#9761;","elianto","#3366ff99","-1","-1","1","+10","[]","0","0","2","","","","","","","",""
"call-function","58","624065","0.0-2.0-12.0","battery-v0.2","","""event"",""trial"",""time""
""fullscreenenter"",""1"",""2683""
","
","
","""event"",""trial"",""time""
""fullscreenenter"",""1"",""2683""
","
","","","","","","","","","","","","","","","","","","","","","","","","","","",""
"pit-instructions","59","663543","0.0-2.0-13.0","battery-v0.2","","""event"",""trial"",""time""
""fullscreenenter"",""1"",""2683""
","
","
","""event"",""trial"",""time""
""fullscreenenter"",""1"",""2683""
","
","","[{""page_index"":0,""viewing_time"":7165.199999988079},{""page_index"":1,""viewing_time"":6088.9000000059605},{""page_index"":2,""viewing_time"":3036.2000000178814},{""page_index"":3,""viewing_time"":16391.5},{""page_index"":4,""viewing_time"":6794.199999988079}]","39476.40000000596","","","","","","","","","","","","","","","","","","","","","","","",""
"pit-trial","60","668405","0.0-2.0-14.0-0.0","battery-v0.2","","""event"",""trial"",""time""
""fullscreenenter"",""1"",""2683""
","
","
","""event"",""trial"",""time""
""fullscreenenter"",""1"",""2683""
","
","","","-1","","","10","3500","2874","&#9826;","elianto","#f73b6a7A","-1","-1","1","0","[]","0","0","3","","","","","","","",""
"pit-trial","61","672211","0.0-2.0-14.0-1.0","battery-v0.2","","""event"",""trial"",""time""
""fullscreenenter"",""1"",""2683""
","
","
","""event"",""trial"",""time""
""fullscreenenter"",""1"",""2683""
","
","","","944.7000000178814","","","10","3500","2874","&#9826;","elianto","#f73b6a7A","-1"," ","0","-10","[1799.6000000238419,2477.4000000059605]","2","0","3","","","","","","","",""
"pit-trial","62","675096","0.0-2.0-14.0-2.0","battery-v0.2","","""event"",""trial"",""time""
""fullscreenenter"",""1"",""2683""
","
","
","""event"",""trial"",""time""
""fullscreenenter"",""1"",""2683""
","
","","","28.5","","","10","3500","2874","&#9826;","elianto","#f73b6a7A","-1"," ","0","-10","[879.9000000059605]","1","0","3","","","","","","","",""
"pit-trial","63","679954","0.0-2.0-14.0-3.0","battery-v0.2","","""event"",""trial"",""time""
""fullscreenenter"",""1"",""2683""
","
","
","""event"",""trial"",""time""
""fullscreenenter"",""1"",""2683""
","
","","","-1","","","10","3500","2874","&#9826;","elianto","#f73b6a7A","-1","-1","1","-10","[]","0","0","3","","","","","","","",""
"pit-trial","64","683322","0.0-2.0-14.0-4.0","battery-v0.2","","""event"",""trial"",""time""
""fullscreenenter"",""1"",""2683""
","
","
","""event"",""trial"",""time""
""fullscreenenter"",""1"",""2683""
","
","","","508.5","","","10","3500","2874","&#9826;","elianto","#f73b6a7A","-1"," ","0","-10","[1360.4000000059605]","1","0","3","","","","","","","",""
"pit-trial","65","688180","0.0-2.0-14.1-0.1","battery-v0.2","","""event"",""trial"",""time""
""fullscreenenter"",""1"",""2683""
","
","
","""event"",""trial"",""time""
""fullscreenenter"",""1"",""2683""
","
","","","-1","","","10","3500","2874","&#9826;","elianto","#f73b6a7A","-1","-1","1","0","[]","0","0","3","","","","","","","",""
"pit-trial","66","693039","0.0-2.0-14.1-1.1","battery-v0.2","","""event"",""trial"",""time""
""fullscreenenter"",""1"",""2683""
","
","
","""event"",""trial"",""time""
""fullscreenenter"",""1"",""2683""
","
","","","-1","","","10","3500","2874","&#9826;","elianto","#f73b6a7A","-1","-1","1","0","[]","0","0","3","","","","","","","",""
"pit-trial","67","697898","0.0-2.0-14.1-2.1","battery-v0.2","","""event"",""trial"",""time""
""fullscreenenter"",""1"",""2683""
","
","
","""event"",""trial"",""time""
""fullscreenenter"",""1"",""2683""
","
","","","-1","","","10","3500","2874","&#9826;","elianto","#f73b6a7A","-1","-1","1","0","[]","0","0","3","","","","","","","",""
"pit-trial","68","702757","0.0-2.0-14.1-3.1","battery-v0.2","","""event"",""trial"",""time""
""fullscreenenter"",""1"",""2683""
","
","
","""event"",""trial"",""time""
""fullscreenenter"",""1"",""2683""
","
","","","-1","","","10","3500","2874","&#9826;","elianto","#f73b6a7A","-1","-1","1","-10","[]","0","0","3","","","","","","","",""
"pit-trial","69","707616","0.0-2.0-14.1-4.1","battery-v0.2","","""event"",""trial"",""time""
""fullscreenenter"",""1"",""2683""
","
","
","""event"",""trial"",""time""
""fullscreenenter"",""1"",""2683""
","
","","","-1","","","10","3500","2874","&#9826;","elianto","#f73b6a7A","-1","-1","1","0","[]","0","0","3","","","","","","","",""
"pit-trial","70","712474","0.0-2.0-14.2-0.2","battery-v0.2","","""event"",""trial"",""time""
""fullscreenenter"",""1"",""2683""
","
","
","""event"",""trial"",""time""
""fullscreenenter"",""1"",""2683""
","
","","","-1","","","10","3500","2874","&#9826;","elianto","#f73b6a7A","-1","-1","1","0","[]","0","0","3","","","","","","","",""
"pit-trial","71","717335","0.0-2.0-14.2-1.2","battery-v0.2","","""event"",""trial"",""time""
""fullscreenenter"",""1"",""2683""
","
","
","""event"",""trial"",""time""
""fullscreenenter"",""1"",""2683""
","
","","","-1","","","10","3500","2874","&#9826;","elianto","#f73b6a7A","-1","-1","1","0","[]","0","0","3","","","","","","","",""
"pit-trial","72","722192","0.0-2.0-14.2-2.2","battery-v0.2","","""event"",""trial"",""time""
""fullscreenenter"",""1"",""2683""
","
","
","""event"",""trial"",""time""
""fullscreenenter"",""1"",""2683""
","
","","","-1","","","10","3500","2874","&#9826;","elianto","#f73b6a7A","-1","-1","1","0","[]","0","0","3","","","","","","","",""
"pit-trial","73","727050","0.0-2.0-14.2-3.2","battery-v0.2","","""event"",""trial"",""time""
""fullscreenenter"",""1"",""2683""
","
","
","""event"",""trial"",""time""
""fullscreenenter"",""1"",""2683""
","
","","","-1","","","10","3500","2874","&#9826;","elianto","#f73b6a7A","-1","-1","1","-10","[]","0","0","3","","","","","","","",""
"pit-trial","74","731909","0.0-2.0-14.2-4.2","battery-v0.2","","""event"",""trial"",""time""
""fullscreenenter"",""1"",""2683""
","
","
","""event"",""trial"",""time""
""fullscreenenter"",""1"",""2683""
","
","","","-1","","","10","3500","2874","&#9826;","elianto","#f73b6a7A","-1","-1","1","0","[]","0","0","3","","","","","","","",""
"pit-trial","75","736768","0.0-2.0-14.3-0.3","battery-v0.2","","""event"",""trial"",""time""
""fullscreenenter"",""1"",""2683""
","
","
","""event"",""trial"",""time""
""fullscreenenter"",""1"",""2683""
","
","","","-1","","","10","3500","2874","&#9826;","elianto","#f73b6a7A","-1","-1","1","0","[]","0","0","3","","","","","","","",""
"pit-trial","76","741627","0.0-2.0-14.3-1.3","battery-v0.2","","""event"",""trial"",""time""
""fullscreenenter"",""1"",""2683""
","
","
","""event"",""trial"",""time""
""fullscreenenter"",""1"",""2683""
","
","","","-1","","","10","3500","2874","&#9826;","elianto","#f73b6a7A","-1","-1","1","0","[]","0","0","3","","","","","","","",""
"pit-trial","77","746486","0.0-2.0-14.3-2.3","battery-v0.2","","""event"",""trial"",""time""
""fullscreenenter"",""1"",""2683""
","
","
","""event"",""trial"",""time""
""fullscreenenter"",""1"",""2683""
","
","","","-1","","","10","3500","2874","&#9826;","elianto","#f73b6a7A","-1","-1","1","0","[]","0","0","3","","","","","","","",""
"pit-trial","78","751345","0.0-2.0-14.3-3.3","battery-v0.2","","""event"",""trial"",""time""
""fullscreenenter"",""1"",""2683""
","
","
","""event"",""trial"",""time""
""fullscreenenter"",""1"",""2683""
","
","","","-1","","","10","3500","2874","&#9826;","elianto","#f73b6a7A","-1","-1","1","-10","[]","0","0","3","","","","","","","",""
"pit-trial","79","756205","0.0-2.0-14.3-4.3","battery-v0.2","","""event"",""trial"",""time""
""fullscreenenter"",""1"",""2683""
","
","
","""event"",""trial"",""time""
""fullscreenenter"",""1"",""2683""
","
","","","-1","","","10","3500","2874","&#9826;","elianto","#f73b6a7A","-1","-1","1","0","[]","0","0","3","","","","","","","",""
"call-function","80","756207","0.0-2.0-15.0","battery-v0.2","","""event"",""trial"",""time""
""fullscreenenter"",""1"",""2683""
","
","
","""event"",""trial"",""time""
""fullscreenenter"",""1"",""2683""
","
","","","","","","","","","","","","","","","","","","","","","","","","","","",""
"pit-instructions","81","780479","0.0-2.0-16.0","battery-v0.2","","""event"",""trial"",""time""
""fullscreenenter"",""1"",""2683""
","
","
","""event"",""trial"",""time""
""fullscreenenter"",""1"",""2683""
","
","","[{""page_index"":0,""viewing_time"":7327.699999988079},{""page_index"":1,""viewing_time"":8323},{""page_index"":2,""viewing_time"":4052},{""page_index"":3,""viewing_time"":4567.4000000059605}]","24270.59999999404","","","","","","","","","","","","","","","","","","","","","","","",""
"pit-trial","82","785084","0.0-2.0-17.0-0.0","battery-v0.2","","""event"",""trial"",""time""
""fullscreenenter"",""1"",""2683""
","
","
","""event"",""trial"",""time""
""fullscreenenter"",""1"",""2683""
","
","","","1751.5","","","10","3500","2874","&#9789;","elianto","#f73b6a7A"," "," ","1","0","[2601.800000011921]","1","0","4","","","","","","","",""
"pit-trial","83","788248","0.0-2.0-17.0-1.0","battery-v0.2","","""event"",""trial"",""time""
""fullscreenenter"",""1"",""2683""
","
","
","""event"",""trial"",""time""
""fullscreenenter"",""1"",""2683""
","
","","","305.40000000596046","","","10","3500","2874","&#9789;","elianto","#f73b6a7A"," "," ","1","0","[582.7999999821186,1158.199999988079]","2","0","4","","","","","","","",""
"pit-trial","84","791876","0.0-2.0-17.0-2.0","battery-v0.2","","""event"",""trial"",""time""
""fullscreenenter"",""1"",""2683""
","
","
","""event"",""trial"",""time""
""fullscreenenter"",""1"",""2683""
","
","","","770.2000000178814","","","10","3500","2874","&#9789;","elianto","#f73b6a7A"," "," ","1","0","[1621.4000000059605]","1","0","4","","","","","","","",""
"pit-trial","85","795192","0.0-2.0-17.0-3.0","battery-v0.2","","""event"",""trial"",""time""
""fullscreenenter"",""1"",""2683""
","
","
","""event"",""trial"",""time""
""fullscreenenter"",""1"",""2683""
","
","","","460.2000000178814","","","10","3500","2874","&#9789;","elianto","#f73b6a7A"," "," ","1","-10","[832.2999999821186,1311]","2","0","4","","","","","","","",""
"pit-trial","86","800049","0.0-2.0-17.0-4.0","battery-v0.2","","""event"",""trial"",""time""
""fullscreenenter"",""1"",""2683""
","
","
","""event"",""trial"",""time""
""fullscreenenter"",""1"",""2683""
","
","","","-1","","","10","3500","2874","&#9789;","elianto","#f73b6a7A"," ","-1","0","-10","[]","0","0","4","","","","","","","",""
"pit-trial","87","803069","0.0-2.0-17.1-0.1","battery-v0.2","","""event"",""trial"",""time""
""fullscreenenter"",""1"",""2683""
","
","
","""event"",""trial"",""time""
""fullscreenenter"",""1"",""2683""
","
","","","165.2000000178814","","","10","3500","2874","&#9789;","elianto","#f73b6a7A"," "," ","1","0","[1017.5]","1","0","4","","","","","","","",""
"pit-trial","88","806422","0.0-2.0-17.1-1.1","battery-v0.2","","""event"",""trial"",""time""
""fullscreenenter"",""1"",""2683""
","
","
","""event"",""trial"",""time""
""fullscreenenter"",""1"",""2683""
","
","","","495.2999999821186","","","10","3500","2874","&#9789;","elianto","#f73b6a7A"," "," ","1","0","[1346.699999988079]","1","0","4","","","","","","","",""
"pit-trial","89","809935","0.0-2.0-17.1-2.1","battery-v0.2","","""event"",""trial"",""time""
""fullscreenenter"",""1"",""2683""
","
","
","""event"",""trial"",""time""
""fullscreenenter"",""1"",""2683""
","
","","","654.6000000238419","","","10","3500","2874","&#9789;","elianto","#f73b6a7A"," "," ","1","0","[1506.7000000178814]","1","0","4","","","","","","","",""
"pit-trial","90","813638","0.0-2.0-17.1-3.1","battery-v0.2","","""event"",""trial"",""time""
""fullscreenenter"",""1"",""2683""
","
","
","""event"",""trial"",""time""
""fullscreenenter"",""1"",""2683""
","
","","","845.5","","","10","3500","2874","&#9789;","elianto","#f73b6a7A"," "," ","1","-10","[1697]","1","0","4","","","","","","","",""
"pit-trial","91","817536","0.0-2.0-17.1-4.1","battery-v0.2","","""event"",""trial"",""time""
""fullscreenenter"",""1"",""2683""
","
","
","""event"",""trial"",""time""
""fullscreenenter"",""1"",""2683""
","
","","","1038.7999999821186","","","10","3500","2874","&#9789;","elianto","#f73b6a7A"," "," ","1","0","[1890.699999988079]","1","0","4","","","","","","","",""
"pit-trial","92","820459","0.0-2.0-17.2-0.2","battery-v0.2","","""event"",""trial"",""time""
""fullscreenenter"",""1"",""2683""
","
","
","""event"",""trial"",""time""
""fullscreenenter"",""1"",""2683""
","
","","","63","","","10","3500","2874","&#9789;","elianto","#f73b6a7A"," "," ","1","0","[917.3000000119209]","1","0","4","","","","","","","",""
"pit-trial","93","823658","0.0-2.0-17.2-1.2","battery-v0.2","","""event"",""trial"",""time""
""fullscreenenter"",""1"",""2683""
","
","
","""event"",""trial"",""time""
""fullscreenenter"",""1"",""2683""
","
","","","341.5","","","10","3500","2874","&#9789;","elianto","#f73b6a7A"," "," ","1","0","[182.90000000596046,1191.5,2319.300000011921]","3","0","4","","","","","","","",""
"pit-trial","94","828444","0.0-2.0-17.2-2.2","battery-v0.2","","""event"",""trial"",""time""
""fullscreenenter"",""1"",""2683""
","
","
","""event"",""trial"",""time""
""fullscreenenter"",""1"",""2683""
","
","","","1929.5","","","10","3500","2874","&#9789;","elianto","#f73b6a7A"," "," ","1","0","[2781.5999999940395,4192.200000017881]","2","0","4","","","","","","","",""
"pit-trial","95","831495","0.0-2.0-17.2-3.2","battery-v0.2","","""event"",""trial"",""time""
""fullscreenenter"",""1"",""2683""
","
","
","""event"",""trial"",""time""
""fullscreenenter"",""1"",""2683""
","
","","","192.2999999821186","","","10","3500","2874","&#9789;","elianto","#f73b6a7A"," "," ","1","-10","[472,1046.7999999821186,1541.7999999821186,2015.4000000059605,2451.5999999940395,2896.9000000059605]","6","0","4","","","","","","","",""
"pit-trial","96","834523","0.0-2.0-17.2-4.2","battery-v0.2","","""event"",""trial"",""time""
""fullscreenenter"",""1"",""2683""
","
","
","""event"",""trial"",""time""
""fullscreenenter"",""1"",""2683""
","
","","","173.69999998807907","","","10","3500","2874","&#9789;","elianto","#f73b6a7A"," "," ","1","0","[534.7000000178814,1024.5,1543.4000000059605,2019.800000011921]","4","0","4","","","","","","","",""
"pit-trial","97","837590","0.0-2.0-17.3-0.3","battery-v0.2","","""event"",""trial"",""time""
""fullscreenenter"",""1"",""2683""
","
","
","""event"",""trial"",""time""
""fullscreenenter"",""1"",""2683""
","
","","","206.69999998807907","","","10","3500","2874","&#9789;","elianto","#f73b6a7A"," "," ","1","0","[18.5,1060.300000011921,2910.0999999940395]","3","0","4","","","","","","","",""
"pit-trial","98","840637","0.0-2.0-17.3-1.3","battery-v0.2","","""event"",""trial"",""time""
""fullscreenenter"",""1"",""2683""
","
","
","""event"",""trial"",""time""
""fullscreenenter"",""1"",""2683""
","
","","","189.10000002384186","","","10","3500","2874","&#9789;","elianto","#f73b6a7A"," "," ","1","0","[1040.4000000059605]","1","0","4","","","","","","","",""
"pit-trial","99","844169","0.0-2.0-17.3-2.3","battery-v0.2","","""event"",""trial"",""time""
""fullscreenenter"",""1"",""2683""
","
","
","""event"",""trial"",""time""
""fullscreenenter"",""1"",""2683""
","
","","","672.9000000059605","","","10","3500","2874","&#9789;","elianto","#f73b6a7A"," "," ","1","0","[1526.300000011921]","1","0","4","","","","","","","",""
"pit-trial","100","847060","0.0-2.0-17.3-3.3","battery-v0.2","","""event"",""trial"",""time""
""fullscreenenter"",""1"",""2683""
","
","
","""event"",""trial"",""time""
""fullscreenenter"",""1"",""2683""
","
","","","33.80000001192093","","","10","3500","2874","&#9789;","elianto","#f73b6a7A"," "," ","1","-10","[886.3000000119209]","1","0","4","","","","","","","",""
"pit-trial","101","850100","0.0-2.0-17.3-4.3","battery-v0.2","","""event"",""trial"",""time""
""fullscreenenter"",""1"",""2683""
","
","
","""event"",""trial"",""time""
""fullscreenenter"",""1"",""2683""
","
","","","183.40000000596046","","","10","3500","2874","&#9789;","elianto","#f73b6a7A"," "," ","1","0","[342.69999998807907,1033.5999999940395,1593.800000011921,2178.5,2757.0999999940395]","5","0","4","","","","","","","",""
"call-function","102","850102","0.0-2.0-18.0","battery-v0.2","","""event"",""trial"",""time""
""fullscreenenter"",""1"",""2683""
","
","
","""event"",""trial"",""time""
""fullscreenenter"",""1"",""2683""
","
","","","","","","","","","","","","","","","","","","","","","","","","","","",""
"pit-instructions","103","936339","0.0-2.0-19.0","battery-v0.2","","""event"",""trial"",""time""
""fullscreenenter"",""1"",""2683""
","
","
","""event"",""trial"",""time""
""fullscreenenter"",""1"",""2683""
","
","","[{""page_index"":0,""viewing_time"":7968.4000000059605},{""page_index"":1,""viewing_time"":13489.40000000596},{""page_index"":2,""viewing_time"":10034.799999982119},{""page_index"":3,""viewing_time"":5961.200000017881},{""page_index"":4,""viewing_time"":7741.399999976158},{""page_index"":5,""viewing_time"":10834},{""page_index"":6,""viewing_time"":18889},{""page_index"":7,""viewing_time"":5174.300000011921},{""page_index"":8,""viewing_time"":6143.0999999940395}]","86236","","","","","","","","","","","","","","","","","","","","","","","",""
"pit-comprehension","104","943585","0.0-2.0-20.0-0.0","battery-v0.2","","""event"",""trial"",""time""
""fullscreenenter"",""1"",""2683""
","
","
","""event"",""trial"",""time""
""fullscreenenter"",""1"",""2683""
","
","","","7241.9000000059605","[""SPACE""]","0","10","3500","2874","","","","","","","","","","","","","","","","","","",""
"pit-instructions","105","954958","0.0-2.0-20.0-1.0","battery-v0.2","","""event"",""trial"",""time""
""fullscreenenter"",""1"",""2683""
","
","
","""event"",""trial"",""time""
""fullscreenenter"",""1"",""2683""
","
","","[{""page_index"":0,""viewing_time"":11338.199999988079}]","11338.59999999404","","","","","","","","","","","","","","","","","","","","","","","",""
"pit-comprehension","106","960640","0.0-2.0-21.0-0.0","battery-v0.2","","""event"",""trial"",""time""
""fullscreenenter"",""1"",""2683""
","
","
","""event"",""trial"",""time""
""fullscreenenter"",""1"",""2683""
","
","","","5678.700000017881","[""10""]","0","10","3500","2874","","","","","","","","","","","","","","","","","","",""
"pit-instructions","107","963980","0.0-2.0-21.0-1.0","battery-v0.2","","""event"",""trial"",""time""
""fullscreenenter"",""1"",""2683""
","
","
","""event"",""trial"",""time""
""fullscreenenter"",""1"",""2683""
","
","","[{""page_index"":0,""viewing_time"":3301.2999999821186}]","3301.5999999940395","","","","","","","","","","","","","","","","","","","","","","","",""
"pit-comprehension","108","970641","0.0-2.0-22.0-0.0","battery-v0.2","","""event"",""trial"",""time""
""fullscreenenter"",""1"",""2683""
","
","
","""event"",""trial"",""time""
""fullscreenenter"",""1"",""2683""
","
","","","6657.5","[""0""]","0","10","3500","2874","","","","","","","","","","","","","","","","","","",""
"pit-instructions","109","974364","0.0-2.0-22.0-1.0","battery-v0.2","","""event"",""trial"",""time""
""fullscreenenter"",""1"",""2683""
","
","
","""event"",""trial"",""time""
""fullscreenenter"",""1"",""2683""
","
","","[{""page_index"":0,""viewing_time"":3687.300000011921}]","3687.5","","","","","","","","","","","","","","","","","","","","","","","",""
"pit-comprehension","110","983579","0.0-2.0-23.0-0.0","battery-v0.2","","""event"",""trial"",""time""
""fullscreenenter"",""1"",""2683""
","
","
","""event"",""trial"",""time""
""fullscreenenter"",""1"",""2683""
","
","","","9212.40000000596","[""True""]","0","10","3500","2874","","","","","","","","","","","","","","","","","","",""
"pit-instructions","111","986165","0.0-2.0-23.0-1.0","battery-v0.2","","""event"",""trial"",""time""
""fullscreenenter"",""1"",""2683""
","
","
","""event"",""trial"",""time""
""fullscreenenter"",""1"",""2683""
","
","","[{""page_index"":0,""viewing_time"":2545.4000000059605}]","2545.5","","","","","","","","","","","","","","","","","","","","","","","",""
"pit-comprehension","112","998541","0.0-2.0-24.0-0.0","battery-v0.2","","""event"",""trial"",""time""
""fullscreenenter"",""1"",""2683""
","
","
","""event"",""trial"",""time""
""fullscreenenter"",""1"",""2683""
","
","","","12372.200000017881","[""True""]","0","10","3500","2874","","","","","","","","","","","","","","","","","","",""
"pit-instructions","113","1004099","0.0-2.0-24.0-1.0","battery-v0.2","","""event"",""trial"",""time""
""fullscreenenter"",""1"",""2683""
","
","
","""event"",""trial"",""time""
""fullscreenenter"",""1"",""2683""
","
","","[{""page_index"":0,""viewing_time"":5525.300000011921}]","5525.600000023842","","","","","","","","","","","","","","","","","","","","","","","",""
"pit-comprehension","114","1012526","0.0-2.0-25.0-0.0","battery-v0.2","","""event"",""trial"",""time""
""fullscreenenter"",""1"",""2683""
","
","
","""event"",""trial"",""time""
""fullscreenenter"",""1"",""2683""
","
","","","8424.199999988079","[""True""]","0","10","3500","2874","","","","","","","","","","","","","","","","","","",""
"pit-instructions","115","1016643","0.0-2.0-25.0-1.0","battery-v0.2","","""event"",""trial"",""time""
""fullscreenenter"",""1"",""2683""
","
","
","""event"",""trial"",""time""
""fullscreenenter"",""1"",""2683""
","
","","[{""page_index"":0,""viewing_time"":4077.800000011921}]","4078","","","","","","","","","","","","","","","","","","","","","","","",""
"pit-comprehension","116","1025239","0.0-2.0-26.0-0.0","battery-v0.2","","""event"",""trial"",""time""
""fullscreenenter"",""1"",""2683""
","
","
","""event"",""trial"",""time""
""fullscreenenter"",""1"",""2683""
","
","","","8592.59999999404","[""False""]","0","10","3500","2874","","","","","","","","","","","","","","","","","","",""
"pit-instructions","117","1028703","0.0-2.0-26.0-1.0","battery-v0.2","","""event"",""trial"",""time""
""fullscreenenter"",""1"",""2683""
","
","
","""event"",""trial"",""time""
""fullscreenenter"",""1"",""2683""
","
","","[{""page_index"":0,""viewing_time"":3422.100000023842}]","3422.4000000059605","","","","","","","","","","","","","","","","","","","","","","","",""
"pit-instructions","118","1053490","0.0-3.0","battery-v0.2","","""event"",""trial"",""time""
""fullscreenenter"",""1"",""2683""
","
","
","""event"",""trial"",""time""
""fullscreenenter"",""1"",""2683""
","
","","[{""page_index"":0,""viewing_time"":7669.5999999940395},{""page_index"":1,""viewing_time"":7549.799999982119},{""page_index"":2,""viewing_time"":9618.40000000596}]","24838.29999998212","","","","","","","","","","","","","","","","","","","","","","","",""
"pit-trial","119","1058351","0.0-4.0","battery-v0.2","","""event"",""trial"",""time""
""fullscreenenter"",""1"",""2683""
","
","
","""event"",""trial"",""time""
""fullscreenenter"",""1"",""2683""
","
","","","-1","","","10","3500","2874","&#9730;","elianto","#3366ff99"," ","-1","0","0","[2895.5]","1","1","","","3500","1","1","1","win","go","0"
"pit-trial","120","1062021","0.0-5.0","battery-v0.2","","""event"",""trial"",""time""
""fullscreenenter"",""1"",""2683""
","
","
","""event"",""trial"",""time""
""fullscreenenter"",""1"",""2683""
","
","","","811.8999999761581","","","10","3500","2874","&#9733;","elianto","#3366ff99","-1"," ","0","0","[453.30000001192093,1663.0999999940395]","2","1","","","3500","2","2","2","win","no-go","0"
"pit-trial","121","1065890","0.0-6.0","battery-v0.2","","""event"",""trial"",""time""
""fullscreenenter"",""1"",""2683""
","
","
","""event"",""trial"",""time""
""fullscreenenter"",""1"",""2683""
","
","","","1008.3000000119209","","","10","3500","2874","&#9728;","elianto","#f73b6a7A","-1"," ","0","-10","[1862.0999999940395]","1","1","","","3500","3","0","4","lose","no-go","0"
"pit-trial","122","1070751","0.0-7.0","battery-v0.2","","""event"",""trial"",""time""
""fullscreenenter"",""1"",""2683""
","
","
","""event"",""trial"",""time""
""fullscreenenter"",""1"",""2683""
","
","","","-1","","","10","3500","2874","&#9752;","elianto","#f73b6a7A"," ","-1","0","-10","[]","0","1","","","3500","4","3","3","lose","go","0"
"pit-trial","123","1075608","0.0-8.0","battery-v0.2","","""event"",""trial"",""time""
""fullscreenenter"",""1"",""2683""
","
","
","""event"",""trial"",""time""
""fullscreenenter"",""1"",""2683""
","
","","","-1","","","10","3500","2874","&#9730;","elianto","#3366ff99"," ","-1","0","0","[]","0","1","","","3500","5","1","1","win","go","0"
"pit-trial","124","1079427","0.0-9.0","battery-v0.2","","""event"",""trial"",""time""
""fullscreenenter"",""1"",""2683""
","
","
","""event"",""trial"",""time""
""fullscreenenter"",""1"",""2683""
","
","","","961.7999999821186","","","10","3500","2874","&#9752;","elianto","#f73b6a7A"," "," ","1","-10","[1811.7999999821186]","1","1","","","3500","6","3","3","lose","go","1"
"pit-trial","125","1082593","0.0-10.0","battery-v0.2","","""event"",""trial"",""time""
""fullscreenenter"",""1"",""2683""
","
","
","""event"",""trial"",""time""
""fullscreenenter"",""1"",""2683""
","
","","","307.80000001192093","","","10","3500","2874","&#9733;","elianto","#3366ff99","-1"," ","0","0","[1159.5,1232.9000000059605]","2","1","","","3500","7","2","2","win","no-go","0"
"pit-trial","126","1085868","0.0-11.0","battery-v0.2","","""event"",""trial"",""time""
""fullscreenenter"",""1"",""2683""
","
","
","""event"",""trial"",""time""
""fullscreenenter"",""1"",""2683""
","
","","","417.90000000596046","","","10","3500","2874","&#9728;","elianto","#f73b6a7A","-1"," ","0","0","[1269]","1","1","","","3500","8","0","4","lose","no-go","1"
"pit-trial","127","1090725","0.0-12.0","battery-v0.2","","""event"",""trial"",""time""
""fullscreenenter"",""1"",""2683""
","
","
","""event"",""trial"",""time""
""fullscreenenter"",""1"",""2683""
","
","","","-1","","","10","3500","2874","&#9752;","elianto","#f73b6a7A"," ","-1","0","-10","[]","0","1","","","3500","9","3","3","lose","go","0"
"pit-trial","128","1094351","0.0-13.0","battery-v0.2","","""event"",""trial"",""time""
""fullscreenenter"",""1"",""2683""
","
","
","""event"",""trial"",""time""
""fullscreenenter"",""1"",""2683""
","
","","","765.8999999761581","","","10","3500","2874","&#9733;","elianto","#3366ff99","-1"," ","0","0","[1620.7999999821186]","1","1","","","3500","10","2","2","win","no-go","0"
"pit-trial","129","1098277","0.0-14.0","battery-v0.2","","""event"",""trial"",""time""
""fullscreenenter"",""1"",""2683""
","
","
","""event"",""trial"",""time""
""fullscreenenter"",""1"",""2683""
","
","","","1068","","","10","3500","2874","&#9730;","elianto","#3366ff99"," "," ","1","+10","[1920]","1","1","","","3500","11","1","1","win","go","0"
"pit-trial","130","1103136","0.0-15.0","battery-v0.2","","""event"",""trial"",""time""
""fullscreenenter"",""1"",""2683""
","
","
","""event"",""trial"",""time""
""fullscreenenter"",""1"",""2683""
","
","","","-1","","","10","3500","2874","&#9728;","elianto","#f73b6a7A","-1","-1","1","0","[]","0","1","","","3500","12","0","4","lose","no-go","0"
"pit-trial","131","1107994","0.0-16.0","battery-v0.2","","""event"",""trial"",""time""
""fullscreenenter"",""1"",""2683""
","
","
","""event"",""trial"",""time""
""fullscreenenter"",""1"",""2683""
","
","","","-1","","","10","3500","2874","&#9728;","elianto","#f73b6a7A","-1","-1","1","0","[]","0","1","","","3500","13","0","4","lose","no-go","0"
"pit-trial","132","1112853","0.0-17.0","battery-v0.2","","""event"",""trial"",""time""
""fullscreenenter"",""1"",""2683""
","
","
","""event"",""trial"",""time""
""fullscreenenter"",""1"",""2683""
","
","","","-1","","","10","3500","2874","&#9752;","elianto","#f73b6a7A"," ","-1","0","-10","[]","0","1","","","3500","14","3","3","lose","go","0"
"pit-trial","133","1117061","0.0-18.0","battery-v0.2","","""event"",""trial"",""time""
""fullscreenenter"",""1"",""2683""
","
","
","""event"",""trial"",""time""
""fullscreenenter"",""1"",""2683""
","
","","","1350.5999999940395","","","10","3500","2874","&#9733;","elianto","#3366ff99","-1"," ","0","0","[2201.5999999940395]","1","1","","","3500","15","2","2","win","no-go","0"
"pit-trial","134","1120883","0.0-19.0","battery-v0.2","","""event"",""trial"",""time""
""fullscreenenter"",""1"",""2683""
","
","
","""event"",""trial"",""time""
""fullscreenenter"",""1"",""2683""
","
","","","963.7999999821186","","","10","3500","2874","&#9730;","elianto","#3366ff99"," "," ","1","+10","[1816.7999999821186]","1","1","","","3500","16","1","1","win","go","0"
"pit-trial","135","1124640","0.0-20.0","battery-v0.2","","""event"",""trial"",""time""
""fullscreenenter"",""1"",""2683""
","
","
","""event"",""trial"",""time""
""fullscreenenter"",""1"",""2683""
","
","","","898.8000000119209","","","10","3500","2874","&#9730;","elianto","#3366ff99"," "," ","1","+10","[1751.7999999821186]","1","1","","","3500","17","1","1","win","go","0"
"pit-trial","136","1129502","0.0-21.0","battery-v0.2","","""event"",""trial"",""time""
""fullscreenenter"",""1"",""2683""
","
","
","""event"",""trial"",""time""
""fullscreenenter"",""1"",""2683""
","
","","","-1","","","10","3500","2874","&#9752;","elianto","#f73b6a7A"," ","-1","0","-10","[]","0","1","","","3500","18","3","3","lose","go","0"
"pit-trial","137","1134361","0.0-22.0","battery-v0.2","","""event"",""trial"",""time""
""fullscreenenter"",""1"",""2683""
","
","
","""event"",""trial"",""time""
""fullscreenenter"",""1"",""2683""
","
","","","-1","","","10","3500","2874","&#9728;","elianto","#f73b6a7A","-1","-1","1","-10","[]","0","1","","","3500","19","0","4","lose","no-go","1"
"pit-trial","138","1138238","0.0-23.0","battery-v0.2","","""event"",""trial"",""time""
""fullscreenenter"",""1"",""2683""
","
","
","""event"",""trial"",""time""
""fullscreenenter"",""1"",""2683""
","
","","","1017.3999999761581","","","10","3500","2874","&#9733;","elianto","#3366ff99","-1"," ","0","0","[1872.2999999821186]","1","1","","","3500","20","2","2","win","no-go","0"
"pit-instructions","139","1151623","0.0-24.0","battery-v0.2","","""event"",""trial"",""time""
""fullscreenenter"",""1"",""2683""
","
","
","""event"",""trial"",""time""
""fullscreenenter"",""1"",""2683""
","
","","[{""page_index"":0,""viewing_time"":7014},{""page_index"":1,""viewing_time"":6369}]","13383.399999976158","","","","","","","","","","","","","","","","","","","","","","","",""
"pit-trial","140","1156039","0.0-25.0","battery-v0.2","","""event"",""trial"",""time""
""fullscreenenter"",""1"",""2683""
","
","
","""event"",""trial"",""time""
""fullscreenenter"",""1"",""2683""
","
","","","1558.2999999821186","","","10","3500","2874","l","elianto","#3366ff99"," "," ","1","+10","[2409.4000000059605]","1","2","","","3500","21","1","1","win","go","0"
"pit-trial","141","1160129","0.0-26.0","battery-v0.2","","""event"",""trial"",""time""
""fullscreenenter"",""1"",""2683""
","
","
","""event"",""trial"",""time""
""fullscreenenter"",""1"",""2683""
","
","","","1233.0999999940395","","","10","3500","2874","u","elianto","#f73b6a7A","-1"," ","0","0","[2084.399999976158]","1","2","","","3500","22","0","4","lose","no-go","1"
"pit-trial","142","1163458","0.0-27.0","battery-v0.2","","""event"",""trial"",""time""
""fullscreenenter"",""1"",""2683""
","
","
","""event"",""trial"",""time""
""fullscreenenter"",""1"",""2683""
","
","","","468.69999998807907","","","10","3500","2874","a","elianto","#f73b6a7A","-1"," ","0","-10","[1322.699999988079]","1","2","","","3500","23","2","4","lose","no-go","0"
"pit-trial","143","1167366","0.0-28.0","battery-v0.2","","""event"",""trial"",""time""
""fullscreenenter"",""1"",""2683""
","
","
","""event"",""trial"",""time""
""fullscreenenter"",""1"",""2683""
","
","","","1052.2999999821186","","","10","3500","2874","g","elianto","#f73b6a7A"," "," ","1","-10","[1903.8999999761581]","1","2","","","3500","24","3","3","lose","go","1"
"pit-trial","144","1172224","0.0-29.0","battery-v0.2","","""event"",""trial"",""time""
""fullscreenenter"",""1"",""2683""
","
","
","""event"",""trial"",""time""
""fullscreenenter"",""1"",""2683""
","
","","","-1","","","10","3500","2874","a","elianto","#f73b6a7A","-1","-1","1","0","[]","0","2","","","3500","25","2","4","lose","no-go","0"
"pit-trial","145","1177082","0.0-30.0","battery-v0.2","","""event"",""trial"",""time""
""fullscreenenter"",""1"",""2683""
","
","
","""event"",""trial"",""time""
""fullscreenenter"",""1"",""2683""
","
","","","-1","","","10","3500","2874","g","elianto","#f73b6a7A"," ","-1","0","-10","[]","0","2","","","3500","26","3","3","lose","go","0"
"pit-trial","146","1180624","0.0-31.0","battery-v0.2","","""event"",""trial"",""time""
""fullscreenenter"",""1"",""2683""
","
","
","""event"",""trial"",""time""
""fullscreenenter"",""1"",""2683""
","
","","","686.7000000178814","","","10","3500","2874","l","elianto","#3366ff99"," "," ","1","+10","[220.09999999403954,1538]","2","2","","","3500","27","1","1","win","go","0"
"pit-trial","147","1185482","0.0-32.0","battery-v0.2","","""event"",""trial"",""time""
""fullscreenenter"",""1"",""2683""
","
","
","""event"",""trial"",""time""
""fullscreenenter"",""1"",""2683""
","
","","","-1","","","10","3500","2874","u","elianto","#f73b6a7A","-1","-1","1","0","[]","0","2","","","3500","28","0","4","lose","no-go","0"
"pit-trial","148","1190342","0.0-33.0","battery-v0.2","","""event"",""trial"",""time""
""fullscreenenter"",""1"",""2683""
","
","
","""event"",""trial"",""time""
""fullscreenenter"",""1"",""2683""
","
","","","-1","","","10","3500","2874","g","elianto","#f73b6a7A"," ","-1","0","-10","[]","0","2","","","3500","29","3","3","lose","go","0"
"pit-trial","149","1193886","0.0-34.0","battery-v0.2","","""event"",""trial"",""time""
""fullscreenenter"",""1"",""2683""
","
","
","""event"",""trial"",""time""
""fullscreenenter"",""1"",""2683""
","
","","","682.5","","","10","3500","2874","l","elianto","#3366ff99"," "," ","1","0","[1537.2999999821186]","1","2","","","3500","30","1","1","win","go","1"
"pit-trial","150","1197822","0.0-35.0","battery-v0.2","","""event"",""trial"",""time""
""fullscreenenter"",""1"",""2683""
","
","
","""event"",""trial"",""time""
""fullscreenenter"",""1"",""2683""
","
","","","1077.6000000238419","","","10","3500","2874","u","elianto","#f73b6a7A","-1"," ","0","-10","[1929.199999988079]","1","2","","","3500","31","0","4","lose","no-go","0"
"pit-trial","151","1201175","0.0-36.0","battery-v0.2","","""event"",""trial"",""time""
""fullscreenenter"",""1"",""2683""
","
","
","""event"",""trial"",""time""
""fullscreenenter"",""1"",""2683""
","
","","","494","","","10","3500","2874","a","elianto","#f73b6a7A","-1"," ","0","0","[1345.699999988079]","1","2","","","3500","32","2","4","lose","no-go","1"
"pit-trial","152","1204547","0.0-37.0","battery-v0.2","","""event"",""trial"",""time""
""fullscreenenter"",""1"",""2683""
","
","
","""event"",""trial"",""time""
""fullscreenenter"",""1"",""2683""
","
","","","512.7000000178814","","","10","3500","2874","l","elianto","#3366ff99"," "," ","1","+10","[1367.300000011921]","1","2","","","3500","33","1","1","win","go","0"
"pit-trial","153","1209403","0.0-38.0","battery-v0.2","","""event"",""trial"",""time""
""fullscreenenter"",""1"",""2683""
","
","
","""event"",""trial"",""time""
""fullscreenenter"",""1"",""2683""
","
","","","-1","","","10","3500","2874","g","elianto","#f73b6a7A"," ","-1","0","-10","[]","0","2","","","3500","34","3","3","lose","go","0"
"pit-trial","154","1214262","0.0-39.0","battery-v0.2","","""event"",""trial"",""time""
""fullscreenenter"",""1"",""2683""
","
","
","""event"",""trial"",""time""
""fullscreenenter"",""1"",""2683""
","
","","","-1","","","10","3500","2874","a","elianto","#f73b6a7A","-1","-1","1","0","[]","0","2","","","3500","35","2","4","lose","no-go","0"
"pit-trial","155","1219120","0.0-40.0","battery-v0.2","","""event"",""trial"",""time""
""fullscreenenter"",""1"",""2683""
","
","
","""event"",""trial"",""time""
""fullscreenenter"",""1"",""2683""
","
","","","-1","","","10","3500","2874","u","elianto","#f73b6a7A","-1","-1","1","0","[2910.9000000059605]","1","2","","","3500","36","0","4","lose","no-go","0"
"pit-trial","156","1223982","0.0-41.0","battery-v0.2","","""event"",""trial"",""time""
""fullscreenenter"",""1"",""2683""
","
","
","""event"",""trial"",""time""
""fullscreenenter"",""1"",""2683""
","
","","","-1","","","10","3500","2874","a","elianto","#f73b6a7A","-1","-1","1","0","[]","0","2","","","3500","37","2","4","lose","no-go","0"
"pit-trial","157","1227765","0.0-42.0","battery-v0.2","","""event"",""trial"",""time""
""fullscreenenter"",""1"",""2683""
","
","
","""event"",""trial"",""time""
""fullscreenenter"",""1"",""2683""
","
","","","926.3000000119209","","","10","3500","2874","g","elianto","#f73b6a7A"," "," ","1","0","[1778.6000000238419,2834]","2","2","","","3500","38","3","3","lose","go","0"
"pit-trial","158","1231822","0.0-43.0","battery-v0.2","","""event"",""trial"",""time""
""fullscreenenter"",""1"",""2683""
","
","
","""event"",""trial"",""time""
""fullscreenenter"",""1"",""2683""
","
","","","1201.7999999821186","","","10","3500","2874","u","elianto","#f73b6a7A","-1"," ","0","-10","[2052.199999988079]","1","2","","","3500","39","0","4","lose","no-go","0"
"pit-trial","159","1235357","0.0-44.0","battery-v0.2","","""event"",""trial"",""time""
""fullscreenenter"",""1"",""2683""
","
","
","""event"",""trial"",""time""
""fullscreenenter"",""1"",""2683""
","
","","","678","","","10","3500","2874","l","elianto","#3366ff99"," "," ","1","0","[1532.4000000059605,1842.0999999940395]","2","2","","","3500","40","1","1","win","go","1"
"pit-trial","160","1239388","0.0-45.0","battery-v0.2","","""event"",""trial"",""time""
""fullscreenenter"",""1"",""2683""
","
","
","""event"",""trial"",""time""
""fullscreenenter"",""1"",""2683""
","
","","","1175.8999999761581","","","10","3500","2874","g","elianto","#f73b6a7A"," "," ","1","0","[2029.5]","1","2","","","3500","41","3","3","lose","go","0"
"pit-trial","161","1243107","0.0-46.0","battery-v0.2","","""event"",""trial"",""time""
""fullscreenenter"",""1"",""2683""
","
","
","""event"",""trial"",""time""
""fullscreenenter"",""1"",""2683""
","
","","","859.8000000119209","","","10","3500","2874","u","elianto","#f73b6a7A","-1"," ","0","0","[1714.4000000059605]","1","2","","","3500","42","0","4","lose","no-go","1"
"pit-trial","162","1246671","0.0-47.0","battery-v0.2","","""event"",""trial"",""time""
""fullscreenenter"",""1"",""2683""
","
","
","""event"",""trial"",""time""
""fullscreenenter"",""1"",""2683""
","
","","","708.7999999821186","","","10","3500","2874","a","elianto","#f73b6a7A","-1"," ","0","-10","[1559.5]","1","2","","","3500","43","2","4","lose","no-go","0"
"pit-trial","163","1250113","0.0-48.0","battery-v0.2","","""event"",""trial"",""time""
""fullscreenenter"",""1"",""2683""
","
","
","""event"",""trial"",""time""
""fullscreenenter"",""1"",""2683""
","
","","","582.6999999880791","","","10","3500","2874","l","elianto","#3366ff99"," "," ","1","+10","[1437.0999999940395]","1","2","","","3500","44","1","1","win","go","0"
"pit-trial","164","1253811","0.0-49.0","battery-v0.2","","""event"",""trial"",""time""
""fullscreenenter"",""1"",""2683""
","
","
","""event"",""trial"",""time""
""fullscreenenter"",""1"",""2683""
","
","","","841.5999999940395","","","10","3500","2874","a","elianto","#f73b6a7A","-1"," ","0","-10","[1694.0999999940395]","1","2","","","3500","45","2","4","lose","no-go","0"
"pit-trial","165","1257212","0.0-50.0","battery-v0.2","","""event"",""trial"",""time""
""fullscreenenter"",""1"",""2683""
","
","
","""event"",""trial"",""time""
""fullscreenenter"",""1"",""2683""
","
","","","545","","","10","3500","2874","g","elianto","#f73b6a7A"," "," ","1","0","[1396.0999999940395]","1","2","","","3500","46","3","3","lose","go","0"
"pit-trial","166","1261230","0.0-51.0","battery-v0.2","","""event"",""trial"",""time""
""fullscreenenter"",""1"",""2683""
","
","
","""event"",""trial"",""time""
""fullscreenenter"",""1"",""2683""
","
","","","1160.0999999940395","","","10","3500","2874","u","elianto","#f73b6a7A","-1"," ","0","-10","[2012.199999988079]","1","2","","","3500","47","0","4","lose","no-go","0"
"pit-trial","167","1265334","0.0-52.0","battery-v0.2","","""event"",""trial"",""time""
""fullscreenenter"",""1"",""2683""
","
","
","""event"",""trial"",""time""
""fullscreenenter"",""1"",""2683""
","
","","","1249.199999988079","","","10","3500","2874","p","elianto","#3366ff99","-1"," ","0","+10","[2099.4000000059605,3188.800000011921]","2","2","","","3500","48","4","2","win","no-go","1"
"pit-trial","168","1269164","0.0-53.0","battery-v0.2","","""event"",""trial"",""time""
""fullscreenenter"",""1"",""2683""
","
","
","""event"",""trial"",""time""
""fullscreenenter"",""1"",""2683""
","
","","","970.5999999940395","","","10","3500","2874","p","elianto","#3366ff99","-1"," ","0","+10","[1822.7999999821186]","1","2","","","3500","49","4","2","win","no-go","1"
"pit-trial","169","1272657","0.0-54.0","battery-v0.2","","""event"",""trial"",""time""
""fullscreenenter"",""1"",""2683""
","
","
","""event"",""trial"",""time""
""fullscreenenter"",""1"",""2683""
","
","","","632.2000000178814","","","10","3500","2874","g","elianto","#f73b6a7A"," "," ","1","0","[1486.300000011921,3109.7000000178814]","2","2","","","3500","50","3","3","lose","go","0"
"pit-trial","170","1277514","0.0-55.0","battery-v0.2","","""event"",""trial"",""time""
""fullscreenenter"",""1"",""2683""
","
","
","""event"",""trial"",""time""
""fullscreenenter"",""1"",""2683""
","
","","","-1","","","10","3500","2874","u","elianto","#f73b6a7A","-1","-1","1","0","[]","0","2","","","3500","51","0","4","lose","no-go","0"
"pit-trial","171","1281189","0.0-56.0","battery-v0.2","","""event"",""trial"",""time""
""fullscreenenter"",""1"",""2683""
","
","
","""event"",""trial"",""time""
""fullscreenenter"",""1"",""2683""
","
","","","818.9000000059605","","","10","3500","2874","l","elianto","#3366ff99"," "," ","1","+10","[1669.9000000059605]","1","2","","","3500","52","1","1","win","go","0"
"pit-trial","172","1285152","0.0-57.0","battery-v0.2","","""event"",""trial"",""time""
""fullscreenenter"",""1"",""2683""
","
","
","""event"",""trial"",""time""
""fullscreenenter"",""1"",""2683""
","
","","","1102.9000000059605","","","10","3500","2874","u","elianto","#f73b6a7A","-1"," ","0","-10","[1955.2000000178814]","1","2","","","3500","53","0","4","lose","no-go","0"
"pit-trial","173","1288971","0.0-58.0","battery-v0.2","","""event"",""trial"",""time""
""fullscreenenter"",""1"",""2683""
","
","
","""event"",""trial"",""time""
""fullscreenenter"",""1"",""2683""
","
","","","963.5","","","10","3500","2874","a","elianto","#f73b6a7A","-1"," ","0","-10","[1813.5999999940395]","1","2","","","3500","54","2","4","lose","no-go","0"
"pit-trial","174","1291856","0.0-59.0","battery-v0.2","","""event"",""trial"",""time""
""fullscreenenter"",""1"",""2683""
","
","
","""event"",""trial"",""time""
""fullscreenenter"",""1"",""2683""
","
","","","29","","","10","3500","2874","p","elianto","#3366ff99","-1"," ","0","0","[881.3000000119209]","1","2","","","3500","55","4","2","win","no-go","0"
"pit-trial","175","1295292","0.0-60.0","battery-v0.2","","""event"",""trial"",""time""
""fullscreenenter"",""1"",""2683""
","
","
","""event"",""trial"",""time""
""fullscreenenter"",""1"",""2683""
","
","","","577.7000000178814","","","10","3500","2874","l","elianto","#3366ff99"," "," ","1","+10","[1431.9000000059605]","1","2","","","3500","56","1","1","win","go","0"
"pit-trial","176","1298833","0.0-61.0","battery-v0.2","","""event"",""trial"",""time""
""fullscreenenter"",""1"",""2683""
","
","
","""event"",""trial"",""time""
""fullscreenenter"",""1"",""2683""
","
","","","685.7000000178814","","","10","3500","2874","l","elianto","#3366ff99"," "," ","1","+10","[1536.4000000059605]","1","2","","","3500","57","1","1","win","go","0"
"pit-trial","177","1303082","0.0-62.0","battery-v0.2","","""event"",""trial"",""time""
""fullscreenenter"",""1"",""2683""
","
","
","""event"",""trial"",""time""
""fullscreenenter"",""1"",""2683""
","
","","","1392.4000000059605","","","10","3500","2874","u","elianto","#f73b6a7A","-1"," ","0","0","[2244.300000011921,3111.199999988079]","2","2","","","3500","58","0","4","lose","no-go","1"
"pit-trial","178","1307831","0.0-63.0","battery-v0.2","","""event"",""trial"",""time""
""fullscreenenter"",""1"",""2683""
","
","
","""event"",""trial"",""time""
""fullscreenenter"",""1"",""2683""
","
","","","1890.2000000178814","","","10","3500","2874","g","elianto","#f73b6a7A"," "," ","1","0","[2742.5,3441.9000000059605,3893.800000011921]","3","2","","","3500","59","3","3","lose","go","0"
"pit-trial","179","1310827","0.0-64.0","battery-v0.2","","""event"",""trial"",""time""
""fullscreenenter"",""1"",""2683""
","
","
","""event"",""trial"",""time""
""fullscreenenter"",""1"",""2683""
","
","","","138.2000000178814","","","10","3500","2874","p","elianto","#3366ff99","-1"," ","0","0","[154,990.2000000178814,2264.5]","3","2","","","3500","60","4","2","win","no-go","0"
"pit-trial","180","1314413","0.0-65.0","battery-v0.2","","""event"",""trial"",""time""
""fullscreenenter"",""1"",""2683""
","
","
","""event"",""trial"",""time""
""fullscreenenter"",""1"",""2683""
","
","","","725.3000000119209","","","10","3500","2874","p","elianto","#3366ff99","-1"," ","0","0","[624.8000000119209,1579.9000000059605]","2","2","","","3500","61","4","2","win","no-go","0"
"pit-trial","181","1317932","0.0-66.0","battery-v0.2","","""event"",""trial"",""time""
""fullscreenenter"",""1"",""2683""
","
","
","""event"",""trial"",""time""
""fullscreenenter"",""1"",""2683""
","
","","","662","","","10","3500","2874","l","elianto","#3366ff99"," "," ","1","+10","[1513.9000000059605]","1","2","","","3500","62","1","1","win","go","0"
"pit-trial","182","1321839","0.0-67.0","battery-v0.2","","""event"",""trial"",""time""
""fullscreenenter"",""1"",""2683""
","
","
","""event"",""trial"",""time""
""fullscreenenter"",""1"",""2683""
","
","","","1047","","","10","3500","2874","g","elianto","#f73b6a7A"," "," ","1","-10","[1901.5999999940395]","1","2","","","3500","63","3","3","lose","go","1"
"pit-trial","183","1326026","0.0-68.0","battery-v0.2","","""event"",""trial"",""time""
""fullscreenenter"",""1"",""2683""
","
","
","""event"",""trial"",""time""
""fullscreenenter"",""1"",""2683""
","
","","","1329.199999988079","","","10","3500","2874","a","elianto","#f73b6a7A","-1"," ","0","-10","[2179.9000000059605]","1","2","","","3500","64","2","4","lose","no-go","0"
"pit-trial","184","1329613","0.0-69.0","battery-v0.2","","""event"",""trial"",""time""
""fullscreenenter"",""1"",""2683""
","
","
","""event"",""trial"",""time""
""fullscreenenter"",""1"",""2683""
","
","","","727.5999999940395","","","10","3500","2874","g","elianto","#f73b6a7A"," "," ","1","0","[1581.4000000059605]","1","2","","","3500","65","3","3","lose","go","0"
"pit-trial","185","1333192","0.0-70.0","battery-v0.2","","""event"",""trial"",""time""
""fullscreenenter"",""1"",""2683""
","
","
","""event"",""trial"",""time""
""fullscreenenter"",""1"",""2683""
","
","","","722.9000000059605","","","10","3500","2874","a","elianto","#f73b6a7A","-1"," ","0","-10","[1573.5999999940395]","1","2","","","3500","66","2","4","lose","no-go","0"
"pit-trial","186","1336814","0.0-71.0","battery-v0.2","","""event"",""trial"",""time""
""fullscreenenter"",""1"",""2683""
","
","
","""event"",""trial"",""time""
""fullscreenenter"",""1"",""2683""
","
","","","767.8000000119209","","","10","3500","2874","p","elianto","#3366ff99","-1"," ","0","+10","[1618.9000000059605]","1","2","","","3500","67","4","2","win","no-go","1"
"pit-trial","187","1340455","0.0-72.0","battery-v0.2","","""event"",""trial"",""time""
""fullscreenenter"",""1"",""2683""
","
","
","""event"",""trial"",""time""
""fullscreenenter"",""1"",""2683""
","
","","","786","","","10","3500","2874","l","elianto","#3366ff99"," "," ","1","+10","[1637.7000000178814]","1","2","","","3500","68","1","1","win","go","0"
"pit-trial","188","1344036","0.0-73.0","battery-v0.2","","""event"",""trial"",""time""
""fullscreenenter"",""1"",""2683""
","
","
","""event"",""trial"",""time""
""fullscreenenter"",""1"",""2683""
","
","","","724","","","10","3500","2874","l","elianto","#3366ff99"," "," ","1","0","[1575.199999988079]","1","2","","","3500","69","1","1","win","go","1"
"pit-trial","189","1347461","0.0-74.0","battery-v0.2","","""event"",""trial"",""time""
""fullscreenenter"",""1"",""2683""
","
","
","""event"",""trial"",""time""
""fullscreenenter"",""1"",""2683""
","
","","","569.9000000059605","","","10","3500","2874","p","elianto","#3366ff99","-1"," ","0","0","[1420.2000000178814]","1","2","","","3500","70","4","2","win","no-go","0"
"pit-trial","190","1350636","0.0-75.0","battery-v0.2","","""event"",""trial"",""time""
""fullscreenenter"",""1"",""2683""
","
","
","""event"",""trial"",""time""
""fullscreenenter"",""1"",""2683""
","
","","","318.40000000596046","","","10","3500","2874","g","elianto","#f73b6a7A"," "," ","1","0","[1170.4000000059605]","1","2","","","3500","71","3","3","lose","go","0"
"pit-trial","191","1354305","0.0-76.0","battery-v0.2","","""event"",""trial"",""time""
""fullscreenenter"",""1"",""2683""
","
","
","""event"",""trial"",""time""
""fullscreenenter"",""1"",""2683""
","
","","","811.8000000119209","","","10","3500","2874","s","elianto","#3366ff99"," "," ","1","0","[1662.9000000059605]","1","2","","","3500","72","5","1","win","go","1"
"pit-trial","192","1359166","0.0-77.0","battery-v0.2","","""event"",""trial"",""time""
""fullscreenenter"",""1"",""2683""
","
","
","""event"",""trial"",""time""
""fullscreenenter"",""1"",""2683""
","
","","","-1","","","10","3500","2874","p","elianto","#3366ff99","-1","-1","1","+10","[]","0","2","","","3500","73","4","2","win","no-go","0"
"pit-trial","193","1362902","0.0-78.0","battery-v0.2","","""event"",""trial"",""time""
""fullscreenenter"",""1"",""2683""
","
","
","""event"",""trial"",""time""
""fullscreenenter"",""1"",""2683""
","
","","","875.5999999940395","","","10","3500","2874","s","elianto","#3366ff99"," "," ","1","+10","[1729.699999988079]","1","2","","","3500","74","5","1","win","go","0"
"pit-trial","194","1366729","0.0-79.0","battery-v0.2","","""event"",""trial"",""time""
""fullscreenenter"",""1"",""2683""
","
","
","""event"",""trial"",""time""
""fullscreenenter"",""1"",""2683""
","
","","","969.8000000119209","","","10","3500","2874","g","elianto","#f73b6a7A"," "," ","1","0","[1823]","1","2","","","3500","75","3","3","lose","go","0"
"pit-trial","195","1370454","0.0-80.0","battery-v0.2","","""event"",""trial"",""time""
""fullscreenenter"",""1"",""2683""
","
","
","""event"",""trial"",""time""
""fullscreenenter"",""1"",""2683""
","
","","","864","","","10","3500","2874","l","elianto","#3366ff99"," "," ","1","+10","[1718.4000000059605]","1","2","","","3500","76","1","1","win","go","0"
"pit-trial","196","1375238","0.0-81.0","battery-v0.2","","""event"",""trial"",""time""
""fullscreenenter"",""1"",""2683""
","
","
","""event"",""trial"",""time""
""fullscreenenter"",""1"",""2683""
","
","","","1928.9000000059605","","","10","3500","2874","g","elianto","#f73b6a7A"," "," ","1","0","[2778.899999976158]","1","2","","","3500","77","3","3","lose","go","0"
"pit-trial","197","1378703","0.0-82.0","battery-v0.2","","""event"",""trial"",""time""
""fullscreenenter"",""1"",""2683""
","
","
","""event"",""trial"",""time""
""fullscreenenter"",""1"",""2683""
","
","","","609.4000000059605","","","10","3500","2874","p","elianto","#3366ff99","-1"," ","0","0","[1459.5999999940395]","1","2","","","3500","78","4","2","win","no-go","0"
"pit-trial","198","1382104","0.0-83.0","battery-v0.2","","""event"",""trial"",""time""
""fullscreenenter"",""1"",""2683""
","
","
","""event"",""trial"",""time""
""fullscreenenter"",""1"",""2683""
","
","","","540.3999999761581","","","10","3500","2874","w","elianto","#f73b6a7A","-1"," ","0","-10","[1394.8999999761581]","1","2","","","3500","79","6","4","lose","no-go","0"
"pit-trial","199","1385819","0.0-84.0","battery-v0.2","","""event"",""trial"",""time""
""fullscreenenter"",""1"",""2683""
","
","
","""event"",""trial"",""time""
""fullscreenenter"",""1"",""2683""
","
","","","855.6000000238419","","","10","3500","2874","s","elianto","#3366ff99"," "," ","1","+10","[1708.300000011921]","1","2","","","3500","80","5","1","win","go","0"
"pit-trial","200","1389470","0.0-85.0","battery-v0.2","","""event"",""trial"",""time""
""fullscreenenter"",""1"",""2683""
","
","
","""event"",""trial"",""time""
""fullscreenenter"",""1"",""2683""
","
","","","794.9000000059605","","","10","3500","2874","p","elianto","#3366ff99","-1"," ","0","0","[1648.699999988079]","1","2","","","3500","81","4","2","win","no-go","0"
"pit-trial","201","1392648","0.0-86.0","battery-v0.2","","""event"",""trial"",""time""
""fullscreenenter"",""1"",""2683""
","
","
","""event"",""trial"",""time""
""fullscreenenter"",""1"",""2683""
","
","","","319","","","10","3500","2874","w","elianto","#f73b6a7A","-1"," ","0","-10","[1170.699999988079]","1","2","","","3500","82","6","4","lose","no-go","0"
"pit-trial","202","1397504","0.0-87.0","battery-v0.2","","""event"",""trial"",""time""
""fullscreenenter"",""1"",""2683""
","
","
","""event"",""trial"",""time""
""fullscreenenter"",""1"",""2683""
","
","","","-1","","","10","3500","2874","e","elianto","#f73b6a7A"," ","-1","0","-10","[]","0","2","","","3500","83","7","3","lose","go","0"
"pit-trial","203","1400801","0.0-88.0","battery-v0.2","","""event"",""trial"",""time""
""fullscreenenter"",""1"",""2683""
","
","
","""event"",""trial"",""time""
""fullscreenenter"",""1"",""2683""
","
","","","439","","","10","3500","2874","s","elianto","#3366ff99"," "," ","1","+10","[1291.9000000059605]","1","2","","","3500","84","5","1","win","go","0"
"pit-trial","204","1404354","0.0-89.0","battery-v0.2","","""event"",""trial"",""time""
""fullscreenenter"",""1"",""2683""
","
","
","""event"",""trial"",""time""
""fullscreenenter"",""1"",""2683""
","
","","","692.8000000119209","","","10","3500","2874","w","elianto","#f73b6a7A","-1"," ","0","-10","[1545.5]","1","2","","","3500","85","6","4","lose","no-go","0"
"pit-trial","205","1408847","0.0-90.0","battery-v0.2","","""event"",""trial"",""time""
""fullscreenenter"",""1"",""2683""
","
","
","""event"",""trial"",""time""
""fullscreenenter"",""1"",""2683""
","
","","","1637.199999988079","","","10","3500","2874","p","elianto","#3366ff99","-1"," ","0","0","[2490.699999988079,2863.9000000059605,3247,3887.7999999821186,4484]","5","2","","","3500","86","4","2","win","no-go","0"
"pit-trial","206","1412237","0.0-91.0","battery-v0.2","","""event"",""trial"",""time""
""fullscreenenter"",""1"",""2683""
","
","
","""event"",""trial"",""time""
""fullscreenenter"",""1"",""2683""
","
","","","532.5999999940395","","","10","3500","2874","s","elianto","#3366ff99"," "," ","1","+10","[1384.4000000059605]","1","2","","","3500","87","5","1","win","go","0"
"pit-trial","207","1415506","0.0-92.0","battery-v0.2","","""event"",""trial"",""time""
""fullscreenenter"",""1"",""2683""
","
","
","""event"",""trial"",""time""
""fullscreenenter"",""1"",""2683""
","
","","","412.60000002384186","","","10","3500","2874","e","elianto","#f73b6a7A"," "," ","1","0","[1264.5,2572.399999976158]","2","2","","","3500","88","7","3","lose","go","0"
"pit-trial","208","1419006","0.0-93.0","battery-v0.2","","""event"",""trial"",""time""
""fullscreenenter"",""1"",""2683""
","
","
","""event"",""trial"",""time""
""fullscreenenter"",""1"",""2683""
","
","","","644.0999999940395","","","10","3500","2874","p","elianto","#3366ff99","-1"," ","0","0","[130,1495.2000000178814,2410.800000011921]","3","2","","","3500","89","4","2","win","no-go","0"
"pit-trial","209","1422915","0.0-94.0","battery-v0.2","","""event"",""trial"",""time""
""fullscreenenter"",""1"",""2683""
","
","
","""event"",""trial"",""time""
""fullscreenenter"",""1"",""2683""
","
","","","1052.699999988079","","","10","3500","2874","e","elianto","#f73b6a7A"," "," ","1","0","[1904.5999999940395,2910.5]","2","2","","","3500","90","7","3","lose","go","0"
"pit-trial","210","1426647","0.0-95.0","battery-v0.2","","""event"",""trial"",""time""
""fullscreenenter"",""1"",""2683""
","
","
","""event"",""trial"",""time""
""fullscreenenter"",""1"",""2683""
","
","","","871.0999999940395","","","10","3500","2874","w","elianto","#f73b6a7A","-1"," ","0","-10","[1725.5]","1","2","","","3500","91","6","4","lose","no-go","0"
"pit-trial","211","1431504","0.0-96.0","battery-v0.2","","""event"",""trial"",""time""
""fullscreenenter"",""1"",""2683""
","
","
","""event"",""trial"",""time""
""fullscreenenter"",""1"",""2683""
","
","","","-1","","","10","3500","2874","s","elianto","#3366ff99"," ","-1","0","0","[3013.9000000059605]","1","2","","","3500","92","5","1","win","go","0"
"pit-trial","212","1436038","0.0-97.0","battery-v0.2","","""event"",""trial"",""time""
""fullscreenenter"",""1"",""2683""
","
","
","""event"",""trial"",""time""
""fullscreenenter"",""1"",""2683""
","
","","","1674.5999999940395","","","10","3500","2874","d","elianto","#3366ff99","-1"," ","0","0","[2527.4000000059605]","1","2","","","3500","93","8","2","win","no-go","0"
"pit-trial","213","1439607","0.0-98.0","battery-v0.2","","""event"",""trial"",""time""
""fullscreenenter"",""1"",""2683""
","
","
","""event"",""trial"",""time""
""fullscreenenter"",""1"",""2683""
","
","","","711.8000000119209","","","10","3500","2874","s","elianto","#3366ff99"," "," ","1","0","[1565.300000011921,2938.2000000178814]","2","2","","","3500","94","5","1","win","go","1"
"pit-trial","214","1443560","0.0-99.0","battery-v0.2","","""event"",""trial"",""time""
""fullscreenenter"",""1"",""2683""
","
","
","""event"",""trial"",""time""
""fullscreenenter"",""1"",""2683""
","
","","","1094.800000011921","","","10","3500","2874","e","elianto","#f73b6a7A"," "," ","1","-10","[1945.9000000059605]","1","2","","","3500","95","7","3","lose","go","1"
"pit-trial","215","1448419","0.0-100.0","battery-v0.2","","""event"",""trial"",""time""
""fullscreenenter"",""1"",""2683""
","
","
","""event"",""trial"",""time""
""fullscreenenter"",""1"",""2683""
","
","","","-1","","","10","3500","2874","w","elianto","#f73b6a7A","-1","-1","1","0","[]","0","2","","","3500","96","6","4","lose","no-go","0"
"pit-trial","216","1451792","0.0-101.0","battery-v0.2","","""event"",""trial"",""time""
""fullscreenenter"",""1"",""2683""
","
","
","""event"",""trial"",""time""
""fullscreenenter"",""1"",""2683""
","
","","","514.6999999880791","","","10","3500","2874","d","elianto","#3366ff99","-1"," ","0","+10","[1367]","1","2","","","3500","97","8","2","win","no-go","1"
"pit-trial","217","1455298","0.0-102.0","battery-v0.2","","""event"",""trial"",""time""
""fullscreenenter"",""1"",""2683""
","
","
","""event"",""trial"",""time""
""fullscreenenter"",""1"",""2683""
","
","","","648.2999999821186","","","10","3500","2874","s","elianto","#3366ff99"," "," ","1","0","[1499]","1","2","","","3500","98","5","1","win","go","1"
"pit-trial","218","1460157","0.0-103.0","battery-v0.2","","""event"",""trial"",""time""
""fullscreenenter"",""1"",""2683""
","
","
","""event"",""trial"",""time""
""fullscreenenter"",""1"",""2683""
","
","","","-1","","","10","3500","2874","e","elianto","#f73b6a7A"," ","-1","0","-10","[]","0","2","","","3500","99","7","3","lose","go","0"
"pit-trial","219","1463784","0.0-104.0","battery-v0.2","","""event"",""trial"",""time""
""fullscreenenter"",""1"",""2683""
","
","
","""event"",""trial"",""time""
""fullscreenenter"",""1"",""2683""
","
","","","769.5999999940395","","","10","3500","2874","w","elianto","#f73b6a7A","-1"," ","0","-10","[1620.300000011921]","1","2","","","3500","100","6","4","lose","no-go","0"
"pit-trial","220","1468643","0.0-105.0","battery-v0.2","","""event"",""trial"",""time""
""fullscreenenter"",""1"",""2683""
","
","
","""event"",""trial"",""time""
""fullscreenenter"",""1"",""2683""
","
","","","-1","","","10","3500","2874","w","elianto","#f73b6a7A","-1","-1","1","0","[]","0","2","","","3500","101","6","4","lose","no-go","0"
"pit-trial","221","1472223","0.0-106.0","battery-v0.2","","""event"",""trial"",""time""
""fullscreenenter"",""1"",""2683""
","
","
","""event"",""trial"",""time""
""fullscreenenter"",""1"",""2683""
","
","","","720.8999999761581","","","10","3500","2874","d","elianto","#3366ff99","-1"," ","0","0","[1572]","1","2","","","3500","102","8","2","win","no-go","0"
"pit-trial","222","1476439","0.0-107.0","battery-v0.2","","""event"",""trial"",""time""
""fullscreenenter"",""1"",""2683""
","
","
","""event"",""trial"",""time""
""fullscreenenter"",""1"",""2683""
","
","","","1356.5999999940395","","","10","3500","2874","j","elianto","#3366ff99","-1"," ","0","0","[2212.0999999940395]","1","2","","","3500","103","9","2","win","no-go","0"
"pit-trial","223","1481193","0.0-108.0","battery-v0.2","","""event"",""trial"",""time""
""fullscreenenter"",""1"",""2683""
","
","
","""event"",""trial"",""time""
""fullscreenenter"",""1"",""2683""
","
","","","1897.2999999821186","","","10","3500","2874","s","elianto","#3366ff99"," "," ","1","+10","[2750.0999999940395]","1","2","","","3500","104","5","1","win","go","0"
"pit-trial","224","1486052","0.0-109.0","battery-v0.2","","""event"",""trial"",""time""
""fullscreenenter"",""1"",""2683""
","
","
","""event"",""trial"",""time""
""fullscreenenter"",""1"",""2683""
","
","","","-1","","","10","3500","2874","w","elianto","#f73b6a7A","-1","-1","1","0","[]","0","2","","","3500","105","6","4","lose","no-go","0"
"pit-trial","225","1489585","0.0-110.0","battery-v0.2","","""event"",""trial"",""time""
""fullscreenenter"",""1"",""2683""
","
","
","""event"",""trial"",""time""
""fullscreenenter"",""1"",""2683""
","
","","","673.1999999880791","","","10","3500","2874","j","elianto","#3366ff99","-1"," ","0","+10","[1527.199999988079,1811.699999988079]","2","2","","","3500","106","9","2","win","no-go","1"
"pit-trial","226","1492978","0.0-111.0","battery-v0.2","","""event"",""trial"",""time""
""fullscreenenter"",""1"",""2683""
","
","
","""event"",""trial"",""time""
""fullscreenenter"",""1"",""2683""
","
","","","534.5999999940395","","","10","3500","2874","d","elianto","#3366ff99","-1"," ","0","0","[1388.7000000178814]","1","2","","","3500","107","8","2","win","no-go","0"
"pit-trial","227","1497836","0.0-112.0","battery-v0.2","","""event"",""trial"",""time""
""fullscreenenter"",""1"",""2683""
","
","
","""event"",""trial"",""time""
""fullscreenenter"",""1"",""2683""
","
","","","-1","","","10","3500","2874","s","elianto","#3366ff99"," ","-1","0","0","[]","0","2","","","3500","108","5","1","win","go","0"
"pit-trial","228","1501784","0.0-113.0","battery-v0.2","","""event"",""trial"",""time""
""fullscreenenter"",""1"",""2683""
","
","
","""event"",""trial"",""time""
""fullscreenenter"",""1"",""2683""
","
","","","1092.9000000059605","","","10","3500","2874","s","elianto","#3366ff99"," "," ","1","0","[1945.4000000059605]","1","2","","","3500","109","5","1","win","go","1"
"pit-trial","229","1506642","0.0-114.0","battery-v0.2","","""event"",""trial"",""time""
""fullscreenenter"",""1"",""2683""
","
","
","""event"",""trial"",""time""
""fullscreenenter"",""1"",""2683""
","
","","","-1","","","10","3500","2874","w","elianto","#f73b6a7A","-1","-1","1","0","[]","0","2","","","3500","110","6","4","lose","no-go","0"
"pit-trial","230","1511228","0.0-115.0","battery-v0.2","","""event"",""trial"",""time""
""fullscreenenter"",""1"",""2683""
","
","
","""event"",""trial"",""time""
""fullscreenenter"",""1"",""2683""
","
","","","1732","","","10","3500","2874","d","elianto","#3366ff99","-1"," ","0","0","[2583.0999999940395]","1","2","","","3500","111","8","2","win","no-go","0"
"pit-trial","231","1515063","0.0-116.0","battery-v0.2","","""event"",""trial"",""time""
""fullscreenenter"",""1"",""2683""
","
","
","""event"",""trial"",""time""
""fullscreenenter"",""1"",""2683""
","
","","","974.6000000238419","","","10","3500","2874","j","elianto","#3366ff99","-1"," ","0","0","[1828.5999999940395]","1","2","","","3500","112","9","2","win","no-go","0"
"pit-trial","232","1519923","0.0-117.0","battery-v0.2","","""event"",""trial"",""time""
""fullscreenenter"",""1"",""2683""
","
","
","""event"",""trial"",""time""
""fullscreenenter"",""1"",""2683""
","
","","","-1","","","10","3500","2874","d","elianto","#3366ff99","-1","-1","1","0","[]","0","2","","","3500","113","8","2","win","no-go","1"
"pit-trial","233","1523813","0.0-118.0","battery-v0.2","","""event"",""trial"",""time""
""fullscreenenter"",""1"",""2683""
","
","
","""event"",""trial"",""time""
""fullscreenenter"",""1"",""2683""
","
","","","1033.9000000059605","","","10","3500","2874","j","elianto","#3366ff99","-1"," ","0","0","[1884.6000000238419]","1","2","","","3500","114","9","2","win","no-go","0"
"pit-trial","234","1528411","0.0-119.0","battery-v0.2","","""event"",""trial"",""time""
""fullscreenenter"",""1"",""2683""
","
","
","""event"",""trial"",""time""
""fullscreenenter"",""1"",""2683""
","
","","","1739.5","","","10","3500","2874","e","elianto","#f73b6a7A"," "," ","1","-10","[2593.7000000178814]","1","2","","","3500","115","7","3","lose","go","1"
"pit-trial","235","1532514","0.0-120.0","battery-v0.2","","""event"",""trial"",""time""
""fullscreenenter"",""1"",""2683""
","
","
","""event"",""trial"",""time""
""fullscreenenter"",""1"",""2683""
","
","","","1246.7999999821186","","","10","3500","2874","s","elianto","#3366ff99"," "," ","1","+10","[2097.699999988079]","1","2","","","3500","116","5","1","win","go","0"
"pit-trial","236","1536322","0.0-121.0","battery-v0.2","","""event"",""trial"",""time""
""fullscreenenter"",""1"",""2683""
","
","
","""event"",""trial"",""time""
""fullscreenenter"",""1"",""2683""
","
","","","949.2000000178814","","","10","3500","2874","s","elianto","#3366ff99"," "," ","1","0","[1800.4000000059605]","1","2","","","3500","117","5","1","win","go","1"
"pit-trial","237","1540476","0.0-122.0","battery-v0.2","","""event"",""trial"",""time""
""fullscreenenter"",""1"",""2683""
","
","
","""event"",""trial"",""time""
""fullscreenenter"",""1"",""2683""
","
","","","1297","","","10","3500","2874","j","elianto","#3366ff99","-1"," ","0","0","[2148.7999999821186]","1","2","","","3500","118","9","2","win","no-go","0"
"pit-trial","238","1545337","0.0-123.0","battery-v0.2","","""event"",""trial"",""time""
""fullscreenenter"",""1"",""2683""
","
","
","""event"",""trial"",""time""
""fullscreenenter"",""1"",""2683""
","
","","","-1","","","10","3500","2874","w","elianto","#f73b6a7A","-1","-1","1","0","[]","0","2","","","3500","119","6","4","lose","no-go","0"
"pit-trial","239","1549680","0.0-124.0","battery-v0.2","","""event"",""trial"",""time""
""fullscreenenter"",""1"",""2683""
","
","
","""event"",""trial"",""time""
""fullscreenenter"",""1"",""2683""
","
","","","1483.7999999821186","","","10","3500","2874","d","elianto","#3366ff99","-1"," ","0","0","[2336.699999988079]","1","2","","","3500","120","8","2","win","no-go","0"
"pit-trial","240","1554538","0.0-125.0","battery-v0.2","","""event"",""trial"",""time""
""fullscreenenter"",""1"",""2683""
","
","
","""event"",""trial"",""time""
""fullscreenenter"",""1"",""2683""
","
","","","-1","","","10","3500","2874","e","elianto","#f73b6a7A"," ","-1","0","0","[]","0","2","","","3500","121","7","3","lose","go","1"
"pit-trial","241","1558086","0.0-126.0","battery-v0.2","","""event"",""trial"",""time""
""fullscreenenter"",""1"",""2683""
","
","
","""event"",""trial"",""time""
""fullscreenenter"",""1"",""2683""
","
","","","689.3000000119209","","","10","3500","2874","d","elianto","#3366ff99","-1"," ","0","0","[1540.2000000178814]","1","2","","","3500","122","8","2","win","no-go","0"
"pit-trial","242","1561951","0.0-127.0","battery-v0.2","","""event"",""trial"",""time""
""fullscreenenter"",""1"",""2683""
","
","
","""event"",""trial"",""time""
""fullscreenenter"",""1"",""2683""
","
","","","1009.0999999940395","","","10","3500","2874","j","elianto","#3366ff99","-1"," ","0","0","[1862.3999999761581]","1","2","","","3500","123","9","2","win","no-go","0"
"pit-trial","243","1565318","0.0-128.0","battery-v0.2","","""event"",""trial"",""time""
""fullscreenenter"",""1"",""2683""
","
","
","""event"",""trial"",""time""
""fullscreenenter"",""1"",""2683""
","
","","","509.80000001192093","","","10","3500","2874","s","elianto","#3366ff99"," "," ","1","0","[1361]","1","2","","","3500","124","5","1","win","go","1"
"pit-trial","244","1570176","0.0-129.0","battery-v0.2","","""event"",""trial"",""time""
""fullscreenenter"",""1"",""2683""
","
","
","""event"",""trial"",""time""
""fullscreenenter"",""1"",""2683""
","
","","","-1","","","10","3500","2874","w","elianto","#f73b6a7A","-1","-1","1","0","[]","0","2","","","3500","125","6","4","lose","no-go","0"
"pit-trial","245","1573578","0.0-130.0","battery-v0.2","","""event"",""trial"",""time""
""fullscreenenter"",""1"",""2683""
","
","
","""event"",""trial"",""time""
""fullscreenenter"",""1"",""2683""
","
","","","542.9000000059605","","","10","3500","2874","d","elianto","#3366ff99","-1"," ","0","0","[1394.0999999940395]","1","2","","","3500","126","8","2","win","no-go","0"
"pit-trial","246","1578436","0.0-131.0","battery-v0.2","","""event"",""trial"",""time""
""fullscreenenter"",""1"",""2683""
","
","
","""event"",""trial"",""time""
""fullscreenenter"",""1"",""2683""
","
","","","-1","","","10","3500","2874","e","elianto","#f73b6a7A"," ","-1","0","-10","[]","0","2","","","3500","127","7","3","lose","go","0"
"pit-trial","247","1582715","0.0-132.0","battery-v0.2","","""event"",""trial"",""time""
""fullscreenenter"",""1"",""2683""
","
","
","""event"",""trial"",""time""
""fullscreenenter"",""1"",""2683""
","
","","","1423.8999999761581","","","10","3500","2874","j","elianto","#3366ff99","-1"," ","0","+10","[2275.7999999821186]","1","2","","","3500","128","9","2","win","no-go","1"
"pit-trial","248","1586488","0.0-133.0","battery-v0.2","","""event"",""trial"",""time""
""fullscreenenter"",""1"",""2683""
","
","
","""event"",""trial"",""time""
""fullscreenenter"",""1"",""2683""
","
","","","916.9000000059605","","","10","3500","2874","d","elianto","#3366ff99","-1"," ","0","0","[1770.9000000059605]","1","2","","","3500","129","8","2","win","no-go","0"
"pit-trial","249","1591346","0.0-134.0","battery-v0.2","","""event"",""trial"",""time""
""fullscreenenter"",""1"",""2683""
","
","
","""event"",""trial"",""time""
""fullscreenenter"",""1"",""2683""
","
","","","-1","","","10","3500","2874","w","elianto","#f73b6a7A","-1","-1","1","0","[]","0","2","","","3500","130","6","4","lose","no-go","0"
"pit-trial","250","1596208","0.0-135.0","battery-v0.2","","""event"",""trial"",""time""
""fullscreenenter"",""1"",""2683""
","
","
","""event"",""trial"",""time""
""fullscreenenter"",""1"",""2683""
","
","","","-1","","","10","3500","2874","e","elianto","#f73b6a7A"," ","-1","0","-10","[]","0","2","","","3500","131","7","3","lose","go","0"
"pit-trial","251","1600031","0.0-136.0","battery-v0.2","","""event"",""trial"",""time""
""fullscreenenter"",""1"",""2683""
","
","
","""event"",""trial"",""time""
""fullscreenenter"",""1"",""2683""
","
","","","966.5","","","10","3500","2874","j","elianto","#3366ff99","-1"," ","0","0","[1816.9000000059605]","1","2","","","3500","132","9","2","win","no-go","0"
"pit-trial","252","1604889","0.0-137.0","battery-v0.2","","""event"",""trial"",""time""
""fullscreenenter"",""1"",""2683""
","
","
","""event"",""trial"",""time""
""fullscreenenter"",""1"",""2683""
","
","","","-1","","","10","3500","2874","e","elianto","#f73b6a7A"," ","-1","0","-10","[2861.800000011921]","1","2","","","3500","133","7","3","lose","go","0"
"pit-trial","253","1609750","0.0-138.0","battery-v0.2","","""event"",""trial"",""time""
""fullscreenenter"",""1"",""2683""
","
","
","""event"",""trial"",""time""
""fullscreenenter"",""1"",""2683""
","
","","","-1","","","10","3500","2874","d","elianto","#3366ff99","-1","-1","1","+10","[]","0","2","","","3500","134","8","2","win","no-go","0"
"pit-trial","254","1614607","0.0-139.0","battery-v0.2","","""event"",""trial"",""time""
""fullscreenenter"",""1"",""2683""
","
","
","""event"",""trial"",""time""
""fullscreenenter"",""1"",""2683""
","
","","","-1","","","10","3500","2874","w","elianto","#f73b6a7A","-1","-1","1","-10","[]","0","2","","","3500","135","6","4","lose","no-go","1"
"pit-trial","255","1618205","0.0-140.0","battery-v0.2","","""event"",""trial"",""time""
""fullscreenenter"",""1"",""2683""
","
","
","""event"",""trial"",""time""
""fullscreenenter"",""1"",""2683""
","
","","","741.7999999821186","","","10","3500","2874","j","elianto","#3366ff99","-1"," ","0","0","[1592.199999988079]","1","2","","","3500","136","9","2","win","no-go","0"
"pit-trial","256","1621752","0.0-141.0","battery-v0.2","","""event"",""trial"",""time""
""fullscreenenter"",""1"",""2683""
","
","
","""event"",""trial"",""time""
""fullscreenenter"",""1"",""2683""
","
","","","688.9000000059605","","","10","3500","2874","e","elianto","#f73b6a7A"," "," ","1","0","[1540]","1","2","","","3500","137","7","3","lose","go","0"
"pit-trial","257","1624939","0.0-142.0","battery-v0.2","","""event"",""trial"",""time""
""fullscreenenter"",""1"",""2683""
","
","
","""event"",""trial"",""time""
""fullscreenenter"",""1"",""2683""
","
","","","333.40000000596046","","","10","3500","2874","w","elianto","#f73b6a7A","-1"," ","0","-10","[1184.5999999940395]","1","2","","","3500","138","6","4","lose","no-go","0"
"pit-trial","258","1629061","0.0-143.0","battery-v0.2","","""event"",""trial"",""time""
""fullscreenenter"",""1"",""2683""
","
","
","""event"",""trial"",""time""
""fullscreenenter"",""1"",""2683""
","
","","","1266.7999999821186","","","10","3500","2874","j","elianto","#3366ff99","-1"," ","0","+10","[2118.7999999821186]","1","2","","","3500","139","9","2","win","no-go","1"
"pit-trial","259","1633066","0.0-144.0","battery-v0.2","","""event"",""trial"",""time""
""fullscreenenter"",""1"",""2683""
","
","
","""event"",""trial"",""time""
""fullscreenenter"",""1"",""2683""
","
","","","1144.5","","","10","3500","2874","d","elianto","#3366ff99","-1"," ","0","0","[1999.300000011921]","1","2","","","3500","140","8","2","win","no-go","0"
"pit-instructions","260","1649285","0.0-145.0","battery-v0.2","","""event"",""trial"",""time""
""fullscreenenter"",""1"",""2683""
","
","
","""event"",""trial"",""time""
""fullscreenenter"",""1"",""2683""
","
","","[{""page_index"":0,""viewing_time"":5045.5999999940395},{""page_index"":1,""viewing_time"":11171.100000023842}]","16217.09999999404","","","","","","","","","","","","","","","","","","","","","","","",""
"pit-trial","261","1654145","0.0-146.0","battery-v0.2","","""event"",""trial"",""time""
""fullscreenenter"",""1"",""2683""
","
","
","""event"",""trial"",""time""
""fullscreenenter"",""1"",""2683""
","
","","","-1","","","10","3500","2874","n","elianto","#f73b6a7A"," ","-1","0","-10","[]","0","3","","","3500","141","0","3","lose","go","0"
"pit-trial","262","1657116","0.0-147.0","battery-v0.2","","""event"",""trial"",""time""
""fullscreenenter"",""1"",""2683""
","
","
","""event"",""trial"",""time""
""fullscreenenter"",""1"",""2683""
","
","","","110","","","10","3500","2874","b","elianto","#f73b6a7A","-1"," ","0","-10","[964]","1","3","","","3500","142","3","4","lose","no-go","0"
"pit-trial","263","1661975","0.0-148.0","battery-v0.2","","""event"",""trial"",""time""
""fullscreenenter"",""1"",""2683""
","
","
","""event"",""trial"",""time""
""fullscreenenter"",""1"",""2683""
","
","","","-1","","","10","3500","2874","t","elianto","#f73b6a7A"," ","-1","0","-10","[]","0","3","","","3500","143","2","3","lose","go","0"
"pit-trial","264","1665443","0.0-149.0","battery-v0.2","","""event"",""trial"",""time""
""fullscreenenter"",""1"",""2683""
","
","
","""event"",""trial"",""time""
""fullscreenenter"",""1"",""2683""
","
