"trial_type","trial_index","time_elapsed","internal_node_id","task_version","subject_id","interactions","blur_events","focus_events","fullscreenenter_events","fullscreenexit_events","success","view_history","rt","responses","num_errors","age","subject","participantId","rune","rune_set","hex","correct","choice","accuracy","outcome","keys","total_keys","block","practice","value","sub","trial","stimulus","robot","valence","action","sham"
"pavlovia","0","20","0.0-0.0","battery-v0.2","","""event"",""trial"",""time""
""fullscreenenter"",""1"",""2609""
","
","
","""event"",""trial"",""time""
""fullscreenenter"",""1"",""2609""
","
","","","","","","","","","","","","","","","","","","","","","","","","","","",""
"fullscreen","1","3602","0.0-1.0","battery-v0.2","","""event"",""trial"",""time""
""fullscreenenter"",""1"",""2609""
","
","
","""event"",""trial"",""time""
""fullscreenenter"",""1"",""2609""
","
","true","","","","","","","","","","","","","","","","","","","","","","","","","",""
"pit-instructions","2","7481","0.0-2.0-0.0","battery-v0.2","","""event"",""trial"",""time""
""fullscreenenter"",""1"",""2609""
","
","
","""event"",""trial"",""time""
""fullscreenenter"",""1"",""2609""
","
","","[{""page_index"":0,""viewing_time"":3875}]","3875.699999988079","","","","","","","","","","","","","","","","","","","","","","","",""
"pit-comprehension","3","10625","0.0-2.0-1.0-0.0","battery-v0.2","","""event"",""trial"",""time""
""fullscreenenter"",""1"",""2609""
","
","
","""event"",""trial"",""time""
""fullscreenenter"",""1"",""2609""
","
","","","3133.300000011921","[""shark""]","0","21","9607","4294","","","","","","","","","","","","","","","","","","",""
"pit-instructions","4","11987","0.0-2.0-1.0-1.0","battery-v0.2","","""event"",""trial"",""time""
""fullscreenenter"",""1"",""2609""
","
","
","""event"",""trial"",""time""
""fullscreenenter"",""1"",""2609""
","
","","[{""page_index"":0,""viewing_time"":1350.300000011921}]","1350.6000000238419","","","","","","","","","","","","","","","","","","","","","","","",""
"pit-comprehension","5","14702","0.0-2.0-2.0-0.0","battery-v0.2","","""event"",""trial"",""time""
""fullscreenenter"",""1"",""2609""
","
","
","""event"",""trial"",""time""
""fullscreenenter"",""1"",""2609""
","
","","","2707.300000011921","[""tiger""]","0","21","9607","4294","","","","","","","","","","","","","","","","","","",""
"pit-instructions","6","15374","0.0-2.0-2.0-1.0","battery-v0.2","","""event"",""trial"",""time""
""fullscreenenter"",""1"",""2609""
","
","
","""event"",""trial"",""time""
""fullscreenenter"",""1"",""2609""
","
","","[{""page_index"":0,""viewing_time"":667.5}]","667.9000000059605","","","","","","","","","","","","","","","","","","","","","","","",""
"pit-instructions","7","121693","0.0-2.0-3.0","battery-v0.2","","""event"",""trial"",""time""
""fullscreenenter"",""1"",""2609""
","
","
","""event"",""trial"",""time""
""fullscreenenter"",""1"",""2609""
","
","","[{""page_index"":0,""viewing_time"":9297.700000017881},{""page_index"":1,""viewing_time"":7342.4000000059605},{""page_index"":2,""viewing_time"":6351},{""page_index"":3,""viewing_time"":5142.5999999940395},{""page_index"":4,""viewing_time"":10665.09999999404},{""page_index"":5,""viewing_time"":5795.5999999940395},{""page_index"":6,""viewing_time"":8904.09999999404},{""page_index"":7,""viewing_time"":7602.700000017881},{""page_index"":8,""viewing_time"":6253.4000000059605},{""page_index"":9,""viewing_time"":8662.59999999404},{""page_index"":10,""viewing_time"":9122},{""page_index"":11,""viewing_time"":7852.9000000059605},{""page_index"":12,""viewing_time"":7237.799999982119},{""page_index"":13,""viewing_time"":6081.4000000059605}]","106311.5","","","","","","","","","","","","","","","","","","","","","","","",""
"pit-trial","8","124598","0.0-2.0-4.0-0.0","battery-v0.2","","""event"",""trial"",""time""
""fullscreenenter"",""1"",""2609""
","
","
","""event"",""trial"",""time""
""fullscreenenter"",""1"",""2609""
","
","","","38.400000005960464","","","21","9607","4294","&#9784;","elianto","#FFFFF080"," "," ","1","&#10004","[887.5]","1","0","0","","","","","","","",""
"pit-trial","9","128177","0.0-2.0-4.1-0.1","battery-v0.2","","""event"",""trial"",""time""
""fullscreenenter"",""1"",""2609""
","
","
","""event"",""trial"",""time""
""fullscreenenter"",""1"",""2609""
","
","","","701.5999999940395","","","21","9607","4294","&#9784;","elianto","#FFFFF080"," "," ","1","&#10004","[1563.199999988079]","1","0","0","","","","","","","",""
"pit-trial","10","131608","0.0-2.0-4.2-0.2","battery-v0.2","","""event"",""trial"",""time""
""fullscreenenter"",""1"",""2609""
","
","
","""event"",""trial"",""time""
""fullscreenenter"",""1"",""2609""
","
","","","556.0999999940395","","","21","9607","4294","&#9784;","elianto","#FFFFF080"," "," ","1","&#10004","[1416.6000000238419]","1","0","0","","","","","","","",""
"pit-trial","11","134959","0.0-2.0-4.3-0.3","battery-v0.2","","""event"",""trial"",""time""
""fullscreenenter"",""1"",""2609""
","
","
","""event"",""trial"",""time""
""fullscreenenter"",""1"",""2609""
","
","","","487.10000002384186","","","21","9607","4294","&#9784;","elianto","#FFFFF080"," "," ","1","&#10004","[1338.2999999821186]","1","0","0","","","","","","","",""
"pit-trial","12","138474","0.0-2.0-4.4-0.4","battery-v0.2","","""event"",""trial"",""time""
""fullscreenenter"",""1"",""2609""
","
","
","""event"",""trial"",""time""
""fullscreenenter"",""1"",""2609""
","
","","","645.8999999761581","","","21","9607","4294","&#9784;","elianto","#FFFFF080"," "," ","1","&#10004","[1500.5999999940395]","1","0","0","","","","","","","",""
"pit-instructions","13","160833","0.0-2.0-5.0","battery-v0.2","","""event"",""trial"",""time""
""fullscreenenter"",""1"",""2609""
","
","
","""event"",""trial"",""time""
""fullscreenenter"",""1"",""2609""
","
","","[{""page_index"":0,""viewing_time"":5572.0999999940395},{""page_index"":1,""viewing_time"":5663.300000011921},{""page_index"":2,""viewing_time"":5412.9000000059605},{""page_index"":3,""viewing_time"":5704}]","22352.70000001788","","","","","","","","","","","","","","","","","","","","","","","",""
"pit-trial","14","165707","0.0-2.0-6.0-0.0","battery-v0.2","","""event"",""trial"",""time""
""fullscreenenter"",""1"",""2609""
","
","
","""event"",""trial"",""time""
""fullscreenenter"",""1"",""2609""
","
","","","-1","","","21","9607","4294","&#9854;","elianto","#FFFFF080","-1","-1","1","&#10004","[]","0","0","1","","","","","","","",""
"pit-trial","15","170577","0.0-2.0-6.1-0.1","battery-v0.2","","""event"",""trial"",""time""
""fullscreenenter"",""1"",""2609""
","
","
","""event"",""trial"",""time""
""fullscreenenter"",""1"",""2609""
","
","","","-1","","","21","9607","4294","&#9854;","elianto","#FFFFF080","-1","-1","1","&#10004","[]","0","0","1","","","","","","","",""
"pit-trial","16","175447","0.0-2.0-6.2-0.2","battery-v0.2","","""event"",""trial"",""time""
""fullscreenenter"",""1"",""2609""
","
","
","""event"",""trial"",""time""
""fullscreenenter"",""1"",""2609""
","
","","","-1","","","21","9607","4294","&#9854;","elianto","#FFFFF080","-1","-1","1","&#10004","[]","0","0","1","","","","","","","",""
"pit-trial","17","180312","0.0-2.0-6.3-0.3","battery-v0.2","","""event"",""trial"",""time""
""fullscreenenter"",""1"",""2609""
","
","
","""event"",""trial"",""time""
""fullscreenenter"",""1"",""2609""
","
","","","-1","","","21","9607","4294","&#9854;","elianto","#FFFFF080","-1","-1","1","&#10004","[]","0","0","1","","","","","","","",""
"pit-trial","18","185175","0.0-2.0-6.4-0.4","battery-v0.2","","""event"",""trial"",""time""
""fullscreenenter"",""1"",""2609""
","
","
","""event"",""trial"",""time""
""fullscreenenter"",""1"",""2609""
","
","","","-1","","","21","9607","4294","&#9854;","elianto","#FFFFF080","-1","-1","1","&#10004","[]","0","0","1","","","","","","","",""
"pit-instructions","19","313965","0.0-2.0-7.0","battery-v0.2","","""event"",""trial"",""time""
""fullscreenenter"",""1"",""2609""
","
","
","""event"",""trial"",""time""
""fullscreenenter"",""1"",""2609""
","
","","[{""page_index"":0,""viewing_time"":6457.700000017881},{""page_index"":1,""viewing_time"":8173.799999982119},{""page_index"":2,""viewing_time"":6511.800000011921},{""page_index"":3,""viewing_time"":8147.699999988079},{""page_index"":4,""viewing_time"":6274.700000017881},{""page_index"":5,""viewing_time"":7506.399999976158},{""page_index"":6,""viewing_time"":5495.4000000059605},{""page_index"":7,""viewing_time"":8492.200000017881},{""page_index"":8,""viewing_time"":8492.299999982119},{""page_index"":9,""viewing_time"":7223.5999999940395},{""page_index"":10,""viewing_time"":6657.100000023842},{""page_index"":11,""viewing_time"":4658.0999999940395},{""page_index"":12,""viewing_time"":7326.699999988079},{""page_index"":13,""viewing_time"":7989.700000017881},{""page_index"":14,""viewing_time"":7540.299999982119},{""page_index"":15,""viewing_time"":7260.9000000059605},{""page_index"":16,""viewing_time"":6415.199999988079},{""page_index"":17,""viewing_time"":8156.600000023842}]","128780.70000001788","","","","","","","","","","","","","","","","","","","","","","","",""
"pit-trial","20","317390","0.0-2.0-8.0-0.0","battery-v0.2","","""event"",""trial"",""time""
""fullscreenenter"",""1"",""2609""
","
","
","""event"",""trial"",""time""
""fullscreenenter"",""1"",""2609""
","
","","","564.5","","","21","9607","4294","&#9776;","elianto","#3366ff99"," "," ","1","+10","[1415.7000000178814]","1","0","1","","","","","","","",""
"pit-trial","21","320766","0.0-2.0-8.0-1.0","battery-v0.2","","""event"",""trial"",""time""
""fullscreenenter"",""1"",""2609""
","
","
","""event"",""trial"",""time""
""fullscreenenter"",""1"",""2609""
","
","","","512.6000000238419","","","21","9607","4294","&#9776;","elianto","#3366ff99"," "," ","1","+10","[1364]","1","0","1","","","","","","","",""
"pit-trial","22","324162","0.0-2.0-8.0-2.0","battery-v0.2","","""event"",""trial"",""time""
""fullscreenenter"",""1"",""2609""
","
","
","""event"",""trial"",""time""
""fullscreenenter"",""1"",""2609""
","
","","","530.8000000119209","","","21","9607","4294","&#9776;","elianto","#3366ff99"," "," ","1","+10","[1388.8999999761581]","1","0","1","","","","","","","",""
"pit-trial","23","327490","0.0-2.0-8.0-3.0","battery-v0.2","","""event"",""trial"",""time""
""fullscreenenter"",""1"",""2609""
","
","
","""event"",""trial"",""time""
""fullscreenenter"",""1"",""2609""
","
","","","467.69999998807907","","","21","9607","4294","&#9776;","elianto","#3366ff99"," "," ","1","0","[1319.7999999821186]","1","0","1","","","","","","","",""
"pit-trial","24","330902","0.0-2.0-8.0-4.0","battery-v0.2","","""event"",""trial"",""time""
""fullscreenenter"",""1"",""2609""
","
","
","""event"",""trial"",""time""
""fullscreenenter"",""1"",""2609""
","
","","","548.3000000119209","","","21","9607","4294","&#9776;","elianto","#3366ff99"," "," ","1","+10","[1402]","1","0","1","","","","","","","",""
"pit-trial","25","334267","0.0-2.0-8.1-0.1","battery-v0.2","","""event"",""trial"",""time""
""fullscreenenter"",""1"",""2609""
","
","
","""event"",""trial"",""time""
""fullscreenenter"",""1"",""2609""
","
","","","499.89999997615814","","","21","9607","4294","&#9776;","elianto","#3366ff99"," "," ","1","+10","[1356.199999988079]","1","0","1","","","","","","","",""
"pit-trial","26","337614","0.0-2.0-8.1-1.1","battery-v0.2","","""event"",""trial"",""time""
""fullscreenenter"",""1"",""2609""
","
","
","""event"",""trial"",""time""
""fullscreenenter"",""1"",""2609""
","
","","","477.69999998807907","","","21","9607","4294","&#9776;","elianto","#3366ff99"," "," ","1","+10","[1331.800000011921]","1","0","1","","","","","","","",""
"pit-trial","27","341235","0.0-2.0-8.1-2.1","battery-v0.2","","""event"",""trial"",""time""
""fullscreenenter"",""1"",""2609""
","
","
","""event"",""trial"",""time""
""fullscreenenter"",""1"",""2609""
","
","","","760.2000000178814","","","21","9607","4294","&#9776;","elianto","#3366ff99"," "," ","1","+10","[1610.7000000178814]","1","0","1","","","","","","","",""
"pit-trial","28","344774","0.0-2.0-8.1-3.1","battery-v0.2","","""event"",""trial"",""time""
""fullscreenenter"",""1"",""2609""
","
","
","""event"",""trial"",""time""
""fullscreenenter"",""1"",""2609""
","
","","","676.2000000178814","","","21","9607","4294","&#9776;","elianto","#3366ff99"," "," ","1","0","[1531.699999988079]","1","0","1","","","","","","","",""
"pit-trial","29","348292","0.0-2.0-8.1-4.1","battery-v0.2","","""event"",""trial"",""time""
""fullscreenenter"",""1"",""2609""
","
","
","""event"",""trial"",""time""
""fullscreenenter"",""1"",""2609""
","
","","","656.0999999940395","","","21","9607","4294","&#9776;","elianto","#3366ff99"," "," ","1","+10","[1512.5]","1","0","1","","","","","","","",""
"pit-trial","30","351659","0.0-2.0-8.2-0.2","battery-v0.2","","""event"",""trial"",""time""
""fullscreenenter"",""1"",""2609""
","
","
","""event"",""trial"",""time""
""fullscreenenter"",""1"",""2609""
","
","","","507.80000001192093","","","21","9607","4294","&#9776;","elianto","#3366ff99"," "," ","1","+10","[1361.0999999940395]","1","0","1","","","","","","","",""
"pit-trial","31","355066","0.0-2.0-8.2-1.2","battery-v0.2","","""event"",""trial"",""time""
""fullscreenenter"",""1"",""2609""
","
","
","""event"",""trial"",""time""
""fullscreenenter"",""1"",""2609""
","
","","","543.8000000119209","","","21","9607","4294","&#9776;","elianto","#3366ff99"," "," ","1","+10","[1396.2000000178814]","1","0","1","","","","","","","",""
"pit-trial","32","358468","0.0-2.0-8.2-2.2","battery-v0.2","","""event"",""trial"",""time""
""fullscreenenter"",""1"",""2609""
","
","
","""event"",""trial"",""time""
""fullscreenenter"",""1"",""2609""
","
","","","537.5","","","21","9607","4294","&#9776;","elianto","#3366ff99"," "," ","1","+10","[1391.699999988079]","1","0","1","","","","","","","",""
"pit-trial","33","361864","0.0-2.0-8.2-3.2","battery-v0.2","","""event"",""trial"",""time""
""fullscreenenter"",""1"",""2609""
","
","
","""event"",""trial"",""time""
""fullscreenenter"",""1"",""2609""
","
","","","523.9000000059605","","","21","9607","4294","&#9776;","elianto","#3366ff99"," "," ","1","0","[1379.6000000238419]","1","0","1","","","","","","","",""
"pit-trial","34","365196","0.0-2.0-8.2-4.2","battery-v0.2","","""event"",""trial"",""time""
""fullscreenenter"",""1"",""2609""
","
","
","""event"",""trial"",""time""
""fullscreenenter"",""1"",""2609""
","
","","","468.80000001192093","","","21","9607","4294","&#9776;","elianto","#3366ff99"," "," ","1","+10","[1324.800000011921]","1","0","1","","","","","","","",""
"call-function","35","365199","0.0-2.0-9.0","battery-v0.2","","""event"",""trial"",""time""
""fullscreenenter"",""1"",""2609""
","
","
","""event"",""trial"",""time""
""fullscreenenter"",""1"",""2609""
","
","","","","","","","","","","","","","","","","","","","","","","","","","","",""
"pit-instructions","36","404952","0.0-2.0-10.0","battery-v0.2","","""event"",""trial"",""time""
""fullscreenenter"",""1"",""2609""
","
","
","""event"",""trial"",""time""
""fullscreenenter"",""1"",""2609""
","
","","[{""page_index"":0,""viewing_time"":6458.4000000059605},{""page_index"":1,""viewing_time"":7208.4000000059605},{""page_index"":2,""viewing_time"":9741.40000000596},{""page_index"":3,""viewing_time"":9032.5},{""page_index"":4,""viewing_time"":7309.9000000059605}]","39751.20000001788","","","","","","","","","","","","","","","","","","","","","","","",""
"pit-trial","37","408388","0.0-2.0-11.0-0.0","battery-v0.2","","""event"",""trial"",""time""
""fullscreenenter"",""1"",""2609""
","
","
","""event"",""trial"",""time""
""fullscreenenter"",""1"",""2609""
","
","","","571.6999999880791","","","21","9607","4294","&#9761;","elianto","#3366ff99","-1"," ","0","0","[1425.199999988079]","1","0","2","","","","","","","",""
"pit-trial","38","411654","0.0-2.0-11.0-1.0","battery-v0.2","","""event"",""trial"",""time""
""fullscreenenter"",""1"",""2609""
","
","
","""event"",""trial"",""time""
""fullscreenenter"",""1"",""2609""
","
","","","399","","","21","9607","4294","&#9761;","elianto","#3366ff99","-1"," ","0","0","[1255.2999999821186]","1","0","2","","","","","","","",""
"pit-trial","39","414896","0.0-2.0-11.0-2.0","battery-v0.2","","""event"",""trial"",""time""
""fullscreenenter"",""1"",""2609""
","
","
","""event"",""trial"",""time""
""fullscreenenter"",""1"",""2609""
","
","","","371.59999999403954","","","21","9607","4294","&#9761;","elianto","#3366ff99","-1"," ","0","0","[1227.800000011921]","1","0","2","","","","","","","",""
"pit-trial","40","418142","0.0-2.0-11.0-3.0","battery-v0.2","","""event"",""trial"",""time""
""fullscreenenter"",""1"",""2609""
","
","
","""event"",""trial"",""time""
""fullscreenenter"",""1"",""2609""
","
","","","379.5","","","21","9607","4294","&#9761;","elianto","#3366ff99","-1"," ","0","+10","[1236.4000000059605]","1","0","2","","","","","","","",""
"pit-trial","41","421280","0.0-2.0-11.0-4.0","battery-v0.2","","""event"",""trial"",""time""
""fullscreenenter"",""1"",""2609""
","
","
","""event"",""trial"",""time""
""fullscreenenter"",""1"",""2609""
","
","","","273.59999999403954","","","21","9607","4294","&#9761;","elianto","#3366ff99","-1"," ","0","0","[1125.7000000178814]","1","0","2","","","","","","","",""
"pit-trial","42","424365","0.0-2.0-11.1-0.1","battery-v0.2","","""event"",""trial"",""time""
""fullscreenenter"",""1"",""2609""
","
","
","""event"",""trial"",""time""
""fullscreenenter"",""1"",""2609""
","
","","","216.80000001192093","","","21","9607","4294","&#9761;","elianto","#3366ff99","-1"," ","0","0","[1074.5999999940395]","1","0","2","","","","","","","",""
"pit-trial","43","427668","0.0-2.0-11.1-1.1","battery-v0.2","","""event"",""trial"",""time""
""fullscreenenter"",""1"",""2609""
","
","
","""event"",""trial"",""time""
""fullscreenenter"",""1"",""2609""
","
","","","438.30000001192093","","","21","9607","4294","&#9761;","elianto","#3366ff99","-1"," ","0","0","[1295.2000000178814]","1","0","2","","","","","","","",""
"pit-trial","44","432533","0.0-2.0-11.1-2.1","battery-v0.2","","""event"",""trial"",""time""
""fullscreenenter"",""1"",""2609""
","
","
","""event"",""trial"",""time""
""fullscreenenter"",""1"",""2609""
","
","","","-1","","","21","9607","4294","&#9761;","elianto","#3366ff99","-1","-1","1","+10","[]","0","0","2","","","","","","","",""
"pit-trial","45","437400","0.0-2.0-11.1-3.1","battery-v0.2","","""event"",""trial"",""time""
""fullscreenenter"",""1"",""2609""
","
","
","""event"",""trial"",""time""
""fullscreenenter"",""1"",""2609""
","
","","","-1","","","21","9607","4294","&#9761;","elianto","#3366ff99","-1","-1","1","0","[]","0","0","2","","","","","","","",""
"pit-trial","46","442270","0.0-2.0-11.1-4.1","battery-v0.2","","""event"",""trial"",""time""
""fullscreenenter"",""1"",""2609""
","
","
","""event"",""trial"",""time""
""fullscreenenter"",""1"",""2609""
","
","","","-1","","","21","9607","4294","&#9761;","elianto","#3366ff99","-1","-1","1","+10","[]","0","0","2","","","","","","","",""
"pit-trial","47","447135","0.0-2.0-11.2-0.2","battery-v0.2","","""event"",""trial"",""time""
""fullscreenenter"",""1"",""2609""
","
","
","""event"",""trial"",""time""
""fullscreenenter"",""1"",""2609""
","
","","","-1","","","21","9607","4294","&#9761;","elianto","#3366ff99","-1","-1","1","+10","[]","0","0","2","","","","","","","",""
"pit-trial","48","452000","0.0-2.0-11.2-1.2","battery-v0.2","","""event"",""trial"",""time""
""fullscreenenter"",""1"",""2609""
","
","
","""event"",""trial"",""time""
""fullscreenenter"",""1"",""2609""
","
","","","-1","","","21","9607","4294","&#9761;","elianto","#3366ff99","-1","-1","1","+10","[]","0","0","2","","","","","","","",""
"pit-trial","49","456864","0.0-2.0-11.2-2.2","battery-v0.2","","""event"",""trial"",""time""
""fullscreenenter"",""1"",""2609""
","
","
","""event"",""trial"",""time""
""fullscreenenter"",""1"",""2609""
","
","","","-1","","","21","9607","4294","&#9761;","elianto","#3366ff99","-1","-1","1","+10","[]","0","0","2","","","","","","","",""
"pit-trial","50","461734","0.0-2.0-11.2-3.2","battery-v0.2","","""event"",""trial"",""time""
""fullscreenenter"",""1"",""2609""
","
","
","""event"",""trial"",""time""
""fullscreenenter"",""1"",""2609""
","
","","","-1","","","21","9607","4294","&#9761;","elianto","#3366ff99","-1","-1","1","0","[]","0","0","2","","","","","","","",""
"pit-trial","51","466599","0.0-2.0-11.2-4.2","battery-v0.2","","""event"",""trial"",""time""
""fullscreenenter"",""1"",""2609""
","
","
","""event"",""trial"",""time""
""fullscreenenter"",""1"",""2609""
","
","","","-1","","","21","9607","4294","&#9761;","elianto","#3366ff99","-1","-1","1","+10","[]","0","0","2","","","","","","","",""
"pit-trial","52","471464","0.0-2.0-11.3-0.3","battery-v0.2","","""event"",""trial"",""time""
""fullscreenenter"",""1"",""2609""
","
","
","""event"",""trial"",""time""
""fullscreenenter"",""1"",""2609""
","
","","","-1","","","21","9607","4294","&#9761;","elianto","#3366ff99","-1","-1","1","+10","[]","0","0","2","","","","","","","",""
"pit-trial","53","476328","0.0-2.0-11.3-1.3","battery-v0.2","","""event"",""trial"",""time""
""fullscreenenter"",""1"",""2609""
","
","
","""event"",""trial"",""time""
""fullscreenenter"",""1"",""2609""
","
","","","-1","","","21","9607","4294","&#9761;","elianto","#3366ff99","-1","-1","1","+10","[]","0","0","2","","","","","","","",""
"pit-trial","54","481193","0.0-2.0-11.3-2.3","battery-v0.2","","""event"",""trial"",""time""
""fullscreenenter"",""1"",""2609""
","
","
","""event"",""trial"",""time""
""fullscreenenter"",""1"",""2609""
","
","","","-1","","","21","9607","4294","&#9761;","elianto","#3366ff99","-1","-1","1","+10","[]","0","0","2","","","","","","","",""
"pit-trial","55","486064","0.0-2.0-11.3-3.3","battery-v0.2","","""event"",""trial"",""time""
""fullscreenenter"",""1"",""2609""
","
","
","""event"",""trial"",""time""
""fullscreenenter"",""1"",""2609""
","
","","","-1","","","21","9607","4294","&#9761;","elianto","#3366ff99","-1","-1","1","0","[]","0","0","2","","","","","","","",""
"pit-trial","56","490089","0.0-2.0-11.3-4.3","battery-v0.2","","""event"",""trial"",""time""
""fullscreenenter"",""1"",""2609""
","
","
","""event"",""trial"",""time""
""fullscreenenter"",""1"",""2609""
","
","","","1161.5999999940395","","","21","9607","4294","&#9761;","elianto","#3366ff99","-1"," ","0","0","[2012.4000000059605]","1","0","2","","","","","","","",""
"call-function","57","490092","0.0-2.0-12.0","battery-v0.2","","""event"",""trial"",""time""
""fullscreenenter"",""1"",""2609""
","
","
","""event"",""trial"",""time""
""fullscreenenter"",""1"",""2609""
","
","","","","","","","","","","","","","","","","","","","","","","","","","","",""
"pit-instructions","58","520772","0.0-2.0-13.0","battery-v0.2","","""event"",""trial"",""time""
""fullscreenenter"",""1"",""2609""
","
","
","""event"",""trial"",""time""
""fullscreenenter"",""1"",""2609""
","
","","[{""page_index"":0,""viewing_time"":4916.5999999940395},{""page_index"":1,""viewing_time"":7321.699999988079},{""page_index"":2,""viewing_time"":3141.100000023842},{""page_index"":3,""viewing_time"":10308.299999982119},{""page_index"":4,""viewing_time"":4990.200000017881}]","30678.40000000596","","","","","","","","","","","","","","","","","","","","","","","",""
"pit-trial","59","524207","0.0-2.0-14.0-0.0","battery-v0.2","","""event"",""trial"",""time""
""fullscreenenter"",""1"",""2609""
","
","
","""event"",""trial"",""time""
""fullscreenenter"",""1"",""2609""
","
","","","561.6999999880791","","","21","9607","4294","&#9826;","elianto","#f73b6a7A","-1"," ","0","-10","[1422.5999999940395]","1","0","3","","","","","","","",""
"pit-trial","60","529072","0.0-2.0-14.0-1.0","battery-v0.2","","""event"",""trial"",""time""
""fullscreenenter"",""1"",""2609""
","
","
","""event"",""trial"",""time""
""fullscreenenter"",""1"",""2609""
","
","","","-1","","","21","9607","4294","&#9826;","elianto","#f73b6a7A","-1","-1","1","0","[]","0","0","3","","","","","","","",""
"pit-trial","61","533936","0.0-2.0-14.0-2.0","battery-v0.2","","""event"",""trial"",""time""
""fullscreenenter"",""1"",""2609""
","
","
","""event"",""trial"",""time""
""fullscreenenter"",""1"",""2609""
","
","","","-1","","","21","9607","4294","&#9826;","elianto","#f73b6a7A","-1","-1","1","0","[]","0","0","3","","","","","","","",""
"pit-trial","62","538801","0.0-2.0-14.0-3.0","battery-v0.2","","""event"",""trial"",""time""
""fullscreenenter"",""1"",""2609""
","
","
","""event"",""trial"",""time""
""fullscreenenter"",""1"",""2609""
","
","","","-1","","","21","9607","4294","&#9826;","elianto","#f73b6a7A","-1","-1","1","-10","[]","0","0","3","","","","","","","",""
"pit-trial","63","543665","0.0-2.0-14.0-4.0","battery-v0.2","","""event"",""trial"",""time""
""fullscreenenter"",""1"",""2609""
","
","
","""event"",""trial"",""time""
""fullscreenenter"",""1"",""2609""
","
","","","-1","","","21","9607","4294","&#9826;","elianto","#f73b6a7A","-1","-1","1","0","[]","0","0","3","","","","","","","",""
"pit-trial","64","548536","0.0-2.0-14.1-0.1","battery-v0.2","","""event"",""trial"",""time""
""fullscreenenter"",""1"",""2609""
","
","
","""event"",""trial"",""time""
""fullscreenenter"",""1"",""2609""
","
","","","-1","","","21","9607","4294","&#9826;","elianto","#f73b6a7A","-1","-1","1","0","[]","0","0","3","","","","","","","",""
"pit-trial","65","553404","0.0-2.0-14.1-1.1","battery-v0.2","","""event"",""trial"",""time""
""fullscreenenter"",""1"",""2609""
","
","
","""event"",""trial"",""time""
""fullscreenenter"",""1"",""2609""
","
","","","-1","","","21","9607","4294","&#9826;","elianto","#f73b6a7A","-1","-1","1","0","[]","0","0","3","","","","","","","",""
"pit-trial","66","558274","0.0-2.0-14.1-2.1","battery-v0.2","","""event"",""trial"",""time""
""fullscreenenter"",""1"",""2609""
","
","
","""event"",""trial"",""time""
""fullscreenenter"",""1"",""2609""
","
","","","-1","","","21","9607","4294","&#9826;","elianto","#f73b6a7A","-1","-1","1","0","[]","0","0","3","","","","","","","",""
"pit-trial","67","563139","0.0-2.0-14.1-3.1","battery-v0.2","","""event"",""trial"",""time""
""fullscreenenter"",""1"",""2609""
","
","
","""event"",""trial"",""time""
""fullscreenenter"",""1"",""2609""
","
","","","-1","","","21","9607","4294","&#9826;","elianto","#f73b6a7A","-1","-1","1","-10","[]","0","0","3","","","","","","","",""
"pit-trial","68","568009","0.0-2.0-14.1-4.1","battery-v0.2","","""event"",""trial"",""time""
""fullscreenenter"",""1"",""2609""
","
","
","""event"",""trial"",""time""
""fullscreenenter"",""1"",""2609""
","
","","","-1","","","21","9607","4294","&#9826;","elianto","#f73b6a7A","-1","-1","1","0","[]","0","0","3","","","","","","","",""
"pit-trial","69","572873","0.0-2.0-14.2-0.2","battery-v0.2","","""event"",""trial"",""time""
""fullscreenenter"",""1"",""2609""
","
","
","""event"",""trial"",""time""
""fullscreenenter"",""1"",""2609""
","
","","","-1","","","21","9607","4294","&#9826;","elianto","#f73b6a7A","-1","-1","1","0","[]","0","0","3","","","","","","","",""
"pit-trial","70","577739","0.0-2.0-14.2-1.2","battery-v0.2","","""event"",""trial"",""time""
""fullscreenenter"",""1"",""2609""
","
","
","""event"",""trial"",""time""
""fullscreenenter"",""1"",""2609""
","
","","","-1","","","21","9607","4294","&#9826;","elianto","#f73b6a7A","-1","-1","1","0","[]","0","0","3","","","","","","","",""
"pit-trial","71","582609","0.0-2.0-14.2-2.2","battery-v0.2","","""event"",""trial"",""time""
""fullscreenenter"",""1"",""2609""
","
","
","""event"",""trial"",""time""
""fullscreenenter"",""1"",""2609""
","
","","","-1","","","21","9607","4294","&#9826;","elianto","#f73b6a7A","-1","-1","1","0","[]","0","0","3","","","","","","","",""
"pit-trial","72","587474","0.0-2.0-14.2-3.2","battery-v0.2","","""event"",""trial"",""time""
""fullscreenenter"",""1"",""2609""
","
","
","""event"",""trial"",""time""
""fullscreenenter"",""1"",""2609""
","
","","","-1","","","21","9607","4294","&#9826;","elianto","#f73b6a7A","-1","-1","1","-10","[]","0","0","3","","","","","","","",""
"pit-trial","73","592337","0.0-2.0-14.2-4.2","battery-v0.2","","""event"",""trial"",""time""
""fullscreenenter"",""1"",""2609""
","
","
","""event"",""trial"",""time""
""fullscreenenter"",""1"",""2609""
","
","","","-1","","","21","9607","4294","&#9826;","elianto","#f73b6a7A","-1","-1","1","0","[]","0","0","3","","","","","","","",""
"pit-trial","74","597203","0.0-2.0-14.3-0.3","battery-v0.2","","""event"",""trial"",""time""
""fullscreenenter"",""1"",""2609""
","
","
","""event"",""trial"",""time""
""fullscreenenter"",""1"",""2609""
","
","","","-1","","","21","9607","4294","&#9826;","elianto","#f73b6a7A","-1","-1","1","0","[]","0","0","3","","","","","","","",""
"pit-trial","75","602073","0.0-2.0-14.3-1.3","battery-v0.2","","""event"",""trial"",""time""
""fullscreenenter"",""1"",""2609""
","
","
","""event"",""trial"",""time""
""fullscreenenter"",""1"",""2609""
","
","","","-1","","","21","9607","4294","&#9826;","elianto","#f73b6a7A","-1","-1","1","0","[]","0","0","3","","","","","","","",""
"pit-trial","76","606938","0.0-2.0-14.3-2.3","battery-v0.2","","""event"",""trial"",""time""
""fullscreenenter"",""1"",""2609""
","
","
","""event"",""trial"",""time""
""fullscreenenter"",""1"",""2609""
","
","","","-1","","","21","9607","4294","&#9826;","elianto","#f73b6a7A","-1","-1","1","0","[]","0","0","3","","","","","","","",""
"pit-trial","77","611804","0.0-2.0-14.3-3.3","battery-v0.2","","""event"",""trial"",""time""
""fullscreenenter"",""1"",""2609""
","
","
","""event"",""trial"",""time""
""fullscreenenter"",""1"",""2609""
","
","","","-1","","","21","9607","4294","&#9826;","elianto","#f73b6a7A","-1","-1","1","-10","[]","0","0","3","","","","","","","",""
"pit-trial","78","616674","0.0-2.0-14.3-4.3","battery-v0.2","","""event"",""trial"",""time""
""fullscreenenter"",""1"",""2609""
","
","
","""event"",""trial"",""time""
""fullscreenenter"",""1"",""2609""
","
","","","-1","","","21","9607","4294","&#9826;","elianto","#f73b6a7A","-1","-1","1","0","[]","0","0","3","","","","","","","",""
"call-function","79","616677","0.0-2.0-15.0","battery-v0.2","","""event"",""trial"",""time""
""fullscreenenter"",""1"",""2609""
","
","
","""event"",""trial"",""time""
""fullscreenenter"",""1"",""2609""
","
","","","","","","","","","","","","","","","","","","","","","","","","","","",""
"pit-instructions","80","645086","0.0-2.0-16.0","battery-v0.2","","""event"",""trial"",""time""
""fullscreenenter"",""1"",""2609""
","
","
","""event"",""trial"",""time""
""fullscreenenter"",""1"",""2609""
","
","","[{""page_index"":0,""viewing_time"":8313.300000011921},{""page_index"":1,""viewing_time"":9623.5},{""page_index"":2,""viewing_time"":4511.5},{""page_index"":3,""viewing_time"":5959.799999982119}]","28408.5","","","","","","","","","","","","","","","","","","","","","","","",""
"pit-trial","81","648550","0.0-2.0-17.0-0.0","battery-v0.2","","""event"",""trial"",""time""
""fullscreenenter"",""1"",""2609""
","
","
","""event"",""trial"",""time""
""fullscreenenter"",""1"",""2609""
","
","","","590.1999999880791","","","21","9607","4294","&#9789;","elianto","#f73b6a7A"," "," ","1","0","[1448.0999999940395]","1","0","4","","","","","","","",""
"pit-trial","82","651860","0.0-2.0-17.0-1.0","battery-v0.2","","""event"",""trial"",""time""
""fullscreenenter"",""1"",""2609""
","
","
","""event"",""trial"",""time""
""fullscreenenter"",""1"",""2609""
","
","","","443.10000002384186","","","21","9607","4294","&#9789;","elianto","#f73b6a7A"," "," ","1","0","[1300.800000011921]","1","0","4","","","","","","","",""
"pit-trial","83","655110","0.0-2.0-17.0-2.0","battery-v0.2","","""event"",""trial"",""time""
""fullscreenenter"",""1"",""2609""
","
","
","""event"",""trial"",""time""
""fullscreenenter"",""1"",""2609""
","
","","","385.60000002384186","","","21","9607","4294","&#9789;","elianto","#f73b6a7A"," "," ","1","0","[1240.4000000059605]","1","0","4","","","","","","","",""
"pit-trial","84","658477","0.0-2.0-17.0-3.0","battery-v0.2","","""event"",""trial"",""time""
""fullscreenenter"",""1"",""2609""
","
","
","""event"",""trial"",""time""
""fullscreenenter"",""1"",""2609""
","
","","","501.09999999403954","","","21","9607","4294","&#9789;","elianto","#f73b6a7A"," "," ","1","-10","[1358]","1","0","4","","","","","","","",""
"pit-trial","85","661647","0.0-2.0-17.0-4.0","battery-v0.2","","""event"",""trial"",""time""
""fullscreenenter"",""1"",""2609""
","
","
","""event"",""trial"",""time""
""fullscreenenter"",""1"",""2609""
","
","","","297.7000000178814","","","21","9607","4294","&#9789;","elianto","#f73b6a7A"," "," ","1","0","[1154.300000011921]","1","0","4","","","","","","","",""
"pit-trial","86","664862","0.0-2.0-17.1-0.1","battery-v0.2","","""event"",""trial"",""time""
""fullscreenenter"",""1"",""2609""
","
","
","""event"",""trial"",""time""
""fullscreenenter"",""1"",""2609""
","
","","","348","","","21","9607","4294","&#9789;","elianto","#f73b6a7A"," "," ","1","0","[1200]","1","0","4","","","","","","","",""
"pit-trial","87","668218","0.0-2.0-17.1-1.1","battery-v0.2","","""event"",""trial"",""time""
""fullscreenenter"",""1"",""2609""
","
","
","""event"",""trial"",""time""
""fullscreenenter"",""1"",""2609""
","
","","","489.60000002384186","","","21","9607","4294","&#9789;","elianto","#f73b6a7A"," "," ","1","0","[1345.1000000238419]","1","0","4","","","","","","","",""
"pit-trial","88","671620","0.0-2.0-17.1-2.1","battery-v0.2","","""event"",""trial"",""time""
""fullscreenenter"",""1"",""2609""
","
","
","""event"",""trial"",""time""
""fullscreenenter"",""1"",""2609""
","
","","","536.7000000178814","","","21","9607","4294","&#9789;","elianto","#f73b6a7A"," "," ","1","0","[1392.800000011921]","1","0","4","","","","","","","",""
"pit-trial","89","674860","0.0-2.0-17.1-3.1","battery-v0.2","","""event"",""trial"",""time""
""fullscreenenter"",""1"",""2609""
","
","
","""event"",""trial"",""time""
""fullscreenenter"",""1"",""2609""
","
","","","373.5","","","21","9607","4294","&#9789;","elianto","#f73b6a7A"," "," ","1","-10","[1230.9000000059605]","1","0","4","","","","","","","",""
"pit-trial","90","677949","0.0-2.0-17.1-4.1","battery-v0.2","","""event"",""trial"",""time""
""fullscreenenter"",""1"",""2609""
","
","
","""event"",""trial"",""time""
""fullscreenenter"",""1"",""2609""
","
","","","228.7000000178814","","","21","9607","4294","&#9789;","elianto","#f73b6a7A"," "," ","1","0","[1081.2000000178814]","1","0","4","","","","","","","",""
"pit-trial","91","681078","0.0-2.0-17.2-0.2","battery-v0.2","","""event"",""trial"",""time""
""fullscreenenter"",""1"",""2609""
","
","
","""event"",""trial"",""time""
""fullscreenenter"",""1"",""2609""
","
","","","259.2000000178814","","","21","9607","4294","&#9789;","elianto","#f73b6a7A"," "," ","1","0","[1120.800000011921]","1","0","4","","","","","","","",""
"pit-trial","92","684462","0.0-2.0-17.2-1.2","battery-v0.2","","""event"",""trial"",""time""
""fullscreenenter"",""1"",""2609""
","
","
","""event"",""trial"",""time""
""fullscreenenter"",""1"",""2609""
","
","","","520.0999999940395","","","21","9607","4294","&#9789;","elianto","#f73b6a7A"," "," ","1","0","[1370.199999988079]","1","0","4","","","","","","","",""
"pit-trial","93","687542","0.0-2.0-17.2-2.2","battery-v0.2","","""event"",""trial"",""time""
""fullscreenenter"",""1"",""2609""
","
","
","""event"",""trial"",""time""
""fullscreenenter"",""1"",""2609""
","
","","","214.59999999403954","","","21","9607","4294","&#9789;","elianto","#f73b6a7A"," "," ","1","0","[1066.199999988079]","1","0","4","","","","","","","",""
"pit-trial","94","690610","0.0-2.0-17.2-3.2","battery-v0.2","","""event"",""trial"",""time""
""fullscreenenter"",""1"",""2609""
","
","
","""event"",""trial"",""time""
""fullscreenenter"",""1"",""2609""
","
","","","206.09999999403954","","","21","9607","4294","&#9789;","elianto","#f73b6a7A"," "," ","1","-10","[1062.5999999940395]","1","0","4","","","","","","","",""
"pit-trial","95","694019","0.0-2.0-17.2-4.2","battery-v0.2","","""event"",""trial"",""time""
""fullscreenenter"",""1"",""2609""
","
","
","""event"",""trial"",""time""
""fullscreenenter"",""1"",""2609""
","
","","","547.8000000119209","","","21","9607","4294","&#9789;","elianto","#f73b6a7A"," "," ","1","0","[1398.5]","1","0","4","","","","","","","",""
"pit-trial","96","697582","0.0-2.0-17.3-0.3","battery-v0.2","","""event"",""trial"",""time""
""fullscreenenter"",""1"",""2609""
","
","
","""event"",""trial"",""time""
""fullscreenenter"",""1"",""2609""
","
","","","693.6999999880791","","","21","9607","4294","&#9789;","elianto","#f73b6a7A"," "," ","1","0","[1548.300000011921]","1","0","4","","","","","","","",""
"pit-trial","97","700740","0.0-2.0-17.3-1.3","battery-v0.2","","""event"",""trial"",""time""
""fullscreenenter"",""1"",""2609""
","
","
","""event"",""trial"",""time""
""fullscreenenter"",""1"",""2609""
","
","","","289.5","","","21","9607","4294","&#9789;","elianto","#f73b6a7A"," "," ","1","0","[1150.699999988079]","1","0","4","","","","","","","",""
"pit-trial","98","703852","0.0-2.0-17.3-2.3","battery-v0.2","","""event"",""trial"",""time""
""fullscreenenter"",""1"",""2609""
","
","
","""event"",""trial"",""time""
""fullscreenenter"",""1"",""2609""
","
","","","246.7000000178814","","","21","9607","4294","&#9789;","elianto","#f73b6a7A"," "," ","1","0","[1101.5]","1","0","4","","","","","","","",""
"pit-trial","99","707167","0.0-2.0-17.3-3.3","battery-v0.2","","""event"",""trial"",""time""
""fullscreenenter"",""1"",""2609""
","
","
","""event"",""trial"",""time""
""fullscreenenter"",""1"",""2609""
","
","","","451.09999999403954","","","21","9607","4294","&#9789;","elianto","#f73b6a7A"," "," ","1","-10","[1307.199999988079]","1","0","4","","","","","","","",""
"pit-trial","100","710133","0.0-2.0-17.3-4.3","battery-v0.2","","""event"",""trial"",""time""
""fullscreenenter"",""1"",""2609""
","
","
","""event"",""trial"",""time""
""fullscreenenter"",""1"",""2609""
","
","","","92.40000000596046","","","21","9607","4294","&#9789;","elianto","#f73b6a7A"," "," ","1","0","[953.0999999940395]","1","0","4","","","","","","","",""
"call-function","101","710136","0.0-2.0-18.0","battery-v0.2","","""event"",""trial"",""time""
""fullscreenenter"",""1"",""2609""
","
","
","""event"",""trial"",""time""
""fullscreenenter"",""1"",""2609""
","
","","","","","","","","","","","","","","","","","","","","","","","","","","",""
"pit-instructions","102","793609","0.0-2.0-19.0","battery-v0.2","","""event"",""trial"",""time""
""fullscreenenter"",""1"",""2609""
","
","
","""event"",""trial"",""time""
""fullscreenenter"",""1"",""2609""
","
","","[{""page_index"":0,""viewing_time"":6994.5999999940395},{""page_index"":1,""viewing_time"":7211.0999999940395},{""page_index"":2,""viewing_time"":24168.70000001788},{""page_index"":3,""viewing_time"":7396.699999988079},{""page_index"":4,""viewing_time"":8919},{""page_index"":5,""viewing_time"":8358.699999988079},{""page_index"":6,""viewing_time"":8619.5},{""page_index"":7,""viewing_time"":7163.600000023842},{""page_index"":8,""viewing_time"":4637.899999976158}]","83470.5","","","","","","","","","","","","","","","","","","","","","","","",""
"pit-comprehension","103","798298","0.0-2.0-20.0-0.0","battery-v0.2","","""event"",""trial"",""time""
""fullscreenenter"",""1"",""2609""
","
","
","""event"",""trial"",""time""
""fullscreenenter"",""1"",""2609""
","
","","","4682.100000023842","[""SPACE""]","0","21","9607","4294","","","","","","","","","","","","","","","","","","",""
"pit-instructions","104","800988","0.0-2.0-20.0-1.0","battery-v0.2","","""event"",""trial"",""time""
""fullscreenenter"",""1"",""2609""
","
","
","""event"",""trial"",""time""
""fullscreenenter"",""1"",""2609""
","
","","[{""page_index"":0,""viewing_time"":2647.100000023842}]","2647.600000023842","","","","","","","","","","","","","","","","","","","","","","","",""
"pit-comprehension","105","807680","0.0-2.0-21.0-0.0","battery-v0.2","","""event"",""trial"",""time""
""fullscreenenter"",""1"",""2609""
","
","
","""event"",""trial"",""time""
""fullscreenenter"",""1"",""2609""
","
","","","6686.699999988079","[""10""]","0","21","9607","4294","","","","","","","","","","","","","","","","","","",""
"pit-instructions","106","811551","0.0-2.0-21.0-1.0","battery-v0.2","","""event"",""trial"",""time""
""fullscreenenter"",""1"",""2609""
","
","
","""event"",""trial"",""time""
""fullscreenenter"",""1"",""2609""
","
","","[{""page_index"":0,""viewing_time"":3831.5999999940395}]","3831.9000000059605","","","","","","","","","","","","","","","","","","","","","","","",""
"pit-comprehension","107","818725","0.0-2.0-22.0-0.0","battery-v0.2","","""event"",""trial"",""time""
""fullscreenenter"",""1"",""2609""
","
","
","""event"",""trial"",""time""
""fullscreenenter"",""1"",""2609""
","
","","","7166.0999999940395","[""0""]","0","21","9607","4294","","","","","","","","","","","","","","","","","","",""
"pit-instructions","108","821055","0.0-2.0-22.0-1.0","battery-v0.2","","""event"",""trial"",""time""
""fullscreenenter"",""1"",""2609""
","
","
","""event"",""trial"",""time""
""fullscreenenter"",""1"",""2609""
","
","","[{""page_index"":0,""viewing_time"":2285.5999999940395}]","2285.9000000059605","","","","","","","","","","","","","","","","","","","","","","","",""
"pit-comprehension","109","833342","0.0-2.0-23.0-0.0","battery-v0.2","","""event"",""trial"",""time""
""fullscreenenter"",""1"",""2609""
","
","
","""event"",""trial"",""time""
""fullscreenenter"",""1"",""2609""
","
","","","12280.90000000596","[""True""]","0","21","9607","4294","","","","","","","","","","","","","","","","","","",""
"pit-instructions","110","835087","0.0-2.0-23.0-1.0","battery-v0.2","","""event"",""trial"",""time""
""fullscreenenter"",""1"",""2609""
","
","
","""event"",""trial"",""time""
""fullscreenenter"",""1"",""2609""
","
","","[{""page_index"":0,""viewing_time"":1700.4000000059605}]","1700.9000000059605","","","","","","","","","","","","","","","","","","","","","","","",""
"pit-comprehension","111","850957","0.0-2.0-24.0-0.0","battery-v0.2","","""event"",""trial"",""time""
""fullscreenenter"",""1"",""2609""
","
","
","""event"",""trial"",""time""
""fullscreenenter"",""1"",""2609""
","
","","","15863.299999982119","[""True""]","0","21","9607","4294","","","","","","","","","","","","","","","","","","",""
"pit-instructions","112","852749","0.0-2.0-24.0-1.0","battery-v0.2","","""event"",""trial"",""time""
""fullscreenenter"",""1"",""2609""
","
","
","""event"",""trial"",""time""
""fullscreenenter"",""1"",""2609""
","
","","[{""page_index"":0,""viewing_time"":1746.199999988079}]","1746.7999999821186","","","","","","","","","","","","","","","","","","","","","","","",""
"pit-comprehension","113","859855","0.0-2.0-25.0-0.0","battery-v0.2","","""event"",""trial"",""time""
""fullscreenenter"",""1"",""2609""
","
","
","""event"",""trial"",""time""
""fullscreenenter"",""1"",""2609""
","
","","","7101","[""True""]","0","21","9607","4294","","","","","","","","","","","","","","","","","","",""
"pit-instructions","114","864458","0.0-2.0-25.0-1.0","battery-v0.2","","""event"",""trial"",""time""
""fullscreenenter"",""1"",""2609""
","
","
","""event"",""trial"",""time""
""fullscreenenter"",""1"",""2609""
","
","","[{""page_index"":0,""viewing_time"":4548.100000023842}]","4548.5","","","","","","","","","","","","","","","","","","","","","","","",""
"pit-comprehension","115","871827","0.0-2.0-26.0-0.0","battery-v0.2","","""event"",""trial"",""time""
""fullscreenenter"",""1"",""2609""
","
","
","""event"",""trial"",""time""
""fullscreenenter"",""1"",""2609""
","
","","","7361.5","[""False""]","0","21","9607","4294","","","","","","","","","","","","","","","","","","",""
"pit-instructions","116","874906","0.0-2.0-26.0-1.0","battery-v0.2","","""event"",""trial"",""time""
""fullscreenenter"",""1"",""2609""
","
","
","""event"",""trial"",""time""
""fullscreenenter"",""1"",""2609""
","
","","[{""page_index"":0,""viewing_time"":3036.5999999940395}]","3038.0999999940395","","","","","","","","","","","","","","","","","","","","","","","",""
"pit-instructions","117","903982","0.0-3.0","battery-v0.2","","""event"",""trial"",""time""
""fullscreenenter"",""1"",""2609""
","
","
","""event"",""trial"",""time""
""fullscreenenter"",""1"",""2609""
","
","","[{""page_index"":0,""viewing_time"":15375},{""page_index"":1,""viewing_time"":5687.200000017881},{""page_index"":2,""viewing_time"":8010}]","29072.70000001788","","","","","","","","","","","","","","","","","","","","","","","",""
"pit-trial","118","907385","0.0-4.0","battery-v0.2","","""event"",""trial"",""time""
""fullscreenenter"",""1"",""2609""
","
","
","""event"",""trial"",""time""
""fullscreenenter"",""1"",""2609""
","
","","","534","","","21","9607","4294","&#9752;","elianto","#f73b6a7A"," "," ","1","0","[1389.199999988079]","1","1","","","9607","1","3","3","lose","go","0"
"pit-trial","119","911008","0.0-5.0","battery-v0.2","","""event"",""trial"",""time""
""fullscreenenter"",""1"",""2609""
","
","
","""event"",""trial"",""time""
""fullscreenenter"",""1"",""2609""
","
","","","764.4000000059605","","","21","9607","4294","&#9728;","elianto","#f73b6a7A","-1"," ","0","0","[1619.0999999940395]","1","1","","","9607","2","0","4","lose","no-go","1"
"pit-trial","120","914589","0.0-6.0","battery-v0.2","","""event"",""trial"",""time""
""fullscreenenter"",""1"",""2609""
","
","
","""event"",""trial"",""time""
""fullscreenenter"",""1"",""2609""
","
","","","706.2000000178814","","","21","9607","4294","&#9733;","elianto","#3366ff99","-1"," ","0","0","[1567.0999999940395]","1","1","","","9607","3","2","2","win","no-go","0"
"pit-trial","121","918116","0.0-7.0","battery-v0.2","","""event"",""trial"",""time""
""fullscreenenter"",""1"",""2609""
","
","
","""event"",""trial"",""time""
""fullscreenenter"",""1"",""2609""
","
","","","649.5999999940395","","","21","9607","4294","&#9730;","elianto","#3366ff99"," "," ","1","+10","[1513.0999999940395]","1","1","","","9607","4","1","1","win","go","0"
"pit-trial","122","921796","0.0-8.0","battery-v0.2","","""event"",""trial"",""time""
""fullscreenenter"",""1"",""2609""
","
","
","""event"",""trial"",""time""
""fullscreenenter"",""1"",""2609""
","
","","","809.8000000119209","","","21","9607","4294","&#9733;","elianto","#3366ff99","-1"," ","0","0","[1669.199999988079]","1","1","","","9607","5","2","2","win","no-go","0"
"pit-trial","123","925365","0.0-9.0","battery-v0.2","","""event"",""trial"",""time""
""fullscreenenter"",""1"",""2609""
","
","
","""event"",""trial"",""time""
""fullscreenenter"",""1"",""2609""
","
","","","701.7999999821186","","","21","9607","4294","&#9730;","elianto","#3366ff99"," "," ","1","0","[1553.800000011921]","1","1","","","9607","6","1","1","win","go","1"
"pit-trial","124","929011","0.0-10.0","battery-v0.2","","""event"",""trial"",""time""
""fullscreenenter"",""1"",""2609""
","
","
","""event"",""trial"",""time""
""fullscreenenter"",""1"",""2609""
","
","","","788.2999999821186","","","21","9607","4294","&#9752;","elianto","#f73b6a7A"," "," ","1","0","[1639.4000000059605]","1","1","","","9607","7","3","3","lose","go","0"
"pit-trial","125","932697","0.0-11.0","battery-v0.2","","""event"",""trial"",""time""
""fullscreenenter"",""1"",""2609""
","
","
","""event"",""trial"",""time""
""fullscreenenter"",""1"",""2609""
","
","","","828.2999999821186","","","21","9607","4294","&#9728;","elianto","#f73b6a7A","-1"," ","0","-10","[1680.3999999761581]","1","1","","","9607","8","0","4","lose","no-go","0"
"pit-trial","126","936491","0.0-12.0","battery-v0.2","","""event"",""trial"",""time""
""fullscreenenter"",""1"",""2609""
","
","
","""event"",""trial"",""time""
""fullscreenenter"",""1"",""2609""
","
","","","930","","","21","9607","4294","&#9752;","elianto","#f73b6a7A"," "," ","1","0","[1784.699999988079]","1","1","","","9607","9","3","3","lose","go","0"
"pit-trial","127","941354","0.0-13.0","battery-v0.2","","""event"",""trial"",""time""
""fullscreenenter"",""1"",""2609""
","
","
","""event"",""trial"",""time""
""fullscreenenter"",""1"",""2609""
","
","","","-1","","","21","9607","4294","&#9733;","elianto","#3366ff99","-1","-1","1","+10","[]","0","1","","","9607","10","2","2","win","no-go","0"
"pit-trial","128","944659","0.0-14.0","battery-v0.2","","""event"",""trial"",""time""
""fullscreenenter"",""1"",""2609""
","
","
","""event"",""trial"",""time""
""fullscreenenter"",""1"",""2609""
","
","","","439.09999999403954","","","21","9607","4294","&#9730;","elianto","#3366ff99"," "," ","1","+10","[1293.8999999761581]","1","1","","","9607","11","1","1","win","go","0"
"pit-trial","129","948601","0.0-15.0","battery-v0.2","","""event"",""trial"",""time""
""fullscreenenter"",""1"",""2609""
","
","
","""event"",""trial"",""time""
""fullscreenenter"",""1"",""2609""
","
","","","1080.199999988079","","","21","9607","4294","&#9728;","elianto","#f73b6a7A","-1"," ","0","-10","[1933.9000000059605]","1","1","","","9607","12","0","4","lose","no-go","0"
"pit-trial","130","952060","0.0-16.0","battery-v0.2","","""event"",""trial"",""time""
""fullscreenenter"",""1"",""2609""
","
","
","""event"",""trial"",""time""
""fullscreenenter"",""1"",""2609""
","
","","","593.6999999880791","","","21","9607","4294","&#9752;","elianto","#f73b6a7A"," "," ","1","0","[1450.2000000178814]","1","1","","","9607","13","3","3","lose","go","0"
"pit-trial","131","956931","0.0-17.0","battery-v0.2","","""event"",""trial"",""time""
""fullscreenenter"",""1"",""2609""
","
","
","""event"",""trial"",""time""
""fullscreenenter"",""1"",""2609""
","
","","","-1","","","21","9607","4294","&#9728;","elianto","#f73b6a7A","-1","-1","1","-10","[]","0","1","","","9607","14","0","4","lose","no-go","1"
"pit-trial","132","960628","0.0-18.0","battery-v0.2","","""event"",""trial"",""time""
""fullscreenenter"",""1"",""2609""
","
","
","""event"",""trial"",""time""
""fullscreenenter"",""1"",""2609""
","
","","","833.4000000059605","","","21","9607","4294","&#9733;","elianto","#3366ff99","-1"," ","0","0","[1686.9000000059605]","1","1","","","9607","15","2","2","win","no-go","0"
"pit-trial","133","964042","0.0-19.0","battery-v0.2","","""event"",""trial"",""time""
""fullscreenenter"",""1"",""2609""
","
","
","""event"",""trial"",""time""
""fullscreenenter"",""1"",""2609""
","
","","","548.7000000178814","","","21","9607","4294","&#9730;","elianto","#3366ff99"," "," ","1","+10","[1406.300000011921]","1","1","","","9607","16","1","1","win","go","0"
"pit-trial","134","967635","0.0-20.0","battery-v0.2","","""event"",""trial"",""time""
""fullscreenenter"",""1"",""2609""
","
","
","""event"",""trial"",""time""
""fullscreenenter"",""1"",""2609""
","
","","","728.7999999821186","","","21","9607","4294","&#9730;","elianto","#3366ff99"," "," ","1","+10","[1582.7999999821186]","1","1","","","9607","17","1","1","win","go","0"
"pit-trial","135","971066","0.0-21.0","battery-v0.2","","""event"",""trial"",""time""
""fullscreenenter"",""1"",""2609""
","
","
","""event"",""trial"",""time""
""fullscreenenter"",""1"",""2609""
","
","","","567.5","","","21","9607","4294","&#9752;","elianto","#f73b6a7A"," "," ","1","-10","[1420.4000000059605]","1","1","","","9607","18","3","3","lose","go","1"
"pit-trial","136","975931","0.0-22.0","battery-v0.2","","""event"",""trial"",""time""
""fullscreenenter"",""1"",""2609""
","
","
","""event"",""trial"",""time""
""fullscreenenter"",""1"",""2609""
","
","","","-1","","","21","9607","4294","&#9728;","elianto","#f73b6a7A","-1","-1","1","0","[]","0","1","","","9607","19","0","4","lose","no-go","0"
"pit-trial","137","980795","0.0-23.0","battery-v0.2","","""event"",""trial"",""time""
""fullscreenenter"",""1"",""2609""
","
","
","""event"",""trial"",""time""
""fullscreenenter"",""1"",""2609""
","
","","","-1","","","21","9607","4294","&#9733;","elianto","#3366ff99","-1","-1","1","+10","[]","0","1","","","9607","20","2","2","win","no-go","0"
"pit-instructions","138","1023614","0.0-24.0","battery-v0.2","","""event"",""trial"",""time""
""fullscreenenter"",""1"",""2609""
","
","
","""event"",""trial"",""time""
""fullscreenenter"",""1"",""2609""
","
","","[{""page_index"":0,""viewing_time"":35051.59999999404},{""page_index"":1,""viewing_time"":7763}]","42814.90000000596","","","","","","","","","","","","","","","","","","","","","","","",""
"pit-trial","139","1027019","0.0-25.0","battery-v0.2","","""event"",""trial"",""time""
""fullscreenenter"",""1"",""2609""
","
","
","""event"",""trial"",""time""
""fullscreenenter"",""1"",""2609""
","
","","","537.1000000238419","","","21","9607","4294","e","elianto","#f73b6a7A","-1"," ","0","-10","[1391.0999999940395]","1","2","","","9607","21","2","4","lose","no-go","0"
"pit-trial","140","1030375","0.0-26.0","battery-v0.2","","""event"",""trial"",""time""
""fullscreenenter"",""1"",""2609""
","
","
","""event"",""trial"",""time""
""fullscreenenter"",""1"",""2609""
","
","","","479.90000000596046","","","21","9607","4294","d","elianto","#3366ff99"," "," ","1","0","[1347.0999999940395]","1","2","","","9607","22","1","1","win","go","1"
"pit-trial","141","1033907","0.0-27.0","battery-v0.2","","""event"",""trial"",""time""
""fullscreenenter"",""1"",""2609""
","
","
","""event"",""trial"",""time""
""fullscreenenter"",""1"",""2609""
","
","","","662.5999999940395","","","21","9607","4294","j","elianto","#f73b6a7A","-1"," ","0","-10","[1521]","1","2","","","9607","23","0","4","lose","no-go","0"
"pit-trial","142","1037533","0.0-28.0","battery-v0.2","","""event"",""trial"",""time""
""fullscreenenter"",""1"",""2609""
","
","
","""event"",""trial"",""time""
""fullscreenenter"",""1"",""2609""
","
","","","753.1000000238419","","","21","9607","4294","w","elianto","#f73b6a7A"," "," ","1","0","[1618.2000000178814]","1","2","","","9607","24","3","3","lose","go","0"
"pit-trial","143","1041140","0.0-29.0","battery-v0.2","","""event"",""trial"",""time""
""fullscreenenter"",""1"",""2609""
","
","
","""event"",""trial"",""time""
""fullscreenenter"",""1"",""2609""
","
","","","741.8999999761581","","","21","9607","4294","e","elianto","#f73b6a7A","-1"," ","0","-10","[1596.300000011921]","1","2","","","9607","25","2","4","lose","no-go","0"
"pit-trial","144","1045015","0.0-30.0","battery-v0.2","","""event"",""trial"",""time""
""fullscreenenter"",""1"",""2609""
","
","
","""event"",""trial"",""time""
""fullscreenenter"",""1"",""2609""
","
","","","1005.0999999940395","","","21","9607","4294","w","elianto","#f73b6a7A"," "," ","1","-10","[1859.5]","1","2","","","9607","26","3","3","lose","go","1"
"pit-trial","145","1048732","0.0-31.0","battery-v0.2","","""event"",""trial"",""time""
""fullscreenenter"",""1"",""2609""
","
","
","""event"",""trial"",""time""
""fullscreenenter"",""1"",""2609""
","
","","","854.9000000059605","","","21","9607","4294","j","elianto","#f73b6a7A","-1"," ","0","-10","[1705.5]","1","2","","","9607","27","0","4","lose","no-go","0"
"pit-trial","146","1052157","0.0-32.0","battery-v0.2","","""event"",""trial"",""time""
""fullscreenenter"",""1"",""2609""
","
","
","""event"",""trial"",""time""
""fullscreenenter"",""1"",""2609""
","
","","","563.3000000119209","","","21","9607","4294","d","elianto","#3366ff99"," "," ","1","0","[1415.300000011921]","1","2","","","9607","28","1","1","win","go","1"
"pit-trial","147","1057021","0.0-33.0","battery-v0.2","","""event"",""trial"",""time""
""fullscreenenter"",""1"",""2609""
","
","
","""event"",""trial"",""time""
""fullscreenenter"",""1"",""2609""
","
","","","-1","","","21","9607","4294","w","elianto","#f73b6a7A"," ","-1","0","-10","[]","0","2","","","9607","29","3","3","lose","go","0"
"pit-trial","148","1060382","0.0-34.0","battery-v0.2","","""event"",""trial"",""time""
""fullscreenenter"",""1"",""2609""
","
","
","""event"",""trial"",""time""
""fullscreenenter"",""1"",""2609""
","
","","","496.69999998807907","","","21","9607","4294","d","elianto","#3366ff99"," "," ","1","+10","[1352.0999999940395]","1","2","","","9607","30","1","1","win","go","0"
"pit-trial","149","1064167","0.0-35.0","battery-v0.2","","""event"",""trial"",""time""
""fullscreenenter"",""1"",""2609""
","
","
","""event"",""trial"",""time""
""fullscreenenter"",""1"",""2609""
","
","","","914.9000000059605","","","21","9607","4294","e","elianto","#f73b6a7A","-1"," ","0","-10","[1770.800000011921]","1","2","","","9607","31","2","4","lose","no-go","0"
"pit-trial","150","1069036","0.0-36.0","battery-v0.2","","""event"",""trial"",""time""
""fullscreenenter"",""1"",""2609""
","
","
","""event"",""trial"",""time""
""fullscreenenter"",""1"",""2609""
","
","","","-1","","","21","9607","4294","j","elianto","#f73b6a7A","-1","-1","1","0","[]","0","2","","","9607","32","0","4","lose","no-go","0"
"pit-trial","151","1072752","0.0-37.0","battery-v0.2","","""event"",""trial"",""time""
""fullscreenenter"",""1"",""2609""
","
","
","""event"",""trial"",""time""
""fullscreenenter"",""1"",""2609""
","
","","","850.3000000119209","","","21","9607","4294","j","elianto","#f73b6a7A","-1"," ","0","-10","[1701.300000011921]","1","2","","","9607","33","0","4","lose","no-go","0"
"pit-trial","152","1076277","0.0-38.0","battery-v0.2","","""event"",""trial"",""time""
""fullscreenenter"",""1"",""2609""
","
","
","""event"",""trial"",""time""
""fullscreenenter"",""1"",""2609""
","
","","","665.1999999880791","","","21","9607","4294","d","elianto","#3366ff99"," "," ","1","+10","[1515.800000011921]","1","2","","","9607","34","1","1","win","go","0"
"pit-trial","153","1081141","0.0-39.0","battery-v0.2","","""event"",""trial"",""time""
""fullscreenenter"",""1"",""2609""
","
","
","""event"",""trial"",""time""
""fullscreenenter"",""1"",""2609""
","
","","","-1","","","21","9607","4294","e","elianto","#f73b6a7A","-1","-1","1","0","[]","0","2","","","9607","35","2","4","lose","no-go","0"
"pit-trial","154","1086006","0.0-40.0","battery-v0.2","","""event"",""trial"",""time""
""fullscreenenter"",""1"",""2609""
","
","
","""event"",""trial"",""time""
""fullscreenenter"",""1"",""2609""
","
","","","-1","","","21","9607","4294","w","elianto","#f73b6a7A"," ","-1","0","-10","[]","0","2","","","9607","36","3","3","lose","go","0"
"pit-trial","155","1090869","0.0-41.0","battery-v0.2","","""event"",""trial"",""time""
""fullscreenenter"",""1"",""2609""
","
","
","""event"",""trial"",""time""
""fullscreenenter"",""1"",""2609""
","
","","","-1","","","21","9607","4294","j","elianto","#f73b6a7A","-1","-1","1","0","[]","0","2","","","9607","37","0","4","lose","no-go","0"
"pit-trial","156","1094400","0.0-42.0","battery-v0.2","","""event"",""trial"",""time""
""fullscreenenter"",""1"",""2609""
","
","
","""event"",""trial"",""time""
""fullscreenenter"",""1"",""2609""
","
","","","665.2000000178814","","","21","9607","4294","d","elianto","#3366ff99"," "," ","1","+10","[1516.699999988079]","1","2","","","9607","38","1","1","win","go","0"
"pit-trial","157","1097777","0.0-43.0","battery-v0.2","","""event"",""trial"",""time""
""fullscreenenter"",""1"",""2609""
","
","
","""event"",""trial"",""time""
""fullscreenenter"",""1"",""2609""
","
","","","509","","","21","9607","4294","w","elianto","#f73b6a7A"," "," ","1","0","[1361.4000000059605]","1","2","","","9607","39","3","3","lose","go","0"
"pit-trial","158","1102648","0.0-44.0","battery-v0.2","","""event"",""trial"",""time""
""fullscreenenter"",""1"",""2609""
","
","
","""event"",""trial"",""time""
""fullscreenenter"",""1"",""2609""
","
","","","-1","","","21","9607","4294","e","elianto","#f73b6a7A","-1","-1","1","-10","[]","0","2","","","9607","40","2","4","lose","no-go","1"
"pit-trial","159","1107519","0.0-45.0","battery-v0.2","","""event"",""trial"",""time""
""fullscreenenter"",""1"",""2609""
","
","
","""event"",""trial"",""time""
""fullscreenenter"",""1"",""2609""
","
","","","-1","","","21","9607","4294","j","elianto","#f73b6a7A","-1","-1","1","-10","[]","0","2","","","9607","41","0","4","lose","no-go","1"
"pit-trial","160","1111023","0.0-46.0","battery-v0.2","","""event"",""trial"",""time""
""fullscreenenter"",""1"",""2609""
","
","
","""event"",""trial"",""time""
""fullscreenenter"",""1"",""2609""
","
","","","639.4000000059605","","","21","9607","4294","e","elianto","#f73b6a7A","-1"," ","0","-10","[1491.2999999821186]","1","2","","","9607","42","2","4","lose","no-go","0"
"pit-trial","161","1114439","0.0-47.0","battery-v0.2","","""event"",""trial"",""time""
""fullscreenenter"",""1"",""2609""
","
","
","""event"",""trial"",""time""
""fullscreenenter"",""1"",""2609""
","
","","","545.6000000238419","","","21","9607","4294","w","elianto","#f73b6a7A"," "," ","1","-10","[1403.7000000178814]","1","2","","","9607","43","3","3","lose","go","1"
"pit-trial","162","1117816","0.0-48.0","battery-v0.2","","""event"",""trial"",""time""
""fullscreenenter"",""1"",""2609""
","
","
","""event"",""trial"",""time""
""fullscreenenter"",""1"",""2609""
","
","","","510.80000001192093","","","21","9607","4294","d","elianto","#3366ff99"," "," ","1","+10","[1369.1000000238419]","1","2","","","9607","44","1","1","win","go","0"
"pit-trial","163","1122688","0.0-49.0","battery-v0.2","","""event"",""trial"",""time""
""fullscreenenter"",""1"",""2609""
","
","
","""event"",""trial"",""time""
""fullscreenenter"",""1"",""2609""
","
","","","-1","","","21","9607","4294","j","elianto","#f73b6a7A","-1","-1","1","0","[]","0","2","","","9607","45","0","4","lose","no-go","0"
"pit-trial","164","1126264","0.0-50.0","battery-v0.2","","""event"",""trial"",""time""
""fullscreenenter"",""1"",""2609""
","
","
","""event"",""trial"",""time""
""fullscreenenter"",""1"",""2609""
","
","","","707.2999999821186","","","21","9607","4294","s","elianto","#3366ff99","-1"," ","0","+10","[1568.0999999940395]","1","2","","","9607","46","4","2","win","no-go","1"
"pit-trial","165","1130223","0.0-51.0","battery-v0.2","","""event"",""trial"",""time""
""fullscreenenter"",""1"",""2609""
","
","
","""event"",""trial"",""time""
""fullscreenenter"",""1"",""2609""
","
","","","1090.300000011921","","","21","9607","4294","w","elianto","#f73b6a7A"," "," ","1","0","[1945.4000000059605]","1","2","","","9607","47","3","3","lose","go","0"
"pit-trial","166","1135088","0.0-52.0","battery-v0.2","","""event"",""trial"",""time""
""fullscreenenter"",""1"",""2609""
","
","
","""event"",""trial"",""time""
""fullscreenenter"",""1"",""2609""
","
","","","-1","","","21","9607","4294","e","elianto","#f73b6a7A","-1","-1","1","-10","[]","0","2","","","9607","48","2","4","lose","no-go","1"
"pit-trial","167","1138554","0.0-53.0","battery-v0.2","","""event"",""trial"",""time""
""fullscreenenter"",""1"",""2609""
","
","
","""event"",""trial"",""time""
""fullscreenenter"",""1"",""2609""
","
","","","587.8000000119209","","","21","9607","4294","w","elianto","#f73b6a7A"," "," ","1","0","[1453.2000000178814]","1","2","","","9607","49","3","3","lose","go","0"
"pit-trial","168","1142309","0.0-54.0","battery-v0.2","","""event"",""trial"",""time""
""fullscreenenter"",""1"",""2609""
","
","
","""event"",""trial"",""time""
""fullscreenenter"",""1"",""2609""
","
","","","893.7999999821186","","","21","9607","4294","d","elianto","#3366ff99"," "," ","1","0","[1744.5999999940395]","1","2","","","9607","50","1","1","win","go","1"
"pit-trial","169","1147173","0.0-55.0","battery-v0.2","","""event"",""trial"",""time""
""fullscreenenter"",""1"",""2609""
","
","
","""event"",""trial"",""time""
""fullscreenenter"",""1"",""2609""
","
","","","-1","","","21","9607","4294","j","elianto","#f73b6a7A","-1","-1","1","0","[]","0","2","","","9607","51","0","4","lose","no-go","0"
"pit-trial","170","1150854","0.0-56.0","battery-v0.2","","""event"",""trial"",""time""
""fullscreenenter"",""1"",""2609""
","
","
","""event"",""trial"",""time""
""fullscreenenter"",""1"",""2609""
","
","","","816.5","","","21","9607","4294","s","elianto","#3366ff99","-1"," ","0","0","[1673.699999988079]","1","2","","","9607","52","4","2","win","no-go","0"
"pit-trial","171","1154634","0.0-57.0","battery-v0.2","","""event"",""trial"",""time""
""fullscreenenter"",""1"",""2609""
","
","
","""event"",""trial"",""time""
""fullscreenenter"",""1"",""2609""
","
","","","911.4000000059605","","","21","9607","4294","s","elianto","#3366ff99","-1"," ","0","0","[1768.0999999940395]","1","2","","","9607","53","4","2","win","no-go","0"
"pit-trial","172","1159504","0.0-58.0","battery-v0.2","","""event"",""trial"",""time""
""fullscreenenter"",""1"",""2609""
","
","
","""event"",""trial"",""time""
""fullscreenenter"",""1"",""2609""
","
","","","-1","","","21","9607","4294","j","elianto","#f73b6a7A","-1","-1","1","0","[]","0","2","","","9607","54","0","4","lose","no-go","0"
"pit-trial","173","1163190","0.0-59.0","battery-v0.2","","""event"",""trial"",""time""
""fullscreenenter"",""1"",""2609""
","
","
","""event"",""trial"",""time""
""fullscreenenter"",""1"",""2609""
","
","","","827","","","21","9607","4294","e","elianto","#f73b6a7A","-1"," ","0","-10","[1677.2999999821186]","1","2","","","9607","55","2","4","lose","no-go","0"
"pit-trial","174","1166610","0.0-60.0","battery-v0.2","","""event"",""trial"",""time""
""fullscreenenter"",""1"",""2609""
","
","
","""event"",""trial"",""time""
""fullscreenenter"",""1"",""2609""
","
","","","554.1999999880791","","","21","9607","4294","d","elianto","#3366ff99"," "," ","1","+10","[1409.7999999821186]","1","2","","","9607","56","1","1","win","go","0"
"pit-trial","175","1171480","0.0-61.0","battery-v0.2","","""event"",""trial"",""time""
""fullscreenenter"",""1"",""2609""
","
","
","""event"",""trial"",""time""
""fullscreenenter"",""1"",""2609""
","
","","","-1","","","21","9607","4294","j","elianto","#f73b6a7A","-1","-1","1","0","[]","0","2","","","9607","57","0","4","lose","no-go","0"
"pit-trial","176","1175097","0.0-62.0","battery-v0.2","","""event"",""trial"",""time""
""fullscreenenter"",""1"",""2609""
","
","
","""event"",""trial"",""time""
""fullscreenenter"",""1"",""2609""
","
","","","750.8000000119209","","","21","9607","4294","w","elianto","#f73b6a7A"," "," ","1","0","[1605.0999999940395]","1","2","","","9607","58","3","3","lose","go","0"
"pit-trial","177","1179967","0.0-63.0","battery-v0.2","","""event"",""trial"",""time""
""fullscreenenter"",""1"",""2609""
","
","
","""event"",""trial"",""time""
""fullscreenenter"",""1"",""2609""
","
","","","-1","","","21","9607","4294","s","elianto","#3366ff99","-1","-1","1","+10","[]","0","2","","","9607","59","4","2","win","no-go","0"
"pit-trial","178","1183578","0.0-64.0","battery-v0.2","","""event"",""trial"",""time""
""fullscreenenter"",""1"",""2609""
","
","
","""event"",""trial"",""time""
""fullscreenenter"",""1"",""2609""
","
","","","746","","","21","9607","4294","d","elianto","#3366ff99"," "," ","1","+10","[1597.300000011921]","1","2","","","9607","60","1","1","win","go","0"
"pit-trial","179","1187177","0.0-65.0","battery-v0.2","","""event"",""trial"",""time""
""fullscreenenter"",""1"",""2609""
","
","
","""event"",""trial"",""time""
""fullscreenenter"",""1"",""2609""
","
","","","727.5999999940395","","","21","9607","4294","s","elianto","#3366ff99","-1"," ","0","0","[1584.7000000178814]","1","2","","","9607","61","4","2","win","no-go","0"
"pit-trial","180","1190839","0.0-66.0","battery-v0.2","","""event"",""trial"",""time""
""fullscreenenter"",""1"",""2609""
","
","
","""event"",""trial"",""time""
""fullscreenenter"",""1"",""2609""
","
","","","799.9000000059605","","","21","9607","4294","d","elianto","#3366ff99"," "," ","1","+10","[1650.4000000059605]","1","2","","","9607","62","1","1","win","go","0"
"pit-trial","181","1194439","0.0-67.0","battery-v0.2","","""event"",""trial"",""time""
""fullscreenenter"",""1"",""2609""
","
","
","""event"",""trial"",""time""
""fullscreenenter"",""1"",""2609""
","
","","","740.3999999761581","","","21","9607","4294","w","elianto","#f73b6a7A"," "," ","1","0","[1593.199999988079]","1","2","","","9607","63","3","3","lose","go","0"
"pit-trial","182","1197824","0.0-68.0","battery-v0.2","","""event"",""trial"",""time""
""fullscreenenter"",""1"",""2609""
","
","
","""event"",""trial"",""time""
""fullscreenenter"",""1"",""2609""
","
","","","516.8000000119209","","","21","9607","4294","e","elianto","#f73b6a7A","-1"," ","0","-10","[1372.5999999940395]","1","2","","","9607","64","2","4","lose","no-go","0"
"pit-trial","183","1201353","0.0-69.0","battery-v0.2","","""event"",""trial"",""time""
""fullscreenenter"",""1"",""2609""
","
","
","""event"",""trial"",""time""
""fullscreenenter"",""1"",""2609""
","
","","","664.4000000059605","","","21","9607","4294","e","elianto","#f73b6a7A","-1"," ","0","-10","[1519.5]","1","2","","","9607","65","2","4","lose","no-go","0"
"pit-trial","184","1206224","0.0-70.0","battery-v0.2","","""event"",""trial"",""time""
""fullscreenenter"",""1"",""2609""
","
","
","""event"",""trial"",""time""
""fullscreenenter"",""1"",""2609""
","
","","","-1","","","21","9607","4294","s","elianto","#3366ff99","-1","-1","1","0","[]","0","2","","","9607","66","4","2","win","no-go","1"
"pit-trial","185","1209881","0.0-71.0","battery-v0.2","","""event"",""trial"",""time""
""fullscreenenter"",""1"",""2609""
","
","
","""event"",""trial"",""time""
""fullscreenenter"",""1"",""2609""
","
","","","794.5999999940395","","","21","9607","4294","d","elianto","#3366ff99"," "," ","1","+10","[1650.0999999940395]","1","2","","","9607","67","1","1","win","go","0"
"pit-trial","186","1213672","0.0-72.0","battery-v0.2","","""event"",""trial"",""time""
""fullscreenenter"",""1"",""2609""
","
","
","""event"",""trial"",""time""
""fullscreenenter"",""1"",""2609""
","
","","","929.1999999880791","","","21","9607","4294","w","elianto","#f73b6a7A"," "," ","1","0","[1785.5]","1","2","","","9607","68","3","3","lose","go","0"
"pit-trial","187","1218537","0.0-73.0","battery-v0.2","","""event"",""trial"",""time""
""fullscreenenter"",""1"",""2609""
","
","
","""event"",""trial"",""time""
""fullscreenenter"",""1"",""2609""
","
","","","-1","","","21","9607","4294","s","elianto","#3366ff99","-1","-1","1","+10","[]","0","2","","","9607","69","4","2","win","no-go","0"
"pit-trial","188","1222211","0.0-74.0","battery-v0.2","","""event"",""trial"",""time""
""fullscreenenter"",""1"",""2609""
","
","
","""event"",""trial"",""time""
""fullscreenenter"",""1"",""2609""
","
","","","806.5999999940395","","","21","9607","4294","p","elianto","#3366ff99"," "," ","1","+10","[1661.0999999940395]","1","2","","","9607","70","5","1","win","go","0"
"pit-trial","189","1225943","0.0-75.0","battery-v0.2","","""event"",""trial"",""time""
""fullscreenenter"",""1"",""2609""
","
","
","""event"",""trial"",""time""
""fullscreenenter"",""1"",""2609""
","
","","","873.1000000238419","","","21","9607","4294","w","elianto","#f73b6a7A"," "," ","1","-10","[1729.1000000238419]","1","2","","","9607","71","3","3","lose","go","1"
"pit-trial","190","1229363","0.0-76.0","battery-v0.2","","""event"",""trial"",""time""
""fullscreenenter"",""1"",""2609""
","
","
","""event"",""trial"",""time""
""fullscreenenter"",""1"",""2609""
","
","","","549","","","21","9607","4294","d","elianto","#3366ff99"," "," ","1","+10","[1405.300000011921]","1","2","","","9607","72","1","1","win","go","0"
"pit-trial","191","1234234","0.0-77.0","battery-v0.2","","""event"",""trial"",""time""
""fullscreenenter"",""1"",""2609""
","
","
","""event"",""trial"",""time""
""fullscreenenter"",""1"",""2609""
","
","","","-1","","","21","9607","4294","s","elianto","#3366ff99","-1","-1","1","+10","[]","0","2","","","9607","73","4","2","win","no-go","0"
"pit-trial","192","1237803","0.0-78.0","battery-v0.2","","""event"",""trial"",""time""
""fullscreenenter"",""1"",""2609""
","
","
","""event"",""trial"",""time""
""fullscreenenter"",""1"",""2609""
","
","","","705.5999999940395","","","21","9607","4294","d","elianto","#3366ff99"," "," ","1","0","[1555.699999988079]","1","2","","","9607","74","1","1","win","go","1"
"pit-trial","193","1241275","0.0-79.0","battery-v0.2","","""event"",""trial"",""time""
""fullscreenenter"",""1"",""2609""
","
","
","""event"",""trial"",""time""
""fullscreenenter"",""1"",""2609""
","
","","","606.2999999821186","","","21","9607","4294","w","elianto","#f73b6a7A"," "," ","1","0","[1465]","1","2","","","9607","75","3","3","lose","go","0"
"pit-trial","194","1244746","0.0-80.0","battery-v0.2","","""event"",""trial"",""time""
""fullscreenenter"",""1"",""2609""
","
","
","""event"",""trial"",""time""
""fullscreenenter"",""1"",""2609""
","
","","","599.6999999880791","","","21","9607","4294","p","elianto","#3366ff99"," "," ","1","0","[1460.5999999940395]","1","2","","","9607","76","5","1","win","go","1"
"pit-trial","195","1249611","0.0-81.0","battery-v0.2","","""event"",""trial"",""time""
""fullscreenenter"",""1"",""2609""
","
","
","""event"",""trial"",""time""
""fullscreenenter"",""1"",""2609""
","
","","","-1","","","21","9607","4294","s","elianto","#3366ff99","-1","-1","1","0","[]","0","2","","","9607","77","4","2","win","no-go","1"
"pit-trial","196","1253592","0.0-82.0","battery-v0.2","","""event"",""trial"",""time""
""fullscreenenter"",""1"",""2609""
","
","
","""event"",""trial"",""time""
""fullscreenenter"",""1"",""2609""
","
","","","1119.800000011921","","","21","9607","4294","g","elianto","#f73b6a7A","-1"," ","0","0","[1970.5999999940395]","1","2","","","9607","78","6","4","lose","no-go","1"
"pit-trial","197","1257129","0.0-83.0","battery-v0.2","","""event"",""trial"",""time""
""fullscreenenter"",""1"",""2609""
","
","
","""event"",""trial"",""time""
""fullscreenenter"",""1"",""2609""
","
","","","678.4000000059605","","","21","9607","4294","w","elianto","#f73b6a7A"," "," ","1","-10","[1532.5]","1","2","","","9607","79","3","3","lose","go","1"
"pit-trial","198","1260640","0.0-84.0","battery-v0.2","","""event"",""trial"",""time""
""fullscreenenter"",""1"",""2609""
","
","
","""event"",""trial"",""time""
""fullscreenenter"",""1"",""2609""
","
","","","647.8999999761581","","","21","9607","4294","p","elianto","#3366ff99"," "," ","1","+10","[1503.199999988079]","1","2","","","9607","80","5","1","win","go","0"
"pit-trial","199","1264316","0.0-85.0","battery-v0.2","","""event"",""trial"",""time""
""fullscreenenter"",""1"",""2609""
","
","
","""event"",""trial"",""time""
""fullscreenenter"",""1"",""2609""
","
","","","811.3000000119209","","","21","9607","4294","a","elianto","#f73b6a7A"," "," ","1","0","[1667.0999999940395]","1","2","","","9607","81","7","3","lose","go","0"
"pit-trial","200","1268465","0.0-86.0","battery-v0.2","","""event"",""trial"",""time""
""fullscreenenter"",""1"",""2609""
","
","
","""event"",""trial"",""time""
""fullscreenenter"",""1"",""2609""
","
","","","1288.300000011921","","","21","9607","4294","s","elianto","#3366ff99","-1"," ","0","+10","[2143.7000000178814]","1","2","","","9607","82","4","2","win","no-go","1"
"pit-trial","201","1272001","0.0-87.0","battery-v0.2","","""event"",""trial"",""time""
""fullscreenenter"",""1"",""2609""
","
","
","""event"",""trial"",""time""
""fullscreenenter"",""1"",""2609""
","
","","","671.7999999821186","","","21","9607","4294","p","elianto","#3366ff99"," "," ","1","+10","[1525.9000000059605]","1","2","","","9607","83","5","1","win","go","0"
"pit-trial","202","1275641","0.0-88.0","battery-v0.2","","""event"",""trial"",""time""
""fullscreenenter"",""1"",""2609""
","
","
","""event"",""trial"",""time""
""fullscreenenter"",""1"",""2609""
","
","","","773.8000000119209","","","21","9607","4294","g","elianto","#f73b6a7A","-1"," ","0","-10","[1630]","1","2","","","9607","84","6","4","lose","no-go","0"
"pit-trial","203","1279153","0.0-89.0","battery-v0.2","","""event"",""trial"",""time""
""fullscreenenter"",""1"",""2609""
","
","
","""event"",""trial"",""time""
""fullscreenenter"",""1"",""2609""
","
","","","646.9000000059605","","","21","9607","4294","g","elianto","#f73b6a7A","-1"," ","0","-10","[1502.6000000238419]","1","2","","","9607","85","6","4","lose","no-go","0"
"pit-trial","204","1282688","0.0-90.0","battery-v0.2","","""event"",""trial"",""time""
""fullscreenenter"",""1"",""2609""
","
","
","""event"",""trial"",""time""
""fullscreenenter"",""1"",""2609""
","
","","","668.9000000059605","","","21","9607","4294","p","elianto","#3366ff99"," "," ","1","0","[1526.2000000178814]","1","2","","","9607","86","5","1","win","go","1"
"pit-trial","205","1286290","0.0-91.0","battery-v0.2","","""event"",""trial"",""time""
""fullscreenenter"",""1"",""2609""
","
","
","""event"",""trial"",""time""
""fullscreenenter"",""1"",""2609""
","
","","","732.3000000119209","","","21","9607","4294","s","elianto","#3366ff99","-1"," ","0","0","[1590.0999999940395]","1","2","","","9607","87","4","2","win","no-go","0"
"pit-trial","206","1290131","0.0-92.0","battery-v0.2","","""event"",""trial"",""time""
""fullscreenenter"",""1"",""2609""
","
","
","""event"",""trial"",""time""
""fullscreenenter"",""1"",""2609""
","
","","","976.4000000059605","","","21","9607","4294","a","elianto","#f73b6a7A"," "," ","1","-10","[1830.300000011921]","1","2","","","9607","88","7","3","lose","go","1"
"pit-trial","207","1293506","0.0-93.0","battery-v0.2","","""event"",""trial"",""time""
""fullscreenenter"",""1"",""2609""
","
","
","""event"",""trial"",""time""
""fullscreenenter"",""1"",""2609""
","
","","","513.6999999880791","","","21","9607","4294","s","elianto","#3366ff99","-1"," ","0","+10","[1365.7999999821186]","1","2","","","9607","89","4","2","win","no-go","1"
"pit-trial","208","1298369","0.0-94.0","battery-v0.2","","""event"",""trial"",""time""
""fullscreenenter"",""1"",""2609""
","
","
","""event"",""trial"",""time""
""fullscreenenter"",""1"",""2609""
","
","","","-1","","","21","9607","4294","g","elianto","#f73b6a7A","-1","-1","1","-10","[]","0","2","","","9607","90","6","4","lose","no-go","1"
"pit-trial","209","1301788","0.0-95.0","battery-v0.2","","""event"",""trial"",""time""
""fullscreenenter"",""1"",""2609""
","
","
","""event"",""trial"",""time""
""fullscreenenter"",""1"",""2609""
","
","","","552.9000000059605","","","21","9607","4294","a","elianto","#f73b6a7A"," "," ","1","0","[1410.0999999940395]","1","2","","","9607","91","7","3","lose","go","0"
"pit-trial","210","1305227","0.0-96.0","battery-v0.2","","""event"",""trial"",""time""
""fullscreenenter"",""1"",""2609""
","
","
","""event"",""trial"",""time""
""fullscreenenter"",""1"",""2609""
","
","","","565.9000000059605","","","21","9607","4294","p","elianto","#3366ff99"," "," ","1","+10","[1426.2000000178814]","1","2","","","9607","92","5","1","win","go","0"
"pit-trial","211","1310094","0.0-97.0","battery-v0.2","","""event"",""trial"",""time""
""fullscreenenter"",""1"",""2609""
","
","
","""event"",""trial"",""time""
""fullscreenenter"",""1"",""2609""
","
","","","-1","","","21","9607","4294","g","elianto","#f73b6a7A","-1","-1","1","0","[]","0","2","","","9607","93","6","4","lose","no-go","0"
"pit-trial","212","1313626","0.0-98.0","battery-v0.2","","""event"",""trial"",""time""
""fullscreenenter"",""1"",""2609""
","
","
","""event"",""trial"",""time""
""fullscreenenter"",""1"",""2609""
","
","","","659.0999999940395","","","21","9607","4294","l","elianto","#3366ff99","-1"," ","0","0","[1520.5,1603.5999999940395]","2","2","","","9607","94","8","2","win","no-go","0"
"pit-trial","213","1317101","0.0-99.0","battery-v0.2","","""event"",""trial"",""time""
""fullscreenenter"",""1"",""2609""
","
","
","""event"",""trial"",""time""
""fullscreenenter"",""1"",""2609""
","
","","","609.5","","","21","9607","4294","p","elianto","#3366ff99"," "," ","1","+10","[1465.0999999940395]","1","2","","","9607","95","5","1","win","go","0"
"pit-trial","214","1321973","0.0-100.0","battery-v0.2","","""event"",""trial"",""time""
""fullscreenenter"",""1"",""2609""
","
","
","""event"",""trial"",""time""
""fullscreenenter"",""1"",""2609""
","
","","","-1","","","21","9607","4294","a","elianto","#f73b6a7A"," ","-1","0","-10","[]","0","2","","","9607","96","7","3","lose","go","0"
"pit-trial","215","1325490","0.0-101.0","battery-v0.2","","""event"",""trial"",""time""
""fullscreenenter"",""1"",""2609""
","
","
","""event"",""trial"",""time""
""fullscreenenter"",""1"",""2609""
","
","","","645.1000000238419","","","21","9607","4294","p","elianto","#3366ff99"," "," ","1","+10","[1506.2999999821186]","1","2","","","9607","97","5","1","win","go","0"
"pit-trial","216","1329026","0.0-102.0","battery-v0.2","","""event"",""trial"",""time""
""fullscreenenter"",""1"",""2609""
","
","
","""event"",""trial"",""time""
""fullscreenenter"",""1"",""2609""
","
","","","673.5","","","21","9607","4294","g","elianto","#f73b6a7A","-1"," ","0","0","[1528.5]","1","2","","","9607","98","6","4","lose","no-go","1"
"pit-trial","217","1332526","0.0-103.0","battery-v0.2","","""event"",""trial"",""time""
""fullscreenenter"",""1"",""2609""
","
","
","""event"",""trial"",""time""
""fullscreenenter"",""1"",""2609""
","
","","","631.3000000119209","","","21","9607","4294","l","elianto","#3366ff99","-1"," ","0","0","[1486.5999999940395]","1","2","","","9607","99","8","2","win","no-go","0"
"pit-trial","218","1336090","0.0-104.0","battery-v0.2","","""event"",""trial"",""time""
""fullscreenenter"",""1"",""2609""
","
","
","""event"",""trial"",""time""
""fullscreenenter"",""1"",""2609""
","
","","","696.8999999761581","","","21","9607","4294","a","elianto","#f73b6a7A"," "," ","1","0","[1559]","1","2","","","9607","100","7","3","lose","go","0"
"pit-trial","219","1340954","0.0-105.0","battery-v0.2","","""event"",""trial"",""time""
""fullscreenenter"",""1"",""2609""
","
","
","""event"",""trial"",""time""
""fullscreenenter"",""1"",""2609""
","
","","","-1","","","21","9607","4294","l","elianto","#3366ff99","-1","-1","1","+10","[]","0","2","","","9607","101","8","2","win","no-go","0"
"pit-trial","220","1344446","0.0-106.0","battery-v0.2","","""event"",""trial"",""time""
""fullscreenenter"",""1"",""2609""
","
","
","""event"",""trial"",""time""
""fullscreenenter"",""1"",""2609""
","
","","","627.2999999821186","","","21","9607","4294","p","elianto","#3366ff99"," "," ","1","0","[1479]","1","2","","","9607","102","5","1","win","go","1"
"pit-trial","221","1349314","0.0-107.0","battery-v0.2","","""event"",""trial"",""time""
""fullscreenenter"",""1"",""2609""
","
","
","""event"",""trial"",""time""
""fullscreenenter"",""1"",""2609""
","
","","","-1","","","21","9607","4294","g","elianto","#f73b6a7A","-1","-1","1","-10","[]","0","2","","","9607","103","6","4","lose","no-go","1"
"pit-trial","222","1352980","0.0-108.0","battery-v0.2","","""event"",""trial"",""time""
""fullscreenenter"",""1"",""2609""
","
","
","""event"",""trial"",""time""
""fullscreenenter"",""1"",""2609""
","
","","","799.5999999940395","","","21","9607","4294","u","elianto","#3366ff99","-1"," ","0","0","[1654.7999999821186]","1","2","","","9607","104","9","2","win","no-go","0"
"pit-trial","223","1357842","0.0-109.0","battery-v0.2","","""event"",""trial"",""time""
""fullscreenenter"",""1"",""2609""
","
","
","""event"",""trial"",""time""
""fullscreenenter"",""1"",""2609""
","
","","","-1","","","21","9607","4294","g","elianto","#f73b6a7A","-1","-1","1","0","[]","0","2","","","9607","105","6","4","lose","no-go","0"
"pit-trial","224","1362707","0.0-110.0","battery-v0.2","","""event"",""trial"",""time""
""fullscreenenter"",""1"",""2609""
","
","
","""event"",""trial"",""time""
""fullscreenenter"",""1"",""2609""
","
","","","-1","","","21","9607","4294","l","elianto","#3366ff99","-1","-1","1","+10","[]","0","2","","","9607","106","8","2","win","no-go","0"
"pit-trial","225","1366540","0.0-111.0","battery-v0.2","","""event"",""trial"",""time""
""fullscreenenter"",""1"",""2609""
","
","
","""event"",""trial"",""time""
""fullscreenenter"",""1"",""2609""
","
","","","967.7000000178814","","","21","9607","4294","u","elianto","#3366ff99","-1"," ","0","0","[1823.9000000059605]","1","2","","","9607","107","9","2","win","no-go","0"
"pit-trial","226","1370189","0.0-112.0","battery-v0.2","","""event"",""trial"",""time""
""fullscreenenter"",""1"",""2609""
","
","
","""event"",""trial"",""time""
""fullscreenenter"",""1"",""2609""
","
","","","786.5999999940395","","","21","9607","4294","p","elianto","#3366ff99"," "," ","1","+10","[1640.4000000059605]","1","2","","","9607","108","5","1","win","go","0"
"pit-trial","227","1374108","0.0-113.0","battery-v0.2","","""event"",""trial"",""time""
""fullscreenenter"",""1"",""2609""
","
","
","""event"",""trial"",""time""
""fullscreenenter"",""1"",""2609""
","
","","","1057.7000000178814","","","21","9607","4294","p","elianto","#3366ff99"," "," ","1","+10","[1908.5]","1","2","","","9607","109","5","1","win","go","0"
"pit-trial","228","1378056","0.0-114.0","battery-v0.2","","""event"",""trial"",""time""
""fullscreenenter"",""1"",""2609""
","
","
","""event"",""trial"",""time""
""fullscreenenter"",""1"",""2609""
","
","","","1079.0999999940395","","","21","9607","4294","u","elianto","#3366ff99","-1"," ","0","0","[1935.2999999821186]","1","2","","","9607","110","9","2","win","no-go","0"
"pit-trial","229","1381564","0.0-115.0","battery-v0.2","","""event"",""trial"",""time""
""fullscreenenter"",""1"",""2609""
","
","
","""event"",""trial"",""time""
""fullscreenenter"",""1"",""2609""
","
","","","645","","","21","9607","4294","l","elianto","#3366ff99","-1"," ","0","0","[1495.7000000178814]","1","2","","","9607","111","8","2","win","no-go","0"
"pit-trial","230","1386429","0.0-116.0","battery-v0.2","","""event"",""trial"",""time""
""fullscreenenter"",""1"",""2609""
","
","
","""event"",""trial"",""time""
""fullscreenenter"",""1"",""2609""
","
","","","-1","","","21","9607","4294","g","elianto","#f73b6a7A","-1","-1","1","-10","[]","0","2","","","9607","112","6","4","lose","no-go","1"
"pit-trial","231","1391291","0.0-117.0","battery-v0.2","","""event"",""trial"",""time""
""fullscreenenter"",""1"",""2609""
","
","
","""event"",""trial"",""time""
""fullscreenenter"",""1"",""2609""
","
","","","-1","","","21","9607","4294","l","elianto","#3366ff99","-1","-1","1","+10","[]","0","2","","","9607","113","8","2","win","no-go","0"
"pit-trial","232","1395285","0.0-118.0","battery-v0.2","","""event"",""trial"",""time""
""fullscreenenter"",""1"",""2609""
","
","
","""event"",""trial"",""time""
""fullscreenenter"",""1"",""2609""
","
","","","1127.7000000178814","","","21","9607","4294","a","elianto","#f73b6a7A"," "," ","1","0","[1982.6000000238419]","1","2","","","9607","114","7","3","lose","go","0"
"pit-trial","233","1398989","0.0-119.0","battery-v0.2","","""event"",""trial"",""time""
""fullscreenenter"",""1"",""2609""
","
","
","""event"",""trial"",""time""
""fullscreenenter"",""1"",""2609""
","
","","","841.5999999940395","","","21","9607","4294","u","elianto","#3366ff99","-1"," ","0","0","[1692.5]","1","2","","","9607","115","9","2","win","no-go","0"
"pit-trial","234","1402560","0.0-120.0","battery-v0.2","","""event"",""trial"",""time""
""fullscreenenter"",""1"",""2609""
","
","
","""event"",""trial"",""time""
""fullscreenenter"",""1"",""2609""
","
","","","704.3000000119209","","","21","9607","4294","p","elianto","#3366ff99"," "," ","1","+10","[1558.9000000059605]","1","2","","","9607","116","5","1","win","go","0"
"pit-trial","235","1407430","0.0-121.0","battery-v0.2","","""event"",""trial"",""time""
""fullscreenenter"",""1"",""2609""
","
","
","""event"",""trial"",""time""
""fullscreenenter"",""1"",""2609""
","
","","","-1","","","21","9607","4294","l","elianto","#3366ff99","-1","-1","1","0","[]","0","2","","","9607","117","8","2","win","no-go","1"
"pit-trial","236","1410988","0.0-122.0","battery-v0.2","","""event"",""trial"",""time""
""fullscreenenter"",""1"",""2609""
","
","
","""event"",""trial"",""time""
""fullscreenenter"",""1"",""2609""
","
","","","689.9000000059605","","","21","9607","4294","p","elianto","#3366ff99"," "," ","1","+10","[1548.4000000059605]","1","2","","","9607","118","5","1","win","go","0"
"pit-trial","237","1414495","0.0-123.0","battery-v0.2","","""event"",""trial"",""time""
""fullscreenenter"",""1"",""2609""
","
","
","""event"",""trial"",""time""
""fullscreenenter"",""1"",""2609""
","
","","","643.1999999880791","","","21","9607","4294","u","elianto","#3366ff99","-1"," ","0","0","[1499.2000000178814]","1","2","","","9607","119","9","2","win","no-go","0"
"pit-trial","238","1418256","0.0-124.0","battery-v0.2","","""event"",""trial"",""time""
""fullscreenenter"",""1"",""2609""
","
","
","""event"",""trial"",""time""
""fullscreenenter"",""1"",""2609""
","
","","","893.5","","","21","9607","4294","g","elianto","#f73b6a7A","-1"," ","0","-10","[1749.300000011921]","1","2","","","9607","120","6","4","lose","no-go","0"
"pit-trial","239","1421750","0.0-125.0","battery-v0.2","","""event"",""trial"",""time""
""fullscreenenter"",""1"",""2609""
","
","
","""event"",""trial"",""time""
""fullscreenenter"",""1"",""2609""
","
","","","614.1999999880791","","","21","9607","4294","u","elianto","#3366ff99","-1"," ","0","0","[1480.0999999940395]","1","2","","","9607","121","9","2","win","no-go","0"
"pit-trial","240","1425326","0.0-126.0","battery-v0.2","","""event"",""trial"",""time""
""fullscreenenter"",""1"",""2609""
","
","
","""event"",""trial"",""time""
""fullscreenenter"",""1"",""2609""
","
","","","718.8999999761581","","","21","9607","4294","a","elianto","#f73b6a7A"," "," ","1","0","[1570.199999988079]","1","2","","","9607","122","7","3","lose","go","0"
"pit-trial","241","1428805","0.0-127.0","battery-v0.2","","""event"",""trial"",""time""
""fullscreenenter"",""1"",""2609""
","
","
","""event"",""trial"",""time""
""fullscreenenter"",""1"",""2609""
","
","","","619.7000000178814","","","21","9607","4294","p","elianto","#3366ff99"," "," ","1","+10","[1473.2999999821186]","1","2","","","9607","123","5","1","win","go","0"
"pit-trial","242","1432681","0.0-128.0","battery-v0.2","","""event"",""trial"",""time""
""fullscreenenter"",""1"",""2609""
","
","
","""event"",""trial"",""time""
""fullscreenenter"",""1"",""2609""
","
","","","1004.9000000059605","","","21","9607","4294","l","elianto","#3366ff99","-1"," ","0","0","[1859.2000000178814]","1","2","","","9607","124","8","2","win","no-go","0"
"pit-trial","243","1437553","0.0-129.0","battery-v0.2","","""event"",""trial"",""time""
""fullscreenenter"",""1"",""2609""
","
","
","""event"",""trial"",""time""
""fullscreenenter"",""1"",""2609""
","
","","","-1","","","21","9607","4294","u","elianto","#3366ff99","-1","-1","1","+10","[]","0","2","","","9607","125","9","2","win","no-go","0"
"pit-trial","244","1441488","0.0-130.0","battery-v0.2","","""event"",""trial"",""time""
""fullscreenenter"",""1"",""2609""
","
","
","""event"",""trial"",""time""
""fullscreenenter"",""1"",""2609""
","
","","","1071","","","21","9607","4294","a","elianto","#f73b6a7A"," "," ","1","0","[1921.8999999761581]","1","2","","","9607","126","7","3","lose","go","0"
"pit-trial","245","1446359","0.0-131.0","battery-v0.2","","""event"",""trial"",""time""
""fullscreenenter"",""1"",""2609""
","
","
","""event"",""trial"",""time""
""fullscreenenter"",""1"",""2609""
","
","","","-1","","","21","9607","4294","g","elianto","#f73b6a7A","-1","-1","1","0","[]","0","2","","","9607","127","6","4","lose","no-go","0"
"pit-trial","246","1451223","0.0-132.0","battery-v0.2","","""event"",""trial"",""time""
""fullscreenenter"",""1"",""2609""
","
","
","""event"",""trial"",""time""
""fullscreenenter"",""1"",""2609""
","
","","","-1","","","21","9607","4294","l","elianto","#3366ff99","-1","-1","1","+10","[]","0","2","","","9607","128","8","2","win","no-go","0"
"pit-trial","247","1455199","0.0-133.0","battery-v0.2","","""event"",""trial"",""time""
""fullscreenenter"",""1"",""2609""
","
","
","""event"",""trial"",""time""
""fullscreenenter"",""1"",""2609""
","
","","","1114","","","21","9607","4294","a","elianto","#f73b6a7A"," "," ","1","0","[1965]","1","2","","","9607","129","7","3","lose","go","0"
"pit-trial","248","1458734","0.0-134.0","battery-v0.2","","""event"",""trial"",""time""
""fullscreenenter"",""1"",""2609""
","
","
","""event"",""trial"",""time""
""fullscreenenter"",""1"",""2609""
","
","","","675.6999999880791","","","21","9607","4294","g","elianto","#f73b6a7A","-1"," ","0","0","[1529.199999988079]","1","2","","","9607","130","6","4","lose","no-go","1"
"pit-trial","249","1463600","0.0-135.0","battery-v0.2","","""event"",""trial"",""time""
""fullscreenenter"",""1"",""2609""
","
","
","""event"",""trial"",""time""
""fullscreenenter"",""1"",""2609""
","
","","","-1","","","21","9607","4294","u","elianto","#3366ff99","-1","-1","1","+10","[]","0","2","","","9607","131","9","2","win","no-go","0"
"pit-trial","250","1468470","0.0-136.0","battery-v0.2","","""event"",""trial"",""time""
""fullscreenenter"",""1"",""2609""
","
","
","""event"",""trial"",""time""
""fullscreenenter"",""1"",""2609""
","
","","","-1","","","21","9607","4294","l","elianto","#3366ff99","-1","-1","1","0","[]","0","2","","","9607","132","8","2","win","no-go","1"
"pit-trial","251","1472272","0.0-137.0","battery-v0.2","","""event"",""trial"",""time""
""fullscreenenter"",""1"",""2609""
","
","
","""event"",""trial"",""time""
""fullscreenenter"",""1"",""2609""
","
","","","941.5","","","21","9607","4294","g","elianto","#f73b6a7A","-1"," ","0","-10","[1794.199999988079]","1","2","","","9607","133","6","4","lose","no-go","0"
"pit-trial","252","1477143","0.0-138.0","battery-v0.2","","""event"",""trial"",""time""
""fullscreenenter"",""1"",""2609""
","
","
","""event"",""trial"",""time""
""fullscreenenter"",""1"",""2609""
","
","","","-1","","","21","9607","4294","l","elianto","#3366ff99","-1","-1","1","+10","[]","0","2","","","9607","134","8","2","win","no-go","0"
"pit-trial","253","1482008","0.0-139.0","battery-v0.2","","""event"",""trial"",""time""
""fullscreenenter"",""1"",""2609""
","
","
","""event"",""trial"",""time""
""fullscreenenter"",""1"",""2609""
","
","","","-1","","","21","9607","4294","a","elianto","#f73b6a7A"," ","-1","0","-10","[]","0","2","","","9607","135","7","3","lose","go","0"
"pit-trial","254","1486879","0.0-140.0","battery-v0.2","","""event"",""trial"",""time""
""fullscreenenter"",""1"",""2609""
","
","
","""event"",""trial"",""time""
""fullscreenenter"",""1"",""2609""
","
","","","-1","","","21","9607","4294","u","elianto","#3366ff99","-1","-1","1","+10","[]","0","2","","","9607","136","9","2","win","no-go","0"
"pit-trial","255","1491743","0.0-141.0","battery-v0.2","","""event"",""trial"",""time""
""fullscreenenter"",""1"",""2609""
","
","
","""event"",""trial"",""time""
""fullscreenenter"",""1"",""2609""
","
","","","-1","","","21","9607","4294","l","elianto","#3366ff99","-1","-1","1","+10","[]","0","2","","","9607","137","8","2","win","no-go","0"
"pit-trial","256","1496608","0.0-142.0","battery-v0.2","","""event"",""trial"",""time""
""fullscreenenter"",""1"",""2609""
","
","
","""event"",""trial"",""time""
""fullscreenenter"",""1"",""2609""
","
","","","-1","","","21","9607","4294","u","elianto","#3366ff99","-1","-1","1","+10","[]","0","2","","","9607","138","9","2","win","no-go","0"
"pit-trial","257","1500730","0.0-143.0","battery-v0.2","","""event"",""trial"",""time""
""fullscreenenter"",""1"",""2609""
","
","
","""event"",""trial"",""time""
""fullscreenenter"",""1"",""2609""
","
","","","1258.7999999821186","","","21","9607","4294","a","elianto","#f73b6a7A"," "," ","1","0","[2111.5]","1","2","","","9607","139","7","3","lose","go","0"
"pit-trial","258","1504991","0.0-144.0","battery-v0.2","","""event"",""trial"",""time""
""fullscreenenter"",""1"",""2609""
","
","
","""event"",""trial"",""time""
""fullscreenenter"",""1"",""2609""
","
","","","1397.9000000059605","","","21","9607","4294","g","elianto","#f73b6a7A","-1"," ","0","-10","[2254.399999976158]","1","2","","","9607","140","6","4","lose","no-go","0"
"pit-instructions","259","1616787","0.0-145.0","battery-v0.2","","""event"",""trial"",""time""
""fullscreenenter"",""1"",""2609""
","
","
","""event"",""trial"",""time""
""fullscreenenter"",""1"",""2609""
","
","","[{""page_index"":0,""viewing_time"":92759.60000002384},{""page_index"":1,""viewing_time"":19030.29999998212}]","111791.10000002384","","","","","","","","","","","","","","","","","","","","","","","",""
"pit-trial","260","1620285","0.0-146.0","battery-v0.2","","""event"",""trial"",""time""
""fullscreenenter"",""1"",""2609""
","
","
","""event"",""trial"",""time""
""fullscreenenter"",""1"",""2609""
","
","","","628.8000000119209","","","21","9607","4294","n","elianto","#f73b6a7A"," "," ","1","0","[1485.4000000059605]","1","3","","","9607","141","0","3","lose","go","0"
"pit-trial","261","1623737","0.0-147.0","battery-v0.2","","""event"",""trial"",""time""
""fullscreenenter"",""1"",""2609""
","
","
","""event"",""trial"",""time""
""fullscreenenter"",""1"",""2609""
","
","","","595.5999999940395","","","21","9607","4294","b","elianto","#f73b6a7A","-1"," ","0","0","[1446.699999988079]","1","3","","","9607","142","3","4","lose","no-go","1"
"pit-trial","262","1627196","0.0-148.0","battery-v0.2","","""event"",""trial"",""time""
""fullscreenenter"",""1"",""2609""
","
","
","""event"",""trial"",""time""
""fullscreenenter"",""1"",""2609""
","
","","","592.8000000119209","","","21","9607","4294","f","elianto","#3366ff99","-1"," ","0","0","[1445.9000000059605]","1","3","","","9607","143","1","2","win","no-go","0"
"pit-trial","263","1631121","0.0-149.0","battery-v0.2","","""event"",""trial"",""time""
""fullscreenenter"",""1"",""2609""
","
","
","""event"",""trial"",""time""
""fullscreenenter"",""1"",""2609""
","
","","","1052.7999999821186","","","21","9607","4294","t","elianto","#f73b6a7A"," "," ","1","0","[1913.9000000059605]","1","3","","","9607","144","2","3","lose","go","0"
"pit-trial","264","1634657","0.0-150.0","battery-v0.2","","""event"",""trial"",""time""
""fullscreenenter"",""1"",""2609""
","
","
","""event"",""trial"",""time""
""fullscreenenter"",""1"",""2609""
","
","","","678.1999999880791","","","21","9607","4294","b","elianto","#f73b6a7A","-1"," ","0","0","[1528.9000000059605]","1","3","","","9607","145","3","4","lose","no-go","1"
"pit-trial","265","1638378","0.0-151.0","battery-v0.2","","""event"",""trial"",""time""
""fullscreenenter"",""1"",""2609""
","
","
