"trial_type","trial_index","time_elapsed","internal_node_id","task_version","subject_id","interactions","blur_events","focus_events","fullscreenenter_events","fullscreenexit_events","success","view_history","rt","responses","num_errors","age","subject","participantId","rune","rune_set","hex","correct","choice","accuracy","outcome","keys","total_keys","block","practice","value","sub","trial","stimulus","robot","valence","action","sham"
"pavlovia","0","21","0.0-0.0","battery-v0.2","","""event"",""trial"",""time""
""fullscreenenter"",""1"",""2887""
","
","
","""event"",""trial"",""time""
""fullscreenenter"",""1"",""2887""
","
","","","","","","","","","","","","","","","","","","","","","","","","","","",""
"fullscreen","1","3877","0.0-1.0","battery-v0.2","","""event"",""trial"",""time""
""fullscreenenter"",""1"",""2887""
","
","
","""event"",""trial"",""time""
""fullscreenenter"",""1"",""2887""
","
","true","","","","","","","","","","","","","","","","","","","","","","","","","",""
"pit-instructions","2","12605","0.0-2.0-0.0","battery-v0.2","","""event"",""trial"",""time""
""fullscreenenter"",""1"",""2887""
","
","
","""event"",""trial"",""time""
""fullscreenenter"",""1"",""2887""
","
","","[{""page_index"":0,""viewing_time"":8721.5}]","8721.700000047684","","","","","","","","","","","","","","","","","","","","","","","",""
"pit-comprehension","3","17546","0.0-2.0-1.0-0.0","battery-v0.2","","""event"",""trial"",""time""
""fullscreenenter"",""1"",""2887""
","
","
","""event"",""trial"",""time""
""fullscreenenter"",""1"",""2887""
","
","","","4936.099999904633","[""shark""]","0","12","6215","3535","","","","","","","","","","","","","","","","","","",""
"pit-instructions","4","21141","0.0-2.0-1.0-1.0","battery-v0.2","","""event"",""trial"",""time""
""fullscreenenter"",""1"",""2887""
","
","
","""event"",""trial"",""time""
""fullscreenenter"",""1"",""2887""
","
","","[{""page_index"":0,""viewing_time"":3582}]","3582.2000000476837","","","","","","","","","","","","","","","","","","","","","","","",""
"pit-comprehension","5","26743","0.0-2.0-2.0-0.0","battery-v0.2","","""event"",""trial"",""time""
""fullscreenenter"",""1"",""2887""
","
","
","""event"",""trial"",""time""
""fullscreenenter"",""1"",""2887""
","
","","","5598.5","[""tiger""]","0","12","6215","3535","","","","","","","","","","","","","","","","","","",""
"pit-instructions","6","28858","0.0-2.0-2.0-1.0","battery-v0.2","","""event"",""trial"",""time""
""fullscreenenter"",""1"",""2887""
","
","
","""event"",""trial"",""time""
""fullscreenenter"",""1"",""2887""
","
","","[{""page_index"":0,""viewing_time"":2112.2999999523163}]","2112.6999999284744","","","","","","","","","","","","","","","","","","","","","","","",""
"pit-instructions","7","141375","0.0-2.0-3.0","battery-v0.2","","""event"",""trial"",""time""
""fullscreenenter"",""1"",""2887""
","
","
","""event"",""trial"",""time""
""fullscreenenter"",""1"",""2887""
","
","","[{""page_index"":0,""viewing_time"":10441.200000047684},{""page_index"":1,""viewing_time"":7292.199999928474},{""page_index"":2,""viewing_time"":7752.300000071526},{""page_index"":3,""viewing_time"":7409.199999928474},{""page_index"":4,""viewing_time"":7284.5},{""page_index"":5,""viewing_time"":6575.300000071526},{""page_index"":6,""viewing_time"":8939.5},{""page_index"":7,""viewing_time"":10094.699999928474},{""page_index"":8,""viewing_time"":7216.200000047684},{""page_index"":9,""viewing_time"":9104.600000023842},{""page_index"":10,""viewing_time"":7316.100000023842},{""page_index"":11,""viewing_time"":10517.799999952316},{""page_index"":12,""viewing_time"":7256.899999976158},{""page_index"":13,""viewing_time"":5306.700000047684}]","112508.80000007153","","","","","","","","","","","","","","","","","","","","","","","",""
"pit-trial","8","146259","0.0-2.0-4.0-0.0","battery-v0.2","","""event"",""trial"",""time""
""fullscreenenter"",""1"",""2887""
","
","
","""event"",""trial"",""time""
""fullscreenenter"",""1"",""2887""
","
","","","-1","","","12","6215","3535","&#9784;","elianto","#FFFFF080"," ","-1","0","&#10060","[]","0","0","0","","","","","","","",""
"pit-trial","9","150297","0.0-2.0-4.1-0.1","battery-v0.2","","""event"",""trial"",""time""
""fullscreenenter"",""1"",""2887""
","
","
","""event"",""trial"",""time""
""fullscreenenter"",""1"",""2887""
","
","","","1175.5","","","12","6215","3535","&#9784;","elianto","#FFFFF080"," "," ","1","&#10004","[2025.7000000476837]","1","0","0","","","","","","","",""
"pit-trial","10","154444","0.0-2.0-4.2-0.2","battery-v0.2","","""event"",""trial"",""time""
""fullscreenenter"",""1"",""2887""
","
","
","""event"",""trial"",""time""
""fullscreenenter"",""1"",""2887""
","
","","","1271.8999999761581","","","12","6215","3535","&#9784;","elianto","#FFFFF080"," "," ","1","&#10004","[2128.5]","1","0","0","","","","","","","",""
"pit-trial","11","159326","0.0-2.0-4.3-0.3","battery-v0.2","","""event"",""trial"",""time""
""fullscreenenter"",""1"",""2887""
","
","
","""event"",""trial"",""time""
""fullscreenenter"",""1"",""2887""
","
","","","-1","","","12","6215","3535","&#9784;","elianto","#FFFFF080"," ","-1","0","&#10060","[]","0","0","0","","","","","","","",""
"pit-trial","12","163079","0.0-2.0-4.4-0.4","battery-v0.2","","""event"",""trial"",""time""
""fullscreenenter"",""1"",""2887""
","
","
","""event"",""trial"",""time""
""fullscreenenter"",""1"",""2887""
","
","","","883.8999999761581","","","12","6215","3535","&#9784;","elianto","#FFFFF080"," "," ","1","&#10004","[1735.6000000238419]","1","0","0","","","","","","","",""
"pit-trial","13","166646","0.0-2.0-4.5-0.5","battery-v0.2","","""event"",""trial"",""time""
""fullscreenenter"",""1"",""2887""
","
","
","""event"",""trial"",""time""
""fullscreenenter"",""1"",""2887""
","
","","","696.8999999761581","","","12","6215","3535","&#9784;","elianto","#FFFFF080"," "," ","1","&#10004","[1550.6000000238419]","1","0","0","","","","","","","",""
"pit-trial","14","170419","0.0-2.0-4.6-0.6","battery-v0.2","","""event"",""trial"",""time""
""fullscreenenter"",""1"",""2887""
","
","
","""event"",""trial"",""time""
""fullscreenenter"",""1"",""2887""
","
","","","911.2999999523163","","","12","6215","3535","&#9784;","elianto","#FFFFF080"," "," ","1","&#10004","[1761.5]","1","0","0","","","","","","","",""
"pit-instructions","15","185569","0.0-2.0-4.6-1.6-0.6","battery-v0.2","","""event"",""trial"",""time""
""fullscreenenter"",""1"",""2887""
","
","
","""event"",""trial"",""time""
""fullscreenenter"",""1"",""2887""
","
","","[{""page_index"":0,""viewing_time"":7050},{""page_index"":1,""viewing_time"":8092.800000071526}]","15143.300000071526","","","","","","","","","","","","","","","","","","","","","","","",""
"pit-instructions","16","214528","0.0-2.0-5.0","battery-v0.2","","""event"",""trial"",""time""
""fullscreenenter"",""1"",""2887""
","
","
","""event"",""trial"",""time""
""fullscreenenter"",""1"",""2887""
","
","","[{""page_index"":0,""viewing_time"":6816.899999976158},{""page_index"":1,""viewing_time"":9007.5},{""page_index"":2,""viewing_time"":6753.800000071526},{""page_index"":3,""viewing_time"":6354.199999928474}]","28933","","","","","","","","","","","","","","","","","","","","","","","",""
"pit-trial","17","219415","0.0-2.0-6.0-0.0","battery-v0.2","","""event"",""trial"",""time""
""fullscreenenter"",""1"",""2887""
","
","
","""event"",""trial"",""time""
""fullscreenenter"",""1"",""2887""
","
","","","-1","","","12","6215","3535","&#9854;","elianto","#FFFFF080","-1","-1","1","&#10004","[]","0","0","1","","","","","","","",""
"pit-trial","18","224332","0.0-2.0-6.1-0.1","battery-v0.2","","""event"",""trial"",""time""
""fullscreenenter"",""1"",""2887""
","
","
","""event"",""trial"",""time""
""fullscreenenter"",""1"",""2887""
","
","","","-1","","","12","6215","3535","&#9854;","elianto","#FFFFF080","-1","-1","1","&#10004","[]","0","0","1","","","","","","","",""
"pit-trial","19","229220","0.0-2.0-6.2-0.2","battery-v0.2","","""event"",""trial"",""time""
""fullscreenenter"",""1"",""2887""
","
","
","""event"",""trial"",""time""
""fullscreenenter"",""1"",""2887""
","
","","","-1","","","12","6215","3535","&#9854;","elianto","#FFFFF080","-1","-1","1","&#10004","[]","0","0","1","","","","","","","",""
"pit-trial","20","234113","0.0-2.0-6.3-0.3","battery-v0.2","","""event"",""trial"",""time""
""fullscreenenter"",""1"",""2887""
","
","
","""event"",""trial"",""time""
""fullscreenenter"",""1"",""2887""
","
","","","-1","","","12","6215","3535","&#9854;","elianto","#FFFFF080","-1","-1","1","&#10004","[]","0","0","1","","","","","","","",""
"pit-trial","21","238982","0.0-2.0-6.4-0.4","battery-v0.2","","""event"",""trial"",""time""
""fullscreenenter"",""1"",""2887""
","
","
","""event"",""trial"",""time""
""fullscreenenter"",""1"",""2887""
","
","","","-1","","","12","6215","3535","&#9854;","elianto","#FFFFF080","-1","-1","1","&#10004","[]","0","0","1","","","","","","","",""
"pit-instructions","22","385388","0.0-2.0-7.0","battery-v0.2","","""event"",""trial"",""time""
""fullscreenenter"",""1"",""2887""
","
","
","""event"",""trial"",""time""
""fullscreenenter"",""1"",""2887""
","
","","[{""page_index"":0,""viewing_time"":6824.799999952316},{""page_index"":1,""viewing_time"":8603.700000047684},{""page_index"":2,""viewing_time"":7639.299999952316},{""page_index"":3,""viewing_time"":8589.5},{""page_index"":4,""viewing_time"":8895.100000023842},{""page_index"":5,""viewing_time"":5039.799999952316},{""page_index"":6,""viewing_time"":7602.200000047684},{""page_index"":7,""viewing_time"":7677.200000047684},{""page_index"":8,""viewing_time"":8510},{""page_index"":9,""viewing_time"":7670.599999904633},{""page_index"":10,""viewing_time"":13275},{""page_index"":11,""viewing_time"":7367.600000023842},{""page_index"":12,""viewing_time"":8649.5},{""page_index"":13,""viewing_time"":10897.5},{""page_index"":14,""viewing_time"":6067.100000023842},{""page_index"":15,""viewing_time"":6181.399999976158},{""page_index"":16,""viewing_time"":8339.200000047684},{""page_index"":17,""viewing_time"":8547.600000023842}]","146389.89999997616","","","","","","","","","","","","","","","","","","","","","","","",""
"pit-trial","23","389283","0.0-2.0-8.0-0.0","battery-v0.2","","""event"",""trial"",""time""
""fullscreenenter"",""1"",""2887""
","
","
","""event"",""trial"",""time""
""fullscreenenter"",""1"",""2887""
","
","","","1002","","","12","6215","3535","&#9776;","elianto","#3366ff99"," "," ","1","+10","[1857.3999999761581]","1","0","1","","","","","","","",""
"pit-trial","24","392815","0.0-2.0-8.0-1.0","battery-v0.2","","""event"",""trial"",""time""
""fullscreenenter"",""1"",""2887""
","
","
","""event"",""trial"",""time""
""fullscreenenter"",""1"",""2887""
","
","","","661.2999999523163","","","12","6215","3535","&#9776;","elianto","#3366ff99"," "," ","1","+10","[1513,2975.399999976158]","2","0","1","","","","","","","",""
"pit-trial","25","396571","0.0-2.0-8.0-2.0","battery-v0.2","","""event"",""trial"",""time""
""fullscreenenter"",""1"",""2887""
","
","
","""event"",""trial"",""time""
""fullscreenenter"",""1"",""2887""
","
","","","884.2000000476837","","","12","6215","3535","&#9776;","elianto","#3366ff99"," "," ","1","+10","[1734.5]","1","0","1","","","","","","","",""
"pit-trial","26","400344","0.0-2.0-8.0-3.0","battery-v0.2","","""event"",""trial"",""time""
""fullscreenenter"",""1"",""2887""
","
","
","""event"",""trial"",""time""
""fullscreenenter"",""1"",""2887""
","
","","","899.3999999761581","","","12","6215","3535","&#9776;","elianto","#3366ff99"," "," ","1","0","[1751.3999999761581]","1","0","1","","","","","","","",""
"pit-trial","27","404192","0.0-2.0-8.0-4.0","battery-v0.2","","""event"",""trial"",""time""
""fullscreenenter"",""1"",""2887""
","
","
","""event"",""trial"",""time""
""fullscreenenter"",""1"",""2887""
","
","","","967.0999999046326","","","12","6215","3535","&#9776;","elianto","#3366ff99"," "," ","1","+10","[1826.1000000238419]","1","0","1","","","","","","","",""
"pit-trial","28","407720","0.0-2.0-8.1-0.1","battery-v0.2","","""event"",""trial"",""time""
""fullscreenenter"",""1"",""2887""
","
","
","""event"",""trial"",""time""
""fullscreenenter"",""1"",""2887""
","
","","","656.1999999284744","","","12","6215","3535","&#9776;","elianto","#3366ff99"," "," ","1","+10","[1508.2999999523163]","1","0","1","","","","","","","",""
"pit-trial","29","412591","0.0-2.0-8.1-1.1","battery-v0.2","","""event"",""trial"",""time""
""fullscreenenter"",""1"",""2887""
","
","
","""event"",""trial"",""time""
""fullscreenenter"",""1"",""2887""
","
","","","-1","","","12","6215","3535","&#9776;","elianto","#3366ff99"," ","-1","0","0","[]","0","0","1","","","","","","","",""
"pit-trial","30","416029","0.0-2.0-8.1-2.1","battery-v0.2","","""event"",""trial"",""time""
""fullscreenenter"",""1"",""2887""
","
","
","""event"",""trial"",""time""
""fullscreenenter"",""1"",""2887""
","
","","","583.0999999046326","","","12","6215","3535","&#9776;","elianto","#3366ff99"," "," ","1","+10","[1433.5]","1","0","1","","","","","","","",""
"pit-trial","31","419726","0.0-2.0-8.1-3.1","battery-v0.2","","""event"",""trial"",""time""
""fullscreenenter"",""1"",""2887""
","
","
","""event"",""trial"",""time""
""fullscreenenter"",""1"",""2887""
","
","","","831.8999999761581","","","12","6215","3535","&#9776;","elianto","#3366ff99"," "," ","1","0","[1687.0999999046326]","1","0","1","","","","","","","",""
"pit-trial","32","423174","0.0-2.0-8.1-4.1","battery-v0.2","","""event"",""trial"",""time""
""fullscreenenter"",""1"",""2887""
","
","
","""event"",""trial"",""time""
""fullscreenenter"",""1"",""2887""
","
","","","583.6999999284744","","","12","6215","3535","&#9776;","elianto","#3366ff99"," "," ","1","+10","[1436.7999999523163,2297.899999976158]","2","0","1","","","","","","","",""
"pit-trial","33","426853","0.0-2.0-8.2-0.2","battery-v0.2","","""event"",""trial"",""time""
""fullscreenenter"",""1"",""2887""
","
","
","""event"",""trial"",""time""
""fullscreenenter"",""1"",""2887""
","
","","","817.5999999046326","","","12","6215","3535","&#9776;","elianto","#3366ff99"," "," ","1","+10","[1671.4000000953674]","1","0","1","","","","","","","",""
"pit-trial","34","431718","0.0-2.0-8.2-1.2","battery-v0.2","","""event"",""trial"",""time""
""fullscreenenter"",""1"",""2887""
","
","
","""event"",""trial"",""time""
""fullscreenenter"",""1"",""2887""
","
","","","-1","","","12","6215","3535","&#9776;","elianto","#3366ff99"," ","-1","0","0","[]","0","0","1","","","","","","","",""
"pit-trial","35","435357","0.0-2.0-8.2-2.2","battery-v0.2","","""event"",""trial"",""time""
""fullscreenenter"",""1"",""2887""
","
","
","""event"",""trial"",""time""
""fullscreenenter"",""1"",""2887""
","
","","","778.3000000715256","","","12","6215","3535","&#9776;","elianto","#3366ff99"," "," ","1","+10","[1633.8999999761581]","1","0","1","","","","","","","",""
"pit-trial","36","439222","0.0-2.0-8.2-3.2","battery-v0.2","","""event"",""trial"",""time""
""fullscreenenter"",""1"",""2887""
","
","
","""event"",""trial"",""time""
""fullscreenenter"",""1"",""2887""
","
","","","1002.7999999523163","","","12","6215","3535","&#9776;","elianto","#3366ff99"," "," ","1","0","[1853.6000000238419]","1","0","1","","","","","","","",""
"pit-trial","37","442726","0.0-2.0-8.2-4.2","battery-v0.2","","""event"",""trial"",""time""
""fullscreenenter"",""1"",""2887""
","
","
","""event"",""trial"",""time""
""fullscreenenter"",""1"",""2887""
","
","","","641.7999999523163","","","12","6215","3535","&#9776;","elianto","#3366ff99"," "," ","1","+10","[1495.8000000715256]","1","0","1","","","","","","","",""
"call-function","38","442727","0.0-2.0-9.0","battery-v0.2","","""event"",""trial"",""time""
""fullscreenenter"",""1"",""2887""
","
","
","""event"",""trial"",""time""
""fullscreenenter"",""1"",""2887""
","
","","","","","","","","","","","","","","","","","","","","","","","","","","",""
"pit-instructions","39","487941","0.0-2.0-10.0","battery-v0.2","","""event"",""trial"",""time""
""fullscreenenter"",""1"",""2887""
","
","
","""event"",""trial"",""time""
""fullscreenenter"",""1"",""2887""
","
","","[{""page_index"":0,""viewing_time"":7555.5},{""page_index"":1,""viewing_time"":8461.5},{""page_index"":2,""viewing_time"":9189.300000071526},{""page_index"":3,""viewing_time"":10874.399999976158},{""page_index"":4,""viewing_time"":9131.399999976158}]","45212.60000002384","","","","","","","","","","","","","","","","","","","","","","","",""
"pit-trial","40","491604","0.0-2.0-11.0-0.0","battery-v0.2","","""event"",""trial"",""time""
""fullscreenenter"",""1"",""2887""
","
","
","""event"",""trial"",""time""
""fullscreenenter"",""1"",""2887""
","
","","","795.6000000238419","","","12","6215","3535","&#9761;","elianto","#3366ff99","-1"," ","0","0","[1647.5999999046326]","1","0","2","","","","","","","",""
"pit-trial","41","496500","0.0-2.0-11.0-1.0","battery-v0.2","","""event"",""trial"",""time""
""fullscreenenter"",""1"",""2887""
","
","
","""event"",""trial"",""time""
""fullscreenenter"",""1"",""2887""
","
","","","-1","","","12","6215","3535","&#9761;","elianto","#3366ff99","-1","-1","1","+10","[]","0","0","2","","","","","","","",""
"pit-trial","42","500278","0.0-2.0-11.0-2.0","battery-v0.2","","""event"",""trial"",""time""
""fullscreenenter"",""1"",""2887""
","
","
","""event"",""trial"",""time""
""fullscreenenter"",""1"",""2887""
","
","","","903.6000000238419","","","12","6215","3535","&#9761;","elianto","#3366ff99","-1"," ","0","0","[1755.6000000238419]","1","0","2","","","","","","","",""
"pit-trial","43","505164","0.0-2.0-11.0-3.0","battery-v0.2","","""event"",""trial"",""time""
""fullscreenenter"",""1"",""2887""
","
","
","""event"",""trial"",""time""
""fullscreenenter"",""1"",""2887""
","
","","","-1","","","12","6215","3535","&#9761;","elianto","#3366ff99","-1","-1","1","0","[]","0","0","2","","","","","","","",""
"pit-trial","44","508286","0.0-2.0-11.0-4.0","battery-v0.2","","""event"",""trial"",""time""
""fullscreenenter"",""1"",""2887""
","
","
","""event"",""trial"",""time""
""fullscreenenter"",""1"",""2887""
","
","","","247.39999997615814","","","12","6215","3535","&#9761;","elianto","#3366ff99","-1"," ","0","0","[1105.7999999523163]","1","0","2","","","","","","","",""
"pit-trial","45","512844","0.0-2.0-11.1-0.1","battery-v0.2","","""event"",""trial"",""time""
""fullscreenenter"",""1"",""2887""
","
","
","""event"",""trial"",""time""
""fullscreenenter"",""1"",""2887""
","
","","","1680.6999999284744","","","12","6215","3535","&#9761;","elianto","#3366ff99","-1"," ","0","0","[2534.8000000715256]","1","0","2","","","","","","","",""
"pit-trial","46","517709","0.0-2.0-11.1-1.1","battery-v0.2","","""event"",""trial"",""time""
""fullscreenenter"",""1"",""2887""
","
","
","""event"",""trial"",""time""
""fullscreenenter"",""1"",""2887""
","
","","","-1","","","12","6215","3535","&#9761;","elianto","#3366ff99","-1","-1","1","+10","[]","0","0","2","","","","","","","",""
"pit-trial","47","522573","0.0-2.0-11.1-2.1","battery-v0.2","","""event"",""trial"",""time""
""fullscreenenter"",""1"",""2887""
","
","
","""event"",""trial"",""time""
""fullscreenenter"",""1"",""2887""
","
","","","-1","","","12","6215","3535","&#9761;","elianto","#3366ff99","-1","-1","1","+10","[]","0","0","2","","","","","","","",""
"pit-trial","48","527438","0.0-2.0-11.1-3.1","battery-v0.2","","""event"",""trial"",""time""
""fullscreenenter"",""1"",""2887""
","
","
","""event"",""trial"",""time""
""fullscreenenter"",""1"",""2887""
","
","","","-1","","","12","6215","3535","&#9761;","elianto","#3366ff99","-1","-1","1","0","[]","0","0","2","","","","","","","",""
"pit-trial","49","531302","0.0-2.0-11.1-4.1","battery-v0.2","","""event"",""trial"",""time""
""fullscreenenter"",""1"",""2887""
","
","
","""event"",""trial"",""time""
""fullscreenenter"",""1"",""2887""
","
","","","1005.0999999046326","","","12","6215","3535","&#9761;","elianto","#3366ff99","-1"," ","0","0","[1856.7000000476837]","1","0","2","","","","","","","",""
"pit-trial","50","536165","0.0-2.0-11.2-0.2","battery-v0.2","","""event"",""trial"",""time""
""fullscreenenter"",""1"",""2887""
","
","
","""event"",""trial"",""time""
""fullscreenenter"",""1"",""2887""
","
","","","-1","","","12","6215","3535","&#9761;","elianto","#3366ff99","-1","-1","1","+10","[]","0","0","2","","","","","","","",""
"pit-trial","51","541030","0.0-2.0-11.2-1.2","battery-v0.2","","""event"",""trial"",""time""
""fullscreenenter"",""1"",""2887""
","
","
","""event"",""trial"",""time""
""fullscreenenter"",""1"",""2887""
","
","","","-1","","","12","6215","3535","&#9761;","elianto","#3366ff99","-1","-1","1","+10","[]","0","0","2","","","","","","","",""
"pit-trial","52","545894","0.0-2.0-11.2-2.2","battery-v0.2","","""event"",""trial"",""time""
""fullscreenenter"",""1"",""2887""
","
","
","""event"",""trial"",""time""
""fullscreenenter"",""1"",""2887""
","
","","","-1","","","12","6215","3535","&#9761;","elianto","#3366ff99","-1","-1","1","+10","[]","0","0","2","","","","","","","",""
"pit-trial","53","549430","0.0-2.0-11.2-3.2","battery-v0.2","","""event"",""trial"",""time""
""fullscreenenter"",""1"",""2887""
","
","
","""event"",""trial"",""time""
""fullscreenenter"",""1"",""2887""
","
","","","672","","","12","6215","3535","&#9761;","elianto","#3366ff99","-1"," ","0","+10","[1525.5]","1","0","2","","","","","","","",""
"pit-trial","54","552926","0.0-2.0-11.2-4.2","battery-v0.2","","""event"",""trial"",""time""
""fullscreenenter"",""1"",""2887""
","
","
","""event"",""trial"",""time""
""fullscreenenter"",""1"",""2887""
","
","","","640.2999999523163","","","12","6215","3535","&#9761;","elianto","#3366ff99","-1"," ","0","0","[1491.7999999523163]","1","0","2","","","","","","","",""
"pit-trial","55","557045","0.0-2.0-11.3-0.3","battery-v0.2","","""event"",""trial"",""time""
""fullscreenenter"",""1"",""2887""
","
","
","""event"",""trial"",""time""
""fullscreenenter"",""1"",""2887""
","
","","","1262.1000000238419","","","12","6215","3535","&#9761;","elianto","#3366ff99","-1"," ","0","0","[2113.2999999523163]","1","0","2","","","","","","","",""
"pit-trial","56","561190","0.0-2.0-11.3-1.3","battery-v0.2","","""event"",""trial"",""time""
""fullscreenenter"",""1"",""2887""
","
","
","""event"",""trial"",""time""
""fullscreenenter"",""1"",""2887""
","
","","","1287.8999999761581","","","12","6215","3535","&#9761;","elianto","#3366ff99","-1"," ","0","0","[2137.899999976158]","1","0","2","","","","","","","",""
"pit-trial","57","566053","0.0-2.0-11.3-2.3","battery-v0.2","","""event"",""trial"",""time""
""fullscreenenter"",""1"",""2887""
","
","
","""event"",""trial"",""time""
""fullscreenenter"",""1"",""2887""
","
","","","-1","","","12","6215","3535","&#9761;","elianto","#3366ff99","-1","-1","1","+10","[4533.100000023842]","1","0","2","","","","","","","",""
"pit-trial","58","569493","0.0-2.0-11.3-3.3","battery-v0.2","","""event"",""trial"",""time""
""fullscreenenter"",""1"",""2887""
","
","
","""event"",""trial"",""time""
""fullscreenenter"",""1"",""2887""
","
","","","581.5","","","12","6215","3535","&#9761;","elianto","#3366ff99","-1"," ","0","+10","[1431.8999999761581]","1","0","2","","","","","","","",""
"pit-trial","59","574368","0.0-2.0-11.3-4.3","battery-v0.2","","""event"",""trial"",""time""
""fullscreenenter"",""1"",""2887""
","
","
","""event"",""trial"",""time""
""fullscreenenter"",""1"",""2887""
","
","","","-1","","","12","6215","3535","&#9761;","elianto","#3366ff99","-1","-1","1","+10","[3678.7999999523163]","1","0","2","","","","","","","",""
"call-function","60","574369","0.0-2.0-12.0","battery-v0.2","","""event"",""trial"",""time""
""fullscreenenter"",""1"",""2887""
""blur"",""61"",""583593""
""focus"",""61"",""584257""
","""event"",""trial"",""time""
""blur"",""61"",""583593""
","""event"",""trial"",""time""
""focus"",""61"",""584257""
","""event"",""trial"",""time""
""fullscreenenter"",""1"",""2887""
","
","","","","","","","","","","","","","","","","","","","","","","","","","","",""
"pit-instructions","61","610519","0.0-2.0-13.0","battery-v0.2","","""event"",""trial"",""time""
""fullscreenenter"",""1"",""2887""
""blur"",""61"",""583593""
""focus"",""61"",""584257""
","""event"",""trial"",""time""
""blur"",""61"",""583593""
","""event"",""trial"",""time""
""focus"",""61"",""584257""
","""event"",""trial"",""time""
""fullscreenenter"",""1"",""2887""
","
","","[{""page_index"":0,""viewing_time"":5163.299999952316},{""page_index"":1,""viewing_time"":7047.800000071526},{""page_index"":2,""viewing_time"":3110.0999999046326},{""page_index"":3,""viewing_time"":13302},{""page_index"":4,""viewing_time"":7525.900000095367}]","36149.699999928474","","","","","","","","","","","","","","","","","","","","","","","",""
"pit-trial","62","615401","0.0-2.0-14.0-0.0","battery-v0.2","","""event"",""trial"",""time""
""fullscreenenter"",""1"",""2887""
""blur"",""61"",""583593""
""focus"",""61"",""584257""
","""event"",""trial"",""time""
""blur"",""61"",""583593""
","""event"",""trial"",""time""
""focus"",""61"",""584257""
","""event"",""trial"",""time""
""fullscreenenter"",""1"",""2887""
","
","","","-1","","","12","6215","3535","&#9826;","elianto","#f73b6a7A","-1","-1","1","0","[]","0","0","3","","","","","","","",""
"pit-trial","63","620275","0.0-2.0-14.0-1.0","battery-v0.2","","""event"",""trial"",""time""
""fullscreenenter"",""1"",""2887""
""blur"",""61"",""583593""
""focus"",""61"",""584257""
","""event"",""trial"",""time""
""blur"",""61"",""583593""
","""event"",""trial"",""time""
""focus"",""61"",""584257""
","""event"",""trial"",""time""
""fullscreenenter"",""1"",""2887""
","
","","","-1","","","12","6215","3535","&#9826;","elianto","#f73b6a7A","-1","-1","1","0","[]","0","0","3","","","","","","","",""
"pit-trial","64","625154","0.0-2.0-14.0-2.0","battery-v0.2","","""event"",""trial"",""time""
""fullscreenenter"",""1"",""2887""
""blur"",""61"",""583593""
""focus"",""61"",""584257""
","""event"",""trial"",""time""
""blur"",""61"",""583593""
","""event"",""trial"",""time""
""focus"",""61"",""584257""
","""event"",""trial"",""time""
""fullscreenenter"",""1"",""2887""
","
","","","-1","","","12","6215","3535","&#9826;","elianto","#f73b6a7A","-1","-1","1","0","[]","0","0","3","","","","","","","",""
"pit-trial","65","630032","0.0-2.0-14.0-3.0","battery-v0.2","","""event"",""trial"",""time""
""fullscreenenter"",""1"",""2887""
""blur"",""61"",""583593""
""focus"",""61"",""584257""
","""event"",""trial"",""time""
""blur"",""61"",""583593""
","""event"",""trial"",""time""
""focus"",""61"",""584257""
","""event"",""trial"",""time""
""fullscreenenter"",""1"",""2887""
","
","","","-1","","","12","6215","3535","&#9826;","elianto","#f73b6a7A","-1","-1","1","-10","[]","0","0","3","","","","","","","",""
"pit-trial","66","634109","0.0-2.0-14.0-4.0","battery-v0.2","","""event"",""trial"",""time""
""fullscreenenter"",""1"",""2887""
""blur"",""61"",""583593""
""focus"",""61"",""584257""
","""event"",""trial"",""time""
""blur"",""61"",""583593""
","""event"",""trial"",""time""
""focus"",""61"",""584257""
","""event"",""trial"",""time""
""fullscreenenter"",""1"",""2887""
","
","","","1211.6000000238419","","","12","6215","3535","&#9826;","elianto","#f73b6a7A","-1"," ","0","-10","[2065.2000000476837]","1","0","3","","","","","","","",""
"pit-trial","67","639021","0.0-2.0-14.1-0.1","battery-v0.2","","""event"",""trial"",""time""
""fullscreenenter"",""1"",""2887""
""blur"",""61"",""583593""
""focus"",""61"",""584257""
","""event"",""trial"",""time""
""blur"",""61"",""583593""
","""event"",""trial"",""time""
""focus"",""61"",""584257""
","""event"",""trial"",""time""
""fullscreenenter"",""1"",""2887""
","
","","","-1","","","12","6215","3535","&#9826;","elianto","#f73b6a7A","-1","-1","1","0","[]","0","0","3","","","","","","","",""
"pit-trial","68","643885","0.0-2.0-14.1-1.1","battery-v0.2","","""event"",""trial"",""time""
""fullscreenenter"",""1"",""2887""
""blur"",""61"",""583593""
""focus"",""61"",""584257""
","""event"",""trial"",""time""
""blur"",""61"",""583593""
","""event"",""trial"",""time""
""focus"",""61"",""584257""
","""event"",""trial"",""time""
""fullscreenenter"",""1"",""2887""
","
","","","-1","","","12","6215","3535","&#9826;","elianto","#f73b6a7A","-1","-1","1","0","[]","0","0","3","","","","","","","",""
"pit-trial","69","648749","0.0-2.0-14.1-2.1","battery-v0.2","","""event"",""trial"",""time""
""fullscreenenter"",""1"",""2887""
""blur"",""61"",""583593""
""focus"",""61"",""584257""
","""event"",""trial"",""time""
""blur"",""61"",""583593""
","""event"",""trial"",""time""
""focus"",""61"",""584257""
","""event"",""trial"",""time""
""fullscreenenter"",""1"",""2887""
","
","","","-1","","","12","6215","3535","&#9826;","elianto","#f73b6a7A","-1","-1","1","0","[]","0","0","3","","","","","","","",""
"pit-trial","70","653541","0.0-2.0-14.1-3.1","battery-v0.2","","""event"",""trial"",""time""
""fullscreenenter"",""1"",""2887""
""blur"",""61"",""583593""
""focus"",""61"",""584257""
","""event"",""trial"",""time""
""blur"",""61"",""583593""
","""event"",""trial"",""time""
""focus"",""61"",""584257""
","""event"",""trial"",""time""
""fullscreenenter"",""1"",""2887""
","
","","","1932.7000000476837","","","12","6215","3535","&#9826;","elianto","#f73b6a7A","-1"," ","0","0","[2784.6999999284744]","1","0","3","","","","","","","",""
"pit-trial","71","658405","0.0-2.0-14.1-4.1","battery-v0.2","","""event"",""trial"",""time""
""fullscreenenter"",""1"",""2887""
""blur"",""61"",""583593""
""focus"",""61"",""584257""
","""event"",""trial"",""time""
""blur"",""61"",""583593""
","""event"",""trial"",""time""
""focus"",""61"",""584257""
","""event"",""trial"",""time""
""fullscreenenter"",""1"",""2887""
","
","","","-1","","","12","6215","3535","&#9826;","elianto","#f73b6a7A","-1","-1","1","0","[]","0","0","3","","","","","","","",""
"pit-trial","72","663270","0.0-2.0-14.2-0.2","battery-v0.2","","""event"",""trial"",""time""
""fullscreenenter"",""1"",""2887""
""blur"",""61"",""583593""
""focus"",""61"",""584257""
","""event"",""trial"",""time""
""blur"",""61"",""583593""
","""event"",""trial"",""time""
""focus"",""61"",""584257""
","""event"",""trial"",""time""
""fullscreenenter"",""1"",""2887""
","
","","","-1","","","12","6215","3535","&#9826;","elianto","#f73b6a7A","-1","-1","1","0","[]","0","0","3","","","","","","","",""
"pit-trial","73","668134","0.0-2.0-14.2-1.2","battery-v0.2","","""event"",""trial"",""time""
""fullscreenenter"",""1"",""2887""
""blur"",""61"",""583593""
""focus"",""61"",""584257""
","""event"",""trial"",""time""
""blur"",""61"",""583593""
","""event"",""trial"",""time""
""focus"",""61"",""584257""
","""event"",""trial"",""time""
""fullscreenenter"",""1"",""2887""
","
","","","-1","","","12","6215","3535","&#9826;","elianto","#f73b6a7A","-1","-1","1","0","[]","0","0","3","","","","","","","",""
"pit-trial","74","672997","0.0-2.0-14.2-2.2","battery-v0.2","","""event"",""trial"",""time""
""fullscreenenter"",""1"",""2887""
""blur"",""61"",""583593""
""focus"",""61"",""584257""
","""event"",""trial"",""time""
""blur"",""61"",""583593""
","""event"",""trial"",""time""
""focus"",""61"",""584257""
","""event"",""trial"",""time""
""fullscreenenter"",""1"",""2887""
","
","","","-1","","","12","6215","3535","&#9826;","elianto","#f73b6a7A","-1","-1","1","0","[]","0","0","3","","","","","","","",""
"pit-trial","75","677862","0.0-2.0-14.2-3.2","battery-v0.2","","""event"",""trial"",""time""
""fullscreenenter"",""1"",""2887""
""blur"",""61"",""583593""
""focus"",""61"",""584257""
","""event"",""trial"",""time""
""blur"",""61"",""583593""
","""event"",""trial"",""time""
""focus"",""61"",""584257""
","""event"",""trial"",""time""
""fullscreenenter"",""1"",""2887""
","
","","","-1","","","12","6215","3535","&#9826;","elianto","#f73b6a7A","-1","-1","1","-10","[]","0","0","3","","","","","","","",""
"pit-trial","76","681502","0.0-2.0-14.2-4.2","battery-v0.2","","""event"",""trial"",""time""
""fullscreenenter"",""1"",""2887""
""blur"",""61"",""583593""
""focus"",""61"",""584257""
","""event"",""trial"",""time""
""blur"",""61"",""583593""
","""event"",""trial"",""time""
""focus"",""61"",""584257""
","""event"",""trial"",""time""
""fullscreenenter"",""1"",""2887""
","
","","","780.9000000953674","","","12","6215","3535","&#9826;","elianto","#f73b6a7A","-1"," ","0","-10","[1633.7000000476837,2153.899999976158,2629.100000023842]","3","0","3","","","","","","","",""
"pit-trial","77","684933","0.0-2.0-14.3-0.3","battery-v0.2","","""event"",""trial"",""time""
""fullscreenenter"",""1"",""2887""
""blur"",""61"",""583593""
""focus"",""61"",""584257""
","""event"",""trial"",""time""
""blur"",""61"",""583593""
","""event"",""trial"",""time""
""focus"",""61"",""584257""
","""event"",""trial"",""time""
""fullscreenenter"",""1"",""2887""
","
","","","567.3999999761581","","","12","6215","3535","&#9826;","elianto","#f73b6a7A","-1"," ","0","-10","[518.8000000715256,1422.2000000476837]","2","0","3","","","","","","","",""
"pit-trial","78","689797","0.0-2.0-14.3-1.3","battery-v0.2","","""event"",""trial"",""time""
""fullscreenenter"",""1"",""2887""
""blur"",""61"",""583593""
""focus"",""61"",""584257""
","""event"",""trial"",""time""
""blur"",""61"",""583593""
","""event"",""trial"",""time""
""focus"",""61"",""584257""
","""event"",""trial"",""time""
""fullscreenenter"",""1"",""2887""
","
","","","-1","","","12","6215","3535","&#9826;","elianto","#f73b6a7A","-1","-1","1","0","[400,4298]","2","0","3","","","","","","","",""
"pit-trial","79","692664","0.0-2.0-14.3-2.3","battery-v0.2","","""event"",""trial"",""time""
""fullscreenenter"",""1"",""2887""
""blur"",""61"",""583593""
""focus"",""61"",""584257""
","""event"",""trial"",""time""
""blur"",""61"",""583593""
","""event"",""trial"",""time""
""focus"",""61"",""584257""
","""event"",""trial"",""time""
""fullscreenenter"",""1"",""2887""
","
","","","8.900000095367432","","","12","6215","3535","&#9826;","elianto","#f73b6a7A","-1"," ","0","-10","[177.39999997615814,628.2000000476837,861.7000000476837]","3","0","3","","","","","","","",""
"pit-trial","80","695717","0.0-2.0-14.3-3.3","battery-v0.2","","""event"",""trial"",""time""
""fullscreenenter"",""1"",""2887""
""blur"",""61"",""583593""
""focus"",""61"",""584257""
","""event"",""trial"",""time""
""blur"",""61"",""583593""
","""event"",""trial"",""time""
""focus"",""61"",""584257""
","""event"",""trial"",""time""
""fullscreenenter"",""1"",""2887""
","
","","","196.19999992847443","","","12","6215","3535","&#9826;","elianto","#f73b6a7A","-1"," ","0","0","[815.8000000715256,1047]","2","0","3","","","","","","","",""
"pit-trial","81","700581","0.0-2.0-14.3-4.3","battery-v0.2","","""event"",""trial"",""time""
""fullscreenenter"",""1"",""2887""
""blur"",""61"",""583593""
""focus"",""61"",""584257""
","""event"",""trial"",""time""
""blur"",""61"",""583593""
","""event"",""trial"",""time""
""focus"",""61"",""584257""
","""event"",""trial"",""time""
""fullscreenenter"",""1"",""2887""
","
","","","-1","","","12","6215","3535","&#9826;","elianto","#f73b6a7A","-1","-1","1","0","[4546.200000047684]","1","0","3","","","","","","","",""
"call-function","82","700585","0.0-2.0-15.0","battery-v0.2","","""event"",""trial"",""time""
""fullscreenenter"",""1"",""2887""
""blur"",""61"",""583593""
""focus"",""61"",""584257""
","""event"",""trial"",""time""
""blur"",""61"",""583593""
","""event"",""trial"",""time""
""focus"",""61"",""584257""
","""event"",""trial"",""time""
""fullscreenenter"",""1"",""2887""
","
","","","","","","","","","","","","","","","","","","","","","","","","","","",""
"pit-instructions","83","734558","0.0-2.0-16.0","battery-v0.2","","""event"",""trial"",""time""
""fullscreenenter"",""1"",""2887""
""blur"",""61"",""583593""
""focus"",""61"",""584257""
","""event"",""trial"",""time""
""blur"",""61"",""583593""
","""event"",""trial"",""time""
""focus"",""61"",""584257""
","""event"",""trial"",""time""
""fullscreenenter"",""1"",""2887""
","
","","[{""page_index"":0,""viewing_time"":8430.800000071526},{""page_index"":1,""viewing_time"":10416.899999976158},{""page_index"":2,""viewing_time"":7626.199999928474},{""page_index"":3,""viewing_time"":7491.400000095367}]","33967.10000002384","","","","","","","","","","","","","","","","","","","","","","","",""
"pit-trial","84","738346","0.0-2.0-17.0-0.0","battery-v0.2","","""event"",""trial"",""time""
""fullscreenenter"",""1"",""2887""
""blur"",""61"",""583593""
""focus"",""61"",""584257""
","""event"",""trial"",""time""
""blur"",""61"",""583593""
","""event"",""trial"",""time""
""focus"",""61"",""584257""
","""event"",""trial"",""time""
""fullscreenenter"",""1"",""2887""
","
","","","924.2000000476837","","","12","6215","3535","&#9789;","elianto","#f73b6a7A"," "," ","1","0","[1774.6999999284744]","1","0","4","","","","","","","",""
"pit-trial","85","743227","0.0-2.0-17.0-1.0","battery-v0.2","","""event"",""trial"",""time""
""fullscreenenter"",""1"",""2887""
""blur"",""61"",""583593""
""focus"",""61"",""584257""
","""event"",""trial"",""time""
""blur"",""61"",""583593""
","""event"",""trial"",""time""
""focus"",""61"",""584257""
","""event"",""trial"",""time""
""fullscreenenter"",""1"",""2887""
","
","","","-1","","","12","6215","3535","&#9789;","elianto","#f73b6a7A"," ","-1","0","-10","[121,441.39999997615814]","2","0","4","","","","","","","",""
"pit-trial","86","746843","0.0-2.0-17.0-2.0","battery-v0.2","","""event"",""trial"",""time""
""fullscreenenter"",""1"",""2887""
""blur"",""61"",""583593""
""focus"",""61"",""584257""
","""event"",""trial"",""time""
""blur"",""61"",""583593""
","""event"",""trial"",""time""
""focus"",""61"",""584257""
","""event"",""trial"",""time""
""fullscreenenter"",""1"",""2887""
","
","","","733.8999999761581","","","12","6215","3535","&#9789;","elianto","#f73b6a7A"," "," ","1","0","[1597]","1","0","4","","","","","","","",""
"pit-trial","87","749917","0.0-2.0-17.0-3.0","battery-v0.2","","""event"",""trial"",""time""
""fullscreenenter"",""1"",""2887""
""blur"",""61"",""583593""
""focus"",""61"",""584257""
","""event"",""trial"",""time""
""blur"",""61"",""583593""
","""event"",""trial"",""time""
""focus"",""61"",""584257""
","""event"",""trial"",""time""
""fullscreenenter"",""1"",""2887""
","
","","","200.09999990463257","","","12","6215","3535","&#9789;","elianto","#f73b6a7A"," "," ","1","-10","[1054,2286.600000023842]","2","0","4","","","","","","","",""
"pit-trial","88","754790","0.0-2.0-17.0-4.0","battery-v0.2","","""event"",""trial"",""time""
""fullscreenenter"",""1"",""2887""
""blur"",""61"",""583593""
""focus"",""61"",""584257""
","""event"",""trial"",""time""
""blur"",""61"",""583593""
","""event"",""trial"",""time""
""focus"",""61"",""584257""
","""event"",""trial"",""time""
""fullscreenenter"",""1"",""2887""
","
","","","-1","","","12","6215","3535","&#9789;","elianto","#f73b6a7A"," ","-1","0","-10","[]","0","0","4","","","","","","","",""
"pit-trial","89","759673","0.0-2.0-17.1-0.1","battery-v0.2","","""event"",""trial"",""time""
""fullscreenenter"",""1"",""2887""
""blur"",""61"",""583593""
""focus"",""61"",""584257""
","""event"",""trial"",""time""
""blur"",""61"",""583593""
","""event"",""trial"",""time""
""focus"",""61"",""584257""
","""event"",""trial"",""time""
""fullscreenenter"",""1"",""2887""
","
","","","-1","","","12","6215","3535","&#9789;","elianto","#f73b6a7A"," ","-1","0","-10","[]","0","0","4","","","","","","","",""
"pit-trial","90","764541","0.0-2.0-17.1-1.1","battery-v0.2","","""event"",""trial"",""time""
""fullscreenenter"",""1"",""2887""
""blur"",""61"",""583593""
""focus"",""61"",""584257""
","""event"",""trial"",""time""
""blur"",""61"",""583593""
","""event"",""trial"",""time""
""focus"",""61"",""584257""
","""event"",""trial"",""time""
""fullscreenenter"",""1"",""2887""
","
","","","-1","","","12","6215","3535","&#9789;","elianto","#f73b6a7A"," ","-1","0","-10","[]","0","0","4","","","","","","","",""
"pit-trial","91","769404","0.0-2.0-17.1-2.1","battery-v0.2","","""event"",""trial"",""time""
""fullscreenenter"",""1"",""2887""
""blur"",""61"",""583593""
""focus"",""61"",""584257""
""blur"",""92"",""771178""
""focus"",""92"",""772650""
","""event"",""trial"",""time""
""blur"",""61"",""583593""
""blur"",""92"",""771178""
","""event"",""trial"",""time""
""focus"",""61"",""584257""
""focus"",""92"",""772650""
","""event"",""trial"",""time""
""fullscreenenter"",""1"",""2887""
","
","","","-1","","","12","6215","3535","&#9789;","elianto","#f73b6a7A"," ","-1","0","-10","[]","0","0","4","","","","","","","",""
"pit-trial","92","774283","0.0-2.0-17.1-3.1","battery-v0.2","","""event"",""trial"",""time""
""fullscreenenter"",""1"",""2887""
""blur"",""61"",""583593""
""focus"",""61"",""584257""
""blur"",""92"",""771178""
""focus"",""92"",""772650""
""blur"",""93"",""774300""
""focus"",""93"",""776093""
","""event"",""trial"",""time""
""blur"",""61"",""583593""
""blur"",""92"",""771178""
""blur"",""93"",""774300""
","""event"",""trial"",""time""
""focus"",""61"",""584257""
""focus"",""92"",""772650""
""focus"",""93"",""776093""
","""event"",""trial"",""time""
""fullscreenenter"",""1"",""2887""
","
","","","-1","","","12","6215","3535","&#9789;","elianto","#f73b6a7A"," ","-1","0","0","[]","0","0","4","","","","","","","",""
"pit-trial","93","779158","0.0-2.0-17.1-4.1","battery-v0.2","","""event"",""trial"",""time""
""fullscreenenter"",""1"",""2887""
""blur"",""61"",""583593""
""focus"",""61"",""584257""
""blur"",""92"",""771178""
""focus"",""92"",""772650""
""blur"",""93"",""774300""
""focus"",""93"",""776093""
","""event"",""trial"",""time""
""blur"",""61"",""583593""
""blur"",""92"",""771178""
""blur"",""93"",""774300""
","""event"",""trial"",""time""
""focus"",""61"",""584257""
""focus"",""92"",""772650""
""focus"",""93"",""776093""
","""event"",""trial"",""time""
""fullscreenenter"",""1"",""2887""
","
","","","-1","","","12","6215","3535","&#9789;","elianto","#f73b6a7A"," ","-1","0","-10","[3178.399999976158]","1","0","4","","","","","","","",""
"pit-trial","94","784021","0.0-2.0-17.2-0.2","battery-v0.2","","""event"",""trial"",""time""
""fullscreenenter"",""1"",""2887""
""blur"",""61"",""583593""
""focus"",""61"",""584257""
""blur"",""92"",""771178""
""focus"",""92"",""772650""
""blur"",""93"",""774300""
""focus"",""93"",""776093""
","""event"",""trial"",""time""
""blur"",""61"",""583593""
""blur"",""92"",""771178""
""blur"",""93"",""774300""
","""event"",""trial"",""time""
""focus"",""61"",""584257""
""focus"",""92"",""772650""
""focus"",""93"",""776093""
","""event"",""trial"",""time""
""fullscreenenter"",""1"",""2887""
","
","","","-1","","","12","6215","3535","&#9789;","elianto","#f73b6a7A"," ","-1","0","-10","[]","0","0","4","","","","","","","",""
"pit-trial","95","787869","0.0-2.0-17.2-1.2","battery-v0.2","","""event"",""trial"",""time""
""fullscreenenter"",""1"",""2887""
""blur"",""61"",""583593""
""focus"",""61"",""584257""
""blur"",""92"",""771178""
""focus"",""92"",""772650""
""blur"",""93"",""774300""
""focus"",""93"",""776093""
","""event"",""trial"",""time""
""blur"",""61"",""583593""
""blur"",""92"",""771178""
""blur"",""93"",""774300""
","""event"",""trial"",""time""
""focus"",""61"",""584257""
""focus"",""92"",""772650""
""focus"",""93"",""776093""
","""event"",""trial"",""time""
""fullscreenenter"",""1"",""2887""
","
","","","986.5","","","12","6215","3535","&#9789;","elianto","#f73b6a7A"," "," ","1","0","[1840.8000000715256]","1","0","4","","","","","","","",""
"pit-trial","96","791270","0.0-2.0-17.2-2.2","battery-v0.2","","""event"",""trial"",""time""
""fullscreenenter"",""1"",""2887""
""blur"",""61"",""583593""
""focus"",""61"",""584257""
""blur"",""92"",""771178""
""focus"",""92"",""772650""
""blur"",""93"",""774300""
""focus"",""93"",""776093""
","""event"",""trial"",""time""
""blur"",""61"",""583593""
""blur"",""92"",""771178""
""blur"",""93"",""774300""
","""event"",""trial"",""time""
""focus"",""61"",""584257""
""focus"",""92"",""772650""
""focus"",""93"",""776093""
","""event"",""trial"",""time""
""fullscreenenter"",""1"",""2887""
","
","","","536.3999999761581","","","12","6215","3535","&#9789;","elianto","#f73b6a7A"," "," ","1","0","[1389.7999999523163]","1","0","4","","","","","","","",""
"pit-trial","97","794166","0.0-2.0-17.2-3.2","battery-v0.2","","""event"",""trial"",""time""
""fullscreenenter"",""1"",""2887""
""blur"",""61"",""583593""
""focus"",""61"",""584257""
""blur"",""92"",""771178""
""focus"",""92"",""772650""
""blur"",""93"",""774300""
""focus"",""93"",""776093""
","""event"",""trial"",""time""
""blur"",""61"",""583593""
""blur"",""92"",""771178""
""blur"",""93"",""774300""
","""event"",""trial"",""time""
""focus"",""61"",""584257""
""focus"",""92"",""772650""
""focus"",""93"",""776093""
","""event"",""trial"",""time""
""fullscreenenter"",""1"",""2887""
","
","","","33.5","","","12","6215","3535","&#9789;","elianto","#f73b6a7A"," "," ","1","-10","[885.4000000953674]","1","0","4","","","","","","","",""
"pit-trial","98","797566","0.0-2.0-17.2-4.2","battery-v0.2","","""event"",""trial"",""time""
""fullscreenenter"",""1"",""2887""
""blur"",""61"",""583593""
""focus"",""61"",""584257""
""blur"",""92"",""771178""
""focus"",""92"",""772650""
""blur"",""93"",""774300""
""focus"",""93"",""776093""
","""event"",""trial"",""time""
""blur"",""61"",""583593""
""blur"",""92"",""771178""
""blur"",""93"",""774300""
","""event"",""trial"",""time""
""focus"",""61"",""584257""
""focus"",""92"",""772650""
""focus"",""93"",""776093""
","""event"",""trial"",""time""
""fullscreenenter"",""1"",""2887""
","
","","","541.8000000715256","","","12","6215","3535","&#9789;","elianto","#f73b6a7A"," "," ","1","0","[1394.8000000715256]","1","0","4","","","","","","","",""
"pit-trial","99","801094","0.0-2.0-17.3-0.3","battery-v0.2","","""event"",""trial"",""time""
""fullscreenenter"",""1"",""2887""
""blur"",""61"",""583593""
""focus"",""61"",""584257""
""blur"",""92"",""771178""
""focus"",""92"",""772650""
""blur"",""93"",""774300""
""focus"",""93"",""776093""
","""event"",""trial"",""time""
""blur"",""61"",""583593""
""blur"",""92"",""771178""
""blur"",""93"",""774300""
","""event"",""trial"",""time""
""focus"",""61"",""584257""
""focus"",""92"",""772650""
""focus"",""93"",""776093""
","""event"",""trial"",""time""
""fullscreenenter"",""1"",""2887""
","
","","","662.5999999046326","","","12","6215","3535","&#9789;","elianto","#f73b6a7A"," "," ","1","0","[1515.5999999046326,2658.1999999284744]","2","0","4","","","","","","","",""
"pit-trial","100","805006","0.0-2.0-17.3-1.3","battery-v0.2","","""event"",""trial"",""time""
""fullscreenenter"",""1"",""2887""
""blur"",""61"",""583593""
""focus"",""61"",""584257""
""blur"",""92"",""771178""
""focus"",""92"",""772650""
""blur"",""93"",""774300""
""focus"",""93"",""776093""
","""event"",""trial"",""time""
""blur"",""61"",""583593""
""blur"",""92"",""771178""
""blur"",""93"",""774300""
","""event"",""trial"",""time""
""focus"",""61"",""584257""
""focus"",""92"",""772650""
""focus"",""93"",""776093""
","""event"",""trial"",""time""
""fullscreenenter"",""1"",""2887""
","
","","","1049.2000000476837","","","12","6215","3535","&#9789;","elianto","#f73b6a7A"," "," ","1","0","[1901.7000000476837]","1","0","4","","","","","","","",""
"pit-trial","101","809870","0.0-2.0-17.3-2.3","battery-v0.2","","""event"",""trial"",""time""
""fullscreenenter"",""1"",""2887""
""blur"",""61"",""583593""
""focus"",""61"",""584257""
""blur"",""92"",""771178""
""focus"",""92"",""772650""
""blur"",""93"",""774300""
""focus"",""93"",""776093""
","""event"",""trial"",""time""
""blur"",""61"",""583593""
""blur"",""92"",""771178""
""blur"",""93"",""774300""
","""event"",""trial"",""time""
""focus"",""61"",""584257""
""focus"",""92"",""772650""
""focus"",""93"",""776093""
","""event"",""trial"",""time""
""fullscreenenter"",""1"",""2887""
","
","","","-1","","","12","6215","3535","&#9789;","elianto","#f73b6a7A"," ","-1","0","-10","[]","0","0","4","","","","","","","",""
"pit-trial","102","814737","0.0-2.0-17.3-3.3","battery-v0.2","","""event"",""trial"",""time""
""fullscreenenter"",""1"",""2887""
""blur"",""61"",""583593""
""focus"",""61"",""584257""
""blur"",""92"",""771178""
""focus"",""92"",""772650""
""blur"",""93"",""774300""
""focus"",""93"",""776093""
","""event"",""trial"",""time""
""blur"",""61"",""583593""
""blur"",""92"",""771178""
""blur"",""93"",""774300""
","""event"",""trial"",""time""
""focus"",""61"",""584257""
""focus"",""92"",""772650""
""focus"",""93"",""776093""
","""event"",""trial"",""time""
""fullscreenenter"",""1"",""2887""
","
","","","-1","","","12","6215","3535","&#9789;","elianto","#f73b6a7A"," ","-1","0","0","[]","0","0","4","","","","","","","",""
"pit-trial","103","819605","0.0-2.0-17.3-4.3","battery-v0.2","","""event"",""trial"",""time""
""fullscreenenter"",""1"",""2887""
""blur"",""61"",""583593""
""focus"",""61"",""584257""
""blur"",""92"",""771178""
""focus"",""92"",""772650""
""blur"",""93"",""774300""
""focus"",""93"",""776093""
","""event"",""trial"",""time""
""blur"",""61"",""583593""
""blur"",""92"",""771178""
""blur"",""93"",""774300""
","""event"",""trial"",""time""
""focus"",""61"",""584257""
""focus"",""92"",""772650""
""focus"",""93"",""776093""
","""event"",""trial"",""time""
""fullscreenenter"",""1"",""2887""
","
","","","-1","","","12","6215","3535","&#9789;","elianto","#f73b6a7A"," ","-1","0","-10","[]","0","0","4","","","","","","","",""
"call-function","104","819607","0.0-2.0-18.0","battery-v0.2","","""event"",""trial"",""time""
""fullscreenenter"",""1"",""2887""
""blur"",""61"",""583593""
""focus"",""61"",""584257""
""blur"",""92"",""771178""
""focus"",""92"",""772650""
""blur"",""93"",""774300""
""focus"",""93"",""776093""
","""event"",""trial"",""time""
""blur"",""61"",""583593""
""blur"",""92"",""771178""
""blur"",""93"",""774300""
","""event"",""trial"",""time""
""focus"",""61"",""584257""
""focus"",""92"",""772650""
""focus"",""93"",""776093""
","""event"",""trial"",""time""
""fullscreenenter"",""1"",""2887""
","
","","","","","","","","","","","","","","","","","","","","","","","","","","",""
"pit-instructions","105","909064","0.0-2.0-19.0","battery-v0.2","","""event"",""trial"",""time""
""fullscreenenter"",""1"",""2887""
""blur"",""61"",""583593""
""focus"",""61"",""584257""
""blur"",""92"",""771178""
""focus"",""92"",""772650""
""blur"",""93"",""774300""
""focus"",""93"",""776093""
","""event"",""trial"",""time""
""blur"",""61"",""583593""
""blur"",""92"",""771178""
""blur"",""93"",""774300""
","""event"",""trial"",""time""
""focus"",""61"",""584257""
""focus"",""92"",""772650""
""focus"",""93"",""776093""
","""event"",""trial"",""time""
""fullscreenenter"",""1"",""2887""
","
","","[{""page_index"":0,""viewing_time"":36566.60000002384},{""page_index"":1,""viewing_time"":4164.5},{""page_index"":2,""viewing_time"":15910.899999976158},{""page_index"":3,""viewing_time"":4174.600000023842},{""page_index"":4,""viewing_time"":6531.399999976158},{""page_index"":5,""viewing_time"":9107.699999928474},{""page_index"":6,""viewing_time"":4368.700000047684},{""page_index"":7,""viewing_time"":4446.600000023842},{""page_index"":8,""viewing_time"":4183.299999952316}]","89456.89999997616","","","","","","","","","","","","","","","","","","","","","","","",""
"pit-comprehension","106","916403","0.0-2.0-20.0-0.0","battery-v0.2","","""event"",""trial"",""time""
""fullscreenenter"",""1"",""2887""
""blur"",""61"",""583593""
""focus"",""61"",""584257""
""blur"",""92"",""771178""
""focus"",""92"",""772650""
""blur"",""93"",""774300""
""focus"",""93"",""776093""
","""event"",""trial"",""time""
""blur"",""61"",""583593""
""blur"",""92"",""771178""
""blur"",""93"",""774300""
","""event"",""trial"",""time""
""focus"",""61"",""584257""
""focus"",""92"",""772650""
""focus"",""93"",""776093""
","""event"",""trial"",""time""
""fullscreenenter"",""1"",""2887""
","
","","","7316.299999952316","[""SPACE""]","0","12","6215","3535","","","","","","","","","","","","","","","","","","",""
"pit-instructions","107","919290","0.0-2.0-20.0-1.0","battery-v0.2","","""event"",""trial"",""time""
""fullscreenenter"",""1"",""2887""
""blur"",""61"",""583593""
""focus"",""61"",""584257""
""blur"",""92"",""771178""
""focus"",""92"",""772650""
""blur"",""93"",""774300""
""focus"",""93"",""776093""
","""event"",""trial"",""time""
""blur"",""61"",""583593""
""blur"",""92"",""771178""
""blur"",""93"",""774300""
","""event"",""trial"",""time""
""focus"",""61"",""584257""
""focus"",""92"",""772650""
""focus"",""93"",""776093""
","""event"",""trial"",""time""
""fullscreenenter"",""1"",""2887""
","
","","[{""page_index"":0,""viewing_time"":2835}]","2835.600000023842","","","","","","","","","","","","","","","","","","","","","","","",""
"pit-comprehension","108","927545","0.0-2.0-21.0-0.0","battery-v0.2","","""event"",""trial"",""time""
""fullscreenenter"",""1"",""2887""
""blur"",""61"",""583593""
""focus"",""61"",""584257""
""blur"",""92"",""771178""
""focus"",""92"",""772650""
""blur"",""93"",""774300""
""focus"",""93"",""776093""
","""event"",""trial"",""time""
""blur"",""61"",""583593""
""blur"",""92"",""771178""
""blur"",""93"",""774300""
","""event"",""trial"",""time""
""focus"",""61"",""584257""
""focus"",""92"",""772650""
""focus"",""93"",""776093""
","""event"",""trial"",""time""
""fullscreenenter"",""1"",""2887""
","
","","","8251.399999976158","[""10""]","0","12","6215","3535","","","","","","","","","","","","","","","","","","",""
"pit-instructions","109","928863","0.0-2.0-21.0-1.0","battery-v0.2","","""event"",""trial"",""time""
""fullscreenenter"",""1"",""2887""
""blur"",""61"",""583593""
""focus"",""61"",""584257""
""blur"",""92"",""771178""
""focus"",""92"",""772650""
""blur"",""93"",""774300""
""focus"",""93"",""776093""
","""event"",""trial"",""time""
""blur"",""61"",""583593""
""blur"",""92"",""771178""
""blur"",""93"",""774300""
","""event"",""trial"",""time""
""focus"",""61"",""584257""
""focus"",""92"",""772650""
""focus"",""93"",""776093""
","""event"",""trial"",""time""
""fullscreenenter"",""1"",""2887""
","
","","[{""page_index"":0,""viewing_time"":1280.6000000238419}]","1281.1000000238419","","","","","","","","","","","","","","","","","","","","","","","",""
"pit-comprehension","110","940056","0.0-2.0-22.0-0.0","battery-v0.2","","""event"",""trial"",""time""
""fullscreenenter"",""1"",""2887""
""blur"",""61"",""583593""
""focus"",""61"",""584257""
""blur"",""92"",""771178""
""focus"",""92"",""772650""
""blur"",""93"",""774300""
""focus"",""93"",""776093""
","""event"",""trial"",""time""
""blur"",""61"",""583593""
""blur"",""92"",""771178""
""blur"",""93"",""774300""
","""event"",""trial"",""time""
""focus"",""61"",""584257""
""focus"",""92"",""772650""
""focus"",""93"",""776093""
","""event"",""trial"",""time""
""fullscreenenter"",""1"",""2887""
","
","","","11189.399999976158","[""0""]","0","12","6215","3535","","","","","","","","","","","","","","","","","","",""
"pit-instructions","111","941623","0.0-2.0-22.0-1.0","battery-v0.2","","""event"",""trial"",""time""
""fullscreenenter"",""1"",""2887""
""blur"",""61"",""583593""
""focus"",""61"",""584257""
""blur"",""92"",""771178""
""focus"",""92"",""772650""
""blur"",""93"",""774300""
""focus"",""93"",""776093""
","""event"",""trial"",""time""
""blur"",""61"",""583593""
""blur"",""92"",""771178""
""blur"",""93"",""774300""
","""event"",""trial"",""time""
""focus"",""61"",""584257""
""focus"",""92"",""772650""
""focus"",""93"",""776093""
","""event"",""trial"",""time""
""fullscreenenter"",""1"",""2887""
","
","","[{""page_index"":0,""viewing_time"":1529.3999999761581}]","1530","","","","","","","","","","","","","","","","","","","","","","","",""
"pit-comprehension","112","949718","0.0-2.0-23.0-0.0","battery-v0.2","","""event"",""trial"",""time""
""fullscreenenter"",""1"",""2887""
""blur"",""61"",""583593""
""focus"",""61"",""584257""
""blur"",""92"",""771178""
""focus"",""92"",""772650""
""blur"",""93"",""774300""
""focus"",""93"",""776093""
","""event"",""trial"",""time""
""blur"",""61"",""583593""
""blur"",""92"",""771178""
""blur"",""93"",""774300""
","""event"",""trial"",""time""
""focus"",""61"",""584257""
""focus"",""92"",""772650""
""focus"",""93"",""776093""
","""event"",""trial"",""time""
""fullscreenenter"",""1"",""2887""
","
","","","8088.700000047684","[""True""]","0","12","6215","3535","","","","","","","","","","","","","","","","","","",""
"pit-instructions","113","951225","0.0-2.0-23.0-1.0","battery-v0.2","","""event"",""trial"",""time""
""fullscreenenter"",""1"",""2887""
""blur"",""61"",""583593""
""focus"",""61"",""584257""
""blur"",""92"",""771178""
""focus"",""92"",""772650""
""blur"",""93"",""774300""
""focus"",""93"",""776093""
","""event"",""trial"",""time""
""blur"",""61"",""583593""
""blur"",""92"",""771178""
""blur"",""93"",""774300""
","""event"",""trial"",""time""
""focus"",""61"",""584257""
""focus"",""92"",""772650""
""focus"",""93"",""776093""
","""event"",""trial"",""time""
""fullscreenenter"",""1"",""2887""
","
","","[{""page_index"":0,""viewing_time"":1471.2000000476837}]","1471.7999999523163","","","","","","","","","","","","","","","","","","","","","","","",""
"pit-comprehension","114","958346","0.0-2.0-24.0-0.0","battery-v0.2","","""event"",""trial"",""time""
""fullscreenenter"",""1"",""2887""
""blur"",""61"",""583593""
""focus"",""61"",""584257""
""blur"",""92"",""771178""
""focus"",""92"",""772650""
""blur"",""93"",""774300""
""focus"",""93"",""776093""
","""event"",""trial"",""time""
""blur"",""61"",""583593""
""blur"",""92"",""771178""
""blur"",""93"",""774300""
","""event"",""trial"",""time""
""focus"",""61"",""584257""
""focus"",""92"",""772650""
""focus"",""93"",""776093""
","""event"",""trial"",""time""
""fullscreenenter"",""1"",""2887""
","
","","","7115.200000047684","[""True""]","0","12","6215","3535","","","","","","","","","","","","","","","","","","",""
"pit-instructions","115","959428","0.0-2.0-24.0-1.0","battery-v0.2","","""event"",""trial"",""time""
""fullscreenenter"",""1"",""2887""
""blur"",""61"",""583593""
""focus"",""61"",""584257""
""blur"",""92"",""771178""
""focus"",""92"",""772650""
""blur"",""93"",""774300""
""focus"",""93"",""776093""
","""event"",""trial"",""time""
""blur"",""61"",""583593""
""blur"",""92"",""771178""
""blur"",""93"",""774300""
","""event"",""trial"",""time""
""focus"",""61"",""584257""
""focus"",""92"",""772650""
""focus"",""93"",""776093""
","""event"",""trial"",""time""
""fullscreenenter"",""1"",""2887""
","
","","[{""page_index"":0,""viewing_time"":1050.1999999284744}]","1050.5","","","","","","","","","","","","","","","","","","","","","","","",""
"pit-comprehension","116","966316","0.0-2.0-25.0-0.0","battery-v0.2","","""event"",""trial"",""time""
""fullscreenenter"",""1"",""2887""
""blur"",""61"",""583593""
""focus"",""61"",""584257""
""blur"",""92"",""771178""
""focus"",""92"",""772650""
""blur"",""93"",""774300""
""focus"",""93"",""776093""
","""event"",""trial"",""time""
""blur"",""61"",""583593""
""blur"",""92"",""771178""
""blur"",""93"",""774300""
","""event"",""trial"",""time""
""focus"",""61"",""584257""
""focus"",""92"",""772650""
""focus"",""93"",""776093""
","""event"",""trial"",""time""
""fullscreenenter"",""1"",""2887""
","
","","","6884.600000023842","[""False""]","1","12","6215","3535","","","","","","","","","","","","","","","","","","",""
"pit-instructions","117","971800","0.0-2.0-25.0-1.0","battery-v0.2","","""event"",""trial"",""time""
""fullscreenenter"",""1"",""2887""
""blur"",""61"",""583593""
""focus"",""61"",""584257""
""blur"",""92"",""771178""
""focus"",""92"",""772650""
""blur"",""93"",""774300""
""focus"",""93"",""776093""
","""event"",""trial"",""time""
""blur"",""61"",""583593""
""blur"",""92"",""771178""
""blur"",""93"",""774300""
","""event"",""trial"",""time""
""focus"",""61"",""584257""
""focus"",""92"",""772650""
""focus"",""93"",""776093""
","""event"",""trial"",""time""
""fullscreenenter"",""1"",""2887""
","
","","[{""page_index"":0,""viewing_time"":5445.600000023842}]","5446.200000047684","","","","","","","","","","","","","","","","","","","","","","","",""
"pit-instructions","118","973415","0.0-2.0-25.0-2.0-0.0","battery-v0.2","","""event"",""trial"",""time""
""fullscreenenter"",""1"",""2887""
""blur"",""61"",""583593""
""focus"",""61"",""584257""
""blur"",""92"",""771178""
""focus"",""92"",""772650""
""blur"",""93"",""774300""
""focus"",""93"",""776093""
","""event"",""trial"",""time""
""blur"",""61"",""583593""
""blur"",""92"",""771178""
""blur"",""93"",""774300""
","""event"",""trial"",""time""
""focus"",""61"",""584257""
""focus"",""92"",""772650""
""focus"",""93"",""776093""
","""event"",""trial"",""time""
""fullscreenenter"",""1"",""2887""
","
","","[{""page_index"":0,""viewing_time"":1613}]","1613.5","","","","","","","","","","","","","","","","","","","","","","","",""
"pit-comprehension","119","979620","0.0-2.0-25.1-0.1","battery-v0.2","","""event"",""trial"",""time""
""fullscreenenter"",""1"",""2887""
""blur"",""61"",""583593""
""focus"",""61"",""584257""
""blur"",""92"",""771178""
""focus"",""92"",""772650""
""blur"",""93"",""774300""
""focus"",""93"",""776093""
","""event"",""trial"",""time""
""blur"",""61"",""583593""
""blur"",""92"",""771178""
""blur"",""93"",""774300""
","""event"",""trial"",""time""
""focus"",""61"",""584257""
""focus"",""92"",""772650""
""focus"",""93"",""776093""
","""event"",""trial"",""time""
""fullscreenenter"",""1"",""2887""
","
","","","6202.600000023842","[""True""]","0","12","6215","3535","","","","","","","","","","","","","","","","","","",""
"pit-instructions","120","981096","0.0-2.0-25.1-1.1","battery-v0.2","","""event"",""trial"",""time""
""fullscreenenter"",""1"",""2887""
""blur"",""61"",""583593""
""focus"",""61"",""584257""
""blur"",""92"",""771178""
""focus"",""92"",""772650""
""blur"",""93"",""774300""
""focus"",""93"",""776093""
","""event"",""trial"",""time""
""blur"",""61"",""583593""
""blur"",""92"",""771178""
""blur"",""93"",""774300""
","""event"",""trial"",""time""
""focus"",""61"",""584257""
""focus"",""92"",""772650""
""focus"",""93"",""776093""
","""event"",""trial"",""time""
""fullscreenenter"",""1"",""2887""
","
","","[{""page_index"":0,""viewing_time"":1437.1999999284744}]","1437.7999999523163","","","","","","","","","","","","","","","","","","","","","","","",""
"pit-comprehension","121","988616","0.0-2.0-26.0-0.0","battery-v0.2","","""event"",""trial"",""time""
""fullscreenenter"",""1"",""2887""
""blur"",""61"",""583593""
""focus"",""61"",""584257""
""blur"",""92"",""771178""
""focus"",""92"",""772650""
""blur"",""93"",""774300""
""focus"",""93"",""776093""
","""event"",""trial"",""time""
""blur"",""61"",""583593""
""blur"",""92"",""771178""
""blur"",""93"",""774300""
","""event"",""trial"",""time""
""focus"",""61"",""584257""
""focus"",""92"",""772650""
""focus"",""93"",""776093""
","""event"",""trial"",""time""
""fullscreenenter"",""1"",""2887""
","
","","","7516.299999952316","[""True""]","1","12","6215","3535","","","","","","","","","","","","","","","","","","",""
"pit-instructions","122","993658","0.0-2.0-26.0-1.0","battery-v0.2","","""event"",""trial"",""time""
""fullscreenenter"",""1"",""2887""
""blur"",""61"",""583593""
""focus"",""61"",""584257""
""blur"",""92"",""771178""
""focus"",""92"",""772650""
""blur"",""93"",""774300""
""focus"",""93"",""776093""
","""event"",""trial"",""time""
""blur"",""61"",""583593""
""blur"",""92"",""771178""
""blur"",""93"",""774300""
","""event"",""trial"",""time""
""focus"",""61"",""584257""
""focus"",""92"",""772650""
""focus"",""93"",""776093""
","""event"",""trial"",""time""
""fullscreenenter"",""1"",""2887""
","
","","[{""page_index"":0,""viewing_time"":5002.600000023842}]","5003.199999928474","","","","","","","","","","","","","","","","","","","","","","","",""
"pit-instructions","123","994254","0.0-2.0-26.0-2.0-0.0","battery-v0.2","","""event"",""trial"",""time""
""fullscreenenter"",""1"",""2887""
""blur"",""61"",""583593""
""focus"",""61"",""584257""
""blur"",""92"",""771178""
""focus"",""92"",""772650""
""blur"",""93"",""774300""
""focus"",""93"",""776093""
","""event"",""trial"",""time""
""blur"",""61"",""583593""
""blur"",""92"",""771178""
""blur"",""93"",""774300""
","""event"",""trial"",""time""
""focus"",""61"",""584257""
""focus"",""92"",""772650""
""focus"",""93"",""776093""
","""event"",""trial"",""time""
""fullscreenenter"",""1"",""2887""
","
","","[{""page_index"":0,""viewing_time"":593.9000000953674}]","594.4000000953674","","","","","","","","","","","","","","","","","","","","","","","",""
"pit-comprehension","124","998963","0.0-2.0-26.1-0.1","battery-v0.2","","""event"",""trial"",""time""
""fullscreenenter"",""1"",""2887""
""blur"",""61"",""583593""
""focus"",""61"",""584257""
""blur"",""92"",""771178""
""focus"",""92"",""772650""
""blur"",""93"",""774300""
""focus"",""93"",""776093""
","""event"",""trial"",""time""
""blur"",""61"",""583593""
""blur"",""92"",""771178""
""blur"",""93"",""774300""
","""event"",""trial"",""time""
""focus"",""61"",""584257""
""focus"",""92"",""772650""
""focus"",""93"",""776093""
","""event"",""trial"",""time""
""fullscreenenter"",""1"",""2887""
","
","","","4704","[""False""]","0","12","6215","3535","","","","","","","","","","","","","","","","","","",""
"pit-instructions","125","1000609","0.0-2.0-26.1-1.1","battery-v0.2","","""event"",""trial"",""time""
""fullscreenenter"",""1"",""2887""
""blur"",""61"",""583593""
""focus"",""61"",""584257""
""blur"",""92"",""771178""
""focus"",""92"",""772650""
""blur"",""93"",""774300""
""focus"",""93"",""776093""
","""event"",""trial"",""time""
""blur"",""61"",""583593""
""blur"",""92"",""771178""
""blur"",""93"",""774300""
","""event"",""trial"",""time""
""focus"",""61"",""584257""
""focus"",""92"",""772650""
""focus"",""93"",""776093""
","""event"",""trial"",""time""
""fullscreenenter"",""1"",""2887""
","
","","[{""page_index"":0,""viewing_time"":1610.5999999046326}]","1610.8999999761581","","","","","","","","","","","","","","","","","","","","","","","",""
"pit-instructions","126","1017212","0.0-3.0","battery-v0.2","","""event"",""trial"",""time""
""fullscreenenter"",""1"",""2887""
""blur"",""61"",""583593""
""focus"",""61"",""584257""
""blur"",""92"",""771178""
""focus"",""92"",""772650""
""blur"",""93"",""774300""
""focus"",""93"",""776093""
","""event"",""trial"",""time""
""blur"",""61"",""583593""
""blur"",""92"",""771178""
""blur"",""93"",""774300""
","""event"",""trial"",""time""
""focus"",""61"",""584257""
""focus"",""92"",""772650""
""focus"",""93"",""776093""
","""event"",""trial"",""time""
""fullscreenenter"",""1"",""2887""
","
","","[{""page_index"":0,""viewing_time"":3640.2999999523163},{""page_index"":1,""viewing_time"":5767.600000023842},{""page_index"":2,""viewing_time"":7189.100000023842}]","16597.600000023842","","","","","","","","","","","","","","","","","","","","","","","",""
"pit-trial","127","1022096","0.0-4.0","battery-v0.2","","""event"",""trial"",""time""
""fullscreenenter"",""1"",""2887""
""blur"",""61"",""583593""
""focus"",""61"",""584257""
""blur"",""92"",""771178""
""focus"",""92"",""772650""
""blur"",""93"",""774300""
""focus"",""93"",""776093""
","""event"",""trial"",""time""
""blur"",""61"",""583593""
""blur"",""92"",""771178""
""blur"",""93"",""774300""
","""event"",""trial"",""time""
""focus"",""61"",""584257""
""focus"",""92"",""772650""
""focus"",""93"",""776093""
","""event"",""trial"",""time""
""fullscreenenter"",""1"",""2887""
","
","","","-1","","","12","6215","3535","&#9733;","elianto","#3366ff99","-1","-1","1","+10","[3005.399999976158]","1","1","","","6215","1","2","2","win","no-go","0"
"pit-trial","128","1026969","0.0-5.0","battery-v0.2","","""event"",""trial"",""time""
""fullscreenenter"",""1"",""2887""
""blur"",""61"",""583593""
""focus"",""61"",""584257""
""blur"",""92"",""771178""
""focus"",""92"",""772650""
""blur"",""93"",""774300""
""focus"",""93"",""776093""
","""event"",""trial"",""time""
""blur"",""61"",""583593""
""blur"",""92"",""771178""
""blur"",""93"",""774300""
","""event"",""trial"",""time""
""focus"",""61"",""584257""
""focus"",""92"",""772650""
""focus"",""93"",""776093""
","""event"",""trial"",""time""
""fullscreenenter"",""1"",""2887""
","
","","","-1","","","12","6215","3535","&#9728;","elianto","#f73b6a7A","-1","-1","1","-10","[]","0","1","","","6215","2","0","4","lose","no-go","1"
"pit-trial","129","1030945","0.0-6.0","battery-v0.2","","""event"",""trial"",""time""
""fullscreenenter"",""1"",""2887""
""blur"",""61"",""583593""
""focus"",""61"",""584257""
""blur"",""92"",""771178""
""focus"",""92"",""772650""
""blur"",""93"",""774300""
""focus"",""93"",""776093""
","""event"",""trial"",""time""
""blur"",""61"",""583593""
""blur"",""92"",""771178""
""blur"",""93"",""774300""
","""event"",""trial"",""time""
""focus"",""61"",""584257""
""focus"",""92"",""772650""
""focus"",""93"",""776093""
","""event"",""trial"",""time""
""fullscreenenter"",""1"",""2887""
","
","","","1107","","","12","6215","3535","&#9730;","elianto","#3366ff99"," "," ","1","0","[1959.5999999046326]","1","1","","","6215","3","1","1","win","go","1"
"pit-trial","130","1035820","0.0-7.0","battery-v0.2","","""event"",""trial"",""time""
""fullscreenenter"",""1"",""2887""
""blur"",""61"",""583593""
""focus"",""61"",""584257""
""blur"",""92"",""771178""
""focus"",""92"",""772650""
""blur"",""93"",""774300""
""focus"",""93"",""776093""
","""event"",""trial"",""time""
""blur"",""61"",""583593""
""blur"",""92"",""771178""
""blur"",""93"",""774300""
","""event"",""trial"",""time""
""focus"",""61"",""584257""
""focus"",""92"",""772650""
""focus"",""93"",""776093""
","""event"",""trial"",""time""
""fullscreenenter"",""1"",""2887""
","
","","","-1","","","12","6215","3535","&#9752;","elianto","#f73b6a7A"," ","-1","0","-10","[]","0","1","","","6215","4","3","3","lose","go","0"
"pit-trial","131","1039700","0.0-8.0","battery-v0.2","","""event"",""trial"",""time""
""fullscreenenter"",""1"",""2887""
""blur"",""61"",""583593""
""focus"",""61"",""584257""
""blur"",""92"",""771178""
""focus"",""92"",""772650""
""blur"",""93"",""774300""
""focus"",""93"",""776093""
","""event"",""trial"",""time""
""blur"",""61"",""583593""
""blur"",""92"",""771178""
""blur"",""93"",""774300""
","""event"",""trial"",""time""
""focus"",""61"",""584257""
""focus"",""92"",""772650""
""focus"",""93"",""776093""
","""event"",""trial"",""time""
""fullscreenenter"",""1"",""2887""
","
","","","1001.8000000715256","","","12","6215","3535","&#9728;","elianto","#f73b6a7A","-1"," ","0","-10","[1858.1000000238419]","1","1","","","6215","5","0","4","lose","no-go","0"
"pit-trial","132","1043522","0.0-9.0","battery-v0.2","","""event"",""trial"",""time""
""fullscreenenter"",""1"",""2887""
""blur"",""61"",""583593""
""focus"",""61"",""584257""
""blur"",""92"",""771178""
""focus"",""92"",""772650""
""blur"",""93"",""774300""
""focus"",""93"",""776093""
","""event"",""trial"",""time""
""blur"",""61"",""583593""
""blur"",""92"",""771178""
""blur"",""93"",""774300""
","""event"",""trial"",""time""
""focus"",""61"",""584257""
""focus"",""92"",""772650""
""focus"",""93"",""776093""
","""event"",""trial"",""time""
""fullscreenenter"",""1"",""2887""
","
","","","948.8999999761581","","","12","6215","3535","&#9733;","elianto","#3366ff99","-1"," ","0","0","[1804.8999999761581]","1","1","","","6215","6","2","2","win","no-go","0"
"pit-trial","133","1047933","0.0-10.0","battery-v0.2","","""event"",""trial"",""time""
""fullscreenenter"",""1"",""2887""
""blur"",""61"",""583593""
""focus"",""61"",""584257""
""blur"",""92"",""771178""
""focus"",""92"",""772650""
""blur"",""93"",""774300""
""focus"",""93"",""776093""
","""event"",""trial"",""time""
""blur"",""61"",""583593""
""blur"",""92"",""771178""
""blur"",""93"",""774300""
","""event"",""trial"",""time""
""focus"",""61"",""584257""
""focus"",""92"",""772650""
""focus"",""93"",""776093""
","""event"",""trial"",""time""
""fullscreenenter"",""1"",""2887""
","
","","","1538.5","","","12","6215","3535","&#9752;","elianto","#f73b6a7A"," "," ","1","0","[2391.899999976158]","1","1","","","6215","7","3","3","lose","go","0"
"pit-trial","134","1052517","0.0-11.0","battery-v0.2","","""event"",""trial"",""time""
""fullscreenenter"",""1"",""2887""
""blur"",""61"",""583593""
""focus"",""61"",""584257""
""blur"",""92"",""771178""
""focus"",""92"",""772650""
""blur"",""93"",""774300""
""focus"",""93"",""776093""
","""event"",""trial"",""time""
""blur"",""61"",""583593""
""blur"",""92"",""771178""
""blur"",""93"",""774300""
","""event"",""trial"",""time""
""focus"",""61"",""584257""
""focus"",""92"",""772650""
""focus"",""93"",""776093""
","""event"",""trial"",""time""
""fullscreenenter"",""1"",""2887""
","
","","","1721.3999999761581","","","12","6215","3535","&#9730;","elianto","#3366ff99"," "," ","1","+10","[2576.100000023842]","1","1","","","6215","8","1","1","win","go","0"
"pit-trial","135","1057381","0.0-12.0","battery-v0.2","","""event"",""trial"",""time""
""fullscreenenter"",""1"",""2887""
""blur"",""61"",""583593""
""focus"",""61"",""584257""
""blur"",""92"",""771178""
""focus"",""92"",""772650""
""blur"",""93"",""774300""
""focus"",""93"",""776093""
","""event"",""trial"",""time""
""blur"",""61"",""583593""
""blur"",""92"",""771178""
""blur"",""93"",""774300""
","""event"",""trial"",""time""
""focus"",""61"",""584257""
""focus"",""92"",""772650""
""focus"",""93"",""776093""
","""event"",""trial"",""time""
""fullscreenenter"",""1"",""2887""
","
","","","-1","","","12","6215","3535","&#9728;","elianto","#f73b6a7A","-1","-1","1","0","[]","0","1","","","6215","9","0","4","lose","no-go","0"
"pit-trial","136","1061285","0.0-13.0","battery-v0.2","","""event"",""trial"",""time""
""fullscreenenter"",""1"",""2887""
""blur"",""61"",""583593""
""focus"",""61"",""584257""
""blur"",""92"",""771178""
""focus"",""92"",""772650""
""blur"",""93"",""774300""
""focus"",""93"",""776093""
","""event"",""trial"",""time""
""blur"",""61"",""583593""
""blur"",""92"",""771178""
""blur"",""93"",""774300""
","""event"",""trial"",""time""
""focus"",""61"",""584257""
""focus"",""92"",""772650""
""focus"",""93"",""776093""
","""event"",""trial"",""time""
""fullscreenenter"",""1"",""2887""
","
","","","1041.7000000476837","","","12","6215","3535","&#9752;","elianto","#f73b6a7A"," "," ","1","0","[1895.7999999523163]","1","1","","","6215","10","3","3","lose","go","0"
"pit-trial","137","1065237","0.0-14.0","battery-v0.2","","""event"",""trial"",""time""
""fullscreenenter"",""1"",""2887""
""blur"",""61"",""583593""
""focus"",""61"",""584257""
""blur"",""92"",""771178""
""focus"",""92"",""772650""
""blur"",""93"",""774300""
""focus"",""93"",""776093""
","""event"",""trial"",""time""
""blur"",""61"",""583593""
""blur"",""92"",""771178""
""blur"",""93"",""774300""
","""event"",""trial"",""time""
""focus"",""61"",""584257""
""focus"",""92"",""772650""
""focus"",""93"",""776093""
","""event"",""trial"",""time""
""fullscreenenter"",""1"",""2887""
","
","","","1093.5999999046326","","","12","6215","3535","&#9733;","elianto","#3366ff99","-1"," ","0","0","[1944.6999999284744]","1","1","","","6215","11","2","2","win","no-go","0"
"pit-trial","138","1068685","0.0-15.0","battery-v0.2","","""event"",""trial"",""time""
""fullscreenenter"",""1"",""2887""
""blur"",""61"",""583593""
""focus"",""61"",""584257""
""blur"",""92"",""771178""
""focus"",""92"",""772650""
""blur"",""93"",""774300""
""focus"",""93"",""776093""
","""event"",""trial"",""time""
""blur"",""61"",""583593""
""blur"",""92"",""771178""
""blur"",""93"",""774300""
","""event"",""trial"",""time""
""focus"",""61"",""584257""
""focus"",""92"",""772650""
""focus"",""93"",""776093""
","""event"",""trial"",""time""
""fullscreenenter"",""1"",""2887""
","
","","","594.6999999284744","","","12","6215","3535","&#9730;","elianto","#3366ff99"," "," ","1","+10","[1444.5999999046326]","1","1","","","6215","12","1","1","win","go","0"
"pit-trial","139","1072293","0.0-16.0","battery-v0.2","","""event"",""trial"",""time""
""fullscreenenter"",""1"",""2887""
""blur"",""61"",""583593""
""focus"",""61"",""584257""
""blur"",""92"",""771178""
""focus"",""92"",""772650""
""blur"",""93"",""774300""
""focus"",""93"",""776093""
","""event"",""trial"",""time""
""blur"",""61"",""583593""
""blur"",""92"",""771178""
""blur"",""93"",""774300""
","""event"",""trial"",""time""
""focus"",""61"",""584257""
""focus"",""92"",""772650""
""focus"",""93"",""776093""
","""event"",""trial"",""time""
""fullscreenenter"",""1"",""2887""
","
","","","750","","","12","6215","3535","&#9730;","elianto","#3366ff99"," "," ","1","0","[1603.5999999046326]","1","1","","","6215","13","1","1","win","go","1"
"pit-trial","140","1077157","0.0-17.0","battery-v0.2","","""event"",""trial"",""time""
""fullscreenenter"",""1"",""2887""
""blur"",""61"",""583593""
""focus"",""61"",""584257""
""blur"",""92"",""771178""
""focus"",""92"",""772650""
""blur"",""93"",""774300""
""focus"",""93"",""776093""
","""event"",""trial"",""time""
""blur"",""61"",""583593""
""blur"",""92"",""771178""
""blur"",""93"",""774300""
","""event"",""trial"",""time""
""focus"",""61"",""584257""
""focus"",""92"",""772650""
""focus"",""93"",""776093""
","""event"",""trial"",""time""
""fullscreenenter"",""1"",""2887""
","
","","","-1","","","12","6215","3535","&#9728;","elianto","#f73b6a7A","-1","-1","1","0","[]","0","1","","","6215","14","0","4","lose","no-go","0"
"pit-trial","141","1080741","0.0-18.0","battery-v0.2","","""event"",""trial"",""time""
""fullscreenenter"",""1"",""2887""
""blur"",""61"",""583593""
""focus"",""61"",""584257""
""blur"",""92"",""771178""
""focus"",""92"",""772650""
""blur"",""93"",""774300""
""focus"",""93"",""776093""
","""event"",""trial"",""time""
""blur"",""61"",""583593""
""blur"",""92"",""771178""
""blur"",""93"",""774300""
","""event"",""trial"",""time""
""focus"",""61"",""584257""
""focus"",""92"",""772650""
""focus"",""93"",""776093""
","""event"",""trial"",""time""
""fullscreenenter"",""1"",""2887""
","
","","","727.5","","","12","6215","3535","&#9752;","elianto","#f73b6a7A"," "," ","1","-10","[1579.8999999761581]","1","1","","","6215","15","3","3","lose","go","1"
"pit-trial","142","1084878","0.0-19.0","battery-v0.2","","""event"",""trial"",""time""
""fullscreenenter"",""1"",""2887""
""blur"",""61"",""583593""
""focus"",""61"",""584257""
""blur"",""92"",""771178""
""focus"",""92"",""772650""
""blur"",""93"",""774300""
""focus"",""93"",""776093""
","""event"",""trial"",""time""
""blur"",""61"",""583593""
""blur"",""92"",""771178""
""blur"",""93"",""774300""
","""event"",""trial"",""time""
""focus"",""61"",""584257""
""focus"",""92"",""772650""
""focus"",""93"",""776093""
","""event"",""trial"",""time""
""fullscreenenter"",""1"",""2887""
","
","","","1273","","","12","6215","3535","&#9733;","elianto","#3366ff99","-1"," ","0","0","[2127.2999999523163]","1","1","","","6215","16","2","2","win","no-go","0"
"pit-trial","143","1088781","0.0-20.0","battery-v0.2","","""event"",""trial"",""time""
""fullscreenenter"",""1"",""2887""
""blur"",""61"",""583593""
""focus"",""61"",""584257""
""blur"",""92"",""771178""
""focus"",""92"",""772650""
""blur"",""93"",""774300""
""focus"",""93"",""776093""
","""event"",""trial"",""time""
""blur"",""61"",""583593""
""blur"",""92"",""771178""
""blur"",""93"",""774300""
","""event"",""trial"",""time""
""focus"",""61"",""584257""
""focus"",""92"",""772650""
""focus"",""93"",""776093""
","""event"",""trial"",""time""
""fullscreenenter"",""1"",""2887""
","
","","","1040.2000000476837","","","12","6215","3535","&#9730;","elianto","#3366ff99"," "," ","1","+10","[1900]","1","1","","","6215","17","1","1","win","go","0"
"pit-trial","144","1093645","0.0-21.0","battery-v0.2","","""event"",""trial"",""time""
""fullscreenenter"",""1"",""2887""
""blur"",""61"",""583593""
""focus"",""61"",""584257""
""blur"",""92"",""771178""
""focus"",""92"",""772650""
""blur"",""93"",""774300""
""focus"",""93"",""776093""
","""event"",""trial"",""time""
""blur"",""61"",""583593""
""blur"",""92"",""771178""
""blur"",""93"",""774300""
","""event"",""trial"",""time""
""focus"",""61"",""584257""
""focus"",""92"",""772650""
""focus"",""93"",""776093""
","""event"",""trial"",""time""
""fullscreenenter"",""1"",""2887""
","
","","","-1","","","12","6215","3535","&#9733;","elianto","#3366ff99","-1","-1","1","+10","[3041.399999976158]","1","1","","","6215","18","2","2","win","no-go","0"
"pit-trial","145","1098509","0.0-22.0","battery-v0.2","","""event"",""trial"",""time""
""fullscreenenter"",""1"",""2887""
""blur"",""61"",""583593""
""focus"",""61"",""584257""
""blur"",""92"",""771178""
""focus"",""92"",""772650""
""blur"",""93"",""774300""
""focus"",""93"",""776093""
","""event"",""trial"",""time""
""blur"",""61"",""583593""
""blur"",""92"",""771178""
""blur"",""93"",""774300""
","""event"",""trial"",""time""
""focus"",""61"",""584257""
""focus"",""92"",""772650""
""focus"",""93"",""776093""
","""event"",""trial"",""time""
""fullscreenenter"",""1"",""2887""
","
","","","-1","","","12","6215","3535","&#9752;","elianto","#f73b6a7A"," ","-1","0","-10","[]","0","1","","","6215","19","3","3","lose","go","0"
"pit-trial","146","1101901","0.0-23.0","battery-v0.2","","""event"",""trial"",""time""
""fullscreenenter"",""1"",""2887""
""blur"",""61"",""583593""
""focus"",""61"",""584257""
""blur"",""92"",""771178""
""focus"",""92"",""772650""
""blur"",""93"",""774300""
""focus"",""93"",""776093""
","""event"",""trial"",""time""
""blur"",""61"",""583593""
""blur"",""92"",""771178""
""blur"",""93"",""774300""
","""event"",""trial"",""time""
""focus"",""61"",""584257""
""focus"",""92"",""772650""
""focus"",""93"",""776093""
","""event"",""trial"",""time""
""fullscreenenter"",""1"",""2887""
","
","","","534.3999999761581","","","12","6215","3535","&#9728;","elianto","#f73b6a7A","-1"," ","0","-10","[1388.5]","1","1","","","6215","20","0","4","lose","no-go","0"
"pit-instructions","147","1134327","0.0-24.0","battery-v0.2","","""event"",""trial"",""time""
""fullscreenenter"",""1"",""2887""
""blur"",""61"",""583593""
""focus"",""61"",""584257""
""blur"",""92"",""771178""
""focus"",""92"",""772650""
""blur"",""93"",""774300""
""focus"",""93"",""776093""
","""event"",""trial"",""time""
""blur"",""61"",""583593""
""blur"",""92"",""771178""
""blur"",""93"",""774300""
","""event"",""trial"",""time""
""focus"",""61"",""584257""
""focus"",""92"",""772650""
""focus"",""93"",""776093""
","""event"",""trial"",""time""
""fullscreenenter"",""1"",""2887""
","
","","[{""page_index"":0,""viewing_time"":12386.799999952316},{""page_index"":1,""viewing_time"":20036}]","32423.5","","","","","","","","","","","","","","","","","","","","","","","",""
"pit-trial","148","1139199","0.0-25.0","battery-v0.2","","""event"",""trial"",""time""
""fullscreenenter"",""1"",""2887""
""blur"",""61"",""583593""
""focus"",""61"",""584257""
""blur"",""92"",""771178""
""focus"",""92"",""772650""
""blur"",""93"",""774300""
""focus"",""93"",""776093""
","""event"",""trial"",""time""
""blur"",""61"",""583593""
""blur"",""92"",""771178""
""blur"",""93"",""774300""
","""event"",""trial"",""time""
""focus"",""61"",""584257""
""focus"",""92"",""772650""
""focus"",""93"",""776093""
","""event"",""trial"",""time""
""fullscreenenter"",""1"",""2887""
","
","","","-1","","","12","6215","3535","u","elianto","#f73b6a7A","-1","-1","1","0","[]","0","2","","","6215","21","0","4","lose","no-go","0"
"pit-trial","149","1142960","0.0-26.0","battery-v0.2","","""event"",""trial"",""time""
""fullscreenenter"",""1"",""2887""
""blur"",""61"",""583593""
""focus"",""61"",""584257""
""blur"",""92"",""771178""
""focus"",""92"",""772650""
""blur"",""93"",""774300""
""focus"",""93"",""776093""
","""event"",""trial"",""time""
""blur"",""61"",""583593""
""blur"",""92"",""771178""
""blur"",""93"",""774300""
","""event"",""trial"",""time""
""focus"",""61"",""584257""
""focus"",""92"",""772650""
""focus"",""93"",""776093""
","""event"",""trial"",""time""
""fullscreenenter"",""1"",""2887""
","
","","","897","","","12","6215","3535","l","elianto","#3366ff99"," "," ","1","+10","[1751.6000000238419]","1","2","","","6215","22","1","1","win","go","0"
"pit-trial","150","1147832","0.0-27.0","battery-v0.2","","""event"",""trial"",""time""
""fullscreenenter"",""1"",""2887""
""blur"",""61"",""583593""
""focus"",""61"",""584257""
""blur"",""92"",""771178""
""focus"",""92"",""772650""
""blur"",""93"",""774300""
""focus"",""93"",""776093""
","""event"",""trial"",""time""
""blur"",""61"",""583593""
""blur"",""92"",""771178""
""blur"",""93"",""774300""
","""event"",""trial"",""time""
""focus"",""61"",""584257""
""focus"",""92"",""772650""
""focus"",""93"",""776093""
","""event"",""trial"",""time""
""fullscreenenter"",""1"",""2887""
","
","","","-1","","","12","6215","3535","a","elianto","#f73b6a7A","-1","-1","1","0","[]","0","2","","","6215","23","2","4","lose","no-go","0"
"pit-trial","151","1152702","0.0-28.0","battery-v0.2","","""event"",""trial"",""time""
""fullscreenenter"",""1"",""2887""
""blur"",""61"",""583593""
""focus"",""61"",""584257""
""blur"",""92"",""771178""
""focus"",""92"",""772650""
""blur"",""93"",""774300""
""focus"",""93"",""776093""
","""event"",""trial"",""time""
""blur"",""61"",""583593""
""blur"",""92"",""771178""
""blur"",""93"",""774300""
","""event"",""trial"",""time""
""focus"",""61"",""584257""
""focus"",""92"",""772650""
""focus"",""93"",""776093""
","""event"",""trial"",""time""
""fullscreenenter"",""1"",""2887""
","
","","","-1","","","12","6215","3535","g","elianto","#f73b6a7A"," ","-1","0","0","[]","0","2","","","6215","24","3","3","lose","go","1"
"pit-trial","152","1156822","0.0-29.0","battery-v0.2","","""event"",""trial"",""time""
""fullscreenenter"",""1"",""2887""
""blur"",""61"",""583593""
""focus"",""61"",""584257""
""blur"",""92"",""771178""
""focus"",""92"",""772650""
""blur"",""93"",""774300""
""focus"",""93"",""776093""
","""event"",""trial"",""time""
""blur"",""61"",""583593""
""blur"",""92"",""771178""
""blur"",""93"",""774300""
","""event"",""trial"",""time""
""focus"",""61"",""584257""
""focus"",""92"",""772650""
""focus"",""93"",""776093""
","""event"",""trial"",""time""
""fullscreenenter"",""1"",""2887""
","
","","","1255.5999999046326","","","12","6215","3535","a","elianto","#f73b6a7A","-1"," ","0","-10","[2111.7999999523163,3079.100000023842]","2","2","","","6215","25","2","4","lose","no-go","0"
"pit-trial","153","1160725","0.0-30.0","battery-v0.2","","""event"",""trial"",""time""
""fullscreenenter"",""1"",""2887""
""blur"",""61"",""583593""
""focus"",""61"",""584257""
""blur"",""92"",""771178""
""focus"",""92"",""772650""
""blur"",""93"",""774300""
""focus"",""93"",""776093""
","""event"",""trial"",""time""
""blur"",""61"",""583593""
""blur"",""92"",""771178""
""blur"",""93"",""774300""
","""event"",""trial"",""time""
""focus"",""61"",""584257""
""focus"",""92"",""772650""
""focus"",""93"",""776093""
","""event"",""trial"",""time""
""fullscreenenter"",""1"",""2887""
","
","","","1042.9000000953674","","","12","6215","3535","l","elianto","#3366ff99"," "," ","1","+10","[1895.2999999523163]","1","2","","","6215","26","1","1","win","go","0"
"pit-trial","154","1165589","0.0-31.0","battery-v0.2","","""event"",""trial"",""time""
""fullscreenenter"",""1"",""2887""
""blur"",""61"",""583593""
""focus"",""61"",""584257""
""blur"",""92"",""771178""
""focus"",""92"",""772650""
""blur"",""93"",""774300""
""focus"",""93"",""776093""
","""event"",""trial"",""time""
""blur"",""61"",""583593""
""blur"",""92"",""771178""
""blur"",""93"",""774300""
","""event"",""trial"",""time""
""focus"",""61"",""584257""
""focus"",""92"",""772650""
""focus"",""93"",""776093""
","""event"",""trial"",""time""
""fullscreenenter"",""1"",""2887""
","
","","","-1","","","12","6215","3535","u","elianto","#f73b6a7A","-1","-1","1","-10","[]","0","2","","","6215","27","0","4","lose","no-go","1"
"pit-trial","155","1170453","0.0-32.0","battery-v0.2","","""event"",""trial"",""time""
""fullscreenenter"",""1"",""2887""
""blur"",""61"",""583593""
""focus"",""61"",""584257""
""blur"",""92"",""771178""
""focus"",""92"",""772650""
""blur"",""93"",""774300""
""focus"",""93"",""776093""
","""event"",""trial"",""time""
""blur"",""61"",""583593""
""blur"",""92"",""771178""
""blur"",""93"",""774300""
","""event"",""trial"",""time""
""focus"",""61"",""584257""
""focus"",""92"",""772650""
""focus"",""93"",""776093""
","""event"",""trial"",""time""
""fullscreenenter"",""1"",""2887""
","
","","","-1","","","12","6215","3535","g","elianto","#f73b6a7A"," ","-1","0","-10","[]","0","2","","","6215","28","3","3","lose","go","0"
"pit-trial","156","1174013","0.0-33.0","battery-v0.2","","""event"",""trial"",""time""
""fullscreenenter"",""1"",""2887""
""blur"",""61"",""583593""
""focus"",""61"",""584257""
""blur"",""92"",""771178""
""focus"",""92"",""772650""
""blur"",""93"",""774300""
""focus"",""93"",""776093""
","""event"",""trial"",""time""
""blur"",""61"",""583593""
""blur"",""92"",""771178""
""blur"",""93"",""774300""
","""event"",""trial"",""time""
""focus"",""61"",""584257""
""focus"",""92"",""772650""
""focus"",""93"",""776093""
","""event"",""trial"",""time""
""fullscreenenter"",""1"",""2887""
","
","","","704","","","12","6215","3535","l","elianto","#3366ff99"," "," ","1","+10","[92.70000004768372,1555.8999999761581]","2","2","","","6215","29","1","1","win","go","0"
"pit-trial","157","1178877","0.0-34.0","battery-v0.2","","""event"",""trial"",""time""
""fullscreenenter"",""1"",""2887""
""blur"",""61"",""583593""
""focus"",""61"",""584257""
""blur"",""92"",""771178""
""focus"",""92"",""772650""
""blur"",""93"",""774300""
""focus"",""93"",""776093""
","""event"",""trial"",""time""
""blur"",""61"",""583593""
""blur"",""92"",""771178""
""blur"",""93"",""774300""
","""event"",""trial"",""time""
""focus"",""61"",""584257""
""focus"",""92"",""772650""
""focus"",""93"",""776093""
","""event"",""trial"",""time""
""fullscreenenter"",""1"",""2887""
","
","","","-1","","","12","6215","3535","a","elianto","#f73b6a7A","-1","-1","1","0","[]","0","2","","","6215","30","2","4","lose","no-go","0"
"pit-trial","158","1183741","0.0-35.0","battery-v0.2","","""event"",""trial"",""time""
""fullscreenenter"",""1"",""2887""
""blur"",""61"",""583593""
""focus"",""61"",""584257""
""blur"",""92"",""771178""
""focus"",""92"",""772650""
""blur"",""93"",""774300""
""focus"",""93"",""776093""
","""event"",""trial"",""time""
""blur"",""61"",""583593""
""blur"",""92"",""771178""
""blur"",""93"",""774300""
","""event"",""trial"",""time""
""focus"",""61"",""584257""
""focus"",""92"",""772650""
""focus"",""93"",""776093""
","""event"",""trial"",""time""
""fullscreenenter"",""1"",""2887""
","
","","","-1","","","12","6215","3535","u","elianto","#f73b6a7A","-1","-1","1","0","[627.1999999284744]","1","2","","","6215","31","0","4","lose","no-go","0"
"pit-trial","159","1188605","0.0-36.0","battery-v0.2","","""event"",""trial"",""time""
""fullscreenenter"",""1"",""2887""
""blur"",""61"",""583593""
""focus"",""61"",""584257""
""blur"",""92"",""771178""
""focus"",""92"",""772650""
""blur"",""93"",""774300""
""focus"",""93"",""776093""
","""event"",""trial"",""time""
""blur"",""61"",""583593""
""blur"",""92"",""771178""
""blur"",""93"",""774300""
","""event"",""trial"",""time""
""focus"",""61"",""584257""
""focus"",""92"",""772650""
""focus"",""93"",""776093""
","""event"",""trial"",""time""
""fullscreenenter"",""1"",""2887""
","
","","","-1","","","12","6215","3535","g","elianto","#f73b6a7A"," ","-1","0","-10","[]","0","2","","","6215","32","3","3","lose","go","0"
"pit-trial","160","1193480","0.0-37.0","battery-v0.2","","""event"",""trial"",""time""
""fullscreenenter"",""1"",""2887""
""blur"",""61"",""583593""
""focus"",""61"",""584257""
""blur"",""92"",""771178""
""focus"",""92"",""772650""
""blur"",""93"",""774300""
""focus"",""93"",""776093""
","""event"",""trial"",""time""
""blur"",""61"",""583593""
""blur"",""92"",""771178""
""blur"",""93"",""774300""
","""event"",""trial"",""time""
""focus"",""61"",""584257""
""focus"",""92"",""772650""
""focus"",""93"",""776093""
","""event"",""trial"",""time""
""fullscreenenter"",""1"",""2887""
","
","","","-1","","","12","6215","3535","g","elianto","#f73b6a7A"," ","-1","0","-10","[]","0","2","","","6215","33","3","3","lose","go","0"
"pit-trial","161","1198341","0.0-38.0","battery-v0.2","","""event"",""trial"",""time""
""fullscreenenter"",""1"",""2887""
""blur"",""61"",""583593""
""focus"",""61"",""584257""
""blur"",""92"",""771178""
""focus"",""92"",""772650""
""blur"",""93"",""774300""
""focus"",""93"",""776093""
","""event"",""trial"",""time""
""blur"",""61"",""583593""
""blur"",""92"",""771178""
""blur"",""93"",""774300""
","""event"",""trial"",""time""
""focus"",""61"",""584257""
""focus"",""92"",""772650""
""focus"",""93"",""776093""
","""event"",""trial"",""time""
""fullscreenenter"",""1"",""2887""
","
","","","-1","","","12","6215","3535","u","elianto","#f73b6a7A","-1","-1","1","0","[]","0","2","","","6215","34","0","4","lose","no-go","0"
"pit-trial","162","1203205","0.0-39.0","battery-v0.2","","""event"",""trial"",""time""
""fullscreenenter"",""1"",""2887""
""blur"",""61"",""583593""
""focus"",""61"",""584257""
""blur"",""92"",""771178""
""focus"",""92"",""772650""
""blur"",""93"",""774300""
""focus"",""93"",""776093""
","""event"",""trial"",""time""
""blur"",""61"",""583593""
""blur"",""92"",""771178""
""blur"",""93"",""774300""
","""event"",""trial"",""time""
""focus"",""61"",""584257""
""focus"",""92"",""772650""
""focus"",""93"",""776093""
","""event"",""trial"",""time""
""fullscreenenter"",""1"",""2887""
","
","","","-1","","","12","6215","3535","a","elianto","#f73b6a7A","-1","-1","1","-10","[]","0","2","","","6215","35","2","4","lose","no-go","1"
"pit-trial","163","1206901","0.0-40.0","battery-v0.2","","""event"",""trial"",""time""
""fullscreenenter"",""1"",""2887""
""blur"",""61"",""583593""
""focus"",""61"",""584257""
""blur"",""92"",""771178""
""focus"",""92"",""772650""
""blur"",""93"",""774300""
""focus"",""93"",""776093""
","""event"",""trial"",""time""
""blur"",""61"",""583593""
""blur"",""92"",""771178""
""blur"",""93"",""774300""
","""event"",""trial"",""time""
""focus"",""61"",""584257""
""focus"",""92"",""772650""
""focus"",""93"",""776093""
","""event"",""trial"",""time""
""fullscreenenter"",""1"",""2887""
","
","","","836.2000000476837","","","12","6215","3535","l","elianto","#3366ff99"," "," ","1","+10","[1690]","1","2","","","6215","36","1","1","win","go","0"
"pit-trial","164","1211766","0.0-41.0","battery-v0.2","","""event"",""trial"",""time""
""fullscreenenter"",""1"",""2887""
""blur"",""61"",""583593""
""focus"",""61"",""584257""
""blur"",""92"",""771178""
""focus"",""92"",""772650""
""blur"",""93"",""774300""
""focus"",""93"",""776093""
","""event"",""trial"",""time""
""blur"",""61"",""583593""
""blur"",""92"",""771178""
""blur"",""93"",""774300""
","""event"",""trial"",""time""
""focus"",""61"",""584257""
""focus"",""92"",""772650""
""focus"",""93"",""776093""
","""event"",""trial"",""time""
""fullscreenenter"",""1"",""2887""
","
","","","-1","","","12","6215","3535","u","elianto","#f73b6a7A","-1","-1","1","0","[4236.899999976158]","1","2","","","6215","37","0","4","lose","no-go","0"
"pit-trial","165","1215405","0.0-42.0","battery-v0.2","","""event"",""trial"",""time""
""fullscreenenter"",""1"",""2887""
""blur"",""61"",""583593""
""focus"",""61"",""584257""
""blur"",""92"",""771178""
""focus"",""92"",""772650""
""blur"",""93"",""774300""
""focus"",""93"",""776093""
","""event"",""trial"",""time""
""blur"",""61"",""583593""
""blur"",""92"",""771178""
""blur"",""93"",""774300""
","""event"",""trial"",""time""
""focus"",""61"",""584257""
""focus"",""92"",""772650""
""focus"",""93"",""776093""
","""event"",""trial"",""time""
""fullscreenenter"",""1"",""2887""
","
","","","779.1000000238419","","","12","6215","3535","l","elianto","#3366ff99"," "," ","1","+10","[1629.7999999523163]","1","2","","","6215","38","1","1","win","go","0"
"pit-trial","166","1219285","0.0-43.0","battery-v0.2","","""event"",""trial"",""time""
""fullscreenenter"",""1"",""2887""
""blur"",""61"",""583593""
""focus"",""61"",""584257""
""blur"",""92"",""771178""
""focus"",""92"",""772650""
""blur"",""93"",""774300""
""focus"",""93"",""776093""
","""event"",""trial"",""time""
""blur"",""61"",""583593""
""blur"",""92"",""771178""
""blur"",""93"",""774300""
","""event"",""trial"",""time""
""focus"",""61"",""584257""
""focus"",""92"",""772650""
""focus"",""93"",""776093""
","""event"",""trial"",""time""
""fullscreenenter"",""1"",""2887""
","
","","","1021.1000000238419","","","12","6215","3535","a","elianto","#f73b6a7A","-1"," ","0","0","[1874.2000000476837]","1","2","","","6215","39","2","4","lose","no-go","1"
"pit-trial","167","1224149","0.0-44.0","battery-v0.2","","""event"",""trial"",""time""
""fullscreenenter"",""1"",""2887""
""blur"",""61"",""583593""
""focus"",""61"",""584257""
""blur"",""92"",""771178""
""focus"",""92"",""772650""
""blur"",""93"",""774300""
""focus"",""93"",""776093""
","""event"",""trial"",""time""
""blur"",""61"",""583593""
""blur"",""92"",""771178""
""blur"",""93"",""774300""
","""event"",""trial"",""time""
""focus"",""61"",""584257""
""focus"",""92"",""772650""
""focus"",""93"",""776093""
","""event"",""trial"",""time""
""fullscreenenter"",""1"",""2887""
","
","","","-1","","","12","6215","3535","g","elianto","#f73b6a7A"," ","-1","0","-10","[]","0","2","","","6215","40","3","3","lose","go","0"
"pit-trial","168","1227742","0.0-45.0","battery-v0.2","","""event"",""trial"",""time""
""fullscreenenter"",""1"",""2887""
""blur"",""61"",""583593""
""focus"",""61"",""584257""
""blur"",""92"",""771178""
""focus"",""92"",""772650""
""blur"",""93"",""774300""
""focus"",""93"",""776093""
