"trial_type","trial_index","time_elapsed","internal_node_id","task_version","subject_id","interactions","blur_events","focus_events","fullscreenenter_events","fullscreenexit_events","success","view_history","rt","responses","num_errors","age","subject","participantId","rune","rune_set","hex","correct","choice","accuracy","outcome","keys","total_keys","block","practice","value","sub","trial","stimulus","robot","valence","action","sham"
"pavlovia","0","9","0.0-0.0","battery-v0.2","","""event"",""trial"",""time""
""fullscreenenter"",""1"",""3756""
","
","
","""event"",""trial"",""time""
""fullscreenenter"",""1"",""3756""
","
","","","","","","","","","","","","","","","","","","","","","","","","","","",""
"fullscreen","1","4751","0.0-1.0","battery-v0.2","","""event"",""trial"",""time""
""fullscreenenter"",""1"",""3756""
","
","
","""event"",""trial"",""time""
""fullscreenenter"",""1"",""3756""
","
","true","","","","","","","","","","","","","","","","","","","","","","","","","",""
"pit-instructions","2","9185","0.0-2.0-0.0","battery-v0.2","","""event"",""trial"",""time""
""fullscreenenter"",""1"",""3756""
","
","
","""event"",""trial"",""time""
""fullscreenenter"",""1"",""3756""
","
","","[{""page_index"":0,""viewing_time"":4429.399999856949}]","4430.200000047684","","","","","","","","","","","","","","","","","","","","","","","",""
"pit-comprehension","3","14334","0.0-2.0-1.0-0.0","battery-v0.2","","""event"",""trial"",""time""
""fullscreenenter"",""1"",""3756""
","
","
","""event"",""trial"",""time""
""fullscreenenter"",""1"",""3756""
","
","","","5144","[""shark""]","0","11","5218","2125","","","","","","","","","","","","","","","","","","",""
"pit-instructions","4","17140","0.0-2.0-1.0-1.0","battery-v0.2","","""event"",""trial"",""time""
""fullscreenenter"",""1"",""3756""
","
","
","""event"",""trial"",""time""
""fullscreenenter"",""1"",""3756""
","
","","[{""page_index"":0,""viewing_time"":2792.7000000476837}]","2792.9000000953674","","","","","","","","","","","","","","","","","","","","","","","",""
"pit-comprehension","5","20428","0.0-2.0-2.0-0.0","battery-v0.2","","""event"",""trial"",""time""
""fullscreenenter"",""1"",""3756""
","
","
","""event"",""trial"",""time""
""fullscreenenter"",""1"",""3756""
","
","","","3285.899999856949","[""tiger""]","0","11","5218","2125","","","","","","","","","","","","","","","","","","",""
"pit-instructions","6","21256","0.0-2.0-2.0-1.0","battery-v0.2","","""event"",""trial"",""time""
""fullscreenenter"",""1"",""3756""
","
","
","""event"",""trial"",""time""
""fullscreenenter"",""1"",""3756""
","
","","[{""page_index"":0,""viewing_time"":824.8000001907349}]","825.1000001430511","","","","","","","","","","","","","","","","","","","","","","","",""
"pit-instructions","7","125085","0.0-2.0-3.0","battery-v0.2","","""event"",""trial"",""time""
""fullscreenenter"",""1"",""3756""
","
","
","""event"",""trial"",""time""
""fullscreenenter"",""1"",""3756""
","
","","[{""page_index"":0,""viewing_time"":9743.100000143051},{""page_index"":1,""viewing_time"":6440.899999856949},{""page_index"":2,""viewing_time"":6904.799999952316},{""page_index"":3,""viewing_time"":7112.700000047684},{""page_index"":4,""viewing_time"":5673.299999952316},{""page_index"":5,""viewing_time"":5353.700000047684},{""page_index"":6,""viewing_time"":7444.799999952316},{""page_index"":7,""viewing_time"":7863},{""page_index"":8,""viewing_time"":6529},{""page_index"":9,""viewing_time"":11914.600000143051},{""page_index"":10,""viewing_time"":7614.899999856949},{""page_index"":11,""viewing_time"":9830.5},{""page_index"":12,""viewing_time"":6189.600000143051},{""page_index"":13,""viewing_time"":5210.5}]","103826","","","","","","","","","","","","","","","","","","","","","","","",""
"pit-trial","8","128693","0.0-2.0-4.0-0.0","battery-v0.2","","""event"",""trial"",""time""
""fullscreenenter"",""1"",""3756""
","
","
","""event"",""trial"",""time""
""fullscreenenter"",""1"",""3756""
","
","","","742.5","","","11","5218","2125","&#9784;","elianto","#FFFFF080"," "," ","1","&#10004","[115.59999990463257,1594.7000000476837]","2","0","0","","","","","","","",""
"pit-trial","9","132321","0.0-2.0-4.1-0.1","battery-v0.2","","""event"",""trial"",""time""
""fullscreenenter"",""1"",""3756""
","
","
","""event"",""trial"",""time""
""fullscreenenter"",""1"",""3756""
","
","","","744.0999999046326","","","11","5218","2125","&#9784;","elianto","#FFFFF080"," "," ","1","&#10004","[1608.5999999046326]","1","0","0","","","","","","","",""
"pit-trial","10","135845","0.0-2.0-4.2-0.2","battery-v0.2","","""event"",""trial"",""time""
""fullscreenenter"",""1"",""3756""
","
","
","""event"",""trial"",""time""
""fullscreenenter"",""1"",""3756""
","
","","","658.7000000476837","","","11","5218","2125","&#9784;","elianto","#FFFFF080"," "," ","1","&#10004","[1511.8999998569489]","1","0","0","","","","","","","",""
"pit-trial","11","139327","0.0-2.0-4.3-0.3","battery-v0.2","","""event"",""trial"",""time""
""fullscreenenter"",""1"",""3756""
","
","
","""event"",""trial"",""time""
""fullscreenenter"",""1"",""3756""
","
","","","616.9000000953674","","","11","5218","2125","&#9784;","elianto","#FFFFF080"," "," ","1","&#10004","[1467]","1","0","0","","","","","","","",""
"pit-trial","12","142839","0.0-2.0-4.4-0.4","battery-v0.2","","""event"",""trial"",""time""
""fullscreenenter"",""1"",""3756""
","
","
","""event"",""trial"",""time""
""fullscreenenter"",""1"",""3756""
","
","","","641.1000001430511","","","11","5218","2125","&#9784;","elianto","#FFFFF080"," "," ","1","&#10004","[1491.2000000476837]","1","0","0","","","","","","","",""
"pit-instructions","13","163676","0.0-2.0-5.0","battery-v0.2","","""event"",""trial"",""time""
""fullscreenenter"",""1"",""3756""
","
","
","""event"",""trial"",""time""
""fullscreenenter"",""1"",""3756""
","
","","[{""page_index"":0,""viewing_time"":4825.5},{""page_index"":1,""viewing_time"":5433.200000047684},{""page_index"":2,""viewing_time"":5216.199999809265},{""page_index"":3,""viewing_time"":5356.900000095367}]","20832.39999985695","","","","","","","","","","","","","","","","","","","","","","","",""
"pit-trial","14","168554","0.0-2.0-6.0-0.0","battery-v0.2","","""event"",""trial"",""time""
""fullscreenenter"",""1"",""3756""
","
","
","""event"",""trial"",""time""
""fullscreenenter"",""1"",""3756""
","
","","","-1","","","11","5218","2125","&#9854;","elianto","#FFFFF080","-1","-1","1","&#10004","[]","0","0","1","","","","","","","",""
"pit-trial","15","173434","0.0-2.0-6.1-0.1","battery-v0.2","","""event"",""trial"",""time""
""fullscreenenter"",""1"",""3756""
","
","
","""event"",""trial"",""time""
""fullscreenenter"",""1"",""3756""
","
","","","-1","","","11","5218","2125","&#9854;","elianto","#FFFFF080","-1","-1","1","&#10004","[]","0","0","1","","","","","","","",""
"pit-trial","16","178305","0.0-2.0-6.2-0.2","battery-v0.2","","""event"",""trial"",""time""
""fullscreenenter"",""1"",""3756""
","
","
","""event"",""trial"",""time""
""fullscreenenter"",""1"",""3756""
","
","","","-1","","","11","5218","2125","&#9854;","elianto","#FFFFF080","-1","-1","1","&#10004","[]","0","0","1","","","","","","","",""
"pit-trial","17","183177","0.0-2.0-6.3-0.3","battery-v0.2","","""event"",""trial"",""time""
""fullscreenenter"",""1"",""3756""
","
","
","""event"",""trial"",""time""
""fullscreenenter"",""1"",""3756""
","
","","","-1","","","11","5218","2125","&#9854;","elianto","#FFFFF080","-1","-1","1","&#10004","[]","0","0","1","","","","","","","",""
"pit-trial","18","188047","0.0-2.0-6.4-0.4","battery-v0.2","","""event"",""trial"",""time""
""fullscreenenter"",""1"",""3756""
","
","
","""event"",""trial"",""time""
""fullscreenenter"",""1"",""3756""
","
","","","-1","","","11","5218","2125","&#9854;","elianto","#FFFFF080","-1","-1","1","&#10004","[]","0","0","1","","","","","","","",""
"pit-instructions","19","316157","0.0-2.0-7.0","battery-v0.2","","""event"",""trial"",""time""
""fullscreenenter"",""1"",""3756""
","
","
","""event"",""trial"",""time""
""fullscreenenter"",""1"",""3756""
","
","","[{""page_index"":0,""viewing_time"":7835},{""page_index"":1,""viewing_time"":6492.799999952316},{""page_index"":2,""viewing_time"":5766.5},{""page_index"":3,""viewing_time"":5406.700000047684},{""page_index"":4,""viewing_time"":6995.5},{""page_index"":5,""viewing_time"":8316.099999904633},{""page_index"":6,""viewing_time"":6075.400000095367},{""page_index"":7,""viewing_time"":7431.200000047684},{""page_index"":8,""viewing_time"":6795.799999952316},{""page_index"":9,""viewing_time"":6977.200000047684},{""page_index"":10,""viewing_time"":6420.399999856949},{""page_index"":11,""viewing_time"":6861.600000143051},{""page_index"":12,""viewing_time"":6647.5},{""page_index"":13,""viewing_time"":8349.200000047684},{""page_index"":14,""viewing_time"":8149.299999952316},{""page_index"":15,""viewing_time"":8190.299999952316},{""page_index"":16,""viewing_time"":6401.400000095367},{""page_index"":17,""viewing_time"":8995.199999809265}]","128107.5","","","","","","","","","","","","","","","","","","","","","","","",""
"pit-trial","20","319738","0.0-2.0-8.0-0.0","battery-v0.2","","""event"",""trial"",""time""
""fullscreenenter"",""1"",""3756""
","
","
","""event"",""trial"",""time""
""fullscreenenter"",""1"",""3756""
","
","","","711.5","","","11","5218","2125","&#9776;","elianto","#3366ff99"," "," ","1","+10","[1563.0999999046326]","1","0","1","","","","","","","",""
"pit-trial","21","322645","0.0-2.0-8.0-1.0","battery-v0.2","","""event"",""trial"",""time""
""fullscreenenter"",""1"",""3756""
","
","
","""event"",""trial"",""time""
""fullscreenenter"",""1"",""3756""
","
","","","31.899999856948853","","","11","5218","2125","&#9776;","elianto","#3366ff99"," "," ","1","+10","[133.5,887.4000000953674]","2","0","1","","","","","","","",""
"pit-trial","22","325886","0.0-2.0-8.0-2.0","battery-v0.2","","""event"",""trial"",""time""
""fullscreenenter"",""1"",""3756""
","
","
","""event"",""trial"",""time""
""fullscreenenter"",""1"",""3756""
","
","","","369.7000000476837","","","11","5218","2125","&#9776;","elianto","#3366ff99"," "," ","1","+10","[1222]","1","0","1","","","","","","","",""
"pit-trial","23","329112","0.0-2.0-8.0-3.0","battery-v0.2","","""event"",""trial"",""time""
""fullscreenenter"",""1"",""3756""
","
","
","""event"",""trial"",""time""
""fullscreenenter"",""1"",""3756""
","
","","","353.7000000476837","","","11","5218","2125","&#9776;","elianto","#3366ff99"," "," ","1","0","[1204.4000000953674]","1","0","1","","","","","","","",""
"pit-trial","24","332762","0.0-2.0-8.0-4.0","battery-v0.2","","""event"",""trial"",""time""
""fullscreenenter"",""1"",""3756""
","
","
","""event"",""trial"",""time""
""fullscreenenter"",""1"",""3756""
","
","","","774.7000000476837","","","11","5218","2125","&#9776;","elianto","#3366ff99"," "," ","1","+10","[1631]","1","0","1","","","","","","","",""
"pit-trial","25","336422","0.0-2.0-8.1-0.1","battery-v0.2","","""event"",""trial"",""time""
""fullscreenenter"",""1"",""3756""
","
","
","""event"",""trial"",""time""
""fullscreenenter"",""1"",""3756""
","
","","","785.2000000476837","","","11","5218","2125","&#9776;","elianto","#3366ff99"," "," ","1","+10","[1640.0999999046326]","1","0","1","","","","","","","",""
"pit-trial","26","340350","0.0-2.0-8.1-1.1","battery-v0.2","","""event"",""trial"",""time""
""fullscreenenter"",""1"",""3756""
","
","
","""event"",""trial"",""time""
""fullscreenenter"",""1"",""3756""
","
","","","1064.3999998569489","","","11","5218","2125","&#9776;","elianto","#3366ff99"," "," ","1","+10","[1915.1999998092651]","1","0","1","","","","","","","",""
"pit-trial","27","343824","0.0-2.0-8.1-2.1","battery-v0.2","","""event"",""trial"",""time""
""fullscreenenter"",""1"",""3756""
","
","
","""event"",""trial"",""time""
""fullscreenenter"",""1"",""3756""
","
","","","600.8999998569489","","","11","5218","2125","&#9776;","elianto","#3366ff99"," "," ","1","+10","[1451.5999999046326]","1","0","1","","","","","","","",""
"pit-trial","28","347187","0.0-2.0-8.1-3.1","battery-v0.2","","""event"",""trial"",""time""
""fullscreenenter"",""1"",""3756""
","
","
","""event"",""trial"",""time""
""fullscreenenter"",""1"",""3756""
","
","","","497.7000000476837","","","11","5218","2125","&#9776;","elianto","#3366ff99"," "," ","1","0","[1354.6000001430511]","1","0","1","","","","","","","",""
"pit-trial","29","350580","0.0-2.0-8.1-4.1","battery-v0.2","","""event"",""trial"",""time""
""fullscreenenter"",""1"",""3756""
","
","
","""event"",""trial"",""time""
""fullscreenenter"",""1"",""3756""
","
","","","535.7999999523163","","","11","5218","2125","&#9776;","elianto","#3366ff99"," "," ","1","+10","[809.7999999523163,1386.0999999046326]","2","0","1","","","","","","","",""
"pit-trial","30","354460","0.0-2.0-8.2-0.2","battery-v0.2","","""event"",""trial"",""time""
""fullscreenenter"",""1"",""3756""
","
","
","""event"",""trial"",""time""
""fullscreenenter"",""1"",""3756""
","
","","","1017.8000001907349","","","11","5218","2125","&#9776;","elianto","#3366ff99"," "," ","1","+10","[1871.5]","1","0","1","","","","","","","",""
"pit-trial","31","357988","0.0-2.0-8.2-1.2","battery-v0.2","","""event"",""trial"",""time""
""fullscreenenter"",""1"",""3756""
","
","
","""event"",""trial"",""time""
""fullscreenenter"",""1"",""3756""
","
","","","666.8000001907349","","","11","5218","2125","&#9776;","elianto","#3366ff99"," "," ","1","+10","[1520.2000000476837]","1","0","1","","","","","","","",""
"pit-trial","32","362643","0.0-2.0-8.2-2.2","battery-v0.2","","""event"",""trial"",""time""
""fullscreenenter"",""1"",""3756""
","
","
","""event"",""trial"",""time""
""fullscreenenter"",""1"",""3756""
","
","","","1796.4000000953674","","","11","5218","2125","&#9776;","elianto","#3366ff99"," "," ","1","+10","[2648.2999999523163]","1","0","1","","","","","","","",""
"pit-trial","33","366475","0.0-2.0-8.2-3.2","battery-v0.2","","""event"",""trial"",""time""
""fullscreenenter"",""1"",""3756""
","
","
","""event"",""trial"",""time""
""fullscreenenter"",""1"",""3756""
","
","","","972.7999999523163","","","11","5218","2125","&#9776;","elianto","#3366ff99"," "," ","1","0","[1826.3999998569489]","1","0","1","","","","","","","",""
"pit-trial","34","370411","0.0-2.0-8.2-4.2","battery-v0.2","","""event"",""trial"",""time""
""fullscreenenter"",""1"",""3756""
","
","
","""event"",""trial"",""time""
""fullscreenenter"",""1"",""3756""
","
","","","1077.7000000476837","","","11","5218","2125","&#9776;","elianto","#3366ff99"," "," ","1","+10","[1931.7999999523163]","1","0","1","","","","","","","",""
"call-function","35","370413","0.0-2.0-9.0","battery-v0.2","","""event"",""trial"",""time""
""fullscreenenter"",""1"",""3756""
","
","
","""event"",""trial"",""time""
""fullscreenenter"",""1"",""3756""
","
","","","","","","","","","","","","","","","","","","","","","","","","","","",""
"pit-instructions","36","413011","0.0-2.0-10.0","battery-v0.2","","""event"",""trial"",""time""
""fullscreenenter"",""1"",""3756""
","
","
","""event"",""trial"",""time""
""fullscreenenter"",""1"",""3756""
","
","","[{""page_index"":0,""viewing_time"":8485.099999904633},{""page_index"":1,""viewing_time"":7325.900000095367},{""page_index"":2,""viewing_time"":10134.200000047684},{""page_index"":3,""viewing_time"":9006.799999952316},{""page_index"":4,""viewing_time"":7645.900000095367}]","42598.299999952316","","","","","","","","","","","","","","","","","","","","","","","",""
"pit-trial","37","417877","0.0-2.0-11.0-0.0","battery-v0.2","","""event"",""trial"",""time""
""fullscreenenter"",""1"",""3756""
","
","
","""event"",""trial"",""time""
""fullscreenenter"",""1"",""3756""
","
","","","-1","","","11","5218","2125","&#9761;","elianto","#3366ff99","-1","-1","1","+10","[]","0","0","2","","","","","","","",""
"pit-trial","38","422744","0.0-2.0-11.0-1.0","battery-v0.2","","""event"",""trial"",""time""
""fullscreenenter"",""1"",""3756""
","
","
","""event"",""trial"",""time""
""fullscreenenter"",""1"",""3756""
","
","","","-1","","","11","5218","2125","&#9761;","elianto","#3366ff99","-1","-1","1","+10","[]","0","0","2","","","","","","","",""
"pit-trial","39","427623","0.0-2.0-11.0-2.0","battery-v0.2","","""event"",""trial"",""time""
""fullscreenenter"",""1"",""3756""
","
","
","""event"",""trial"",""time""
""fullscreenenter"",""1"",""3756""
","
","","","-1","","","11","5218","2125","&#9761;","elianto","#3366ff99","-1","-1","1","+10","[]","0","0","2","","","","","","","",""
"pit-trial","40","432488","0.0-2.0-11.0-3.0","battery-v0.2","","""event"",""trial"",""time""
""fullscreenenter"",""1"",""3756""
","
","
","""event"",""trial"",""time""
""fullscreenenter"",""1"",""3756""
","
","","","-1","","","11","5218","2125","&#9761;","elianto","#3366ff99","-1","-1","1","0","[]","0","0","2","","","","","","","",""
"pit-trial","41","437358","0.0-2.0-11.0-4.0","battery-v0.2","","""event"",""trial"",""time""
""fullscreenenter"",""1"",""3756""
","
","
","""event"",""trial"",""time""
""fullscreenenter"",""1"",""3756""
","
","","","-1","","","11","5218","2125","&#9761;","elianto","#3366ff99","-1","-1","1","+10","[]","0","0","2","","","","","","","",""
"pit-trial","42","442227","0.0-2.0-11.1-0.1","battery-v0.2","","""event"",""trial"",""time""
""fullscreenenter"",""1"",""3756""
","
","
","""event"",""trial"",""time""
""fullscreenenter"",""1"",""3756""
","
","","","-1","","","11","5218","2125","&#9761;","elianto","#3366ff99","-1","-1","1","+10","[]","0","0","2","","","","","","","",""
"pit-trial","43","447091","0.0-2.0-11.1-1.1","battery-v0.2","","""event"",""trial"",""time""
""fullscreenenter"",""1"",""3756""
","
","
","""event"",""trial"",""time""
""fullscreenenter"",""1"",""3756""
","
","","","-1","","","11","5218","2125","&#9761;","elianto","#3366ff99","-1","-1","1","+10","[]","0","0","2","","","","","","","",""
"pit-trial","44","451955","0.0-2.0-11.1-2.1","battery-v0.2","","""event"",""trial"",""time""
""fullscreenenter"",""1"",""3756""
","
","
","""event"",""trial"",""time""
""fullscreenenter"",""1"",""3756""
","
","","","-1","","","11","5218","2125","&#9761;","elianto","#3366ff99","-1","-1","1","+10","[]","0","0","2","","","","","","","",""
"pit-trial","45","456818","0.0-2.0-11.1-3.1","battery-v0.2","","""event"",""trial"",""time""
""fullscreenenter"",""1"",""3756""
","
","
","""event"",""trial"",""time""
""fullscreenenter"",""1"",""3756""
","
","","","-1","","","11","5218","2125","&#9761;","elianto","#3366ff99","-1","-1","1","0","[]","0","0","2","","","","","","","",""
"pit-trial","46","461683","0.0-2.0-11.1-4.1","battery-v0.2","","""event"",""trial"",""time""
""fullscreenenter"",""1"",""3756""
","
","
","""event"",""trial"",""time""
""fullscreenenter"",""1"",""3756""
","
","","","-1","","","11","5218","2125","&#9761;","elianto","#3366ff99","-1","-1","1","+10","[]","0","0","2","","","","","","","",""
"pit-trial","47","466547","0.0-2.0-11.2-0.2","battery-v0.2","","""event"",""trial"",""time""
""fullscreenenter"",""1"",""3756""
","
","
","""event"",""trial"",""time""
""fullscreenenter"",""1"",""3756""
","
","","","-1","","","11","5218","2125","&#9761;","elianto","#3366ff99","-1","-1","1","+10","[]","0","0","2","","","","","","","",""
"pit-trial","48","471411","0.0-2.0-11.2-1.2","battery-v0.2","","""event"",""trial"",""time""
""fullscreenenter"",""1"",""3756""
","
","
","""event"",""trial"",""time""
""fullscreenenter"",""1"",""3756""
","
","","","-1","","","11","5218","2125","&#9761;","elianto","#3366ff99","-1","-1","1","+10","[]","0","0","2","","","","","","","",""
"pit-trial","49","476275","0.0-2.0-11.2-2.2","battery-v0.2","","""event"",""trial"",""time""
""fullscreenenter"",""1"",""3756""
","
","
","""event"",""trial"",""time""
""fullscreenenter"",""1"",""3756""
","
","","","-1","","","11","5218","2125","&#9761;","elianto","#3366ff99","-1","-1","1","+10","[]","0","0","2","","","","","","","",""
"pit-trial","50","481138","0.0-2.0-11.2-3.2","battery-v0.2","","""event"",""trial"",""time""
""fullscreenenter"",""1"",""3756""
","
","
","""event"",""trial"",""time""
""fullscreenenter"",""1"",""3756""
","
","","","-1","","","11","5218","2125","&#9761;","elianto","#3366ff99","-1","-1","1","0","[]","0","0","2","","","","","","","",""
"pit-trial","51","486004","0.0-2.0-11.2-4.2","battery-v0.2","","""event"",""trial"",""time""
""fullscreenenter"",""1"",""3756""
","
","
","""event"",""trial"",""time""
""fullscreenenter"",""1"",""3756""
","
","","","-1","","","11","5218","2125","&#9761;","elianto","#3366ff99","-1","-1","1","+10","[]","0","0","2","","","","","","","",""
"pit-trial","52","490866","0.0-2.0-11.3-0.3","battery-v0.2","","""event"",""trial"",""time""
""fullscreenenter"",""1"",""3756""
","
","
","""event"",""trial"",""time""
""fullscreenenter"",""1"",""3756""
","
","","","-1","","","11","5218","2125","&#9761;","elianto","#3366ff99","-1","-1","1","+10","[]","0","0","2","","","","","","","",""
"pit-trial","53","495731","0.0-2.0-11.3-1.3","battery-v0.2","","""event"",""trial"",""time""
""fullscreenenter"",""1"",""3756""
","
","
","""event"",""trial"",""time""
""fullscreenenter"",""1"",""3756""
","
","","","-1","","","11","5218","2125","&#9761;","elianto","#3366ff99","-1","-1","1","+10","[]","0","0","2","","","","","","","",""
"pit-trial","54","500595","0.0-2.0-11.3-2.3","battery-v0.2","","""event"",""trial"",""time""
""fullscreenenter"",""1"",""3756""
","
","
","""event"",""trial"",""time""
""fullscreenenter"",""1"",""3756""
","
","","","-1","","","11","5218","2125","&#9761;","elianto","#3366ff99","-1","-1","1","+10","[]","0","0","2","","","","","","","",""
"pit-trial","55","505459","0.0-2.0-11.3-3.3","battery-v0.2","","""event"",""trial"",""time""
""fullscreenenter"",""1"",""3756""
","
","
","""event"",""trial"",""time""
""fullscreenenter"",""1"",""3756""
","
","","","-1","","","11","5218","2125","&#9761;","elianto","#3366ff99","-1","-1","1","0","[]","0","0","2","","","","","","","",""
"pit-trial","56","510323","0.0-2.0-11.3-4.3","battery-v0.2","","""event"",""trial"",""time""
""fullscreenenter"",""1"",""3756""
","
","
","""event"",""trial"",""time""
""fullscreenenter"",""1"",""3756""
","
","","","-1","","","11","5218","2125","&#9761;","elianto","#3366ff99","-1","-1","1","+10","[]","0","0","2","","","","","","","",""
"call-function","57","510324","0.0-2.0-12.0","battery-v0.2","","""event"",""trial"",""time""
""fullscreenenter"",""1"",""3756""
","
","
","""event"",""trial"",""time""
""fullscreenenter"",""1"",""3756""
","
","","","","","","","","","","","","","","","","","","","","","","","","","","",""
"pit-instructions","58","548433","0.0-2.0-13.0","battery-v0.2","","""event"",""trial"",""time""
""fullscreenenter"",""1"",""3756""
","
","
","""event"",""trial"",""time""
""fullscreenenter"",""1"",""3756""
","
","","[{""page_index"":0,""viewing_time"":9327.399999856949},{""page_index"":1,""viewing_time"":7535.100000143051},{""page_index"":2,""viewing_time"":4563.399999856949},{""page_index"":3,""viewing_time"":10627},{""page_index"":4,""viewing_time"":6054.300000190735}]","38107.89999985695","","","","","","","","","","","","","","","","","","","","","","","",""
"pit-trial","59","551886","0.0-2.0-14.0-0.0","battery-v0.2","","""event"",""trial"",""time""
""fullscreenenter"",""1"",""3756""
","
","
","""event"",""trial"",""time""
""fullscreenenter"",""1"",""3756""
","
","","","575.8000001907349","","","11","5218","2125","&#9826;","elianto","#f73b6a7A","-1"," ","0","-10","[1431.0999999046326]","1","0","3","","","","","","","",""
"pit-trial","60","556759","0.0-2.0-14.0-1.0","battery-v0.2","","""event"",""trial"",""time""
""fullscreenenter"",""1"",""3756""
","
","
","""event"",""trial"",""time""
""fullscreenenter"",""1"",""3756""
","
","","","-1","","","11","5218","2125","&#9826;","elianto","#f73b6a7A","-1","-1","1","0","[]","0","0","3","","","","","","","",""
"pit-trial","61","561635","0.0-2.0-14.0-2.0","battery-v0.2","","""event"",""trial"",""time""
""fullscreenenter"",""1"",""3756""
","
","
","""event"",""trial"",""time""
""fullscreenenter"",""1"",""3756""
","
","","","-1","","","11","5218","2125","&#9826;","elianto","#f73b6a7A","-1","-1","1","0","[]","0","0","3","","","","","","","",""
"pit-trial","62","566521","0.0-2.0-14.0-3.0","battery-v0.2","","""event"",""trial"",""time""
""fullscreenenter"",""1"",""3756""
","
","
","""event"",""trial"",""time""
""fullscreenenter"",""1"",""3756""
","
","","","-1","","","11","5218","2125","&#9826;","elianto","#f73b6a7A","-1","-1","1","-10","[]","0","0","3","","","","","","","",""
"pit-trial","63","571397","0.0-2.0-14.0-4.0","battery-v0.2","","""event"",""trial"",""time""
""fullscreenenter"",""1"",""3756""
","
","
","""event"",""trial"",""time""
""fullscreenenter"",""1"",""3756""
","
","","","-1","","","11","5218","2125","&#9826;","elianto","#f73b6a7A","-1","-1","1","0","[]","0","0","3","","","","","","","",""
"pit-trial","64","576273","0.0-2.0-14.1-0.1","battery-v0.2","","""event"",""trial"",""time""
""fullscreenenter"",""1"",""3756""
","
","
","""event"",""trial"",""time""
""fullscreenenter"",""1"",""3756""
","
","","","-1","","","11","5218","2125","&#9826;","elianto","#f73b6a7A","-1","-1","1","0","[]","0","0","3","","","","","","","",""
"pit-trial","65","581139","0.0-2.0-14.1-1.1","battery-v0.2","","""event"",""trial"",""time""
""fullscreenenter"",""1"",""3756""
","
","
","""event"",""trial"",""time""
""fullscreenenter"",""1"",""3756""
","
","","","-1","","","11","5218","2125","&#9826;","elianto","#f73b6a7A","-1","-1","1","0","[]","0","0","3","","","","","","","",""
"pit-trial","66","586003","0.0-2.0-14.1-2.1","battery-v0.2","","""event"",""trial"",""time""
""fullscreenenter"",""1"",""3756""
","
","
","""event"",""trial"",""time""
""fullscreenenter"",""1"",""3756""
","
","","","-1","","","11","5218","2125","&#9826;","elianto","#f73b6a7A","-1","-1","1","0","[]","0","0","3","","","","","","","",""
"pit-trial","67","590867","0.0-2.0-14.1-3.1","battery-v0.2","","""event"",""trial"",""time""
""fullscreenenter"",""1"",""3756""
","
","
","""event"",""trial"",""time""
""fullscreenenter"",""1"",""3756""
","
","","","-1","","","11","5218","2125","&#9826;","elianto","#f73b6a7A","-1","-1","1","-10","[]","0","0","3","","","","","","","",""
"pit-trial","68","595731","0.0-2.0-14.1-4.1","battery-v0.2","","""event"",""trial"",""time""
""fullscreenenter"",""1"",""3756""
","
","
","""event"",""trial"",""time""
""fullscreenenter"",""1"",""3756""
","
","","","-1","","","11","5218","2125","&#9826;","elianto","#f73b6a7A","-1","-1","1","0","[]","0","0","3","","","","","","","",""
"pit-trial","69","600595","0.0-2.0-14.2-0.2","battery-v0.2","","""event"",""trial"",""time""
""fullscreenenter"",""1"",""3756""
","
","
","""event"",""trial"",""time""
""fullscreenenter"",""1"",""3756""
","
","","","-1","","","11","5218","2125","&#9826;","elianto","#f73b6a7A","-1","-1","1","0","[]","0","0","3","","","","","","","",""
"pit-trial","70","605459","0.0-2.0-14.2-1.2","battery-v0.2","","""event"",""trial"",""time""
""fullscreenenter"",""1"",""3756""
","
","
","""event"",""trial"",""time""
""fullscreenenter"",""1"",""3756""
","
","","","-1","","","11","5218","2125","&#9826;","elianto","#f73b6a7A","-1","-1","1","0","[]","0","0","3","","","","","","","",""
"pit-trial","71","610322","0.0-2.0-14.2-2.2","battery-v0.2","","""event"",""trial"",""time""
""fullscreenenter"",""1"",""3756""
","
","
","""event"",""trial"",""time""
""fullscreenenter"",""1"",""3756""
","
","","","-1","","","11","5218","2125","&#9826;","elianto","#f73b6a7A","-1","-1","1","0","[]","0","0","3","","","","","","","",""
"pit-trial","72","615187","0.0-2.0-14.2-3.2","battery-v0.2","","""event"",""trial"",""time""
""fullscreenenter"",""1"",""3756""
","
","
","""event"",""trial"",""time""
""fullscreenenter"",""1"",""3756""
","
","","","-1","","","11","5218","2125","&#9826;","elianto","#f73b6a7A","-1","-1","1","-10","[]","0","0","3","","","","","","","",""
"pit-trial","73","620051","0.0-2.0-14.2-4.2","battery-v0.2","","""event"",""trial"",""time""
""fullscreenenter"",""1"",""3756""
","
","
","""event"",""trial"",""time""
""fullscreenenter"",""1"",""3756""
","
","","","-1","","","11","5218","2125","&#9826;","elianto","#f73b6a7A","-1","-1","1","0","[]","0","0","3","","","","","","","",""
"pit-trial","74","624916","0.0-2.0-14.3-0.3","battery-v0.2","","""event"",""trial"",""time""
""fullscreenenter"",""1"",""3756""
","
","
","""event"",""trial"",""time""
""fullscreenenter"",""1"",""3756""
","
","","","-1","","","11","5218","2125","&#9826;","elianto","#f73b6a7A","-1","-1","1","0","[]","0","0","3","","","","","","","",""
"pit-trial","75","629778","0.0-2.0-14.3-1.3","battery-v0.2","","""event"",""trial"",""time""
""fullscreenenter"",""1"",""3756""
","
","
","""event"",""trial"",""time""
""fullscreenenter"",""1"",""3756""
","
","","","-1","","","11","5218","2125","&#9826;","elianto","#f73b6a7A","-1","-1","1","0","[]","0","0","3","","","","","","","",""
"pit-trial","76","634643","0.0-2.0-14.3-2.3","battery-v0.2","","""event"",""trial"",""time""
""fullscreenenter"",""1"",""3756""
","
","
","""event"",""trial"",""time""
""fullscreenenter"",""1"",""3756""
","
","","","-1","","","11","5218","2125","&#9826;","elianto","#f73b6a7A","-1","-1","1","0","[]","0","0","3","","","","","","","",""
"pit-trial","77","639507","0.0-2.0-14.3-3.3","battery-v0.2","","""event"",""trial"",""time""
""fullscreenenter"",""1"",""3756""
","
","
","""event"",""trial"",""time""
""fullscreenenter"",""1"",""3756""
","
","","","-1","","","11","5218","2125","&#9826;","elianto","#f73b6a7A","-1","-1","1","-10","[]","0","0","3","","","","","","","",""
"pit-trial","78","644370","0.0-2.0-14.3-4.3","battery-v0.2","","""event"",""trial"",""time""
""fullscreenenter"",""1"",""3756""
","
","
","""event"",""trial"",""time""
""fullscreenenter"",""1"",""3756""
","
","","","-1","","","11","5218","2125","&#9826;","elianto","#f73b6a7A","-1","-1","1","0","[]","0","0","3","","","","","","","",""
"call-function","79","644372","0.0-2.0-15.0","battery-v0.2","","""event"",""trial"",""time""
""fullscreenenter"",""1"",""3756""
","
","
","""event"",""trial"",""time""
""fullscreenenter"",""1"",""3756""
","
","","","","","","","","","","","","","","","","","","","","","","","","","","",""
"pit-instructions","80","678792","0.0-2.0-16.0","battery-v0.2","","""event"",""trial"",""time""
""fullscreenenter"",""1"",""3756""
","
","
","""event"",""trial"",""time""
""fullscreenenter"",""1"",""3756""
","
","","[{""page_index"":0,""viewing_time"":11731.299999952316},{""page_index"":1,""viewing_time"":10511},{""page_index"":2,""viewing_time"":6241.5},{""page_index"":3,""viewing_time"":5935.799999952316}]","34420.09999990463","","","","","","","","","","","","","","","","","","","","","","","",""
"pit-trial","81","681727","0.0-2.0-17.0-0.0","battery-v0.2","","""event"",""trial"",""time""
""fullscreenenter"",""1"",""3756""
","
","
","""event"",""trial"",""time""
""fullscreenenter"",""1"",""3756""
","
","","","60.200000047683716","","","11","5218","2125","&#9789;","elianto","#f73b6a7A"," "," ","1","0","[543.5,917.4000000953674,1219.2000000476837,1576.9000000953674,1907.4000000953674,2541.5,2856]","7","0","4","","","","","","","",""
"pit-trial","82","684612","0.0-2.0-17.0-1.0","battery-v0.2","","""event"",""trial"",""time""
""fullscreenenter"",""1"",""3756""
","
","
","""event"",""trial"",""time""
""fullscreenenter"",""1"",""3756""
","
","","","14.099999904632568","","","11","5218","2125","&#9789;","elianto","#f73b6a7A"," "," ","1","0","[263.59999990463257,560.7999999523163,872.0999999046326,1129.2999999523163,1520.5999999046326]","5","0","4","","","","","","","",""
"pit-trial","83","688203","0.0-2.0-17.0-2.0","battery-v0.2","","""event"",""trial"",""time""
""fullscreenenter"",""1"",""3756""
","
","
","""event"",""trial"",""time""
""fullscreenenter"",""1"",""3756""
","
","","","720.3999998569489","","","11","5218","2125","&#9789;","elianto","#f73b6a7A"," "," ","1","0","[1573.3999998569489]","1","0","4","","","","","","","",""
"pit-trial","84","691900","0.0-2.0-17.0-3.0","battery-v0.2","","""event"",""trial"",""time""
""fullscreenenter"",""1"",""3756""
","
","
","""event"",""trial"",""time""
""fullscreenenter"",""1"",""3756""
","
","","","829.2999999523163","","","11","5218","2125","&#9789;","elianto","#f73b6a7A"," "," ","1","-10","[1681.2999999523163]","1","0","4","","","","","","","",""
"pit-trial","85","696781","0.0-2.0-17.0-4.0","battery-v0.2","","""event"",""trial"",""time""
""fullscreenenter"",""1"",""3756""
","
","
","""event"",""trial"",""time""
""fullscreenenter"",""1"",""3756""
","
","","","-1","","","11","5218","2125","&#9789;","elianto","#f73b6a7A"," ","-1","0","-10","[]","0","0","4","","","","","","","",""
"pit-trial","86","700473","0.0-2.0-17.1-0.1","battery-v0.2","","""event"",""trial"",""time""
""fullscreenenter"",""1"",""3756""
","
","
","""event"",""trial"",""time""
""fullscreenenter"",""1"",""3756""
","
","","","823.2000000476837","","","11","5218","2125","&#9789;","elianto","#f73b6a7A"," "," ","1","0","[1677.5]","1","0","4","","","","","","","",""
"pit-trial","87","704469","0.0-2.0-17.1-1.1","battery-v0.2","","""event"",""trial"",""time""
""fullscreenenter"",""1"",""3756""
","
","
","""event"",""trial"",""time""
""fullscreenenter"",""1"",""3756""
","
","","","1121.7000000476837","","","11","5218","2125","&#9789;","elianto","#f73b6a7A"," "," ","1","0","[1976.2999999523163]","1","0","4","","","","","","","",""
"pit-trial","88","707868","0.0-2.0-17.1-2.1","battery-v0.2","","""event"",""trial"",""time""
""fullscreenenter"",""1"",""3756""
","
","
","""event"",""trial"",""time""
""fullscreenenter"",""1"",""3756""
","
","","","541.2000000476837","","","11","5218","2125","&#9789;","elianto","#f73b6a7A"," "," ","1","0","[1394.8000001907349]","1","0","4","","","","","","","",""
"pit-trial","89","711879","0.0-2.0-17.1-3.1","battery-v0.2","","""event"",""trial"",""time""
""fullscreenenter"",""1"",""3756""
","
","
","""event"",""trial"",""time""
""fullscreenenter"",""1"",""3756""
","
","","","1157.5","","","11","5218","2125","&#9789;","elianto","#f73b6a7A"," "," ","1","-10","[2008.7999999523163,3912.7999999523163]","2","0","4","","","","","","","",""
"pit-trial","90","714875","0.0-2.0-17.1-4.1","battery-v0.2","","""event"",""trial"",""time""
""fullscreenenter"",""1"",""3756""
","
","
","""event"",""trial"",""time""
""fullscreenenter"",""1"",""3756""
","
","","","129.10000014305115","","","11","5218","2125","&#9789;","elianto","#f73b6a7A"," "," ","1","0","[130.20000004768372,321.10000014305115,472.40000009536743,672.1000001430511,986.8000001907349,2043.4000000953674,2597.7000000476837]","7","0","4","","","","","","","",""
"pit-trial","91","718316","0.0-2.0-17.2-0.2","battery-v0.2","","""event"",""trial"",""time""
""fullscreenenter"",""1"",""3756""
","
","
","""event"",""trial"",""time""
""fullscreenenter"",""1"",""3756""
","
","","","579.2999999523163","","","11","5218","2125","&#9789;","elianto","#f73b6a7A"," "," ","1","0","[453.40000009536743,615.4000000953674,778.8000001907349,1433.5,1844.3000001907349,2033.1000001430511,2758.300000190735,3257.9000000953674]","8","0","4","","","","","","","",""
"pit-trial","92","721452","0.0-2.0-17.2-1.2","battery-v0.2","","""event"",""trial"",""time""
""fullscreenenter"",""1"",""3756""
","
","
","""event"",""trial"",""time""
""fullscreenenter"",""1"",""3756""
","
","","","277","","","11","5218","2125","&#9789;","elianto","#f73b6a7A"," "," ","1","0","[155.60000014305115,275.60000014305115,800.4000000953674,1129.5,1470.7000000476837,1798.4000000953674,2130.800000190735,2456]","8","0","4","","","","","","","",""
"pit-trial","93","724396","0.0-2.0-17.2-2.2","battery-v0.2","","""event"",""trial"",""time""
""fullscreenenter"",""1"",""3756""
","
","
","""event"",""trial"",""time""
""fullscreenenter"",""1"",""3756""
","
","","","82.29999995231628","","","11","5218","2125","&#9789;","elianto","#f73b6a7A"," "," ","1","0","[591.9000000953674,934.2999999523163,1220.2999999523163,1443.2000000476837]","4","0","4","","","","","","","",""
"pit-trial","94","727323","0.0-2.0-17.2-3.2","battery-v0.2","","""event"",""trial"",""time""
""fullscreenenter"",""1"",""3756""
","
","
","""event"",""trial"",""time""
""fullscreenenter"",""1"",""3756""
","
","","","63.30000019073486","","","11","5218","2125","&#9789;","elianto","#f73b6a7A"," "," ","1","-10","[915.8000001907349,1030.1000001430511,1548.3000001907349]","3","0","4","","","","","","","",""
"pit-trial","95","730964","0.0-2.0-17.2-4.2","battery-v0.2","","""event"",""trial"",""time""
""fullscreenenter"",""1"",""3756""
","
","
","""event"",""trial"",""time""
""fullscreenenter"",""1"",""3756""
","
","","","776.5999999046326","","","11","5218","2125","&#9789;","elianto","#f73b6a7A"," "," ","1","0","[1631.2999999523163,2417.0999999046326,2737.9000000953674]","3","0","4","","","","","","","",""
"pit-trial","96","734163","0.0-2.0-17.3-0.3","battery-v0.2","","""event"",""trial"",""time""
""fullscreenenter"",""1"",""3756""
","
","
","""event"",""trial"",""time""
""fullscreenenter"",""1"",""3756""
","
","","","340.2999999523163","","","11","5218","2125","&#9789;","elianto","#f73b6a7A"," "," ","1","0","[1193.2000000476837,2293]","2","0","4","","","","","","","",""
"pit-trial","97","738587","0.0-2.0-17.3-1.3","battery-v0.2","","""event"",""trial"",""time""
""fullscreenenter"",""1"",""3756""
","
","
","""event"",""trial"",""time""
""fullscreenenter"",""1"",""3756""
","
","","","1559.5999999046326","","","11","5218","2125","&#9789;","elianto","#f73b6a7A"," "," ","1","0","[2413.5]","1","0","4","","","","","","","",""
"pit-trial","98","741843","0.0-2.0-17.3-2.3","battery-v0.2","","""event"",""trial"",""time""
""fullscreenenter"",""1"",""3756""
","
","
","""event"",""trial"",""time""
""fullscreenenter"",""1"",""3756""
","
","","","396.90000009536743","","","11","5218","2125","&#9789;","elianto","#f73b6a7A"," "," ","1","0","[1250.2000000476837]","1","0","4","","","","","","","",""
"pit-trial","99","745124","0.0-2.0-17.3-3.3","battery-v0.2","","""event"",""trial"",""time""
""fullscreenenter"",""1"",""3756""
","
","
","""event"",""trial"",""time""
""fullscreenenter"",""1"",""3756""
","
","","","423.5","","","11","5218","2125","&#9789;","elianto","#f73b6a7A"," "," ","1","-10","[1277.7999999523163]","1","0","4","","","","","","","",""
"pit-trial","100","749995","0.0-2.0-17.3-4.3","battery-v0.2","","""event"",""trial"",""time""
""fullscreenenter"",""1"",""3756""
","
","
","""event"",""trial"",""time""
""fullscreenenter"",""1"",""3756""
","
","","","-1","","","11","5218","2125","&#9789;","elianto","#f73b6a7A"," ","-1","0","-10","[]","0","0","4","","","","","","","",""
"call-function","101","749998","0.0-2.0-18.0","battery-v0.2","","""event"",""trial"",""time""
""fullscreenenter"",""1"",""3756""
","
","
","""event"",""trial"",""time""
""fullscreenenter"",""1"",""3756""
","
","","","","","","","","","","","","","","","","","","","","","","","","","","",""
"pit-instructions","102","832621","0.0-2.0-19.0","battery-v0.2","","""event"",""trial"",""time""
""fullscreenenter"",""1"",""3756""
","
","
","""event"",""trial"",""time""
""fullscreenenter"",""1"",""3756""
","
","","[{""page_index"":0,""viewing_time"":8365.700000047684},{""page_index"":1,""viewing_time"":7364.899999856949},{""page_index"":2,""viewing_time"":16911.800000190735},{""page_index"":3,""viewing_time"":9890.399999856949},{""page_index"":4,""viewing_time"":10312.400000095367},{""page_index"":5,""viewing_time"":8129.899999856949},{""page_index"":6,""viewing_time"":11168.400000095367},{""page_index"":7,""viewing_time"":5781.5},{""page_index"":8,""viewing_time"":4697.400000095367}]","82622.79999995232","","","","","","","","","","","","","","","","","","","","","","","",""
"pit-comprehension","103","837365","0.0-2.0-20.0-0.0","battery-v0.2","","""event"",""trial"",""time""
""fullscreenenter"",""1"",""3756""
","
","
","""event"",""trial"",""time""
""fullscreenenter"",""1"",""3756""
","
","","","4741.299999952316","[""SPACE""]","0","11","5218","2125","","","","","","","","","","","","","","","","","","",""
"pit-instructions","104","840442","0.0-2.0-20.0-1.0","battery-v0.2","","""event"",""trial"",""time""
""fullscreenenter"",""1"",""3756""
","
","
","""event"",""trial"",""time""
""fullscreenenter"",""1"",""3756""
","
","","[{""page_index"":0,""viewing_time"":3032}]","3032.4000000953674","","","","","","","","","","","","","","","","","","","","","","","",""
"pit-comprehension","105","848276","0.0-2.0-21.0-0.0","battery-v0.2","","""event"",""trial"",""time""
""fullscreenenter"",""1"",""3756""
","
","
","""event"",""trial"",""time""
""fullscreenenter"",""1"",""3756""
","
","","","7829.600000143051","[""10""]","0","11","5218","2125","","","","","","","","","","","","","","","","","","",""
"pit-instructions","106","850545","0.0-2.0-21.0-1.0","battery-v0.2","","""event"",""trial"",""time""
""fullscreenenter"",""1"",""3756""
","
","
","""event"",""trial"",""time""
""fullscreenenter"",""1"",""3756""
","
","","[{""page_index"":0,""viewing_time"":2234.899999856949}]","2235.0999999046326","","","","","","","","","","","","","","","","","","","","","","","",""
"pit-comprehension","107","860187","0.0-2.0-22.0-0.0","battery-v0.2","","""event"",""trial"",""time""
""fullscreenenter"",""1"",""3756""
","
","
","""event"",""trial"",""time""
""fullscreenenter"",""1"",""3756""
","
","","","9639.599999904633","[""-10""]","1","11","5218","2125","","","","","","","","","","","","","","","","","","",""
"pit-instructions","108","863683","0.0-2.0-22.0-1.0","battery-v0.2","","""event"",""trial"",""time""
""fullscreenenter"",""1"",""3756""
","
","
","""event"",""trial"",""time""
""fullscreenenter"",""1"",""3756""
","
","","[{""page_index"":0,""viewing_time"":3462.9000000953674}]","3463.0999999046326","","","","","","","","","","","","","","","","","","","","","","","",""
"pit-instructions","109","864924","0.0-2.0-22.0-2.0-0.0","battery-v0.2","","""event"",""trial"",""time""
""fullscreenenter"",""1"",""3756""
","
","
","""event"",""trial"",""time""
""fullscreenenter"",""1"",""3756""
","
","","[{""page_index"":0,""viewing_time"":1239.5}]","1240","","","","","","","","","","","","","","","","","","","","","","","",""
"pit-comprehension","110","875618","0.0-2.0-22.1-0.1","battery-v0.2","","""event"",""trial"",""time""
""fullscreenenter"",""1"",""3756""
","
","
","""event"",""trial"",""time""
""fullscreenenter"",""1"",""3756""
","
","","","10690.200000047684","[""0""]","0","11","5218","2125","","","","","","","","","","","","","","","","","","",""
"pit-instructions","111","878681","0.0-2.0-22.1-1.1","battery-v0.2","","""event"",""trial"",""time""
""fullscreenenter"",""1"",""3756""
","
","
","""event"",""trial"",""time""
""fullscreenenter"",""1"",""3756""
","
","","[{""page_index"":0,""viewing_time"":3028.100000143051}]","3028.5","","","","","","","","","","","","","","","","","","","","","","","",""
"pit-comprehension","112","897072","0.0-2.0-23.0-0.0","battery-v0.2","","""event"",""trial"",""time""
""fullscreenenter"",""1"",""3756""
","
","
","""event"",""trial"",""time""
""fullscreenenter"",""1"",""3756""
","
","","","18388.699999809265","[""True""]","0","11","5218","2125","","","","","","","","","","","","","","","","","","",""
"pit-instructions","113","899479","0.0-2.0-23.0-1.0","battery-v0.2","","""event"",""trial"",""time""
""fullscreenenter"",""1"",""3756""
","
","
","""event"",""trial"",""time""
""fullscreenenter"",""1"",""3756""
","
","","[{""page_index"":0,""viewing_time"":2371.5999999046326}]","2372","","","","","","","","","","","","","","","","","","","","","","","",""
"pit-comprehension","114","907782","0.0-2.0-24.0-0.0","battery-v0.2","","""event"",""trial"",""time""
""fullscreenenter"",""1"",""3756""
","
","
","""event"",""trial"",""time""
""fullscreenenter"",""1"",""3756""
","
","","","8300.300000190735","[""True""]","0","11","5218","2125","","","","","","","","","","","","","","","","","","",""
"pit-instructions","115","912140","0.0-2.0-24.0-1.0","battery-v0.2","","""event"",""trial"",""time""
""fullscreenenter"",""1"",""3756""
","
","
","""event"",""trial"",""time""
""fullscreenenter"",""1"",""3756""
","
","","[{""page_index"":0,""viewing_time"":4301.5}]","4301.799999952316","","","","","","","","","","","","","","","","","","","","","","","",""
"pit-comprehension","116","920148","0.0-2.0-25.0-0.0","battery-v0.2","","""event"",""trial"",""time""
""fullscreenenter"",""1"",""3756""
","
","
","""event"",""trial"",""time""
""fullscreenenter"",""1"",""3756""
","
","","","8006.100000143051","[""True""]","0","11","5218","2125","","","","","","","","","","","","","","","","","","",""
"pit-instructions","117","921828","0.0-2.0-25.0-1.0","battery-v0.2","","""event"",""trial"",""time""
""fullscreenenter"",""1"",""3756""
","
","
","""event"",""trial"",""time""
""fullscreenenter"",""1"",""3756""
","
","","[{""page_index"":0,""viewing_time"":1637.7000000476837}]","1638.2000000476837","","","","","","","","","","","","","","","","","","","","","","","",""
"pit-comprehension","118","926640","0.0-2.0-26.0-0.0","battery-v0.2","","""event"",""trial"",""time""
""fullscreenenter"",""1"",""3756""
","
","
","""event"",""trial"",""time""
""fullscreenenter"",""1"",""3756""
","
","","","4808.799999952316","[""False""]","0","11","5218","2125","","","","","","","","","","","","","","","","","","",""
"pit-instructions","119","929559","0.0-2.0-26.0-1.0","battery-v0.2","","""event"",""trial"",""time""
""fullscreenenter"",""1"",""3756""
","
","
","""event"",""trial"",""time""
""fullscreenenter"",""1"",""3756""
","
","","[{""page_index"":0,""viewing_time"":2876.9000000953674}]","2877.2000000476837","","","","","","","","","","","","","","","","","","","","","","","",""
"pit-instructions","120","950473","0.0-3.0","battery-v0.2","","""event"",""trial"",""time""
""fullscreenenter"",""1"",""3756""
","
","
","""event"",""trial"",""time""
""fullscreenenter"",""1"",""3756""
","
","","[{""page_index"":0,""viewing_time"":5667.299999952316},{""page_index"":1,""viewing_time"":6119.5},{""page_index"":2,""viewing_time"":9124}]","20911.200000047684","","","","","","","","","","","","","","","","","","","","","","","",""
"pit-trial","121","954358","0.0-4.0","battery-v0.2","","""event"",""trial"",""time""
""fullscreenenter"",""1"",""3756""
","
","
","""event"",""trial"",""time""
""fullscreenenter"",""1"",""3756""
","
","","","1021.6999998092651","","","11","5218","2125","&#9728;","elianto","#f73b6a7A","-1"," ","0","-10","[1872.5]","1","1","","","5218","1","0","4","lose","no-go","0"
"pit-trial","122","958482","0.0-5.0","battery-v0.2","","""event"",""trial"",""time""
""fullscreenenter"",""1"",""3756""
","
","
","""event"",""trial"",""time""
""fullscreenenter"",""1"",""3756""
","
","","","1258.5","","","11","5218","2125","&#9752;","elianto","#f73b6a7A"," "," ","1","-10","[2109.7000000476837]","1","1","","","5218","2","3","3","lose","go","1"
"pit-trial","123","962232","0.0-6.0","battery-v0.2","","""event"",""trial"",""time""
""fullscreenenter"",""1"",""3756""
","
","
","""event"",""trial"",""time""
""fullscreenenter"",""1"",""3756""
","
","","","883.9000000953674","","","11","5218","2125","&#9733;","elianto","#3366ff99","-1"," ","0","0","[1737.5999999046326]","1","1","","","5218","3","2","2","win","no-go","0"
"pit-trial","124","965727","0.0-7.0","battery-v0.2","","""event"",""trial"",""time""
""fullscreenenter"",""1"",""3756""
","
","
","""event"",""trial"",""time""
""fullscreenenter"",""1"",""3756""
","
","","","615.8999998569489","","","11","5218","2125","&#9730;","elianto","#3366ff99"," "," ","1","0","[1472.9000000953674]","1","1","","","5218","4","1","1","win","go","1"
"pit-trial","125","970599","0.0-8.0","battery-v0.2","","""event"",""trial"",""time""
""fullscreenenter"",""1"",""3756""
","
","
","""event"",""trial"",""time""
""fullscreenenter"",""1"",""3756""
","
","","","-1","","","11","5218","2125","&#9752;","elianto","#f73b6a7A"," ","-1","0","-10","[]","0","1","","","5218","5","3","3","lose","go","0"
"pit-trial","126","974750","0.0-9.0","battery-v0.2","","""event"",""trial"",""time""
""fullscreenenter"",""1"",""3756""
","
","
","""event"",""trial"",""time""
""fullscreenenter"",""1"",""3756""
","
","","","1282.7000000476837","","","11","5218","2125","&#9728;","elianto","#f73b6a7A","-1"," ","0","-10","[2140]","1","1","","","5218","6","0","4","lose","no-go","0"
"pit-trial","127","978143","0.0-10.0","battery-v0.2","","""event"",""trial"",""time""
""fullscreenenter"",""1"",""3756""
","
","
","""event"",""trial"",""time""
""fullscreenenter"",""1"",""3756""
","
","","","519.7999999523163","","","11","5218","2125","&#9730;","elianto","#3366ff99"," "," ","1","+10","[1371]","1","1","","","5218","7","1","1","win","go","0"
"pit-trial","128","981714","0.0-11.0","battery-v0.2","","""event"",""trial"",""time""
""fullscreenenter"",""1"",""3756""
","
","
","""event"",""trial"",""time""
""fullscreenenter"",""1"",""3756""
","
","","","714","","","11","5218","2125","&#9733;","elianto","#3366ff99","-1"," ","0","+10","[1564.2999999523163]","1","1","","","5218","8","2","2","win","no-go","1"
"pit-trial","129","985379","0.0-12.0","battery-v0.2","","""event"",""trial"",""time""
""fullscreenenter"",""1"",""3756""
","
","
","""event"",""trial"",""time""
""fullscreenenter"",""1"",""3756""
","
","","","801.2999999523163","","","11","5218","2125","&#9730;","elianto","#3366ff99"," "," ","1","+10","[1654.7000000476837]","1","1","","","5218","9","1","1","win","go","0"
"pit-trial","130","990242","0.0-13.0","battery-v0.2","","""event"",""trial"",""time""
""fullscreenenter"",""1"",""3756""
","
","
","""event"",""trial"",""time""
""fullscreenenter"",""1"",""3756""
","
","","","-1","","","11","5218","2125","&#9728;","elianto","#f73b6a7A","-1","-1","1","0","[]","0","1","","","5218","10","0","4","lose","no-go","0"
"pit-trial","131","995107","0.0-14.0","battery-v0.2","","""event"",""trial"",""time""
""fullscreenenter"",""1"",""3756""
","
","
","""event"",""trial"",""time""
""fullscreenenter"",""1"",""3756""
","
","","","-1","","","11","5218","2125","&#9752;","elianto","#f73b6a7A"," ","-1","0","-10","[2980.4000000953674]","1","1","","","5218","11","3","3","lose","go","0"
"pit-trial","132","998588","0.0-15.0","battery-v0.2","","""event"",""trial"",""time""
""fullscreenenter"",""1"",""3756""
","
","
","""event"",""trial"",""time""
""fullscreenenter"",""1"",""3756""
","
","","","621.7000000476837","","","11","5218","2125","&#9733;","elianto","#3366ff99","-1"," ","0","0","[1472.8000001907349]","1","1","","","5218","12","2","2","win","no-go","0"
"pit-trial","133","1003451","0.0-16.0","battery-v0.2","","""event"",""trial"",""time""
""fullscreenenter"",""1"",""3756""
","
","
","""event"",""trial"",""time""
""fullscreenenter"",""1"",""3756""
","
","","","-1","","","11","5218","2125","&#9728;","elianto","#f73b6a7A","-1","-1","1","-10","[]","0","1","","","5218","13","0","4","lose","no-go","1"
"pit-trial","134","1007259","0.0-17.0","battery-v0.2","","""event"",""trial"",""time""
""fullscreenenter"",""1"",""3756""
","
","
","""event"",""trial"",""time""
""fullscreenenter"",""1"",""3756""
","
","","","949.2000000476837","","","11","5218","2125","&#9752;","elianto","#f73b6a7A"," "," ","1","0","[1802.7999999523163]","1","1","","","5218","14","3","3","lose","go","0"
"pit-trial","135","1010667","0.0-18.0","battery-v0.2","","""event"",""trial"",""time""
""fullscreenenter"",""1"",""3756""
","
","
","""event"",""trial"",""time""
""fullscreenenter"",""1"",""3756""
","
","","","547","","","11","5218","2125","&#9733;","elianto","#3366ff99","-1"," ","0","+10","[1400.2999999523163]","1","1","","","5218","15","2","2","win","no-go","1"
"pit-trial","136","1014427","0.0-19.0","battery-v0.2","","""event"",""trial"",""time""
""fullscreenenter"",""1"",""3756""
","
","
","""event"",""trial"",""time""
""fullscreenenter"",""1"",""3756""
","
","","","896.7999999523163","","","11","5218","2125","&#9730;","elianto","#3366ff99"," "," ","1","+10","[1750]","1","1","","","5218","16","1","1","win","go","0"
"pit-trial","137","1018186","0.0-20.0","battery-v0.2","","""event"",""trial"",""time""
""fullscreenenter"",""1"",""3756""
","
","
","""event"",""trial"",""time""
""fullscreenenter"",""1"",""3756""
","
","","","901.6000001430511","","","11","5218","2125","&#9733;","elianto","#3366ff99","-1"," ","0","0","[1755.2000000476837]","1","1","","","5218","17","2","2","win","no-go","0"
"pit-trial","138","1021923","0.0-21.0","battery-v0.2","","""event"",""trial"",""time""
""fullscreenenter"",""1"",""3756""
","
","
","""event"",""trial"",""time""
""fullscreenenter"",""1"",""3756""
","
","","","877.5","","","11","5218","2125","&#9730;","elianto","#3366ff99"," "," ","1","+10","[1729.8999998569489]","1","1","","","5218","18","1","1","win","go","0"
"pit-trial","139","1026787","0.0-22.0","battery-v0.2","","""event"",""trial"",""time""
""fullscreenenter"",""1"",""3756""
","
","
","""event"",""trial"",""time""
""fullscreenenter"",""1"",""3756""
","
","","","-1","","","11","5218","2125","&#9728;","elianto","#f73b6a7A","-1","-1","1","0","[]","0","1","","","5218","19","0","4","lose","no-go","0"
"pit-trial","140","1030203","0.0-23.0","battery-v0.2","","""event"",""trial"",""time""
""fullscreenenter"",""1"",""3756""
","
","
","""event"",""trial"",""time""
""fullscreenenter"",""1"",""3756""
","
","","","556.8999998569489","","","11","5218","2125","&#9752;","elianto","#f73b6a7A"," "," ","1","0","[1409.2000000476837]","1","1","","","5218","20","3","3","lose","go","0"
"pit-instructions","141","1043078","0.0-24.0","battery-v0.2","","""event"",""trial"",""time""
""fullscreenenter"",""1"",""3756""
","
","
","""event"",""trial"",""time""
""fullscreenenter"",""1"",""3756""
","
","","[{""page_index"":0,""viewing_time"":6258.099999904633},{""page_index"":1,""viewing_time"":6615.5}]","12873.799999952316","","","","","","","","","","","","","","","","","","","","","","","",""
"pit-trial","142","1046594","0.0-25.0","battery-v0.2","","""event"",""trial"",""time""
""fullscreenenter"",""1"",""3756""
","
","
","""event"",""trial"",""time""
""fullscreenenter"",""1"",""3756""
","
","","","638.7000000476837","","","11","5218","2125","e","elianto","#f73b6a7A","-1"," ","0","-10","[1496.6000001430511]","1","2","","","5218","21","2","4","lose","no-go","0"
"pit-trial","143","1050008","0.0-26.0","battery-v0.2","","""event"",""trial"",""time""
""fullscreenenter"",""1"",""3756""
","
","
","""event"",""trial"",""time""
""fullscreenenter"",""1"",""3756""
","
","","","542.2999999523163","","","11","5218","2125","d","elianto","#3366ff99"," "," ","1","+10","[1397.2000000476837]","1","2","","","5218","22","1","1","win","go","0"
"pit-trial","144","1053837","0.0-27.0","battery-v0.2","","""event"",""trial"",""time""
""fullscreenenter"",""1"",""3756""
","
","
","""event"",""trial"",""time""
""fullscreenenter"",""1"",""3756""
","
","","","953.8000001907349","","","11","5218","2125","w","elianto","#f73b6a7A"," "," ","1","0","[1810.3000001907349]","1","2","","","5218","23","3","3","lose","go","0"
"pit-trial","145","1057909","0.0-28.0","battery-v0.2","","""event"",""trial"",""time""
""fullscreenenter"",""1"",""3756""
","
","
","""event"",""trial"",""time""
""fullscreenenter"",""1"",""3756""
","
","","","1206.8999998569489","","","11","5218","2125","j","elianto","#f73b6a7A","-1"," ","0","0","[2057.5]","1","2","","","5218","24","0","4","lose","no-go","1"
"pit-trial","146","1062780","0.0-29.0","battery-v0.2","","""event"",""trial"",""time""
""fullscreenenter"",""1"",""3756""
","
","
","""event"",""trial"",""time""
""fullscreenenter"",""1"",""3756""
","
","","","-1","","","11","5218","2125","e","elianto","#f73b6a7A","-1","-1","1","0","[]","0","2","","","5218","25","2","4","lose","no-go","0"
"pit-trial","147","1066838","0.0-30.0","battery-v0.2","","""event"",""trial"",""time""
""fullscreenenter"",""1"",""3756""
","
","
","""event"",""trial"",""time""
""fullscreenenter"",""1"",""3756""
","
","","","1194.5","","","11","5218","2125","j","elianto","#f73b6a7A","-1"," ","0","-10","[2046.6000001430511]","1","2","","","5218","26","0","4","lose","no-go","0"
"pit-trial","148","1070354","0.0-31.0","battery-v0.2","","""event"",""trial"",""time""
""fullscreenenter"",""1"",""3756""
","
","
","""event"",""trial"",""time""
""fullscreenenter"",""1"",""3756""
","
","","","651.7000000476837","","","11","5218","2125","d","elianto","#3366ff99"," "," ","1","0","[1503.5999999046326]","1","2","","","5218","27","1","1","win","go","1"
"pit-trial","149","1074836","0.0-32.0","battery-v0.2","","""event"",""trial"",""time""
""fullscreenenter"",""1"",""3756""
","
","
","""event"",""trial"",""time""
""fullscreenenter"",""1"",""3756""
","
","","","1619.1999998092651","","","11","5218","2125","w","elianto","#f73b6a7A"," "," ","1","0","[2471]","1","2","","","5218","28","3","3","lose","go","0"
"pit-trial","150","1079332","0.0-33.0","battery-v0.2","","""event"",""trial"",""time""
""fullscreenenter"",""1"",""3756""
","
","
","""event"",""trial"",""time""
""fullscreenenter"",""1"",""3756""
","
","","","1635","","","11","5218","2125","w","elianto","#f73b6a7A"," "," ","1","0","[2486.100000143051]","1","2","","","5218","29","3","3","lose","go","0"
"pit-trial","151","1084195","0.0-34.0","battery-v0.2","","""event"",""trial"",""time""
""fullscreenenter"",""1"",""3756""
","
","
","""event"",""trial"",""time""
""fullscreenenter"",""1"",""3756""
","
","","","-1","","","11","5218","2125","j","elianto","#f73b6a7A","-1","-1","1","0","[]","0","2","","","5218","30","0","4","lose","no-go","0"
"pit-trial","152","1087651","0.0-35.0","battery-v0.2","","""event"",""trial"",""time""
""fullscreenenter"",""1"",""3756""
","
","
","""event"",""trial"",""time""
""fullscreenenter"",""1"",""3756""
","
","","","592.7000000476837","","","11","5218","2125","d","elianto","#3366ff99"," "," ","1","+10","[1446.7999999523163]","1","2","","","5218","31","1","1","win","go","0"
"pit-trial","153","1092515","0.0-36.0","battery-v0.2","","""event"",""trial"",""time""
""fullscreenenter"",""1"",""3756""
","
","
","""event"",""trial"",""time""
""fullscreenenter"",""1"",""3756""
","
","","","-1","","","11","5218","2125","e","elianto","#f73b6a7A","-1","-1","1","-10","[]","0","2","","","5218","32","2","4","lose","no-go","1"
"pit-trial","154","1097378","0.0-37.0","battery-v0.2","","""event"",""trial"",""time""
""fullscreenenter"",""1"",""3756""
","
","
","""event"",""trial"",""time""
""fullscreenenter"",""1"",""3756""
","
","","","-1","","","11","5218","2125","j","elianto","#f73b6a7A","-1","-1","1","0","[]","0","2","","","5218","33","0","4","lose","no-go","0"
"pit-trial","155","1101499","0.0-38.0","battery-v0.2","","""event"",""trial"",""time""
""fullscreenenter"",""1"",""3756""
","
","
","""event"",""trial"",""time""
""fullscreenenter"",""1"",""3756""
","
","","","1262.2999999523163","","","11","5218","2125","e","elianto","#f73b6a7A","-1"," ","0","0","[2117.199999809265]","1","2","","","5218","34","2","4","lose","no-go","1"
"pit-trial","156","1105035","0.0-39.0","battery-v0.2","","""event"",""trial"",""time""
""fullscreenenter"",""1"",""3756""
","
","
","""event"",""trial"",""time""
""fullscreenenter"",""1"",""3756""
","
","","","673.1000001430511","","","11","5218","2125","d","elianto","#3366ff99"," "," ","1","+10","[1527.4000000953674]","1","2","","","5218","35","1","1","win","go","0"
"pit-trial","157","1109188","0.0-40.0","battery-v0.2","","""event"",""trial"",""time""
""fullscreenenter"",""1"",""3756""
","
","
","""event"",""trial"",""time""
""fullscreenenter"",""1"",""3756""
","
","","","1291.4000000953674","","","11","5218","2125","w","elianto","#f73b6a7A"," "," ","1","0","[2142.300000190735]","1","2","","","5218","36","3","3","lose","go","0"
"pit-trial","158","1114051","0.0-41.0","battery-v0.2","","""event"",""trial"",""time""
""fullscreenenter"",""1"",""3756""
","
","
","""event"",""trial"",""time""
""fullscreenenter"",""1"",""3756""
","
","","","-1","","","11","5218","2125","j","elianto","#f73b6a7A","-1","-1","1","0","[]","0","2","","","5218","37","0","4","lose","no-go","0"
"pit-trial","159","1117539","0.0-42.0","battery-v0.2","","""event"",""trial"",""time""
""fullscreenenter"",""1"",""3756""
","
","
","""event"",""trial"",""time""
""fullscreenenter"",""1"",""3756""
","
","","","630.3000001907349","","","11","5218","2125","d","elianto","#3366ff99"," "," ","1","+10","[1480.9000000953674]","1","2","","","5218","38","1","1","win","go","0"
"pit-trial","160","1121956","0.0-43.0","battery-v0.2","","""event"",""trial"",""time""
""fullscreenenter"",""1"",""3756""
","
","
","""event"",""trial"",""time""
""fullscreenenter"",""1"",""3756""
","
","","","1557.7000000476837","","","11","5218","2125","e","elianto","#f73b6a7A","-1"," ","0","-10","[2410.600000143051]","1","2","","","5218","39","2","4","lose","no-go","0"
"pit-trial","161","1126491","0.0-44.0","battery-v0.2","","""event"",""trial"",""time""
""fullscreenenter"",""1"",""3756""
","
","
","""event"",""trial"",""time""
""fullscreenenter"",""1"",""3756""
","
","","","1675.2000000476837","","","11","5218","2125","w","elianto","#f73b6a7A"," "," ","1","0","[2528.4000000953674]","1","2","","","5218","40","3","3","lose","go","0"
"pit-trial","162","1130427","0.0-45.0","battery-v0.2","","""event"",""trial"",""time""
""fullscreenenter"",""1"",""3756""
","
","
","""event"",""trial"",""time""
""fullscreenenter"",""1"",""3756""
","
","","","1077.0999999046326","","","11","5218","2125","w","elianto","#f73b6a7A"," "," ","1","0","[1932]","1","2","","","5218","41","3","3","lose","go","0"
"pit-trial","163","1133803","0.0-46.0","battery-v0.2","","""event"",""trial"",""time""
""fullscreenenter"",""1"",""3756""
","
","
","""event"",""trial"",""time""
""fullscreenenter"",""1"",""3756""
","
","","","518.2999999523163","","","11","5218","2125","d","elianto","#3366ff99"," "," ","1","+10","[1371.5]","1","2","","","5218","42","1","1","win","go","0"
"pit-trial","164","1138667","0.0-47.0","battery-v0.2","","""event"",""trial"",""time""
""fullscreenenter"",""1"",""3756""
","
","
","""event"",""trial"",""time""
""fullscreenenter"",""1"",""3756""
","
","","","-1","","","11","5218","2125","j","elianto","#f73b6a7A","-1","-1","1","0","[]","0","2","","","5218","43","0","4","lose","no-go","0"
"pit-trial","165","1142387","0.0-48.0","battery-v0.2","","""event"",""trial"",""time""
""fullscreenenter"",""1"",""3756""
","
","
","""event"",""trial"",""time""
""fullscreenenter"",""1"",""3756""
","
","","","858.5999999046326","","","11","5218","2125","e","elianto","#f73b6a7A","-1"," ","0","-10","[1709.6000001430511]","1","2","","","5218","44","2","4","lose","no-go","0"
"pit-trial","166","1146220","0.0-49.0","battery-v0.2","","""event"",""trial"",""time""
""fullscreenenter"",""1"",""3756""
","
","
","""event"",""trial"",""time""
""fullscreenenter"",""1"",""3756""
","
","","","968.4000000953674","","","11","5218","2125","w","elianto","#f73b6a7A"," "," ","1","0","[1821.7999999523163]","1","2","","","5218","45","3","3","lose","go","0"
"pit-trial","167","1151083","0.0-50.0","battery-v0.2","","""event"",""trial"",""time""
""fullscreenenter"",""1"",""3756""
","
","
","""event"",""trial"",""time""
""fullscreenenter"",""1"",""3756""
","
","","","-1","","","11","5218","2125","j","elianto","#f73b6a7A","-1","-1","1","-10","[]","0","2","","","5218","46","0","4","lose","no-go","1"
"pit-trial","168","1155450","0.0-51.0","battery-v0.2","","""event"",""trial"",""time""
""fullscreenenter"",""1"",""3756""
","
","
","""event"",""trial"",""time""
""fullscreenenter"",""1"",""3756""
","
","","","1509.3000001907349","","","11","5218","2125","e","elianto","#f73b6a7A","-1"," ","0","0","[2359.9000000953674]","1","2","","","5218","47","2","4","lose","no-go","1"
"pit-trial","169","1159034","0.0-52.0","battery-v0.2","","""event"",""trial"",""time""
""fullscreenenter"",""1"",""3756""
","
","
","""event"",""trial"",""time""
""fullscreenenter"",""1"",""3756""
","
","","","730.2000000476837","","","11","5218","2125","s","elianto","#3366ff99","-1"," ","0","0","[1581.5]","1","2","","","5218","48","4","2","win","no-go","0"
"pit-trial","170","1162611","0.0-53.0","battery-v0.2","","""event"",""trial"",""time""
""fullscreenenter"",""1"",""3756""
","
","
","""event"",""trial"",""time""
""fullscreenenter"",""1"",""3756""
","
","","","714.5","","","11","5218","2125","d","elianto","#3366ff99"," "," ","1","+10","[1565.2999999523163]","1","2","","","5218","49","1","1","win","go","0"
"pit-trial","171","1167360","0.0-54.0","battery-v0.2","","""event"",""trial"",""time""
""fullscreenenter"",""1"",""3756""
","
","
","""event"",""trial"",""time""
""fullscreenenter"",""1"",""3756""
","
","","","1876.5999999046326","","","11","5218","2125","w","elianto","#f73b6a7A"," "," ","1","0","[2731.2000000476837]","1","2","","","5218","50","3","3","lose","go","0"
"pit-trial","172","1172228","0.0-55.0","battery-v0.2","","""event"",""trial"",""time""
""fullscreenenter"",""1"",""3756""
","
","
","""event"",""trial"",""time""
""fullscreenenter"",""1"",""3756""
","
","","","-1","","","11","5218","2125","s","elianto","#3366ff99","-1","-1","1","+10","[]","0","2","","","5218","51","4","2","win","no-go","0"
"pit-trial","173","1177092","0.0-56.0","battery-v0.2","","""event"",""trial"",""time""
""fullscreenenter"",""1"",""3756""
","
","
","""event"",""trial"",""time""
""fullscreenenter"",""1"",""3756""
","
","","","-1","","","11","5218","2125","j","elianto","#f73b6a7A","-1","-1","1","0","[]","0","2","","","5218","52","0","4","lose","no-go","0"
"pit-trial","174","1181547","0.0-57.0","battery-v0.2","","""event"",""trial"",""time""
""fullscreenenter"",""1"",""3756""
","
","
","""event"",""trial"",""time""
""fullscreenenter"",""1"",""3756""
","
","","","1598.2999999523163","","","11","5218","2125","e","elianto","#f73b6a7A","-1"," ","0","-10","[2451.2999999523163]","1","2","","","5218","53","2","4","lose","no-go","0"
"pit-trial","175","1186411","0.0-58.0","battery-v0.2","","""event"",""trial"",""time""
""fullscreenenter"",""1"",""3756""
","
","
","""event"",""trial"",""time""
""fullscreenenter"",""1"",""3756""
","
","","","-1","","","11","5218","2125","j","elianto","#f73b6a7A","-1","-1","1","0","[]","0","2","","","5218","54","0","4","lose","no-go","0"
"pit-trial","176","1190059","0.0-59.0","battery-v0.2","","""event"",""trial"",""time""
""fullscreenenter"",""1"",""3756""
","
","
","""event"",""trial"",""time""
""fullscreenenter"",""1"",""3756""
","
","","","787.5999999046326","","","11","5218","2125","d","elianto","#3366ff99"," "," ","1","+10","[1640.6000001430511]","1","2","","","5218","55","1","1","win","go","0"
"pit-trial","177","1193507","0.0-60.0","battery-v0.2","","""event"",""trial"",""time""
""fullscreenenter"",""1"",""3756""
","
","
","""event"",""trial"",""time""
""fullscreenenter"",""1"",""3756""
","
","","","587.7000000476837","","","11","5218","2125","s","elianto","#3366ff99","-1"," ","0","0","[1443.2000000476837]","1","2","","","5218","56","4","2","win","no-go","0"
"pit-trial","178","1197172","0.0-61.0","battery-v0.2","","""event"",""trial"",""time""
""fullscreenenter"",""1"",""3756""
","
","
","""event"",""trial"",""time""
""fullscreenenter"",""1"",""3756""
","
","","","804.3999998569489","","","11","5218","2125","d","elianto","#3366ff99"," "," ","1","+10","[1658.5]","1","2","","","5218","57","1","1","win","go","0"
"pit-trial","179","1202035","0.0-62.0","battery-v0.2","","""event"",""trial"",""time""
""fullscreenenter"",""1"",""3756""
","
","
","""event"",""trial"",""time""
""fullscreenenter"",""1"",""3756""
","
","","","-1","","","11","5218","2125","j","elianto","#f73b6a7A","-1","-1","1","0","[]","0","2","","","5218","58","0","4","lose","no-go","0"
"pit-trial","180","1205724","0.0-63.0","battery-v0.2","","""event"",""trial"",""time""
""fullscreenenter"",""1"",""3756""
","
","
","""event"",""trial"",""time""
""fullscreenenter"",""1"",""3756""
","
","","","830.9000000953674","","","11","5218","2125","w","elianto","#f73b6a7A"," "," ","1","0","[1684]","1","2","","","5218","59","3","3","lose","go","0"
"pit-trial","181","1210587","0.0-64.0","battery-v0.2","","""event"",""trial"",""time""
""fullscreenenter"",""1"",""3756""
","
","
","""event"",""trial"",""time""
""fullscreenenter"",""1"",""3756""
","
","","","-1","","","11","5218","2125","s","elianto","#3366ff99","-1","-1","1","+10","[]","0","2","","","5218","60","4","2","win","no-go","0"
"pit-trial","182","1215451","0.0-65.0","battery-v0.2","","""event"",""trial"",""time""
""fullscreenenter"",""1"",""3756""
","
","
","""event"",""trial"",""time""
""fullscreenenter"",""1"",""3756""
","
","","","-1","","","11","5218","2125","s","elianto","#3366ff99","-1","-1","1","+10","[]","0","2","","","5218","61","4","2","win","no-go","0"
"pit-trial","183","1219876","0.0-66.0","battery-v0.2","","""event"",""trial"",""time""
""fullscreenenter"",""1"",""3756""
","
","
","""event"",""trial"",""time""
""fullscreenenter"",""1"",""3756""
","
","","","1563.1999998092651","","","11","5218","2125","w","elianto","#f73b6a7A"," "," ","1","0","[2416.0999999046326]","1","2","","","5218","62","3","3","lose","go","0"
"pit-trial","184","1224739","0.0-67.0","battery-v0.2","","""event"",""trial"",""time""
""fullscreenenter"",""1"",""3756""
","
","
","""event"",""trial"",""time""
""fullscreenenter"",""1"",""3756""
","
","","","-1","","","11","5218","2125","e","elianto","#f73b6a7A","-1","-1","1","0","[2875.5]","1","2","","","5218","63","2","4","lose","no-go","0"
"pit-trial","185","1228492","0.0-68.0","battery-v0.2","","""event"",""trial"",""time""
""fullscreenenter"",""1"",""3756""
","
","
","""event"",""trial"",""time""
""fullscreenenter"",""1"",""3756""
","
","","","888.2000000476837","","","11","5218","2125","d","elianto","#3366ff99"," "," ","1","+10","[1742]","1","2","","","5218","64","1","1","win","go","0"
"pit-trial","186","1233284","0.0-69.0","battery-v0.2","","""event"",""trial"",""time""
""fullscreenenter"",""1"",""3756""
","
","
","""event"",""trial"",""time""
""fullscreenenter"",""1"",""3756""
","
","","","1933.2000000476837","","","11","5218","2125","e","elianto","#f73b6a7A","-1"," ","0","-10","[2786.2999999523163]","1","2","","","5218","65","2","4","lose","no-go","0"
"pit-trial","187","1237636","0.0-70.0","battery-v0.2","","""event"",""trial"",""time""
""fullscreenenter"",""1"",""3756""
","
","
","""event"",""trial"",""time""
""fullscreenenter"",""1"",""3756""
","
","","","1496.8000001907349","","","11","5218","2125","w","elianto","#f73b6a7A"," "," ","1","0","[2347.100000143051]","1","2","","","5218","66","3","3","lose","go","0"
"pit-trial","188","1241291","0.0-71.0","battery-v0.2","","""event"",""trial"",""time""
""fullscreenenter"",""1"",""3756""
","
","
","""event"",""trial"",""time""
""fullscreenenter"",""1"",""3756""
","
","","","792.5999999046326","","","11","5218","2125","d","elianto","#3366ff99"," "," ","1","0","[1645.5]","1","2","","","5218","67","1","1","win","go","1"
"pit-trial","189","1246156","0.0-72.0","battery-v0.2","","""event"",""trial"",""time""
""fullscreenenter"",""1"",""3756""
","
","
","""event"",""trial"",""time""
""fullscreenenter"",""1"",""3756""
","
","","","-1","","","11","5218","2125","s","elianto","#3366ff99","-1","-1","1","0","[]","0","2","","","5218","68","4","2","win","no-go","1"
"pit-trial","190","1250308","0.0-73.0","battery-v0.2","","""event"",""trial"",""time""
""fullscreenenter"",""1"",""3756""
","
","
","""event"",""trial"",""time""
""fullscreenenter"",""1"",""3756""
","
","","","1294.0999999046326","","","11","5218","2125","p","elianto","#3366ff99"," "," ","1","0","[2147.5999999046326]","1","2","","","5218","69","5","1","win","go","1"
"pit-trial","191","1254339","0.0-74.0","battery-v0.2","","""event"",""trial"",""time""
""fullscreenenter"",""1"",""3756""
","
","
","""event"",""trial"",""time""
""fullscreenenter"",""1"",""3756""
","
","","","1173.4000000953674","","","11","5218","2125","w","elianto","#f73b6a7A"," "," ","1","0","[2027.2000000476837]","1","2","","","5218","70","3","3","lose","go","0"
"pit-trial","192","1259204","0.0-75.0","battery-v0.2","","""event"",""trial"",""time""
""fullscreenenter"",""1"",""3756""
","
","
","""event"",""trial"",""time""
""fullscreenenter"",""1"",""3756""
","
","","","-1","","","11","5218","2125","s","elianto","#3366ff99","-1","-1","1","+10","[]","0","2","","","5218","71","4","2","win","no-go","0"
"pit-trial","193","1263387","0.0-76.0","battery-v0.2","","""event"",""trial"",""time""
""fullscreenenter"",""1"",""3756""
","
","
","""event"",""trial"",""time""
""fullscreenenter"",""1"",""3756""
","
","","","1319.0999999046326","","","11","5218","2125","d","elianto","#3366ff99"," "," ","1","+10","[2171.9000000953674]","1","2","","","5218","72","1","1","win","go","0"
"pit-trial","194","1267427","0.0-77.0","battery-v0.2","","""event"",""trial"",""time""
""fullscreenenter"",""1"",""3756""
","
","
","""event"",""trial"",""time""
""fullscreenenter"",""1"",""3756""
","
","","","1175","","","11","5218","2125","d","elianto","#3366ff99"," "," ","1","0","[2029.5]","1","2","","","5218","73","1","1","win","go","1"
"pit-trial","195","1271490","0.0-78.0","battery-v0.2","","""event"",""trial"",""time""
""fullscreenenter"",""1"",""3756""
","
","
","""event"",""trial"",""time""
""fullscreenenter"",""1"",""3756""
","
","","","1207.5","","","11","5218","2125","w","elianto","#f73b6a7A"," "," ","1","-10","[2059.4000000953674]","1","2","","","5218","74","3","3","lose","go","1"
"pit-trial","196","1276356","0.0-79.0","battery-v0.2","","""event"",""trial"",""time""
""fullscreenenter"",""1"",""3756""
","
","
","""event"",""trial"",""time""
""fullscreenenter"",""1"",""3756""
","
","","","-1","","","11","5218","2125","s","elianto","#3366ff99","-1","-1","1","+10","[]","0","2","","","5218","75","4","2","win","no-go","0"
"pit-trial","197","1281220","0.0-80.0","battery-v0.2","","""event"",""trial"",""time""
""fullscreenenter"",""1"",""3756""
","
","
","""event"",""trial"",""time""
""fullscreenenter"",""1"",""3756""
","
","","","-1","","","11","5218","2125","p","elianto","#3366ff99"," ","-1","0","0","[]","0","2","","","5218","76","5","1","win","go","0"
"pit-trial","198","1286083","0.0-81.0","battery-v0.2","","""event"",""trial"",""time""
""fullscreenenter"",""1"",""3756""
","
","
","""event"",""trial"",""time""
""fullscreenenter"",""1"",""3756""
","
","","","-1","","","11","5218","2125","p","elianto","#3366ff99"," ","-1","0","0","[]","0","2","","","5218","77","5","1","win","go","0"
"pit-trial","199","1289995","0.0-82.0","battery-v0.2","","""event"",""trial"",""time""
""fullscreenenter"",""1"",""3756""
","
","
","""event"",""trial"",""time""
""fullscreenenter"",""1"",""3756""
","
","","","1046.7000000476837","","","11","5218","2125","w","elianto","#f73b6a7A"," "," ","1","0","[1901]","1","2","","","5218","78","3","3","lose","go","0"
"pit-trial","200","1294683","0.0-83.0","battery-v0.2","","""event"",""trial"",""time""
""fullscreenenter"",""1"",""3756""
","
","
","""event"",""trial"",""time""
""fullscreenenter"",""1"",""3756""
","
","","","1827","","","11","5218","2125","g","elianto","#f73b6a7A","-1"," ","0","-10","[2677.4000000953674]","1","2","","","5218","79","6","4","lose","no-go","0"
"pit-trial","201","1299548","0.0-84.0","battery-v0.2","","""event"",""trial"",""time""
""fullscreenenter"",""1"",""3756""
","
","
","""event"",""trial"",""time""
""fullscreenenter"",""1"",""3756""
","
","","","-1","","","11","5218","2125","s","elianto","#3366ff99","-1","-1","1","+10","[]","0","2","","","5218","80","4","2","win","no-go","0"
"pit-trial","202","1304411","0.0-85.0","battery-v0.2","","""event"",""trial"",""time""
""fullscreenenter"",""1"",""3756""
","
","
","""event"",""trial"",""time""
""fullscreenenter"",""1"",""3756""
","
","","","-1","","","11","5218","2125","a","elianto","#f73b6a7A"," ","-1","0","0","[]","0","2","","","5218","81","7","3","lose","go","1"
"pit-trial","203","1309275","0.0-86.0","battery-v0.2","","""event"",""trial"",""time""
""fullscreenenter"",""1"",""3756""
","
","
","""event"",""trial"",""time""
""fullscreenenter"",""1"",""3756""
","
","","","-1","","","11","5218","2125","g","elianto","#f73b6a7A","-1","-1","1","0","[]","0","2","","","5218","82","6","4","lose","no-go","0"
"pit-trial","204","1314148","0.0-87.0","battery-v0.2","","""event"",""trial"",""time""
""fullscreenenter"",""1"",""3756""
","
","
","""event"",""trial"",""time""
""fullscreenenter"",""1"",""3756""
","
","","","-1","","","11","5218","2125","s","elianto","#3366ff99","-1","-1","1","+10","[]","0","2","","","5218","83","4","2","win","no-go","0"
"pit-trial","205","1318635","0.0-88.0","battery-v0.2","","""event"",""trial"",""time""
""fullscreenenter"",""1"",""3756""
","
","
","""event"",""trial"",""time""
""fullscreenenter"",""1"",""3756""
","
","","","1628.0999999046326","","","11","5218","2125","p","elianto","#3366ff99"," "," ","1","+10","[2481.399999856949]","1","2","","","5218","84","5","1","win","go","0"
"pit-trial","206","1323499","0.0-89.0","battery-v0.2","","""event"",""trial"",""time""
""fullscreenenter"",""1"",""3756""
","
","
","""event"",""trial"",""time""
""fullscreenenter"",""1"",""3756""
","
","","","-1","","","11","5218","2125","a","elianto","#f73b6a7A"," ","-1","0","0","[]","0","2","","","5218","85","7","3","lose","go","1"
"pit-trial","207","1327549","0.0-90.0","battery-v0.2","","""event"",""trial"",""time""
""fullscreenenter"",""1"",""3756""
","
","
","""event"",""trial"",""time""
""fullscreenenter"",""1"",""3756""
","
","","","1187.7000000476837","","","11","5218","2125","p","elianto","#3366ff99"," "," ","1","+10","[2042.2999999523163]","1","2","","","5218","86","5","1","win","go","0"
"pit-trial","208","1332411","0.0-91.0","battery-v0.2","","""event"",""trial"",""time""
""fullscreenenter"",""1"",""3756""
","
","
","""event"",""trial"",""time""
""fullscreenenter"",""1"",""3756""
","
","","","-1","","","11","5218","2125","g","elianto","#f73b6a7A","-1","-1","1","0","[]","0","2","","","5218","87","6","4","lose","no-go","0"
"pit-trial","209","1337275","0.0-92.0","battery-v0.2","","""event"",""trial"",""time""
""fullscreenenter"",""1"",""3756""
","
","
","""event"",""trial"",""time""
""fullscreenenter"",""1"",""3756""
","
","","","-1","","","11","5218","2125","s","elianto","#3366ff99","-1","-1","1","0","[]","0","2","","","5218","88","4","2","win","no-go","1"
"pit-trial","210","1342139","0.0-93.0","battery-v0.2","","""event"",""trial"",""time""
""fullscreenenter"",""1"",""3756""
","
","
","""event"",""trial"",""time""
""fullscreenenter"",""1"",""3756""
","
","","","-1","","","11","5218","2125","s","elianto","#3366ff99","-1","-1","1","+10","[]","0","2","","","5218","89","4","2","win","no-go","0"
"pit-trial","211","1347020","0.0-94.0","battery-v0.2","","""event"",""trial"",""time""
""fullscreenenter"",""1"",""3756""
","
","
","""event"",""trial"",""time""
""fullscreenenter"",""1"",""3756""
","
","","","-1","","","11","5218","2125","g","elianto","#f73b6a7A","-1","-1","1","0","[]","0","2","","","5218","90","6","4","lose","no-go","0"
"pit-trial","212","1351724","0.0-95.0","battery-v0.2","","""event"",""trial"",""time""
""fullscreenenter"",""1"",""3756""
","
","
","""event"",""trial"",""time""
""fullscreenenter"",""1"",""3756""
","
","","","1844.6999998092651","","","11","5218","2125","p","elianto","#3366ff99"," "," ","1","+10","[2696.5]","1","2","","","5218","91","5","1","win","go","0"
"pit-trial","213","1356587","0.0-96.0","battery-v0.2","","""event"",""trial"",""time""
""fullscreenenter"",""1"",""3756""
","
","
","""event"",""trial"",""time""
""fullscreenenter"",""1"",""3756""
","
","","","-1","","","11","5218","2125","a","elianto","#f73b6a7A"," ","-1","0","-10","[]","0","2","","","5218","92","7","3","lose","go","0"
"pit-trial","214","1361452","0.0-97.0","battery-v0.2","","""event"",""trial"",""time""
""fullscreenenter"",""1"",""3756""
","
","
","""event"",""trial"",""time""
""fullscreenenter"",""1"",""3756""
","
","","","-1","","","11","5218","2125","g","elianto","#f73b6a7A","-1","-1","1","0","[]","0","2","","","5218","93","6","4","lose","no-go","0"
"pit-trial","215","1366316","0.0-98.0","battery-v0.2","","""event"",""trial"",""time""
""fullscreenenter"",""1"",""3756""
","
","
","""event"",""trial"",""time""
""fullscreenenter"",""1"",""3756""
","
","","","-1","","","11","5218","2125","a","elianto","#f73b6a7A"," ","-1","0","0","[]","0","2","","","5218","94","7","3","lose","go","1"
"pit-trial","216","1371180","0.0-99.0","battery-v0.2","","""event"",""trial"",""time""
""fullscreenenter"",""1"",""3756""
","
","
","""event"",""trial"",""time""
""fullscreenenter"",""1"",""3756""
","
","","","-1","","","11","5218","2125","l","elianto","#3366ff99","-1","-1","1","+10","[]","0","2","","","5218","95","8","2","win","no-go","0"
"pit-trial","217","1375067","0.0-100.0","battery-v0.2","","""event"",""trial"",""time""
""fullscreenenter"",""1"",""3756""
","
","
","""event"",""trial"",""time""
""fullscreenenter"",""1"",""3756""
","
","","","1027.7000000476837","","","11","5218","2125","p","elianto","#3366ff99"," "," ","1","+10","[1879.9000000953674]","1","2","","","5218","96","5","1","win","go","0"
"pit-trial","218","1378922","0.0-101.0","battery-v0.2","","""event"",""trial"",""time""
""fullscreenenter"",""1"",""3756""
","
","
","""event"",""trial"",""time""
""fullscreenenter"",""1"",""3756""
","
","","","996.2000000476837","","","11","5218","2125","p","elianto","#3366ff99"," "," ","1","0","[1849.7999999523163]","1","2","","","5218","97","5","1","win","go","1"
"pit-trial","219","1383788","0.0-102.0","battery-v0.2","","""event"",""trial"",""time""
""fullscreenenter"",""1"",""3756""
","
","
","""event"",""trial"",""time""
""fullscreenenter"",""1"",""3756""
","
","","","-1","","","11","5218","2125","a","elianto","#f73b6a7A"," ","-1","0","-10","[]","0","2","","","5218","98","7","3","lose","go","0"
"pit-trial","220","1387811","0.0-103.0","battery-v0.2","","""event"",""trial"",""time""
""fullscreenenter"",""1"",""3756""
","
","
","""event"",""trial"",""time""
""fullscreenenter"",""1"",""3756""
","
","","","1160.7000000476837","","","11","5218","2125","l","elianto","#3366ff99","-1"," ","0","0","[2013]","1","2","","","5218","99","8","2","win","no-go","0"
"pit-trial","221","1392676","0.0-104.0","battery-v0.2","","""event"",""trial"",""time""
""fullscreenenter"",""1"",""3756""
","
","
","""event"",""trial"",""time""
""fullscreenenter"",""1"",""3756""
","
","","","-1","","","11","5218","2125","g","elianto","#f73b6a7A","-1","-1","1","0","[]","0","2","","","5218","100","6","4","lose","no-go","0"
"pit-trial","222","1397523","0.0-105.0","battery-v0.2","","""event"",""trial"",""time""
""fullscreenenter"",""1"",""3756""
","
","
","""event"",""trial"",""time""
""fullscreenenter"",""1"",""3756""
","
","","","1992.2000000476837","","","11","5218","2125","u","elianto","#3366ff99","-1"," ","0","0","[2842.5]","1","2","","","5218","101","9","2","win","no-go","0"
"pit-trial","223","1401547","0.0-106.0","battery-v0.2","","""event"",""trial"",""time""
""fullscreenenter"",""1"",""3756""
","
","
","""event"",""trial"",""time""
""fullscreenenter"",""1"",""3756""
","
","","","1167","","","11","5218","2125","p","elianto","#3366ff99"," "," ","1","+10","[2018]","1","2","","","5218","102","5","1","win","go","0"
"pit-trial","224","1406411","0.0-107.0","battery-v0.2","","""event"",""trial"",""time""
""fullscreenenter"",""1"",""3756""
","
","
","""event"",""trial"",""time""
""fullscreenenter"",""1"",""3756""
","
","","","-1","","","11","5218","2125","l","elianto","#3366ff99","-1","-1","1","+10","[]","0","2","","","5218","103","8","2","win","no-go","0"
"pit-trial","225","1411275","0.0-108.0","battery-v0.2","","""event"",""trial"",""time""
""fullscreenenter"",""1"",""3756""
","
","
","""event"",""trial"",""time""
""fullscreenenter"",""1"",""3756""
","
","","","-1","","","11","5218","2125","g","elianto","#f73b6a7A","-1","-1","1","0","[]","0","2","","","5218","104","6","4","lose","no-go","0"
"pit-trial","226","1416139","0.0-109.0","battery-v0.2","","""event"",""trial"",""time""
""fullscreenenter"",""1"",""3756""
","
","
","""event"",""trial"",""time""
""fullscreenenter"",""1"",""3756""
","
","","","-1","","","11","5218","2125","g","elianto","#f73b6a7A","-1","-1","1","0","[]","0","2","","","5218","105","6","4","lose","no-go","0"
"pit-trial","227","1421003","0.0-110.0","battery-v0.2","","""event"",""trial"",""time""
""fullscreenenter"",""1"",""3756""
","
","
","""event"",""trial"",""time""
""fullscreenenter"",""1"",""3756""
","
","","","-1","","","11","5218","2125","l","elianto","#3366ff99","-1","-1","1","+10","[]","0","2","","","5218","106","8","2","win","no-go","0"
"pit-trial","228","1425563","0.0-111.0","battery-v0.2","","""event"",""trial"",""time""
""fullscreenenter"",""1"",""3756""
","
","
","""event"",""trial"",""time""
""fullscreenenter"",""1"",""3756""
","
","","","1698.3999998569489","","","11","5218","2125","p","elianto","#3366ff99"," "," ","1","0","[2550.9000000953674]","1","2","","","5218","107","5","1","win","go","1"
"pit-trial","229","1430427","0.0-112.0","battery-v0.2","","""event"",""trial"",""time""
""fullscreenenter"",""1"",""3756""
","
","
","""event"",""trial"",""time""
""fullscreenenter"",""1"",""3756""
","
","","","-1","","","11","5218","2125","u","elianto","#3366ff99","-1","-1","1","+10","[]","0","2","","","5218","108","9","2","win","no-go","0"
"pit-trial","230","1435292","0.0-113.0","battery-v0.2","","""event"",""trial"",""time""
""fullscreenenter"",""1"",""3756""
","
","
","""event"",""trial"",""time""
""fullscreenenter"",""1"",""3756""
","
","","","-1","","","11","5218","2125","l","elianto","#3366ff99","-1","-1","1","+10","[]","0","2","","","5218","109","8","2","win","no-go","0"
"pit-trial","231","1440155","0.0-114.0","battery-v0.2","","""event"",""trial"",""time""
""fullscreenenter"",""1"",""3756""
","
","
","""event"",""trial"",""time""
""fullscreenenter"",""1"",""3756""
","
","","","-1","","","11","5218","2125","u","elianto","#3366ff99","-1","-1","1","+10","[]","0","2","","","5218","110","9","2","win","no-go","0"
"pit-trial","232","1445020","0.0-115.0","battery-v0.2","","""event"",""trial"",""time""
""fullscreenenter"",""1"",""3756""
","
","
","""event"",""trial"",""time""
""fullscreenenter"",""1"",""3756""
","
","","","-1","","","11","5218","2125","g","elianto","#f73b6a7A","-1","-1","1","0","[]","0","2","","","5218","111","6","4","lose","no-go","0"
"pit-trial","233","1449060","0.0-116.0","battery-v0.2","","""event"",""trial"",""time""
""fullscreenenter"",""1"",""3756""
","
","
","""event"",""trial"",""time""
""fullscreenenter"",""1"",""3756""
","
","","","1178.6999998092651","","","11","5218","2125","p","elianto","#3366ff99"," "," ","1","+10","[2031.0999999046326]","1","2","","","5218","112","5","1","win","go","0"
"pit-trial","234","1453923","0.0-117.0","battery-v0.2","","""event"",""trial"",""time""
""fullscreenenter"",""1"",""3756""
","
","
","""event"",""trial"",""time""
""fullscreenenter"",""1"",""3756""
","
","","","-1","","","11","5218","2125","u","elianto","#3366ff99","-1","-1","1","+10","[]","0","2","","","5218","113","9","2","win","no-go","0"
"pit-trial","235","1458787","0.0-118.0","battery-v0.2","","""event"",""trial"",""time""
""fullscreenenter"",""1"",""3756""
","
","
","""event"",""trial"",""time""
""fullscreenenter"",""1"",""3756""
","
","","","-1","","","11","5218","2125","a","elianto","#f73b6a7A"," ","-1","0","-10","[]","0","2","","","5218","114","7","3","lose","go","0"
"pit-trial","236","1463651","0.0-119.0","battery-v0.2","","""event"",""trial"",""time""
""fullscreenenter"",""1"",""3756""
","
","
","""event"",""trial"",""time""
""fullscreenenter"",""1"",""3756""
","
","","","-1","","","11","5218","2125","l","elianto","#3366ff99","-1","-1","1","+10","[]","0","2","","","5218","115","8","2","win","no-go","0"
"pit-trial","237","1468020","0.0-120.0","battery-v0.2","","""event"",""trial"",""time""
""fullscreenenter"",""1"",""3756""
","
","
","""event"",""trial"",""time""
""fullscreenenter"",""1"",""3756""
","
","","","1508.1000001430511","","","11","5218","2125","p","elianto","#3366ff99"," "," ","1","+10","[2362.4000000953674]","1","2","","","5218","116","5","1","win","go","0"
"pit-trial","238","1472889","0.0-121.0","battery-v0.2","","""event"",""trial"",""time""
""fullscreenenter"",""1"",""3756""
","
","
","""event"",""trial"",""time""
""fullscreenenter"",""1"",""3756""
","
","","","-1","","","11","5218","2125","u","elianto","#3366ff99","-1","-1","1","+10","[]","0","2","","","5218","117","9","2","win","no-go","0"
"pit-trial","239","1477766","0.0-122.0","battery-v0.2","","""event"",""trial"",""time""
""fullscreenenter"",""1"",""3756""
","
","
","""event"",""trial"",""time""
""fullscreenenter"",""1"",""3756""
","
","","","-1","","","11","5218","2125","g","elianto","#f73b6a7A","-1","-1","1","0","[]","0","2","","","5218","118","6","4","lose","no-go","0"
"pit-trial","240","1482627","0.0-123.0","battery-v0.2","","""event"",""trial"",""time""
""fullscreenenter"",""1"",""3756""
","
","
","""event"",""trial"",""time""
""fullscreenenter"",""1"",""3756""
","
","","","-1","","","11","5218","2125","l","elianto","#3366ff99","-1","-1","1","+10","[]","0","2","","","5218","119","8","2","win","no-go","0"
"pit-trial","241","1487012","0.0-124.0","battery-v0.2","","""event"",""trial"",""time""
""fullscreenenter"",""1"",""3756""
","
","
","""event"",""trial"",""time""
""fullscreenenter"",""1"",""3756""
","
","","","1518.3000001907349","","","11","5218","2125","p","elianto","#3366ff99"," "," ","1","+10","[2372.5999999046326]","1","2","","","5218","120","5","1","win","go","0"
"pit-trial","242","1491875","0.0-125.0","battery-v0.2","","""event"",""trial"",""time""
""fullscreenenter"",""1"",""3756""
","
","
","""event"",""trial"",""time""
""fullscreenenter"",""1"",""3756""
","
","","","-1","","","11","5218","2125","u","elianto","#3366ff99","-1","-1","1","+10","[]","0","2","","","5218","121","9","2","win","no-go","0"
"pit-trial","243","1496740","0.0-126.0","battery-v0.2","","""event"",""trial"",""time""
""fullscreenenter"",""1"",""3756""
","
","
","""event"",""trial"",""time""
""fullscreenenter"",""1"",""3756""
","
","","","-1","","","11","5218","2125","a","elianto","#f73b6a7A"," ","-1","0","-10","[]","0","2","","","5218","122","7","3","lose","go","0"
"pit-trial","244","1501603","0.0-127.0","battery-v0.2","","""event"",""trial"",""time""
""fullscreenenter"",""1"",""3756""
","
","
","""event"",""trial"",""time""
""fullscreenenter"",""1"",""3756""
","
","","","-1","","","11","5218","2125","l","elianto","#3366ff99","-1","-1","1","+10","[]","0","2","","","5218","123","8","2","win","no-go","0"
"pit-trial","245","1505747","0.0-128.0","battery-v0.2","","""event"",""trial"",""time""
""fullscreenenter"",""1"",""3756""
","
","
","""event"",""trial"",""time""
""fullscreenenter"",""1"",""3756""
","
","","","1289.9000000953674","","","11","5218","2125","p","elianto","#3366ff99"," "," ","1","+10","[2140.5999999046326]","1","2","","","5218","124","5","1","win","go","0"
"pit-trial","246","1510611","0.0-129.0","battery-v0.2","","""event"",""trial"",""time""
""fullscreenenter"",""1"",""3756""
","
","
","""event"",""trial"",""time""
""fullscreenenter"",""1"",""3756""
","
","","","-1","","","11","5218","2125","g","elianto","#f73b6a7A","-1","-1","1","-10","[]","0","2","","","5218","125","6","4","lose","no-go","1"
"pit-trial","247","1515476","0.0-130.0","battery-v0.2","","""event"",""trial"",""time""
""fullscreenenter"",""1"",""3756""
","
","
","""event"",""trial"",""time""
""fullscreenenter"",""1"",""3756""
","
","","","-1","","","11","5218","2125","u","elianto","#3366ff99","-1","-1","1","+10","[]","0","2","","","5218","126","9","2","win","no-go","0"
"pit-trial","248","1520339","0.0-131.0","battery-v0.2","","""event"",""trial"",""time""
""fullscreenenter"",""1"",""3756""
","
","
","""event"",""trial"",""time""
""fullscreenenter"",""1"",""3756""
","
","","","-1","","","11","5218","2125","l","elianto","#3366ff99","-1","-1","1","+10","[]","0","2","","","5218","127","8","2","win","no-go","0"
"pit-trial","249","1525204","0.0-132.0","battery-v0.2","","""event"",""trial"",""time""
""fullscreenenter"",""1"",""3756""
","
","
","""event"",""trial"",""time""
""fullscreenenter"",""1"",""3756""
","
","","","-1","","","11","5218","2125","a","elianto","#f73b6a7A"," ","-1","0","-10","[]","0","2","","","5218","128","7","3","lose","go","0"
"pit-trial","250","1530067","0.0-133.0","battery-v0.2","","""event"",""trial"",""time""
""fullscreenenter"",""1"",""3756""
","
","
","""event"",""trial"",""time""
""fullscreenenter"",""1"",""3756""
","
","","","-1","","","11","5218","2125","u","elianto","#3366ff99","-1","-1","1","0","[]","0","2","","","5218","129","9","2","win","no-go","1"
"pit-trial","251","1534931","0.0-134.0","battery-v0.2","","""event"",""trial"",""time""
""fullscreenenter"",""1"",""3756""
","
","
","""event"",""trial"",""time""
""fullscreenenter"",""1"",""3756""
","
","","","-1","","","11","5218","2125","l","elianto","#3366ff99","-1","-1","1","+10","[]","0","2","","","5218","130","8","2","win","no-go","0"
"pit-trial","252","1539795","0.0-135.0","battery-v0.2","","""event"",""trial"",""time""
""fullscreenenter"",""1"",""3756""
","
","
","""event"",""trial"",""time""
""fullscreenenter"",""1"",""3756""
","
","","","-1","","","11","5218","2125","a","elianto","#f73b6a7A"," ","-1","0","-10","[]","0","2","","","5218","131","7","3","lose","go","0"
"pit-trial","253","1544659","0.0-136.0","battery-v0.2","","""event"",""trial"",""time""
""fullscreenenter"",""1"",""3756""
","
","
","""event"",""trial"",""time""
""fullscreenenter"",""1"",""3756""
","
","","","-1","","","11","5218","2125","g","elianto","#f73b6a7A","-1","-1","1","0","[]","0","2","","","5218","132","6","4","lose","no-go","0"
"pit-trial","254","1549523","0.0-137.0","battery-v0.2","","""event"",""trial"",""time""
""fullscreenenter"",""1"",""3756""
","
","
","""event"",""trial"",""time""
""fullscreenenter"",""1"",""3756""
","
","","","-1","","","11","5218","2125","l","elianto","#3366ff99","-1","-1","1","+10","[]","0","2","","","5218","133","8","2","win","no-go","0"
"pit-trial","255","1554389","0.0-138.0","battery-v0.2","","""event"",""trial"",""time""
""fullscreenenter"",""1"",""3756""
","
","
","""event"",""trial"",""time""
""fullscreenenter"",""1"",""3756""
","
","","","-1","","","11","5218","2125","g","elianto","#f73b6a7A","-1","-1","1","-10","[]","0","2","","","5218","134","6","4","lose","no-go","1"
"pit-trial","256","1559252","0.0-139.0","battery-v0.2","","""event"",""trial"",""time""
""fullscreenenter"",""1"",""3756""
","
","
","""event"",""trial"",""time""
""fullscreenenter"",""1"",""3756""
","
","","","-1","","","11","5218","2125","a","elianto","#f73b6a7A"," ","-1","0","0","[]","0","2","","","5218","135","7","3","lose","go","1"
"pit-trial","257","1564116","0.0-140.0","battery-v0.2","","""event"",""trial"",""time""
""fullscreenenter"",""1"",""3756""
","
","
","""event"",""trial"",""time""
""fullscreenenter"",""1"",""3756""
","
","","","-1","","","11","5218","2125","u","elianto","#3366ff99","-1","-1","1","+10","[]","0","2","","","5218","136","9","2","win","no-go","0"
"pit-trial","258","1568979","0.0-141.0","battery-v0.2","","""event"",""trial"",""time""
""fullscreenenter"",""1"",""3756""
","
","
","""event"",""trial"",""time""
""fullscreenenter"",""1"",""3756""
","
","","","-1","","","11","5218","2125","a","elianto","#f73b6a7A"," ","-1","0","-10","[]","0","2","","","5218","137","7","3","lose","go","0"
"pit-trial","259","1573843","0.0-142.0","battery-v0.2","","""event"",""trial"",""time""
""fullscreenenter"",""1"",""3756""
","
","
","""event"",""trial"",""time""
""fullscreenenter"",""1"",""3756""
","
","","","-1","","","11","5218","2125","g","elianto","#f73b6a7A","-1","-1","1","0","[]","0","2","","","5218","138","6","4","lose","no-go","0"
"pit-trial","260","1578707","0.0-143.0","battery-v0.2","","""event"",""trial"",""time""
""fullscreenenter"",""1"",""3756""
","
","
","""event"",""trial"",""time""
""fullscreenenter"",""1"",""3756""
","
","","","-1","","","11","5218","2125","u","elianto","#3366ff99","-1","-1","1","+10","[]","0","2","","","5218","139","9","2","win","no-go","0"
"pit-trial","261","1583571","0.0-144.0","battery-v0.2","","""event"",""trial"",""time""
""fullscreenenter"",""1"",""3756""
","
","
","""event"",""trial"",""time""
""fullscreenenter"",""1"",""3756""
","
","","","-1","","","11","5218","2125","l","elianto","#3366ff99","-1","-1","1","+10","[]","0","2","","","5218","140","8","2","win","no-go","0"
"pit-instructions","262","1600826","0.0-145.0","battery-v0.2","","""event"",""trial"",""time""
""fullscreenenter"",""1"",""3756""
","
","
","""event"",""trial"",""time""
""fullscreenenter"",""1"",""3756""
","
","","[{""page_index"":0,""viewing_time"":8934.5},{""page_index"":1,""viewing_time"":8317.799999952316}]","17252.700000047684","","","","","","","","","","","","","","","","","","","","","","","",""
"pit-trial","263","1605276","0.0-146.0","battery-v0.2","","""event"",""trial"",""time""
""fullscreenenter"",""1"",""3756""
","
","
","""event"",""trial"",""time""
""fullscreenenter"",""1"",""3756""
","
","","","1586.5","","","11","5218","2125","t","elianto","#f73b6a7A"," "," ","1","0","[2441]","1","3","","","5218","141","2","3","lose","go","0"
"pit-trial","264","1610151","0.0-147.0","battery-v0.2","","""event"",""trial"",""time""
""fullscreenenter"",""1"",""3756""
","
","
","""event"",""trial"",""time""
""fullscreenenter"",""1"",""3756""
","
","","","-1","","","11","5218","2125","n","elianto","#f73b6a7A"," ","-1","0","0","[]","0","3","","","5218","142","0","3","lose","go","1"
"pit-trial","265","1614412","0.0-148.0","battery-v0.2","","""event"",""trial"",""time""
""fullscreenenter"",""1"",""3756""
","
","
","""event"",""trial"",""time""
""fullscreenenter"",""1"",""3756""
","
","","","1394.7999999523163","","","11","5218","2125","f","elianto","#3366ff99","-1"," ","0","0","[2244.5999999046326]","1","3","","","5218","143","1","2","win","no-go","0"
"pit-trial","266","1618621","0.0-149.0","battery-v0.2","","""event"",""trial"",""time""
""fullscreenenter"",""1"",""3756""
","
","
","""event"",""trial"",""time""
""fullscreenenter"",""1"",""3756""
","
","","","1339.2000000476837","","","11","5218","2125","b","elianto","#f73b6a7A","-1"," ","0","0","[2192.2000000476837]","1","3","","","5218","144","3","4","lose","no-go","1"
