"trial_type","trial_index","time_elapsed","internal_node_id","task_version","subject_id","interactions","blur_events","focus_events","fullscreenenter_events","fullscreenexit_events","success","view_history","rt","responses","num_errors","age","subject","participantId","rune","rune_set","hex","correct","choice","accuracy","outcome","keys","total_keys","block","practice","value","sub","trial","stimulus","robot","valence","action","sham"
"pavlovia","0","7","0.0-0.0","battery-v0.2","","""event"",""trial"",""time""
""fullscreenenter"",""1"",""2676""
","
","
","""event"",""trial"",""time""
""fullscreenenter"",""1"",""2676""
","
","","","","","","","","","","","","","","","","","","","","","","","","","","",""
"fullscreen","1","3653","0.0-1.0","battery-v0.2","","""event"",""trial"",""time""
""fullscreenenter"",""1"",""2676""
","
","
","""event"",""trial"",""time""
""fullscreenenter"",""1"",""2676""
","
","true","","","","","","","","","","","","","","","","","","","","","","","","","",""
"pit-instructions","2","8467","0.0-2.0-0.0","battery-v0.2","","""event"",""trial"",""time""
""fullscreenenter"",""1"",""2676""
","
","
","""event"",""trial"",""time""
""fullscreenenter"",""1"",""2676""
","
","","[{""page_index"":0,""viewing_time"":4809.799999952316}]","4810.299999952316","","","","","","","","","","","","","","","","","","","","","","","",""
"pit-comprehension","3","11506","0.0-2.0-1.0-0.0","battery-v0.2","","""event"",""trial"",""time""
""fullscreenenter"",""1"",""2676""
","
","
","""event"",""trial"",""time""
""fullscreenenter"",""1"",""2676""
","
","","","3035.5","[""shark""]","0","24","10849","5002","","","","","","","","","","","","","","","","","","",""
"pit-instructions","4","15593","0.0-2.0-1.0-1.0","battery-v0.2","","""event"",""trial"",""time""
""fullscreenenter"",""1"",""2676""
","
","
","""event"",""trial"",""time""
""fullscreenenter"",""1"",""2676""
","
","","[{""page_index"":0,""viewing_time"":4075.100000143051}]","4075.4000000953674","","","","","","","","","","","","","","","","","","","","","","","",""
"pit-comprehension","5","18404","0.0-2.0-2.0-0.0","battery-v0.2","","""event"",""trial"",""time""
""fullscreenenter"",""1"",""2676""
","
","
","""event"",""trial"",""time""
""fullscreenenter"",""1"",""2676""
","
","","","2809","[""tiger""]","0","24","10849","5002","","","","","","","","","","","","","","","","","","",""
"pit-instructions","6","19184","0.0-2.0-2.0-1.0","battery-v0.2","","""event"",""trial"",""time""
""fullscreenenter"",""1"",""2676""
","
","
","""event"",""trial"",""time""
""fullscreenenter"",""1"",""2676""
","
","","[{""page_index"":0,""viewing_time"":777.3000001907349}]","777.5","","","","","","","","","","","","","","","","","","","","","","","",""
"pit-instructions","7","120683","0.0-2.0-3.0","battery-v0.2","","""event"",""trial"",""time""
""fullscreenenter"",""1"",""2676""
","
","
","""event"",""trial"",""time""
""fullscreenenter"",""1"",""2676""
","
","","[{""page_index"":0,""viewing_time"":8543.799999952316},{""page_index"":1,""viewing_time"":7373.099999904633},{""page_index"":2,""viewing_time"":6176.700000047684},{""page_index"":3,""viewing_time"":5297.700000047684},{""page_index"":4,""viewing_time"":5869},{""page_index"":5,""viewing_time"":8967.299999952316},{""page_index"":6,""viewing_time"":6711.5},{""page_index"":7,""viewing_time"":7658.799999952316},{""page_index"":8,""viewing_time"":9964.900000095367},{""page_index"":9,""viewing_time"":7631},{""page_index"":10,""viewing_time"":7998.900000095367},{""page_index"":11,""viewing_time"":7462.5},{""page_index"":12,""viewing_time"":6612.399999856949},{""page_index"":13,""viewing_time"":5228.200000047684}]","101496.29999995232","","","","","","","","","","","","","","","","","","","","","","","",""
"pit-trial","8","124117","0.0-2.0-4.0-0.0","battery-v0.2","","""event"",""trial"",""time""
""fullscreenenter"",""1"",""2676""
","
","
","""event"",""trial"",""time""
""fullscreenenter"",""1"",""2676""
","
","","","557.0999999046326","","","24","10849","5002","&#9784;","elianto","#FFFFF080"," "," ","1","&#10004","[1416.9000000953674]","1","0","0","","","","","","","",""
"pit-trial","9","127495","0.0-2.0-4.1-0.1","battery-v0.2","","""event"",""trial"",""time""
""fullscreenenter"",""1"",""2676""
","
","
","""event"",""trial"",""time""
""fullscreenenter"",""1"",""2676""
","
","","","495.59999990463257","","","24","10849","5002","&#9784;","elianto","#FFFFF080"," "," ","1","&#10004","[1355.2999999523163]","1","0","0","","","","","","","",""
"pit-trial","10","130876","0.0-2.0-4.2-0.2","battery-v0.2","","""event"",""trial"",""time""
""fullscreenenter"",""1"",""2676""
","
","
","""event"",""trial"",""time""
""fullscreenenter"",""1"",""2676""
","
","","","517.3999998569489","","","24","10849","5002","&#9784;","elianto","#FFFFF080"," "," ","1","&#10004","[1367.7999999523163]","1","0","0","","","","","","","",""
"pit-trial","11","134276","0.0-2.0-4.3-0.3","battery-v0.2","","""event"",""trial"",""time""
""fullscreenenter"",""1"",""2676""
","
","
","""event"",""trial"",""time""
""fullscreenenter"",""1"",""2676""
","
","","","531.6999998092651","","","24","10849","5002","&#9784;","elianto","#FFFFF080"," "," ","1","&#10004","[1381.7999999523163]","1","0","0","","","","","","","",""
"pit-trial","12","137616","0.0-2.0-4.4-0.4","battery-v0.2","","""event"",""trial"",""time""
""fullscreenenter"",""1"",""2676""
","
","
","""event"",""trial"",""time""
""fullscreenenter"",""1"",""2676""
","
","","","481.5","","","24","10849","5002","&#9784;","elianto","#FFFFF080"," "," ","1","&#10004","[1332.6000001430511]","1","0","0","","","","","","","",""
"pit-instructions","13","160650","0.0-2.0-5.0","battery-v0.2","","""event"",""trial"",""time""
""fullscreenenter"",""1"",""2676""
","
","
","""event"",""trial"",""time""
""fullscreenenter"",""1"",""2676""
","
","","[{""page_index"":0,""viewing_time"":6225.199999809265},{""page_index"":1,""viewing_time"":5308.100000143051},{""page_index"":2,""viewing_time"":4721.599999904633},{""page_index"":3,""viewing_time"":6774.700000047684}]","23030.199999809265","","","","","","","","","","","","","","","","","","","","","","","",""
"pit-trial","14","165525","0.0-2.0-6.0-0.0","battery-v0.2","","""event"",""trial"",""time""
""fullscreenenter"",""1"",""2676""
","
","
","""event"",""trial"",""time""
""fullscreenenter"",""1"",""2676""
","
","","","-1","","","24","10849","5002","&#9854;","elianto","#FFFFF080","-1","-1","1","&#10004","[]","0","0","1","","","","","","","",""
"pit-trial","15","170395","0.0-2.0-6.1-0.1","battery-v0.2","","""event"",""trial"",""time""
""fullscreenenter"",""1"",""2676""
","
","
","""event"",""trial"",""time""
""fullscreenenter"",""1"",""2676""
","
","","","-1","","","24","10849","5002","&#9854;","elianto","#FFFFF080","-1","-1","1","&#10004","[]","0","0","1","","","","","","","",""
"pit-trial","16","175276","0.0-2.0-6.2-0.2","battery-v0.2","","""event"",""trial"",""time""
""fullscreenenter"",""1"",""2676""
","
","
","""event"",""trial"",""time""
""fullscreenenter"",""1"",""2676""
","
","","","-1","","","24","10849","5002","&#9854;","elianto","#FFFFF080","-1","-1","1","&#10004","[]","0","0","1","","","","","","","",""
"pit-trial","17","180156","0.0-2.0-6.3-0.3","battery-v0.2","","""event"",""trial"",""time""
""fullscreenenter"",""1"",""2676""
","
","
","""event"",""trial"",""time""
""fullscreenenter"",""1"",""2676""
","
","","","-1","","","24","10849","5002","&#9854;","elianto","#FFFFF080","-1","-1","1","&#10004","[]","0","0","1","","","","","","","",""
"pit-trial","18","185035","0.0-2.0-6.4-0.4","battery-v0.2","","""event"",""trial"",""time""
""fullscreenenter"",""1"",""2676""
","
","
","""event"",""trial"",""time""
""fullscreenenter"",""1"",""2676""
","
","","","-1","","","24","10849","5002","&#9854;","elianto","#FFFFF080","-1","-1","1","&#10004","[]","0","0","1","","","","","","","",""
"pit-instructions","19","301323","0.0-2.0-7.0","battery-v0.2","","""event"",""trial"",""time""
""fullscreenenter"",""1"",""2676""
","
","
","""event"",""trial"",""time""
""fullscreenenter"",""1"",""2676""
","
","","[{""page_index"":0,""viewing_time"":5703},{""page_index"":1,""viewing_time"":7271.299999952316},{""page_index"":2,""viewing_time"":6501.200000047684},{""page_index"":3,""viewing_time"":5976},{""page_index"":4,""viewing_time"":6574.199999809265},{""page_index"":5,""viewing_time"":5955.5},{""page_index"":6,""viewing_time"":4590.200000047684},{""page_index"":7,""viewing_time"":7180.5},{""page_index"":8,""viewing_time"":6296.299999952316},{""page_index"":9,""viewing_time"":5713.5},{""page_index"":10,""viewing_time"":6016},{""page_index"":11,""viewing_time"":4285.600000143051},{""page_index"":12,""viewing_time"":6683.599999904633},{""page_index"":13,""viewing_time"":6904.900000095367},{""page_index"":14,""viewing_time"":7599.200000047684},{""page_index"":15,""viewing_time"":6274.599999904633},{""page_index"":16,""viewing_time"":7907.299999952316},{""page_index"":17,""viewing_time"":8851.100000143051}]","116284.29999995232","","","","","","","","","","","","","","","","","","","","","","","",""
"pit-trial","20","304686","0.0-2.0-8.0-0.0","battery-v0.2","","""event"",""trial"",""time""
""fullscreenenter"",""1"",""2676""
","
","
","""event"",""trial"",""time""
""fullscreenenter"",""1"",""2676""
","
","","","495.2999999523163","","","24","10849","5002","&#9776;","elianto","#3366ff99"," "," ","1","+10","[1346.1000001430511]","1","0","1","","","","","","","",""
"pit-trial","21","308096","0.0-2.0-8.0-1.0","battery-v0.2","","""event"",""trial"",""time""
""fullscreenenter"",""1"",""2676""
","
","
","""event"",""trial"",""time""
""fullscreenenter"",""1"",""2676""
","
","","","532.7999999523163","","","24","10849","5002","&#9776;","elianto","#3366ff99"," "," ","1","+10","[1395.2999999523163]","1","0","1","","","","","","","",""
"pit-trial","22","311386","0.0-2.0-8.0-2.0","battery-v0.2","","""event"",""trial"",""time""
""fullscreenenter"",""1"",""2676""
","
","
","""event"",""trial"",""time""
""fullscreenenter"",""1"",""2676""
","
","","","424.60000014305115","","","24","10849","5002","&#9776;","elianto","#3366ff99"," "," ","1","+10","[1276.7999999523163]","1","0","1","","","","","","","",""
"pit-trial","23","315056","0.0-2.0-8.0-3.0","battery-v0.2","","""event"",""trial"",""time""
""fullscreenenter"",""1"",""2676""
","
","
","""event"",""trial"",""time""
""fullscreenenter"",""1"",""2676""
","
","","","800.2999999523163","","","24","10849","5002","&#9776;","elianto","#3366ff99"," "," ","1","0","[1661.6000001430511]","1","0","1","","","","","","","",""
"pit-trial","24","318866","0.0-2.0-8.0-4.0","battery-v0.2","","""event"",""trial"",""time""
""fullscreenenter"",""1"",""2676""
","
","
","""event"",""trial"",""time""
""fullscreenenter"",""1"",""2676""
","
","","","938.2999999523163","","","24","10849","5002","&#9776;","elianto","#3366ff99"," "," ","1","+10","[1795.5999999046326]","1","0","1","","","","","","","",""
"pit-trial","25","322486","0.0-2.0-8.1-0.1","battery-v0.2","","""event"",""trial"",""time""
""fullscreenenter"",""1"",""2676""
","
","
","""event"",""trial"",""time""
""fullscreenenter"",""1"",""2676""
","
","","","749.2999999523163","","","24","10849","5002","&#9776;","elianto","#3366ff99"," "," ","1","+10","[1600]","1","0","1","","","","","","","",""
"pit-trial","26","325906","0.0-2.0-8.1-1.1","battery-v0.2","","""event"",""trial"",""time""
""fullscreenenter"",""1"",""2676""
","
","
","""event"",""trial"",""time""
""fullscreenenter"",""1"",""2676""
","
","","","538.4000000953674","","","24","10849","5002","&#9776;","elianto","#3366ff99"," "," ","1","+10","[1398.3999998569489]","1","0","1","","","","","","","",""
"pit-trial","27","329206","0.0-2.0-8.1-2.1","battery-v0.2","","""event"",""trial"",""time""
""fullscreenenter"",""1"",""2676""
","
","
","""event"",""trial"",""time""
""fullscreenenter"",""1"",""2676""
","
","","","430.2999999523163","","","24","10849","5002","&#9776;","elianto","#3366ff99"," "," ","1","+10","[1286.5]","1","0","1","","","","","","","",""
"pit-trial","28","332330","0.0-2.0-8.1-3.1","battery-v0.2","","""event"",""trial"",""time""
""fullscreenenter"",""1"",""2676""
","
","
","""event"",""trial"",""time""
""fullscreenenter"",""1"",""2676""
","
","","","268","","","24","10849","5002","&#9776;","elianto","#3366ff99"," "," ","1","0","[1120.7000000476837]","1","0","1","","","","","","","",""
"pit-trial","29","335364","0.0-2.0-8.1-4.1","battery-v0.2","","""event"",""trial"",""time""
""fullscreenenter"",""1"",""2676""
","
","
","""event"",""trial"",""time""
""fullscreenenter"",""1"",""2676""
","
","","","179","","","24","10849","5002","&#9776;","elianto","#3366ff99"," "," ","1","+10","[1030.1000001430511]","1","0","1","","","","","","","",""
"pit-trial","30","338360","0.0-2.0-8.2-0.2","battery-v0.2","","""event"",""trial"",""time""
""fullscreenenter"",""1"",""2676""
","
","
","""event"",""trial"",""time""
""fullscreenenter"",""1"",""2676""
","
","","","142","","","24","10849","5002","&#9776;","elianto","#3366ff99"," "," ","1","+10","[995.7000000476837]","1","0","1","","","","","","","",""
"pit-trial","31","341490","0.0-2.0-8.2-1.2","battery-v0.2","","""event"",""trial"",""time""
""fullscreenenter"",""1"",""2676""
","
","
","""event"",""trial"",""time""
""fullscreenenter"",""1"",""2676""
","
","","","267.09999990463257","","","24","10849","5002","&#9776;","elianto","#3366ff99"," "," ","1","+10","[1122.0999999046326]","1","0","1","","","","","","","",""
"pit-trial","32","344594","0.0-2.0-8.2-2.2","battery-v0.2","","""event"",""trial"",""time""
""fullscreenenter"",""1"",""2676""
","
","
","""event"",""trial"",""time""
""fullscreenenter"",""1"",""2676""
","
","","","240.5","","","24","10849","5002","&#9776;","elianto","#3366ff99"," "," ","1","+10","[1093.5999999046326]","1","0","1","","","","","","","",""
"pit-trial","33","347675","0.0-2.0-8.2-3.2","battery-v0.2","","""event"",""trial"",""time""
""fullscreenenter"",""1"",""2676""
","
","
","""event"",""trial"",""time""
""fullscreenenter"",""1"",""2676""
","
","","","219.5","","","24","10849","5002","&#9776;","elianto","#3366ff99"," "," ","1","0","[1074.7000000476837]","1","0","1","","","","","","","",""
"pit-trial","34","350826","0.0-2.0-8.2-4.2","battery-v0.2","","""event"",""trial"",""time""
""fullscreenenter"",""1"",""2676""
","
","
","""event"",""trial"",""time""
""fullscreenenter"",""1"",""2676""
","
","","","280.7999999523163","","","24","10849","5002","&#9776;","elianto","#3366ff99"," "," ","1","+10","[1137.5]","1","0","1","","","","","","","",""
"call-function","35","350829","0.0-2.0-9.0","battery-v0.2","","""event"",""trial"",""time""
""fullscreenenter"",""1"",""2676""
","
","
","""event"",""trial"",""time""
""fullscreenenter"",""1"",""2676""
","
","","","","","","","","","","","","","","","","","","","","","","","","","","",""
"pit-instructions","36","389438","0.0-2.0-10.0","battery-v0.2","","""event"",""trial"",""time""
""fullscreenenter"",""1"",""2676""
","
","
","""event"",""trial"",""time""
""fullscreenenter"",""1"",""2676""
","
","","[{""page_index"":0,""viewing_time"":6792.100000143051},{""page_index"":1,""viewing_time"":6817.799999952316},{""page_index"":2,""viewing_time"":9065.599999904633},{""page_index"":3,""viewing_time"":8678.700000047684},{""page_index"":4,""viewing_time"":7253.200000047684}]","38608.200000047684","","","","","","","","","","","","","","","","","","","","","","","",""
"pit-trial","37","394305","0.0-2.0-11.0-0.0","battery-v0.2","","""event"",""trial"",""time""
""fullscreenenter"",""1"",""2676""
","
","
","""event"",""trial"",""time""
""fullscreenenter"",""1"",""2676""
","
","","","-1","","","24","10849","5002","&#9761;","elianto","#3366ff99","-1","-1","1","+10","[]","0","0","2","","","","","","","",""
"pit-trial","38","399201","0.0-2.0-11.0-1.0","battery-v0.2","","""event"",""trial"",""time""
""fullscreenenter"",""1"",""2676""
","
","
","""event"",""trial"",""time""
""fullscreenenter"",""1"",""2676""
","
","","","-1","","","24","10849","5002","&#9761;","elianto","#3366ff99","-1","-1","1","+10","[]","0","0","2","","","","","","","",""
"pit-trial","39","404081","0.0-2.0-11.0-2.0","battery-v0.2","","""event"",""trial"",""time""
""fullscreenenter"",""1"",""2676""
","
","
","""event"",""trial"",""time""
""fullscreenenter"",""1"",""2676""
","
","","","-1","","","24","10849","5002","&#9761;","elianto","#3366ff99","-1","-1","1","+10","[]","0","0","2","","","","","","","",""
"pit-trial","40","408971","0.0-2.0-11.0-3.0","battery-v0.2","","""event"",""trial"",""time""
""fullscreenenter"",""1"",""2676""
","
","
","""event"",""trial"",""time""
""fullscreenenter"",""1"",""2676""
","
","","","-1","","","24","10849","5002","&#9761;","elianto","#3366ff99","-1","-1","1","0","[]","0","0","2","","","","","","","",""
"pit-trial","41","413851","0.0-2.0-11.0-4.0","battery-v0.2","","""event"",""trial"",""time""
""fullscreenenter"",""1"",""2676""
","
","
","""event"",""trial"",""time""
""fullscreenenter"",""1"",""2676""
","
","","","-1","","","24","10849","5002","&#9761;","elianto","#3366ff99","-1","-1","1","+10","[]","0","0","2","","","","","","","",""
"pit-trial","42","418721","0.0-2.0-11.1-0.1","battery-v0.2","","""event"",""trial"",""time""
""fullscreenenter"",""1"",""2676""
","
","
","""event"",""trial"",""time""
""fullscreenenter"",""1"",""2676""
","
","","","-1","","","24","10849","5002","&#9761;","elianto","#3366ff99","-1","-1","1","+10","[]","0","0","2","","","","","","","",""
"pit-trial","43","423578","0.0-2.0-11.1-1.1","battery-v0.2","","""event"",""trial"",""time""
""fullscreenenter"",""1"",""2676""
","
","
","""event"",""trial"",""time""
""fullscreenenter"",""1"",""2676""
","
","","","-1","","","24","10849","5002","&#9761;","elianto","#3366ff99","-1","-1","1","+10","[]","0","0","2","","","","","","","",""
"pit-trial","44","428446","0.0-2.0-11.1-2.1","battery-v0.2","","""event"",""trial"",""time""
""fullscreenenter"",""1"",""2676""
","
","
","""event"",""trial"",""time""
""fullscreenenter"",""1"",""2676""
","
","","","-1","","","24","10849","5002","&#9761;","elianto","#3366ff99","-1","-1","1","+10","[]","0","0","2","","","","","","","",""
"pit-trial","45","433321","0.0-2.0-11.1-3.1","battery-v0.2","","""event"",""trial"",""time""
""fullscreenenter"",""1"",""2676""
","
","
","""event"",""trial"",""time""
""fullscreenenter"",""1"",""2676""
","
","","","-1","","","24","10849","5002","&#9761;","elianto","#3366ff99","-1","-1","1","0","[]","0","0","2","","","","","","","",""
"pit-trial","46","438189","0.0-2.0-11.1-4.1","battery-v0.2","","""event"",""trial"",""time""
""fullscreenenter"",""1"",""2676""
","
","
","""event"",""trial"",""time""
""fullscreenenter"",""1"",""2676""
","
","","","-1","","","24","10849","5002","&#9761;","elianto","#3366ff99","-1","-1","1","+10","[]","0","0","2","","","","","","","",""
"pit-trial","47","443057","0.0-2.0-11.2-0.2","battery-v0.2","","""event"",""trial"",""time""
""fullscreenenter"",""1"",""2676""
","
","
","""event"",""trial"",""time""
""fullscreenenter"",""1"",""2676""
","
","","","-1","","","24","10849","5002","&#9761;","elianto","#3366ff99","-1","-1","1","+10","[]","0","0","2","","","","","","","",""
"pit-trial","48","447925","0.0-2.0-11.2-1.2","battery-v0.2","","""event"",""trial"",""time""
""fullscreenenter"",""1"",""2676""
","
","
","""event"",""trial"",""time""
""fullscreenenter"",""1"",""2676""
","
","","","-1","","","24","10849","5002","&#9761;","elianto","#3366ff99","-1","-1","1","+10","[]","0","0","2","","","","","","","",""
"pit-trial","49","452781","0.0-2.0-11.2-2.2","battery-v0.2","","""event"",""trial"",""time""
""fullscreenenter"",""1"",""2676""
","
","
","""event"",""trial"",""time""
""fullscreenenter"",""1"",""2676""
","
","","","-1","","","24","10849","5002","&#9761;","elianto","#3366ff99","-1","-1","1","+10","[]","0","0","2","","","","","","","",""
"pit-trial","50","457645","0.0-2.0-11.2-3.2","battery-v0.2","","""event"",""trial"",""time""
""fullscreenenter"",""1"",""2676""
","
","
","""event"",""trial"",""time""
""fullscreenenter"",""1"",""2676""
","
","","","-1","","","24","10849","5002","&#9761;","elianto","#3366ff99","-1","-1","1","0","[]","0","0","2","","","","","","","",""
"pit-trial","51","462514","0.0-2.0-11.2-4.2","battery-v0.2","","""event"",""trial"",""time""
""fullscreenenter"",""1"",""2676""
","
","
","""event"",""trial"",""time""
""fullscreenenter"",""1"",""2676""
","
","","","-1","","","24","10849","5002","&#9761;","elianto","#3366ff99","-1","-1","1","+10","[]","0","0","2","","","","","","","",""
"pit-trial","52","467383","0.0-2.0-11.3-0.3","battery-v0.2","","""event"",""trial"",""time""
""fullscreenenter"",""1"",""2676""
","
","
","""event"",""trial"",""time""
""fullscreenenter"",""1"",""2676""
","
","","","-1","","","24","10849","5002","&#9761;","elianto","#3366ff99","-1","-1","1","+10","[]","0","0","2","","","","","","","",""
"pit-trial","53","472264","0.0-2.0-11.3-1.3","battery-v0.2","","""event"",""trial"",""time""
""fullscreenenter"",""1"",""2676""
","
","
","""event"",""trial"",""time""
""fullscreenenter"",""1"",""2676""
","
","","","-1","","","24","10849","5002","&#9761;","elianto","#3366ff99","-1","-1","1","+10","[]","0","0","2","","","","","","","",""
"pit-trial","54","477129","0.0-2.0-11.3-2.3","battery-v0.2","","""event"",""trial"",""time""
""fullscreenenter"",""1"",""2676""
","
","
","""event"",""trial"",""time""
""fullscreenenter"",""1"",""2676""
","
","","","-1","","","24","10849","5002","&#9761;","elianto","#3366ff99","-1","-1","1","+10","[]","0","0","2","","","","","","","",""
"pit-trial","55","481992","0.0-2.0-11.3-3.3","battery-v0.2","","""event"",""trial"",""time""
""fullscreenenter"",""1"",""2676""
","
","
","""event"",""trial"",""time""
""fullscreenenter"",""1"",""2676""
","
","","","-1","","","24","10849","5002","&#9761;","elianto","#3366ff99","-1","-1","1","0","[]","0","0","2","","","","","","","",""
"pit-trial","56","486854","0.0-2.0-11.3-4.3","battery-v0.2","","""event"",""trial"",""time""
""fullscreenenter"",""1"",""2676""
","
","
","""event"",""trial"",""time""
""fullscreenenter"",""1"",""2676""
","
","","","-1","","","24","10849","5002","&#9761;","elianto","#3366ff99","-1","-1","1","+10","[]","0","0","2","","","","","","","",""
"call-function","57","486856","0.0-2.0-12.0","battery-v0.2","","""event"",""trial"",""time""
""fullscreenenter"",""1"",""2676""
","
","
","""event"",""trial"",""time""
""fullscreenenter"",""1"",""2676""
","
","","","","","","","","","","","","","","","","","","","","","","","","","","",""
"pit-instructions","58","517606","0.0-2.0-13.0","battery-v0.2","","""event"",""trial"",""time""
""fullscreenenter"",""1"",""2676""
","
","
","""event"",""trial"",""time""
""fullscreenenter"",""1"",""2676""
","
","","[{""page_index"":0,""viewing_time"":5085},{""page_index"":1,""viewing_time"":6471.799999952316},{""page_index"":2,""viewing_time"":3205.399999856949},{""page_index"":3,""viewing_time"":11320.700000047684},{""page_index"":4,""viewing_time"":4665.400000095367}]","30749.099999904633","","","","","","","","","","","","","","","","","","","","","","","",""
"pit-trial","59","522475","0.0-2.0-14.0-0.0","battery-v0.2","","""event"",""trial"",""time""
""fullscreenenter"",""1"",""2676""
","
","
","""event"",""trial"",""time""
""fullscreenenter"",""1"",""2676""
","
","","","-1","","","24","10849","5002","&#9826;","elianto","#f73b6a7A","-1","-1","1","0","[]","0","0","3","","","","","","","",""
"pit-trial","60","527355","0.0-2.0-14.0-1.0","battery-v0.2","","""event"",""trial"",""time""
""fullscreenenter"",""1"",""2676""
","
","
","""event"",""trial"",""time""
""fullscreenenter"",""1"",""2676""
","
","","","-1","","","24","10849","5002","&#9826;","elianto","#f73b6a7A","-1","-1","1","0","[]","0","0","3","","","","","","","",""
"pit-trial","61","532226","0.0-2.0-14.0-2.0","battery-v0.2","","""event"",""trial"",""time""
""fullscreenenter"",""1"",""2676""
","
","
","""event"",""trial"",""time""
""fullscreenenter"",""1"",""2676""
","
","","","-1","","","24","10849","5002","&#9826;","elianto","#f73b6a7A","-1","-1","1","0","[]","0","0","3","","","","","","","",""
"pit-trial","62","537105","0.0-2.0-14.0-3.0","battery-v0.2","","""event"",""trial"",""time""
""fullscreenenter"",""1"",""2676""
","
","
","""event"",""trial"",""time""
""fullscreenenter"",""1"",""2676""
","
","","","-1","","","24","10849","5002","&#9826;","elianto","#f73b6a7A","-1","-1","1","-10","[]","0","0","3","","","","","","","",""
"pit-trial","63","541975","0.0-2.0-14.0-4.0","battery-v0.2","","""event"",""trial"",""time""
""fullscreenenter"",""1"",""2676""
","
","
","""event"",""trial"",""time""
""fullscreenenter"",""1"",""2676""
","
","","","-1","","","24","10849","5002","&#9826;","elianto","#f73b6a7A","-1","-1","1","0","[]","0","0","3","","","","","","","",""
"pit-trial","64","546855","0.0-2.0-14.1-0.1","battery-v0.2","","""event"",""trial"",""time""
""fullscreenenter"",""1"",""2676""
","
","
","""event"",""trial"",""time""
""fullscreenenter"",""1"",""2676""
","
","","","-1","","","24","10849","5002","&#9826;","elianto","#f73b6a7A","-1","-1","1","0","[]","0","0","3","","","","","","","",""
"pit-trial","65","551716","0.0-2.0-14.1-1.1","battery-v0.2","","""event"",""trial"",""time""
""fullscreenenter"",""1"",""2676""
","
","
","""event"",""trial"",""time""
""fullscreenenter"",""1"",""2676""
","
","","","-1","","","24","10849","5002","&#9826;","elianto","#f73b6a7A","-1","-1","1","0","[]","0","0","3","","","","","","","",""
"pit-trial","66","556580","0.0-2.0-14.1-2.1","battery-v0.2","","""event"",""trial"",""time""
""fullscreenenter"",""1"",""2676""
","
","
","""event"",""trial"",""time""
""fullscreenenter"",""1"",""2676""
","
","","","-1","","","24","10849","5002","&#9826;","elianto","#f73b6a7A","-1","-1","1","0","[]","0","0","3","","","","","","","",""
"pit-trial","67","561454","0.0-2.0-14.1-3.1","battery-v0.2","","""event"",""trial"",""time""
""fullscreenenter"",""1"",""2676""
","
","
","""event"",""trial"",""time""
""fullscreenenter"",""1"",""2676""
","
","","","-1","","","24","10849","5002","&#9826;","elianto","#f73b6a7A","-1","-1","1","-10","[]","0","0","3","","","","","","","",""
"pit-trial","68","566317","0.0-2.0-14.1-4.1","battery-v0.2","","""event"",""trial"",""time""
""fullscreenenter"",""1"",""2676""
","
","
","""event"",""trial"",""time""
""fullscreenenter"",""1"",""2676""
","
","","","-1","","","24","10849","5002","&#9826;","elianto","#f73b6a7A","-1","-1","1","0","[]","0","0","3","","","","","","","",""
"pit-trial","69","571186","0.0-2.0-14.2-0.2","battery-v0.2","","""event"",""trial"",""time""
""fullscreenenter"",""1"",""2676""
","
","
","""event"",""trial"",""time""
""fullscreenenter"",""1"",""2676""
","
","","","-1","","","24","10849","5002","&#9826;","elianto","#f73b6a7A","-1","-1","1","0","[]","0","0","3","","","","","","","",""
"pit-trial","70","576046","0.0-2.0-14.2-1.2","battery-v0.2","","""event"",""trial"",""time""
""fullscreenenter"",""1"",""2676""
","
","
","""event"",""trial"",""time""
""fullscreenenter"",""1"",""2676""
","
","","","-1","","","24","10849","5002","&#9826;","elianto","#f73b6a7A","-1","-1","1","0","[]","0","0","3","","","","","","","",""
"pit-trial","71","580914","0.0-2.0-14.2-2.2","battery-v0.2","","""event"",""trial"",""time""
""fullscreenenter"",""1"",""2676""
","
","
","""event"",""trial"",""time""
""fullscreenenter"",""1"",""2676""
","
","","","-1","","","24","10849","5002","&#9826;","elianto","#f73b6a7A","-1","-1","1","0","[]","0","0","3","","","","","","","",""
"pit-trial","72","585783","0.0-2.0-14.2-3.2","battery-v0.2","","""event"",""trial"",""time""
""fullscreenenter"",""1"",""2676""
","
","
","""event"",""trial"",""time""
""fullscreenenter"",""1"",""2676""
","
","","","-1","","","24","10849","5002","&#9826;","elianto","#f73b6a7A","-1","-1","1","-10","[]","0","0","3","","","","","","","",""
"pit-trial","73","590641","0.0-2.0-14.2-4.2","battery-v0.2","","""event"",""trial"",""time""
""fullscreenenter"",""1"",""2676""
","
","
","""event"",""trial"",""time""
""fullscreenenter"",""1"",""2676""
","
","","","-1","","","24","10849","5002","&#9826;","elianto","#f73b6a7A","-1","-1","1","0","[]","0","0","3","","","","","","","",""
"pit-trial","74","595504","0.0-2.0-14.3-0.3","battery-v0.2","","""event"",""trial"",""time""
""fullscreenenter"",""1"",""2676""
","
","
","""event"",""trial"",""time""
""fullscreenenter"",""1"",""2676""
","
","","","-1","","","24","10849","5002","&#9826;","elianto","#f73b6a7A","-1","-1","1","0","[]","0","0","3","","","","","","","",""
"pit-trial","75","600370","0.0-2.0-14.3-1.3","battery-v0.2","","""event"",""trial"",""time""
""fullscreenenter"",""1"",""2676""
","
","
","""event"",""trial"",""time""
""fullscreenenter"",""1"",""2676""
","
","","","-1","","","24","10849","5002","&#9826;","elianto","#f73b6a7A","-1","-1","1","0","[]","0","0","3","","","","","","","",""
"pit-trial","76","605239","0.0-2.0-14.3-2.3","battery-v0.2","","""event"",""trial"",""time""
""fullscreenenter"",""1"",""2676""
","
","
","""event"",""trial"",""time""
""fullscreenenter"",""1"",""2676""
","
","","","-1","","","24","10849","5002","&#9826;","elianto","#f73b6a7A","-1","-1","1","0","[]","0","0","3","","","","","","","",""
"pit-trial","77","610104","0.0-2.0-14.3-3.3","battery-v0.2","","""event"",""trial"",""time""
""fullscreenenter"",""1"",""2676""
","
","
","""event"",""trial"",""time""
""fullscreenenter"",""1"",""2676""
","
","","","-1","","","24","10849","5002","&#9826;","elianto","#f73b6a7A","-1","-1","1","-10","[]","0","0","3","","","","","","","",""
"pit-trial","78","614973","0.0-2.0-14.3-4.3","battery-v0.2","","""event"",""trial"",""time""
""fullscreenenter"",""1"",""2676""
","
","
","""event"",""trial"",""time""
""fullscreenenter"",""1"",""2676""
","
","","","-1","","","24","10849","5002","&#9826;","elianto","#f73b6a7A","-1","-1","1","0","[]","0","0","3","","","","","","","",""
"call-function","79","614975","0.0-2.0-15.0","battery-v0.2","","""event"",""trial"",""time""
""fullscreenenter"",""1"",""2676""
","
","
","""event"",""trial"",""time""
""fullscreenenter"",""1"",""2676""
","
","","","","","","","","","","","","","","","","","","","","","","","","","","",""
"pit-instructions","80","639092","0.0-2.0-16.0","battery-v0.2","","""event"",""trial"",""time""
""fullscreenenter"",""1"",""2676""
","
","
","""event"",""trial"",""time""
""fullscreenenter"",""1"",""2676""
","
","","[{""page_index"":0,""viewing_time"":6516.599999904633},{""page_index"":1,""viewing_time"":9206.700000047684},{""page_index"":2,""viewing_time"":4138},{""page_index"":3,""viewing_time"":4251.5}]","24113.400000095367","","","","","","","","","","","","","","","","","","","","","","","",""
"pit-trial","81","642474","0.0-2.0-17.0-0.0","battery-v0.2","","""event"",""trial"",""time""
""fullscreenenter"",""1"",""2676""
","
","
","""event"",""trial"",""time""
""fullscreenenter"",""1"",""2676""
","
","","","514.9000000953674","","","24","10849","5002","&#9789;","elianto","#f73b6a7A"," "," ","1","0","[1367.5]","1","0","4","","","","","","","",""
"pit-trial","82","645744","0.0-2.0-17.0-1.0","battery-v0.2","","""event"",""trial"",""time""
""fullscreenenter"",""1"",""2676""
","
","
","""event"",""trial"",""time""
""fullscreenenter"",""1"",""2676""
","
","","","400.69999980926514","","","24","10849","5002","&#9789;","elianto","#f73b6a7A"," "," ","1","0","[1254.3999998569489]","1","0","4","","","","","","","",""
"pit-trial","83","648955","0.0-2.0-17.0-2.0","battery-v0.2","","""event"",""trial"",""time""
""fullscreenenter"",""1"",""2676""
","
","
","""event"",""trial"",""time""
""fullscreenenter"",""1"",""2676""
","
","","","347.09999990463257","","","24","10849","5002","&#9789;","elianto","#f73b6a7A"," "," ","1","0","[1199.5]","1","0","4","","","","","","","",""
"pit-trial","84","652265","0.0-2.0-17.0-3.0","battery-v0.2","","""event"",""trial"",""time""
""fullscreenenter"",""1"",""2676""
","
","
","""event"",""trial"",""time""
""fullscreenenter"",""1"",""2676""
","
","","","431.40000009536743","","","24","10849","5002","&#9789;","elianto","#f73b6a7A"," "," ","1","-10","[1286.7000000476837]","1","0","4","","","","","","","",""
"pit-trial","85","655584","0.0-2.0-17.0-4.0","battery-v0.2","","""event"",""trial"",""time""
""fullscreenenter"",""1"",""2676""
","
","
","""event"",""trial"",""time""
""fullscreenenter"",""1"",""2676""
","
","","","443.40000009536743","","","24","10849","5002","&#9789;","elianto","#f73b6a7A"," "," ","1","0","[1305.2999999523163]","1","0","4","","","","","","","",""
"pit-trial","86","658755","0.0-2.0-17.1-0.1","battery-v0.2","","""event"",""trial"",""time""
""fullscreenenter"",""1"",""2676""
","
","
","""event"",""trial"",""time""
""fullscreenenter"",""1"",""2676""
","
","","","302.2999999523163","","","24","10849","5002","&#9789;","elianto","#f73b6a7A"," "," ","1","0","[1159.7000000476837]","1","0","4","","","","","","","",""
"pit-trial","87","661902","0.0-2.0-17.1-1.1","battery-v0.2","","""event"",""trial"",""time""
""fullscreenenter"",""1"",""2676""
","
","
","""event"",""trial"",""time""
""fullscreenenter"",""1"",""2676""
","
","","","278","","","24","10849","5002","&#9789;","elianto","#f73b6a7A"," "," ","1","0","[1131.4000000953674]","1","0","4","","","","","","","",""
"pit-trial","88","665075","0.0-2.0-17.1-2.1","battery-v0.2","","""event"",""trial"",""time""
""fullscreenenter"",""1"",""2676""
","
","
","""event"",""trial"",""time""
""fullscreenenter"",""1"",""2676""
","
","","","306.59999990463257","","","24","10849","5002","&#9789;","elianto","#f73b6a7A"," "," ","1","0","[1162.7000000476837]","1","0","4","","","","","","","",""
"pit-trial","89","668205","0.0-2.0-17.1-3.1","battery-v0.2","","""event"",""trial"",""time""
""fullscreenenter"",""1"",""2676""
","
","
","""event"",""trial"",""time""
""fullscreenenter"",""1"",""2676""
","
","","","259.5","","","24","10849","5002","&#9789;","elianto","#f73b6a7A"," "," ","1","-10","[1111.0999999046326]","1","0","4","","","","","","","",""
"pit-trial","90","671323","0.0-2.0-17.1-4.1","battery-v0.2","","""event"",""trial"",""time""
""fullscreenenter"",""1"",""2676""
","
","
","""event"",""trial"",""time""
""fullscreenenter"",""1"",""2676""
","
","","","255.5","","","24","10849","5002","&#9789;","elianto","#f73b6a7A"," "," ","1","0","[1107.7999999523163]","1","0","4","","","","","","","",""
"pit-trial","91","674467","0.0-2.0-17.2-0.2","battery-v0.2","","""event"",""trial"",""time""
""fullscreenenter"",""1"",""2676""
","
","
","""event"",""trial"",""time""
""fullscreenenter"",""1"",""2676""
","
","","","285.5","","","24","10849","5002","&#9789;","elianto","#f73b6a7A"," "," ","1","0","[1135.6000001430511]","1","0","4","","","","","","","",""
"pit-trial","92","677617","0.0-2.0-17.2-1.2","battery-v0.2","","""event"",""trial"",""time""
""fullscreenenter"",""1"",""2676""
","
","
","""event"",""trial"",""time""
""fullscreenenter"",""1"",""2676""
","
","","","293.60000014305115","","","24","10849","5002","&#9789;","elianto","#f73b6a7A"," "," ","1","0","[1147.7000000476837]","1","0","4","","","","","","","",""
"pit-trial","93","680775","0.0-2.0-17.2-2.2","battery-v0.2","","""event"",""trial"",""time""
""fullscreenenter"",""1"",""2676""
","
","
","""event"",""trial"",""time""
""fullscreenenter"",""1"",""2676""
","
","","","294.80000019073486","","","24","10849","5002","&#9789;","elianto","#f73b6a7A"," "," ","1","0","[1150]","1","0","4","","","","","","","",""
"pit-trial","94","683826","0.0-2.0-17.2-3.2","battery-v0.2","","""event"",""trial"",""time""
""fullscreenenter"",""1"",""2676""
","
","
","""event"",""trial"",""time""
""fullscreenenter"",""1"",""2676""
","
","","","183.29999995231628","","","24","10849","5002","&#9789;","elianto","#f73b6a7A"," "," ","1","-10","[1040.9000000953674]","1","0","4","","","","","","","",""
"pit-trial","95","686884","0.0-2.0-17.2-4.2","battery-v0.2","","""event"",""trial"",""time""
""fullscreenenter"",""1"",""2676""
","
","
","""event"",""trial"",""time""
""fullscreenenter"",""1"",""2676""
","
","","","191.90000009536743","","","24","10849","5002","&#9789;","elianto","#f73b6a7A"," "," ","1","0","[1050]","1","0","4","","","","","","","",""
"pit-trial","96","690010","0.0-2.0-17.3-0.3","battery-v0.2","","""event"",""trial"",""time""
""fullscreenenter"",""1"",""2676""
","
","
","""event"",""trial"",""time""
""fullscreenenter"",""1"",""2676""
","
","","","271.2999999523163","","","24","10849","5002","&#9789;","elianto","#f73b6a7A"," "," ","1","0","[1121.5]","1","0","4","","","","","","","",""
"pit-trial","97","693152","0.0-2.0-17.3-1.3","battery-v0.2","","""event"",""trial"",""time""
""fullscreenenter"",""1"",""2676""
","
","
","""event"",""trial"",""time""
""fullscreenenter"",""1"",""2676""
","
","","","279.89999985694885","","","24","10849","5002","&#9789;","elianto","#f73b6a7A"," "," ","1","0","[1135.7000000476837]","1","0","4","","","","","","","",""
"pit-trial","98","696249","0.0-2.0-17.3-2.3","battery-v0.2","","""event"",""trial"",""time""
""fullscreenenter"",""1"",""2676""
","
","
","""event"",""trial"",""time""
""fullscreenenter"",""1"",""2676""
","
","","","235.39999985694885","","","24","10849","5002","&#9789;","elianto","#f73b6a7A"," "," ","1","0","[1086.6000001430511]","1","0","4","","","","","","","",""
"pit-trial","99","699534","0.0-2.0-17.3-3.3","battery-v0.2","","""event"",""trial"",""time""
""fullscreenenter"",""1"",""2676""
","
","
","""event"",""trial"",""time""
""fullscreenenter"",""1"",""2676""
","
","","","415.59999990463257","","","24","10849","5002","&#9789;","elianto","#f73b6a7A"," "," ","1","-10","[1269.7000000476837]","1","0","4","","","","","","","",""
"pit-trial","100","702606","0.0-2.0-17.3-4.3","battery-v0.2","","""event"",""trial"",""time""
""fullscreenenter"",""1"",""2676""
","
","
","""event"",""trial"",""time""
""fullscreenenter"",""1"",""2676""
","
","","","217.5","","","24","10849","5002","&#9789;","elianto","#f73b6a7A"," "," ","1","0","[1068.5]","1","0","4","","","","","","","",""
"call-function","101","702609","0.0-2.0-18.0","battery-v0.2","","""event"",""trial"",""time""
""fullscreenenter"",""1"",""2676""
","
","
","""event"",""trial"",""time""
""fullscreenenter"",""1"",""2676""
","
","","","","","","","","","","","","","","","","","","","","","","","","","","",""
"pit-instructions","102","770500","0.0-2.0-19.0","battery-v0.2","","""event"",""trial"",""time""
""fullscreenenter"",""1"",""2676""
","
","
","""event"",""trial"",""time""
""fullscreenenter"",""1"",""2676""
","
","","[{""page_index"":0,""viewing_time"":6538.600000143051},{""page_index"":1,""viewing_time"":7070.399999856949},{""page_index"":2,""viewing_time"":13191.5},{""page_index"":3,""viewing_time"":7159.700000047684},{""page_index"":4,""viewing_time"":7926},{""page_index"":5,""viewing_time"":8433.900000095367},{""page_index"":6,""viewing_time"":7983.5},{""page_index"":7,""viewing_time"":5812.599999904633},{""page_index"":8,""viewing_time"":3773.2999999523163}]","67890.20000004768","","","","","","","","","","","","","","","","","","","","","","","",""
"pit-comprehension","103","775290","0.0-2.0-20.0-0.0","battery-v0.2","","""event"",""trial"",""time""
""fullscreenenter"",""1"",""2676""
","
","
","""event"",""trial"",""time""
""fullscreenenter"",""1"",""2676""
","
","","","4784.900000095367","[""SPACE""]","0","24","10849","5002","","","","","","","","","","","","","","","","","","",""
"pit-instructions","104","778426","0.0-2.0-20.0-1.0","battery-v0.2","","""event"",""trial"",""time""
""fullscreenenter"",""1"",""2676""
","
","
","""event"",""trial"",""time""
""fullscreenenter"",""1"",""2676""
","
","","[{""page_index"":0,""viewing_time"":3088}]","3088.2999999523163","","","","","","","","","","","","","","","","","","","","","","","",""
"pit-comprehension","105","783985","0.0-2.0-21.0-0.0","battery-v0.2","","""event"",""trial"",""time""
""fullscreenenter"",""1"",""2676""
","
","
","""event"",""trial"",""time""
""fullscreenenter"",""1"",""2676""
","
","","","5555","[""10""]","0","24","10849","5002","","","","","","","","","","","","","","","","","","",""
"pit-instructions","106","785727","0.0-2.0-21.0-1.0","battery-v0.2","","""event"",""trial"",""time""
""fullscreenenter"",""1"",""2676""
","
","
","""event"",""trial"",""time""
""fullscreenenter"",""1"",""2676""
","
","","[{""page_index"":0,""viewing_time"":1710}]","1710.4000000953674","","","","","","","","","","","","","","","","","","","","","","","",""
"pit-comprehension","107","792189","0.0-2.0-22.0-0.0","battery-v0.2","","""event"",""trial"",""time""
""fullscreenenter"",""1"",""2676""
","
","
","""event"",""trial"",""time""
""fullscreenenter"",""1"",""2676""
","
","","","6459.299999952316","[""0""]","0","24","10849","5002","","","","","","","","","","","","","","","","","","",""
"pit-instructions","108","794252","0.0-2.0-22.0-1.0","battery-v0.2","","""event"",""trial"",""time""
""fullscreenenter"",""1"",""2676""
","
","
","""event"",""trial"",""time""
""fullscreenenter"",""1"",""2676""
","
","","[{""page_index"":0,""viewing_time"":2011.7000000476837}]","2012.1000001430511","","","","","","","","","","","","","","","","","","","","","","","",""
"pit-comprehension","109","802664","0.0-2.0-23.0-0.0","battery-v0.2","","""event"",""trial"",""time""
""fullscreenenter"",""1"",""2676""
","
","
","""event"",""trial"",""time""
""fullscreenenter"",""1"",""2676""
","
","","","8408.199999809265","[""True""]","0","24","10849","5002","","","","","","","","","","","","","","","","","","",""
"pit-instructions","110","804906","0.0-2.0-23.0-1.0","battery-v0.2","","""event"",""trial"",""time""
""fullscreenenter"",""1"",""2676""
","
","
","""event"",""trial"",""time""
""fullscreenenter"",""1"",""2676""
","
","","[{""page_index"":0,""viewing_time"":2213}]","2213.2999999523163","","","","","","","","","","","","","","","","","","","","","","","",""
"pit-comprehension","111","812286","0.0-2.0-24.0-0.0","battery-v0.2","","""event"",""trial"",""time""
""fullscreenenter"",""1"",""2676""
","
","
","""event"",""trial"",""time""
""fullscreenenter"",""1"",""2676""
","
","","","7376.900000095367","[""True""]","0","24","10849","5002","","","","","","","","","","","","","","","","","","",""
"pit-instructions","112","814190","0.0-2.0-24.0-1.0","battery-v0.2","","""event"",""trial"",""time""
""fullscreenenter"",""1"",""2676""
","
","
","""event"",""trial"",""time""
""fullscreenenter"",""1"",""2676""
","
","","[{""page_index"":0,""viewing_time"":1869.6000001430511}]","1869.9000000953674","","","","","","","","","","","","","","","","","","","","","","","",""
"pit-comprehension","113","820609","0.0-2.0-25.0-0.0","battery-v0.2","","""event"",""trial"",""time""
""fullscreenenter"",""1"",""2676""
","
","
","""event"",""trial"",""time""
""fullscreenenter"",""1"",""2676""
","
","","","6416.700000047684","[""True""]","0","24","10849","5002","","","","","","","","","","","","","","","","","","",""
"pit-instructions","114","823494","0.0-2.0-25.0-1.0","battery-v0.2","","""event"",""trial"",""time""
""fullscreenenter"",""1"",""2676""
","
","
","""event"",""trial"",""time""
""fullscreenenter"",""1"",""2676""
","
","","[{""page_index"":0,""viewing_time"":2846.5}]","2846.9000000953674","","","","","","","","","","","","","","","","","","","","","","","",""
"pit-comprehension","115","828535","0.0-2.0-26.0-0.0","battery-v0.2","","""event"",""trial"",""time""
""fullscreenenter"",""1"",""2676""
","
","
","""event"",""trial"",""time""
""fullscreenenter"",""1"",""2676""
","
","","","5037.300000190735","[""False""]","0","24","10849","5002","","","","","","","","","","","","","","","","","","",""
"pit-instructions","116","830009","0.0-2.0-26.0-1.0","battery-v0.2","","""event"",""trial"",""time""
""fullscreenenter"",""1"",""2676""
","
","
","""event"",""trial"",""time""
""fullscreenenter"",""1"",""2676""
","
","","[{""page_index"":0,""viewing_time"":1444.0999999046326}]","1444.3999998569489","","","","","","","","","","","","","","","","","","","","","","","",""
"pit-instructions","117","847665","0.0-3.0","battery-v0.2","","""event"",""trial"",""time""
""fullscreenenter"",""1"",""2676""
","
","
","""event"",""trial"",""time""
""fullscreenenter"",""1"",""2676""
","
","","[{""page_index"":0,""viewing_time"":3940.9000000953674},{""page_index"":1,""viewing_time"":6297.899999856949},{""page_index"":2,""viewing_time"":7415.100000143051}]","17654.400000095367","","","","","","","","","","","","","","","","","","","","","","","",""
"pit-trial","118","851211","0.0-4.0","battery-v0.2","","""event"",""trial"",""time""
""fullscreenenter"",""1"",""2676""
","
","
","""event"",""trial"",""time""
""fullscreenenter"",""1"",""2676""
","
","","","673.2999999523163","","","24","10849","5002","&#9752;","elianto","#f73b6a7A"," "," ","1","0","[1532.6999998092651]","1","1","","","10849","1","3","3","lose","go","0"
"pit-trial","119","854821","0.0-5.0","battery-v0.2","","""event"",""trial"",""time""
""fullscreenenter"",""1"",""2676""
","
","
","""event"",""trial"",""time""
""fullscreenenter"",""1"",""2676""
","
","","","741.5","","","24","10849","5002","&#9733;","elianto","#3366ff99","-1"," ","0","0","[1594]","1","1","","","10849","2","2","2","win","no-go","0"
"pit-trial","120","858381","0.0-6.0","battery-v0.2","","""event"",""trial"",""time""
""fullscreenenter"",""1"",""2676""
","
","
","""event"",""trial"",""time""
""fullscreenenter"",""1"",""2676""
","
","","","692.8999998569489","","","24","10849","5002","&#9728;","elianto","#f73b6a7A","-1"," ","0","-10","[1549.2999999523163]","1","1","","","10849","3","0","4","lose","no-go","0"
"pit-trial","121","861961","0.0-7.0","battery-v0.2","","""event"",""trial"",""time""
""fullscreenenter"",""1"",""2676""
","
","
","""event"",""trial"",""time""
""fullscreenenter"",""1"",""2676""
","
","","","713.9000000953674","","","24","10849","5002","&#9730;","elianto","#3366ff99"," "," ","1","0","[1576.3000001907349]","1","1","","","10849","4","1","1","win","go","1"
"pit-trial","122","865601","0.0-8.0","battery-v0.2","","""event"",""trial"",""time""
""fullscreenenter"",""1"",""2676""
","
","
","""event"",""trial"",""time""
""fullscreenenter"",""1"",""2676""
","
","","","770.9000000953674","","","24","10849","5002","&#9733;","elianto","#3366ff99","-1"," ","0","0","[1622.0999999046326]","1","1","","","10849","5","2","2","win","no-go","0"
"pit-trial","123","870481","0.0-9.0","battery-v0.2","","""event"",""trial"",""time""
""fullscreenenter"",""1"",""2676""
","
","
","""event"",""trial"",""time""
""fullscreenenter"",""1"",""2676""
","
","","","-1","","","24","10849","5002","&#9730;","elianto","#3366ff99"," ","-1","0","0","[]","0","1","","","10849","6","1","1","win","go","0"
"pit-trial","124","874571","0.0-10.0","battery-v0.2","","""event"",""trial"",""time""
""fullscreenenter"",""1"",""2676""
","
","
","""event"",""trial"",""time""
""fullscreenenter"",""1"",""2676""
","
","","","1209.7999999523163","","","24","10849","5002","&#9728;","elianto","#f73b6a7A","-1"," ","0","-10","[2069.7999999523163]","1","1","","","10849","7","0","4","lose","no-go","0"
"pit-trial","125","879455","0.0-11.0","battery-v0.2","","""event"",""trial"",""time""
""fullscreenenter"",""1"",""2676""
","
","
","""event"",""trial"",""time""
""fullscreenenter"",""1"",""2676""
","
","","","-1","","","24","10849","5002","&#9752;","elianto","#f73b6a7A"," ","-1","0","-10","[]","0","1","","","10849","8","3","3","lose","go","0"
"pit-trial","126","884192","0.0-12.0","battery-v0.2","","""event"",""trial"",""time""
""fullscreenenter"",""1"",""2676""
","
","
","""event"",""trial"",""time""
""fullscreenenter"",""1"",""2676""
","
","","","1875.6000001430511","","","24","10849","5002","&#9733;","elianto","#3366ff99","-1"," ","0","0","[2728]","1","1","","","10849","9","2","2","win","no-go","0"
"pit-trial","127","887906","0.0-13.0","battery-v0.2","","""event"",""trial"",""time""
""fullscreenenter"",""1"",""2676""
","
","
","""event"",""trial"",""time""
""fullscreenenter"",""1"",""2676""
","
","","","848.5999999046326","","","24","10849","5002","&#9730;","elianto","#3366ff99"," "," ","1","0","[1705.3999998569489]","1","1","","","10849","10","1","1","win","go","1"
"pit-trial","128","892770","0.0-14.0","battery-v0.2","","""event"",""trial"",""time""
""fullscreenenter"",""1"",""2676""
","
","
","""event"",""trial"",""time""
""fullscreenenter"",""1"",""2676""
","
","","","-1","","","24","10849","5002","&#9728;","elianto","#f73b6a7A","-1","-1","1","0","[]","0","1","","","10849","11","0","4","lose","no-go","0"
"pit-trial","129","896639","0.0-15.0","battery-v0.2","","""event"",""trial"",""time""
""fullscreenenter"",""1"",""2676""
","
","
","""event"",""trial"",""time""
""fullscreenenter"",""1"",""2676""
","
","","","1006.5","","","24","10849","5002","&#9752;","elianto","#f73b6a7A"," "," ","1","-10","[1858]","1","1","","","10849","12","3","3","lose","go","1"
"pit-trial","130","900403","0.0-16.0","battery-v0.2","","""event"",""trial"",""time""
""fullscreenenter"",""1"",""2676""
","
","
","""event"",""trial"",""time""
""fullscreenenter"",""1"",""2676""
","
","","","905.2999999523163","","","24","10849","5002","&#9752;","elianto","#f73b6a7A"," "," ","1","0","[1759.7999999523163]","1","1","","","10849","13","3","3","lose","go","0"
"pit-trial","131","905279","0.0-17.0","battery-v0.2","","""event"",""trial"",""time""
""fullscreenenter"",""1"",""2676""
","
","
","""event"",""trial"",""time""
""fullscreenenter"",""1"",""2676""
","
","","","-1","","","24","10849","5002","&#9728;","elianto","#f73b6a7A","-1","-1","1","0","[]","0","1","","","10849","14","0","4","lose","no-go","0"
"pit-trial","132","909535","0.0-18.0","battery-v0.2","","""event"",""trial"",""time""
""fullscreenenter"",""1"",""2676""
","
","
","""event"",""trial"",""time""
""fullscreenenter"",""1"",""2676""
","
","","","1390.3000001907349","","","24","10849","5002","&#9730;","elianto","#3366ff99"," "," ","1","+10","[2240.7999999523163]","1","1","","","10849","15","1","1","win","go","0"
"pit-trial","133","914394","0.0-19.0","battery-v0.2","","""event"",""trial"",""time""
""fullscreenenter"",""1"",""2676""
","
","
","""event"",""trial"",""time""
""fullscreenenter"",""1"",""2676""
","
","","","-1","","","24","10849","5002","&#9733;","elianto","#3366ff99","-1","-1","1","+10","[]","0","1","","","10849","16","2","2","win","no-go","0"
"pit-trial","134","919254","0.0-20.0","battery-v0.2","","""event"",""trial"",""time""
""fullscreenenter"",""1"",""2676""
","
","
","""event"",""trial"",""time""
""fullscreenenter"",""1"",""2676""
","
","","","-1","","","24","10849","5002","&#9728;","elianto","#f73b6a7A","-1","-1","1","0","[]","0","1","","","10849","17","0","4","lose","no-go","0"
"pit-trial","135","923180","0.0-21.0","battery-v0.2","","""event"",""trial"",""time""
""fullscreenenter"",""1"",""2676""
","
","
","""event"",""trial"",""time""
""fullscreenenter"",""1"",""2676""
","
","","","1066","","","24","10849","5002","&#9733;","elianto","#3366ff99","-1"," ","0","0","[1922.8999998569489]","1","1","","","10849","18","2","2","win","no-go","0"
"pit-trial","136","926810","0.0-22.0","battery-v0.2","","""event"",""trial"",""time""
""fullscreenenter"",""1"",""2676""
","
","
","""event"",""trial"",""time""
""fullscreenenter"",""1"",""2676""
","
","","","763.3999998569489","","","24","10849","5002","&#9752;","elianto","#f73b6a7A"," "," ","1","0","[1614.4000000953674]","1","1","","","10849","19","3","3","lose","go","0"
"pit-trial","137","931682","0.0-23.0","battery-v0.2","","""event"",""trial"",""time""
""fullscreenenter"",""1"",""2676""
","
","
","""event"",""trial"",""time""
""fullscreenenter"",""1"",""2676""
","
","","","-1","","","24","10849","5002","&#9730;","elianto","#3366ff99"," ","-1","0","0","[]","0","1","","","10849","20","1","1","win","go","0"
"pit-instructions","138","944520","0.0-24.0","battery-v0.2","","""event"",""trial"",""time""
""fullscreenenter"",""1"",""2676""
","
","
","""event"",""trial"",""time""
""fullscreenenter"",""1"",""2676""
","
","","[{""page_index"":0,""viewing_time"":6115},{""page_index"":1,""viewing_time"":6719.199999809265}]","12834.799999952316","","","","","","","","","","","","","","","","","","","","","","","",""
"pit-trial","139","948353","0.0-25.0","battery-v0.2","","""event"",""trial"",""time""
""fullscreenenter"",""1"",""2676""
","
","
","""event"",""trial"",""time""
""fullscreenenter"",""1"",""2676""
","
","","","952.2000000476837","","","24","10849","5002","f","elianto","#3366ff99"," "," ","1","+10","[1809.0999999046326]","1","2","","","10849","21","1","1","win","go","0"
"pit-trial","140","953213","0.0-26.0","battery-v0.2","","""event"",""trial"",""time""
""fullscreenenter"",""1"",""2676""
","
","
","""event"",""trial"",""time""
""fullscreenenter"",""1"",""2676""
","
","","","-1","","","24","10849","5002","b","elianto","#f73b6a7A"," ","-1","0","0","[]","0","2","","","10849","22","3","3","lose","go","1"
"pit-trial","141","958093","0.0-27.0","battery-v0.2","","""event"",""trial"",""time""
""fullscreenenter"",""1"",""2676""
","
","
","""event"",""trial"",""time""
""fullscreenenter"",""1"",""2676""
","
","","","-1","","","24","10849","5002","n","elianto","#f73b6a7A","-1","-1","1","0","[]","0","2","","","10849","23","0","4","lose","no-go","0"
"pit-trial","142","962532","0.0-28.0","battery-v0.2","","""event"",""trial"",""time""
""fullscreenenter"",""1"",""2676""
","
","
","""event"",""trial"",""time""
""fullscreenenter"",""1"",""2676""
","
","","","1574.7999999523163","","","24","10849","5002","t","elianto","#f73b6a7A","-1"," ","0","0","[2425.7000000476837]","1","2","","","10849","24","2","4","lose","no-go","1"
"pit-trial","143","966172","0.0-29.0","battery-v0.2","","""event"",""trial"",""time""
""fullscreenenter"",""1"",""2676""
","
","
","""event"",""trial"",""time""
""fullscreenenter"",""1"",""2676""
","
","","","770.4000000953674","","","24","10849","5002","f","elianto","#3366ff99"," "," ","1","+10","[1630.9000000953674]","1","2","","","10849","25","1","1","win","go","0"
"pit-trial","144","970423","0.0-30.0","battery-v0.2","","""event"",""trial"",""time""
""fullscreenenter"",""1"",""2676""
","
","
","""event"",""trial"",""time""
""fullscreenenter"",""1"",""2676""
","
","","","1391.5","","","24","10849","5002","t","elianto","#f73b6a7A","-1"," ","0","-10","[2244.600000143051]","1","2","","","10849","26","2","4","lose","no-go","0"
"pit-trial","145","975297","0.0-31.0","battery-v0.2","","""event"",""trial"",""time""
""fullscreenenter"",""1"",""2676""
","
","
","""event"",""trial"",""time""
""fullscreenenter"",""1"",""2676""
","
","","","-1","","","24","10849","5002","b","elianto","#f73b6a7A"," ","-1","0","-10","[]","0","2","","","10849","27","3","3","lose","go","0"
"pit-trial","146","980154","0.0-32.0","battery-v0.2","","""event"",""trial"",""time""
""fullscreenenter"",""1"",""2676""
","
","
","""event"",""trial"",""time""
""fullscreenenter"",""1"",""2676""
","
","","","-1","","","24","10849","5002","n","elianto","#f73b6a7A","-1","-1","1","-10","[]","0","2","","","10849","28","0","4","lose","no-go","1"
"pit-trial","147","983983","0.0-33.0","battery-v0.2","","""event"",""trial"",""time""
""fullscreenenter"",""1"",""2676""
","
","
","""event"",""trial"",""time""
""fullscreenenter"",""1"",""2676""
","
","","","970","","","24","10849","5002","b","elianto","#f73b6a7A"," "," ","1","0","[1821.2000000476837]","1","2","","","10849","29","3","3","lose","go","0"
"pit-trial","148","988846","0.0-34.0","battery-v0.2","","""event"",""trial"",""time""
""fullscreenenter"",""1"",""2676""
","
","
","""event"",""trial"",""time""
""fullscreenenter"",""1"",""2676""
","
","","","-1","","","24","10849","5002","n","elianto","#f73b6a7A","-1","-1","1","0","[]","0","2","","","10849","30","0","4","lose","no-go","0"
"pit-trial","149","993583","0.0-35.0","battery-v0.2","","""event"",""trial"",""time""
""fullscreenenter"",""1"",""2676""
","
","
","""event"",""trial"",""time""
""fullscreenenter"",""1"",""2676""
","
","","","1871","","","24","10849","5002","t","elianto","#f73b6a7A","-1"," ","0","0","[2722.5]","1","2","","","10849","31","2","4","lose","no-go","1"
"pit-trial","150","997032","0.0-36.0","battery-v0.2","","""event"",""trial"",""time""
""fullscreenenter"",""1"",""2676""
","
","
","""event"",""trial"",""time""
""fullscreenenter"",""1"",""2676""
","
","","","589.1000001430511","","","24","10849","5002","f","elianto","#3366ff99"," "," ","1","0","[1440.7000000476837]","1","2","","","10849","32","1","1","win","go","1"
"pit-trial","151","1000618","0.0-37.0","battery-v0.2","","""event"",""trial"",""time""
""fullscreenenter"",""1"",""2676""
","
","
","""event"",""trial"",""time""
""fullscreenenter"",""1"",""2676""
","
","","","715.6999998092651","","","24","10849","5002","b","elianto","#f73b6a7A"," "," ","1","0","[1568.7999999523163]","1","2","","","10849","33","3","3","lose","go","0"
"pit-trial","152","1004082","0.0-38.0","battery-v0.2","","""event"",""trial"",""time""
""fullscreenenter"",""1"",""2676""
","
","
","""event"",""trial"",""time""
""fullscreenenter"",""1"",""2676""
","
","","","604.8999998569489","","","24","10849","5002","t","elianto","#f73b6a7A","-1"," ","0","-10","[1456.7000000476837]","1","2","","","10849","34","2","4","lose","no-go","0"
"pit-trial","153","1008944","0.0-39.0","battery-v0.2","","""event"",""trial"",""time""
""fullscreenenter"",""1"",""2676""
","
","
","""event"",""trial"",""time""
""fullscreenenter"",""1"",""2676""
","
","","","-1","","","24","10849","5002","n","elianto","#f73b6a7A","-1","-1","1","0","[]","0","2","","","10849","35","0","4","lose","no-go","0"
"pit-trial","154","1012374","0.0-40.0","battery-v0.2","","""event"",""trial"",""time""
""fullscreenenter"",""1"",""2676""
","
","
","""event"",""trial"",""time""
""fullscreenenter"",""1"",""2676""
","
","","","567.7999999523163","","","24","10849","5002","f","elianto","#3366ff99"," "," ","1","+10","[1420.1000001430511]","1","2","","","10849","36","1","1","win","go","0"
"pit-trial","155","1016234","0.0-41.0","battery-v0.2","","""event"",""trial"",""time""
""fullscreenenter"",""1"",""2676""
","
","
","""event"",""trial"",""time""
""fullscreenenter"",""1"",""2676""
","
","","","992.2999999523163","","","24","10849","5002","b","elianto","#f73b6a7A"," "," ","1","0","[1849.4000000953674]","1","2","","","10849","37","3","3","lose","go","0"
"pit-trial","156","1019655","0.0-42.0","battery-v0.2","","""event"",""trial"",""time""
""fullscreenenter"",""1"",""2676""
","
","
","""event"",""trial"",""time""
""fullscreenenter"",""1"",""2676""
","
","","","562.2000000476837","","","24","10849","5002","t","elianto","#f73b6a7A","-1"," ","0","-10","[1412.8999998569489]","1","2","","","10849","38","2","4","lose","no-go","0"
"pit-trial","157","1023020","0.0-43.0","battery-v0.2","","""event"",""trial"",""time""
""fullscreenenter"",""1"",""2676""
","
","
","""event"",""trial"",""time""
""fullscreenenter"",""1"",""2676""
","
","","","506.09999990463257","","","24","10849","5002","f","elianto","#3366ff99"," "," ","1","+10","[1358.2999999523163]","1","2","","","10849","39","1","1","win","go","0"
"pit-trial","158","1027882","0.0-44.0","battery-v0.2","","""event"",""trial"",""time""
""fullscreenenter"",""1"",""2676""
","
","
","""event"",""trial"",""time""
""fullscreenenter"",""1"",""2676""
","
","","","-1","","","24","10849","5002","n","elianto","#f73b6a7A","-1","-1","1","0","[]","0","2","","","10849","40","0","4","lose","no-go","0"
"pit-trial","159","1032748","0.0-45.0","battery-v0.2","","""event"",""trial"",""time""
""fullscreenenter"",""1"",""2676""
","
","
","""event"",""trial"",""time""
""fullscreenenter"",""1"",""2676""
","
","","","-1","","","24","10849","5002","n","elianto","#f73b6a7A","-1","-1","1","0","[]","0","2","","","10849","41","0","4","lose","no-go","0"
"pit-trial","160","1036292","0.0-46.0","battery-v0.2","","""event"",""trial"",""time""
""fullscreenenter"",""1"",""2676""
","
","
","""event"",""trial"",""time""
""fullscreenenter"",""1"",""2676""
","
","","","683.3000001907349","","","24","10849","5002","b","elianto","#f73b6a7A"," "," ","1","0","[1533.8999998569489]","1","2","","","10849","42","3","3","lose","go","0"
"pit-trial","161","1041161","0.0-47.0","battery-v0.2","","""event"",""trial"",""time""
""fullscreenenter"",""1"",""2676""
","
","
","""event"",""trial"",""time""
""fullscreenenter"",""1"",""2676""
","
","","","-1","","","24","10849","5002","t","elianto","#f73b6a7A","-1","-1","1","-10","[]","0","2","","","10849","43","2","4","lose","no-go","1"
"pit-trial","162","1044685","0.0-48.0","battery-v0.2","","""event"",""trial"",""time""
""fullscreenenter"",""1"",""2676""
","
","
","""event"",""trial"",""time""
""fullscreenenter"",""1"",""2676""
","
","","","664.5","","","24","10849","5002","f","elianto","#3366ff99"," "," ","1","0","[1515.2000000476837]","1","2","","","10849","44","1","1","win","go","1"
"pit-trial","163","1048100","0.0-49.0","battery-v0.2","","""event"",""trial"",""time""
""fullscreenenter"",""1"",""2676""
","
","
","""event"",""trial"",""time""
""fullscreenenter"",""1"",""2676""
","
","","","544.7999999523163","","","24","10849","5002","b","elianto","#f73b6a7A"," "," ","1","0","[1401.7000000476837]","1","2","","","10849","45","3","3","lose","go","0"
"pit-trial","164","1052960","0.0-50.0","battery-v0.2","","""event"",""trial"",""time""
""fullscreenenter"",""1"",""2676""
","
","
","""event"",""trial"",""time""
""fullscreenenter"",""1"",""2676""
","
","","","-1","","","24","10849","5002","n","elianto","#f73b6a7A","-1","-1","1","-10","[]","0","2","","","10849","46","0","4","lose","no-go","1"
"pit-trial","165","1057011","0.0-51.0","battery-v0.2","","""event"",""trial"",""time""
""fullscreenenter"",""1"",""2676""
","
","
","""event"",""trial"",""time""
""fullscreenenter"",""1"",""2676""
","
","","","1191.0999999046326","","","24","10849","5002","c","elianto","#3366ff99","-1"," ","0","0","[2043.5]","1","2","","","10849","47","4","2","win","no-go","0"
"pit-trial","166","1060756","0.0-52.0","battery-v0.2","","""event"",""trial"",""time""
""fullscreenenter"",""1"",""2676""
","
","
","""event"",""trial"",""time""
""fullscreenenter"",""1"",""2676""
","
","","","887.2000000476837","","","24","10849","5002","t","elianto","#f73b6a7A","-1"," ","0","-10","[1737.7999999523163]","1","2","","","10849","48","2","4","lose","no-go","0"
"pit-trial","167","1064208","0.0-53.0","battery-v0.2","","""event"",""trial"",""time""
""fullscreenenter"",""1"",""2676""
","
","
","""event"",""trial"",""time""
""fullscreenenter"",""1"",""2676""
","
","","","589.3999998569489","","","24","10849","5002","c","elianto","#3366ff99","-1"," ","0","0","[1441.8999998569489]","1","2","","","10849","49","4","2","win","no-go","0"
"pit-trial","168","1067687","0.0-54.0","battery-v0.2","","""event"",""trial"",""time""
""fullscreenenter"",""1"",""2676""
","
","
","""event"",""trial"",""time""
""fullscreenenter"",""1"",""2676""
","
","","","622.8999998569489","","","24","10849","5002","b","elianto","#f73b6a7A"," "," ","1","0","[1474.4000000953674]","1","2","","","10849","50","3","3","lose","go","0"
"pit-trial","169","1071144","0.0-55.0","battery-v0.2","","""event"",""trial"",""time""
""fullscreenenter"",""1"",""2676""
","
","
","""event"",""trial"",""time""
""fullscreenenter"",""1"",""2676""
","
","","","590.8999998569489","","","24","10849","5002","f","elianto","#3366ff99"," "," ","1","+10","[1442.0999999046326]","1","2","","","10849","51","1","1","win","go","0"
"pit-trial","170","1076011","0.0-56.0","battery-v0.2","","""event"",""trial"",""time""
""fullscreenenter"",""1"",""2676""
","
","
","""event"",""trial"",""time""
""fullscreenenter"",""1"",""2676""
","
","","","-1","","","24","10849","5002","n","elianto","#f73b6a7A","-1","-1","1","-10","[]","0","2","","","10849","52","0","4","lose","no-go","1"
"pit-trial","171","1080874","0.0-57.0","battery-v0.2","","""event"",""trial"",""time""
""fullscreenenter"",""1"",""2676""
","
","
","""event"",""trial"",""time""
""fullscreenenter"",""1"",""2676""
","
","","","-1","","","24","10849","5002","n","elianto","#f73b6a7A","-1","-1","1","0","[]","0","2","","","10849","53","0","4","lose","no-go","0"
"pit-trial","172","1085751","0.0-58.0","battery-v0.2","","""event"",""trial"",""time""
""fullscreenenter"",""1"",""2676""
","
","
","""event"",""trial"",""time""
""fullscreenenter"",""1"",""2676""
","
","","","-1","","","24","10849","5002","t","elianto","#f73b6a7A","-1","-1","1","0","[]","0","2","","","10849","54","2","4","lose","no-go","0"
"pit-trial","173","1089221","0.0-59.0","battery-v0.2","","""event"",""trial"",""time""
""fullscreenenter"",""1"",""2676""
","
","
","""event"",""trial"",""time""
""fullscreenenter"",""1"",""2676""
","
","","","613.6999998092651","","","24","10849","5002","f","elianto","#3366ff99"," "," ","1","+10","[1466.1999998092651]","1","2","","","10849","55","1","1","win","go","0"
"pit-trial","174","1094096","0.0-60.0","battery-v0.2","","""event"",""trial"",""time""
""fullscreenenter"",""1"",""2676""
","
","
","""event"",""trial"",""time""
""fullscreenenter"",""1"",""2676""
","
","","","-1","","","24","10849","5002","c","elianto","#3366ff99","-1","-1","1","+10","[]","0","2","","","10849","56","4","2","win","no-go","0"
"pit-trial","175","1097600","0.0-61.0","battery-v0.2","","""event"",""trial"",""time""
""fullscreenenter"",""1"",""2676""
","
","
","""event"",""trial"",""time""
""fullscreenenter"",""1"",""2676""
","
","","","637.2999999523163","","","24","10849","5002","b","elianto","#f73b6a7A"," "," ","1","0","[1496.5999999046326]","1","2","","","10849","57","3","3","lose","go","0"
"pit-trial","176","1102458","0.0-62.0","battery-v0.2","","""event"",""trial"",""time""
""fullscreenenter"",""1"",""2676""
","
","
","""event"",""trial"",""time""
""fullscreenenter"",""1"",""2676""
","
","","","-1","","","24","10849","5002","n","elianto","#f73b6a7A","-1","-1","1","-10","[]","0","2","","","10849","58","0","4","lose","no-go","1"
"pit-trial","177","1105897","0.0-63.0","battery-v0.2","","""event"",""trial"",""time""
""fullscreenenter"",""1"",""2676""
","
","
","""event"",""trial"",""time""
""fullscreenenter"",""1"",""2676""
","
","","","568.5999999046326","","","24","10849","5002","f","elianto","#3366ff99"," "," ","1","0","[1423.2999999523163]","1","2","","","10849","59","1","1","win","go","1"
"pit-trial","178","1110757","0.0-64.0","battery-v0.2","","""event"",""trial"",""time""
""fullscreenenter"",""1"",""2676""
","
","
","""event"",""trial"",""time""
""fullscreenenter"",""1"",""2676""
","
","","","-1","","","24","10849","5002","c","elianto","#3366ff99","-1","-1","1","+10","[]","0","2","","","10849","60","4","2","win","no-go","0"
"pit-trial","179","1114208","0.0-65.0","battery-v0.2","","""event"",""trial"",""time""
""fullscreenenter"",""1"",""2676""
","
","
","""event"",""trial"",""time""
""fullscreenenter"",""1"",""2676""
","
","","","585.6000001430511","","","24","10849","5002","f","elianto","#3366ff99"," "," ","1","0","[1442.7000000476837]","1","2","","","10849","61","1","1","win","go","1"
"pit-trial","180","1118018","0.0-66.0","battery-v0.2","","""event"",""trial"",""time""
""fullscreenenter"",""1"",""2676""
","
","
","""event"",""trial"",""time""
""fullscreenenter"",""1"",""2676""
","
","","","941.7000000476837","","","24","10849","5002","b","elianto","#f73b6a7A"," "," ","1","0","[1798.0999999046326]","1","2","","","10849","62","3","3","lose","go","0"
"pit-trial","181","1122886","0.0-67.0","battery-v0.2","","""event"",""trial"",""time""
""fullscreenenter"",""1"",""2676""
","
","
","""event"",""trial"",""time""
""fullscreenenter"",""1"",""2676""
","
","","","-1","","","24","10849","5002","c","elianto","#3366ff99","-1","-1","1","0","[]","0","2","","","10849","63","4","2","win","no-go","1"
"pit-trial","182","1127738","0.0-68.0","battery-v0.2","","""event"",""trial"",""time""
""fullscreenenter"",""1"",""2676""
","
","
","""event"",""trial"",""time""
""fullscreenenter"",""1"",""2676""
","
","","","-1","","","24","10849","5002","t","elianto","#f73b6a7A","-1","-1","1","0","[]","0","2","","","10849","64","2","4","lose","no-go","0"
"pit-trial","183","1132611","0.0-69.0","battery-v0.2","","""event"",""trial"",""time""
""fullscreenenter"",""1"",""2676""
","
","
","""event"",""trial"",""time""
""fullscreenenter"",""1"",""2676""
","
","","","-1","","","24","10849","5002","c","elianto","#3366ff99","-1","-1","1","0","[]","0","2","","","10849","65","4","2","win","no-go","1"
"pit-trial","184","1136051","0.0-70.0","battery-v0.2","","""event"",""trial"",""time""
""fullscreenenter"",""1"",""2676""
","
","
","""event"",""trial"",""time""
""fullscreenenter"",""1"",""2676""
","
","","","581.5999999046326","","","24","10849","5002","f","elianto","#3366ff99"," "," ","1","+10","[1434.7000000476837]","1","2","","","10849","66","1","1","win","go","0"
"pit-trial","185","1140920","0.0-71.0","battery-v0.2","","""event"",""trial"",""time""
""fullscreenenter"",""1"",""2676""
","
","
","""event"",""trial"",""time""
""fullscreenenter"",""1"",""2676""
","
","","","-1","","","24","10849","5002","t","elianto","#f73b6a7A","-1","-1","1","0","[]","0","2","","","10849","67","2","4","lose","no-go","0"
"pit-trial","186","1144455","0.0-72.0","battery-v0.2","","""event"",""trial"",""time""
""fullscreenenter"",""1"",""2676""
","
","
","""event"",""trial"",""time""
""fullscreenenter"",""1"",""2676""
","
","","","660.7000000476837","","","24","10849","5002","b","elianto","#f73b6a7A"," "," ","1","0","[1516.7000000476837]","1","2","","","10849","68","3","3","lose","go","0"
"pit-trial","187","1148356","0.0-73.0","battery-v0.2","","""event"",""trial"",""time""
""fullscreenenter"",""1"",""2676""
","
","
","""event"",""trial"",""time""
""fullscreenenter"",""1"",""2676""
","
","","","1036.7000000476837","","","24","10849","5002","z","elianto","#3366ff99"," "," ","1","+10","[1890.5]","1","2","","","10849","69","5","1","win","go","0"
"pit-trial","188","1151782","0.0-74.0","battery-v0.2","","""event"",""trial"",""time""
""fullscreenenter"",""1"",""2676""
","
","
","""event"",""trial"",""time""
""fullscreenenter"",""1"",""2676""
","
","","","563.5","","","24","10849","5002","b","elianto","#f73b6a7A"," "," ","1","0","[1418.2999999523163]","1","2","","","10849","70","3","3","lose","go","0"
"pit-trial","189","1156651","0.0-75.0","battery-v0.2","","""event"",""trial"",""time""
""fullscreenenter"",""1"",""2676""
","
","
","""event"",""trial"",""time""
""fullscreenenter"",""1"",""2676""
","
","","","-1","","","24","10849","5002","c","elianto","#3366ff99","-1","-1","1","+10","[]","0","2","","","10849","71","4","2","win","no-go","0"
"pit-trial","190","1160074","0.0-76.0","battery-v0.2","","""event"",""trial"",""time""
""fullscreenenter"",""1"",""2676""
","
","
","""event"",""trial"",""time""
""fullscreenenter"",""1"",""2676""
","
","","","563.9000000953674","","","24","10849","5002","f","elianto","#3366ff99"," "," ","1","+10","[1417.7999999523163]","1","2","","","10849","72","1","1","win","go","0"
"pit-trial","191","1163550","0.0-77.0","battery-v0.2","","""event"",""trial"",""time""
""fullscreenenter"",""1"",""2676""
","
","
","""event"",""trial"",""time""
""fullscreenenter"",""1"",""2676""
","
","","","613.5","","","24","10849","5002","b","elianto","#f73b6a7A"," "," ","1","0","[1466.5]","1","2","","","10849","73","3","3","lose","go","0"
"pit-trial","192","1166988","0.0-78.0","battery-v0.2","","""event"",""trial"",""time""
""fullscreenenter"",""1"",""2676""
","
","
","""event"",""trial"",""time""
""fullscreenenter"",""1"",""2676""
","
","","","581.7000000476837","","","24","10849","5002","f","elianto","#3366ff99"," "," ","1","0","[1433.6999998092651]","1","2","","","10849","74","1","1","win","go","1"
"pit-trial","193","1170352","0.0-79.0","battery-v0.2","","""event"",""trial"",""time""
""fullscreenenter"",""1"",""2676""
","
","
","""event"",""trial"",""time""
""fullscreenenter"",""1"",""2676""
","
","","","502.59999990463257","","","24","10849","5002","z","elianto","#3366ff99"," "," ","1","+10","[1353.5]","1","2","","","10849","75","5","1","win","go","0"
"pit-trial","194","1175228","0.0-80.0","battery-v0.2","","""event"",""trial"",""time""
""fullscreenenter"",""1"",""2676""
","
","
","""event"",""trial"",""time""
""fullscreenenter"",""1"",""2676""
","
","","","-1","","","24","10849","5002","c","elianto","#3366ff99","-1","-1","1","+10","[]","0","2","","","10849","76","4","2","win","no-go","0"
"pit-trial","195","1180090","0.0-81.0","battery-v0.2","","""event"",""trial"",""time""
""fullscreenenter"",""1"",""2676""
","
","
","""event"",""trial"",""time""
""fullscreenenter"",""1"",""2676""
","
","","","-1","","","24","10849","5002","c","elianto","#3366ff99","-1","-1","1","+10","[]","0","2","","","10849","77","4","2","win","no-go","0"
"pit-trial","196","1184958","0.0-82.0","battery-v0.2","","""event"",""trial"",""time""
""fullscreenenter"",""1"",""2676""
","
","
","""event"",""trial"",""time""
""fullscreenenter"",""1"",""2676""
","
","","","-1","","","24","10849","5002","h","elianto","#f73b6a7A","-1","-1","1","-10","[]","0","2","","","10849","78","6","4","lose","no-go","1"
"pit-trial","197","1188532","0.0-83.0","battery-v0.2","","""event"",""trial"",""time""
""fullscreenenter"",""1"",""2676""
","
","
","""event"",""trial"",""time""
""fullscreenenter"",""1"",""2676""
","
","","","713.2999999523163","","","24","10849","5002","b","elianto","#f73b6a7A"," "," ","1","-10","[1563.7999999523163]","1","2","","","10849","79","3","3","lose","go","1"
"pit-trial","198","1192279","0.0-84.0","battery-v0.2","","""event"",""trial"",""time""
""fullscreenenter"",""1"",""2676""
","
","
","""event"",""trial"",""time""
""fullscreenenter"",""1"",""2676""
","
","","","888.2000000476837","","","24","10849","5002","z","elianto","#3366ff99"," "," ","1","+10","[1741.1999998092651]","1","2","","","10849","80","5","1","win","go","0"
"pit-trial","199","1196630","0.0-85.0","battery-v0.2","","""event"",""trial"",""time""
""fullscreenenter"",""1"",""2676""
","
","
","""event"",""trial"",""time""
""fullscreenenter"",""1"",""2676""
","
","","","1481.9000000953674","","","24","10849","5002","y","elianto","#f73b6a7A"," "," ","1","-10","[2337.5999999046326]","1","2","","","10849","81","7","3","lose","go","1"
"pit-trial","200","1200463","0.0-86.0","battery-v0.2","","""event"",""trial"",""time""
""fullscreenenter"",""1"",""2676""
","
","
","""event"",""trial"",""time""
""fullscreenenter"",""1"",""2676""
","
","","","972.4000000953674","","","24","10849","5002","h","elianto","#f73b6a7A","-1"," ","0","-10","[1826.2000000476837]","1","2","","","10849","82","6","4","lose","no-go","0"
"pit-trial","201","1203922","0.0-87.0","battery-v0.2","","""event"",""trial"",""time""
""fullscreenenter"",""1"",""2676""
","
","
","""event"",""trial"",""time""
""fullscreenenter"",""1"",""2676""
","
","","","601.5","","","24","10849","5002","z","elianto","#3366ff99"," "," ","1","+10","[1455]","1","2","","","10849","83","5","1","win","go","0"
"pit-trial","202","1208786","0.0-88.0","battery-v0.2","","""event"",""trial"",""time""
""fullscreenenter"",""1"",""2676""
","
","
","""event"",""trial"",""time""
""fullscreenenter"",""1"",""2676""
","
","","","-1","","","24","10849","5002","c","elianto","#3366ff99","-1","-1","1","+10","[]","0","2","","","10849","84","4","2","win","no-go","0"
"pit-trial","203","1213655","0.0-89.0","battery-v0.2","","""event"",""trial"",""time""
""fullscreenenter"",""1"",""2676""
","
","
","""event"",""trial"",""time""
""fullscreenenter"",""1"",""2676""
","
","","","-1","","","24","10849","5002","y","elianto","#f73b6a7A"," ","-1","0","-10","[]","0","2","","","10849","85","7","3","lose","go","0"
"pit-trial","204","1218514","0.0-90.0","battery-v0.2","","""event"",""trial"",""time""
""fullscreenenter"",""1"",""2676""
","
","
","""event"",""trial"",""time""
""fullscreenenter"",""1"",""2676""
","
","","","-1","","","24","10849","5002","c","elianto","#3366ff99","-1","-1","1","+10","[]","0","2","","","10849","86","4","2","win","no-go","0"
"pit-trial","205","1222045","0.0-91.0","battery-v0.2","","""event"",""trial"",""time""
""fullscreenenter"",""1"",""2676""
","
","
","""event"",""trial"",""time""
""fullscreenenter"",""1"",""2676""
","
","","","675.7000000476837","","","24","10849","5002","z","elianto","#3366ff99"," "," ","1","0","[1527.1000001430511]","1","2","","","10849","87","5","1","win","go","1"
"pit-trial","206","1226187","0.0-92.0","battery-v0.2","","""event"",""trial"",""time""
""fullscreenenter"",""1"",""2676""
","
","
","""event"",""trial"",""time""
""fullscreenenter"",""1"",""2676""
","
","","","1287.7999999523163","","","24","10849","5002","h","elianto","#f73b6a7A","-1"," ","0","0","[2137.9000000953674]","1","2","","","10849","88","6","4","lose","no-go","1"
"pit-trial","207","1230160","0.0-93.0","battery-v0.2","","""event"",""trial"",""time""
""fullscreenenter"",""1"",""2676""
","
","
","""event"",""trial"",""time""
""fullscreenenter"",""1"",""2676""
","
","","","1104.5","","","24","10849","5002","h","elianto","#f73b6a7A","-1"," ","0","-10","[1963.2999999523163]","1","2","","","10849","89","6","4","lose","no-go","0"
"pit-trial","208","1233551","0.0-94.0","battery-v0.2","","""event"",""trial"",""time""
""fullscreenenter"",""1"",""2676""
","
","
","""event"",""trial"",""time""
""fullscreenenter"",""1"",""2676""
","
","","","525.1000001430511","","","24","10849","5002","z","elianto","#3366ff99"," "," ","1","+10","[1376.7999999523163]","1","2","","","10849","90","5","1","win","go","0"
"pit-trial","209","1238415","0.0-95.0","battery-v0.2","","""event"",""trial"",""time""
""fullscreenenter"",""1"",""2676""
","
","
","""event"",""trial"",""time""
""fullscreenenter"",""1"",""2676""
","
","","","-1","","","24","10849","5002","c","elianto","#3366ff99","-1","-1","1","+10","[]","0","2","","","10849","91","4","2","win","no-go","0"
"pit-trial","210","1242322","0.0-96.0","battery-v0.2","","""event"",""trial"",""time""
""fullscreenenter"",""1"",""2676""
","
","
","""event"",""trial"",""time""
""fullscreenenter"",""1"",""2676""
","
","","","1042.2000000476837","","","24","10849","5002","y","elianto","#f73b6a7A"," "," ","1","-10","[1897.0999999046326]","1","2","","","10849","92","7","3","lose","go","1"
"pit-trial","211","1246403","0.0-97.0","battery-v0.2","","""event"",""trial"",""time""
""fullscreenenter"",""1"",""2676""
","
","
","""event"",""trial"",""time""
""fullscreenenter"",""1"",""2676""
","
","","","1208.2000000476837","","","24","10849","5002","r","elianto","#3366ff99","-1"," ","0","0","[2058.4000000953674]","1","2","","","10849","93","8","2","win","no-go","0"
"pit-trial","212","1251268","0.0-98.0","battery-v0.2","","""event"",""trial"",""time""
""fullscreenenter"",""1"",""2676""
","
","
","""event"",""trial"",""time""
""fullscreenenter"",""1"",""2676""
","
","","","-1","","","24","10849","5002","h","elianto","#f73b6a7A","-1","-1","1","0","[]","0","2","","","10849","94","6","4","lose","no-go","0"
"pit-trial","213","1255024","0.0-99.0","battery-v0.2","","""event"",""trial"",""time""
""fullscreenenter"",""1"",""2676""
","
","
","""event"",""trial"",""time""
""fullscreenenter"",""1"",""2676""
","
","","","888.7999999523163","","","24","10849","5002","z","elianto","#3366ff99"," "," ","1","+10","[1745.2999999523163]","1","2","","","10849","95","5","1","win","go","0"
"pit-trial","214","1259898","0.0-100.0","battery-v0.2","","""event"",""trial"",""time""
""fullscreenenter"",""1"",""2676""
","
","
","""event"",""trial"",""time""
""fullscreenenter"",""1"",""2676""
","
","","","-1","","","24","10849","5002","y","elianto","#f73b6a7A"," ","-1","0","-10","[]","0","2","","","10849","96","7","3","lose","go","0"
"pit-trial","215","1263360","0.0-101.0","battery-v0.2","","""event"",""trial"",""time""
""fullscreenenter"",""1"",""2676""
","
","
","""event"",""trial"",""time""
""fullscreenenter"",""1"",""2676""
","
","","","605.6000001430511","","","24","10849","5002","z","elianto","#3366ff99"," "," ","1","+10","[1455.7999999523163]","1","2","","","10849","97","5","1","win","go","0"
"pit-trial","216","1268225","0.0-102.0","battery-v0.2","","""event"",""trial"",""time""
""fullscreenenter"",""1"",""2676""
","
","
","""event"",""trial"",""time""
""fullscreenenter"",""1"",""2676""
","
","","","-1","","","24","10849","5002","r","elianto","#3366ff99","-1","-1","1","+10","[]","0","2","","","10849","98","8","2","win","no-go","0"
"pit-trial","217","1273100","0.0-103.0","battery-v0.2","","""event"",""trial"",""time""
""fullscreenenter"",""1"",""2676""
","
","
","""event"",""trial"",""time""
""fullscreenenter"",""1"",""2676""
","
","","","-1","","","24","10849","5002","h","elianto","#f73b6a7A","-1","-1","1","0","[]","0","2","","","10849","99","6","4","lose","no-go","0"
"pit-trial","218","1276592","0.0-104.0","battery-v0.2","","""event"",""trial"",""time""
""fullscreenenter"",""1"",""2676""
","
","
","""event"",""trial"",""time""
""fullscreenenter"",""1"",""2676""
","
","","","626.6000001430511","","","24","10849","5002","y","elianto","#f73b6a7A"," "," ","1","0","[1481.3000001907349]","1","2","","","10849","100","7","3","lose","go","0"
"pit-trial","219","1281451","0.0-105.0","battery-v0.2","","""event"",""trial"",""time""
""fullscreenenter"",""1"",""2676""
","
","
","""event"",""trial"",""time""
""fullscreenenter"",""1"",""2676""
","
","","","-1","","","24","10849","5002","m","elianto","#3366ff99","-1","-1","1","+10","[]","0","2","","","10849","101","9","2","win","no-go","0"
"pit-trial","220","1284902","0.0-106.0","battery-v0.2","","""event"",""trial"",""time""
""fullscreenenter"",""1"",""2676""
","
","
","""event"",""trial"",""time""
""fullscreenenter"",""1"",""2676""
","
","","","591.8999998569489","","","24","10849","5002","z","elianto","#3366ff99"," "," ","1","+10","[1447]","1","2","","","10849","102","5","1","win","go","0"
"pit-trial","221","1289757","0.0-107.0","battery-v0.2","","""event"",""trial"",""time""
""fullscreenenter"",""1"",""2676""
","
","
","""event"",""trial"",""time""
""fullscreenenter"",""1"",""2676""
","
","","","-1","","","24","10849","5002","h","elianto","#f73b6a7A","-1","-1","1","0","[]","0","2","","","10849","103","6","4","lose","no-go","0"
"pit-trial","222","1294626","0.0-108.0","battery-v0.2","","""event"",""trial"",""time""
""fullscreenenter"",""1"",""2676""
","
","
","""event"",""trial"",""time""
""fullscreenenter"",""1"",""2676""
","
","","","-1","","","24","10849","5002","r","elianto","#3366ff99","-1","-1","1","+10","[]","0","2","","","10849","104","8","2","win","no-go","0"
"pit-trial","223","1299492","0.0-109.0","battery-v0.2","","""event"",""trial"",""time""
""fullscreenenter"",""1"",""2676""
","
","
","""event"",""trial"",""time""
""fullscreenenter"",""1"",""2676""
","
","","","-1","","","24","10849","5002","m","elianto","#3366ff99","-1","-1","1","+10","[]","0","2","","","10849","105","9","2","win","no-go","0"
"pit-trial","224","1304363","0.0-110.0","battery-v0.2","","""event"",""trial"",""time""
""fullscreenenter"",""1"",""2676""
","
","
","""event"",""trial"",""time""
""fullscreenenter"",""1"",""2676""
","
","","","-1","","","24","10849","5002","r","elianto","#3366ff99","-1","-1","1","+10","[]","0","2","","","10849","106","8","2","win","no-go","0"
"pit-trial","225","1309234","0.0-111.0","battery-v0.2","","""event"",""trial"",""time""
""fullscreenenter"",""1"",""2676""
","
","
","""event"",""trial"",""time""
""fullscreenenter"",""1"",""2676""
","
","","","-1","","","24","10849","5002","h","elianto","#f73b6a7A","-1","-1","1","0","[]","0","2","","","10849","107","6","4","lose","no-go","0"
"pit-trial","226","1312689","0.0-112.0","battery-v0.2","","""event"",""trial"",""time""
""fullscreenenter"",""1"",""2676""
","
","
","""event"",""trial"",""time""
""fullscreenenter"",""1"",""2676""
","
","","","597.2999999523163","","","24","10849","5002","z","elianto","#3366ff99"," "," ","1","0","[1448.9000000953674]","1","2","","","10849","108","5","1","win","go","1"
"pit-trial","227","1317548","0.0-113.0","battery-v0.2","","""event"",""trial"",""time""
""fullscreenenter"",""1"",""2676""
","
","
","""event"",""trial"",""time""
""fullscreenenter"",""1"",""2676""
","
","","","-1","","","24","10849","5002","m","elianto","#3366ff99","-1","-1","1","0","[]","0","2","","","10849","109","9","2","win","no-go","1"
"pit-trial","228","1320930","0.0-114.0","battery-v0.2","","""event"",""trial"",""time""
""fullscreenenter"",""1"",""2676""
","
","
","""event"",""trial"",""time""
""fullscreenenter"",""1"",""2676""
","
","","","525.3999998569489","","","24","10849","5002","z","elianto","#3366ff99"," "," ","1","0","[1378.5999999046326]","1","2","","","10849","110","5","1","win","go","1"
"pit-trial","229","1325798","0.0-115.0","battery-v0.2","","""event"",""trial"",""time""
""fullscreenenter"",""1"",""2676""
","
","
","""event"",""trial"",""time""
""fullscreenenter"",""1"",""2676""
","
","","","-1","","","24","10849","5002","h","elianto","#f73b6a7A","-1","-1","1","0","[]","0","2","","","10849","111","6","4","lose","no-go","0"
"pit-trial","230","1330654","0.0-116.0","battery-v0.2","","""event"",""trial"",""time""
""fullscreenenter"",""1"",""2676""
","
","
","""event"",""trial"",""time""
""fullscreenenter"",""1"",""2676""
","
","","","-1","","","24","10849","5002","r","elianto","#3366ff99","-1","-1","1","+10","[]","0","2","","","10849","112","8","2","win","no-go","0"
"pit-trial","231","1335516","0.0-117.0","battery-v0.2","","""event"",""trial"",""time""
""fullscreenenter"",""1"",""2676""
","
","
","""event"",""trial"",""time""
""fullscreenenter"",""1"",""2676""
","
","","","-1","","","24","10849","5002","m","elianto","#3366ff99","-1","-1","1","+10","[]","0","2","","","10849","113","9","2","win","no-go","0"
"pit-trial","232","1338985","0.0-118.0","battery-v0.2","","""event"",""trial"",""time""
""fullscreenenter"",""1"",""2676""
","
","
","""event"",""trial"",""time""
""fullscreenenter"",""1"",""2676""
","
","","","608.5999999046326","","","24","10849","5002","z","elianto","#3366ff99"," "," ","1","+10","[1460.5]","1","2","","","10849","114","5","1","win","go","0"
"pit-trial","233","1342761","0.0-119.0","battery-v0.2","","""event"",""trial"",""time""
""fullscreenenter"",""1"",""2676""
","
","
","""event"",""trial"",""time""
""fullscreenenter"",""1"",""2676""
","
","","","915.0999999046326","","","24","10849","5002","y","elianto","#f73b6a7A"," "," ","1","-10","[1771.7000000476837]","1","2","","","10849","115","7","3","lose","go","1"
"pit-trial","234","1347623","0.0-120.0","battery-v0.2","","""event"",""trial"",""time""
""fullscreenenter"",""1"",""2676""
","
","
","""event"",""trial"",""time""
""fullscreenenter"",""1"",""2676""
","
","","","-1","","","24","10849","5002","r","elianto","#3366ff99","-1","-1","1","0","[]","0","2","","","10849","116","8","2","win","no-go","1"
"pit-trial","235","1351103","0.0-121.0","battery-v0.2","","""event"",""trial"",""time""
""fullscreenenter"",""1"",""2676""
","
","
","""event"",""trial"",""time""
""fullscreenenter"",""1"",""2676""
","
","","","619.7999999523163","","","24","10849","5002","z","elianto","#3366ff99"," "," ","1","+10","[1470.4000000953674]","1","2","","","10849","117","5","1","win","go","0"
"pit-trial","236","1355969","0.0-122.0","battery-v0.2","","""event"",""trial"",""time""
""fullscreenenter"",""1"",""2676""
","
","
","""event"",""trial"",""time""
""fullscreenenter"",""1"",""2676""
","
","","","-1","","","24","10849","5002","m","elianto","#3366ff99","-1","-1","1","+10","[]","0","2","","","10849","118","9","2","win","no-go","0"
"pit-trial","237","1360831","0.0-123.0","battery-v0.2","","""event"",""trial"",""time""
""fullscreenenter"",""1"",""2676""
","
","
","""event"",""trial"",""time""
""fullscreenenter"",""1"",""2676""
","
","","","-1","","","24","10849","5002","h","elianto","#f73b6a7A","-1","-1","1","-10","[]","0","2","","","10849","119","6","4","lose","no-go","1"
"pit-trial","238","1365692","0.0-124.0","battery-v0.2","","""event"",""trial"",""time""
""fullscreenenter"",""1"",""2676""
","
","
","""event"",""trial"",""time""
""fullscreenenter"",""1"",""2676""
","
","","","-1","","","24","10849","5002","r","elianto","#3366ff99","-1","-1","1","+10","[]","0","2","","","10849","120","8","2","win","no-go","0"
"pit-trial","239","1370555","0.0-125.0","battery-v0.2","","""event"",""trial"",""time""
""fullscreenenter"",""1"",""2676""
","
","
","""event"",""trial"",""time""
""fullscreenenter"",""1"",""2676""
","
","","","-1","","","24","10849","5002","r","elianto","#3366ff99","-1","-1","1","0","[]","0","2","","","10849","121","8","2","win","no-go","1"
"pit-trial","240","1374319","0.0-126.0","battery-v0.2","","""event"",""trial"",""time""
""fullscreenenter"",""1"",""2676""
","
","
","""event"",""trial"",""time""
""fullscreenenter"",""1"",""2676""
","
","","","908.5","","","24","10849","5002","z","elianto","#3366ff99"," "," ","1","+10","[1759.3999998569489]","1","2","","","10849","122","5","1","win","go","0"
"pit-trial","241","1378328","0.0-127.0","battery-v0.2","","""event"",""trial"",""time""
""fullscreenenter"",""1"",""2676""
","
","
","""event"",""trial"",""time""
""fullscreenenter"",""1"",""2676""
","
","","","1149.4000000953674","","","24","10849","5002","y","elianto","#f73b6a7A"," "," ","1","-10","[2001.7999999523163]","1","2","","","10849","123","7","3","lose","go","1"
"pit-trial","242","1383185","0.0-128.0","battery-v0.2","","""event"",""trial"",""time""
""fullscreenenter"",""1"",""2676""
","
","
","""event"",""trial"",""time""
""fullscreenenter"",""1"",""2676""
","
","","","-1","","","24","10849","5002","m","elianto","#3366ff99","-1","-1","1","+10","[]","0","2","","","10849","124","9","2","win","no-go","0"
"pit-trial","243","1388052","0.0-129.0","battery-v0.2","","""event"",""trial"",""time""
""fullscreenenter"",""1"",""2676""
","
","
","""event"",""trial"",""time""
""fullscreenenter"",""1"",""2676""
","
","","","-1","","","24","10849","5002","h","elianto","#f73b6a7A","-1","-1","1","0","[]","0","2","","","10849","125","6","4","lose","no-go","0"
"pit-trial","244","1392914","0.0-130.0","battery-v0.2","","""event"",""trial"",""time""
""fullscreenenter"",""1"",""2676""
","
","
","""event"",""trial"",""time""
""fullscreenenter"",""1"",""2676""
","
","","","-1","","","24","10849","5002","r","elianto","#3366ff99","-1","-1","1","+10","[]","0","2","","","10849","126","8","2","win","no-go","0"
"pit-trial","245","1397785","0.0-131.0","battery-v0.2","","""event"",""trial"",""time""
""fullscreenenter"",""1"",""2676""
","
","
","""event"",""trial"",""time""
""fullscreenenter"",""1"",""2676""
","
","","","-1","","","24","10849","5002","m","elianto","#3366ff99","-1","-1","1","+10","[]","0","2","","","10849","127","9","2","win","no-go","0"
"pit-trial","246","1402648","0.0-132.0","battery-v0.2","","""event"",""trial"",""time""
""fullscreenenter"",""1"",""2676""
","
","
","""event"",""trial"",""time""
""fullscreenenter"",""1"",""2676""
","
","","","-1","","","24","10849","5002","y","elianto","#f73b6a7A"," ","-1","0","-10","[]","0","2","","","10849","128","7","3","lose","go","0"
"pit-trial","247","1407510","0.0-133.0","battery-v0.2","","""event"",""trial"",""time""
""fullscreenenter"",""1"",""2676""
","
","
","""event"",""trial"",""time""
""fullscreenenter"",""1"",""2676""
","
","","","-1","","","24","10849","5002","m","elianto","#3366ff99","-1","-1","1","0","[]","0","2","","","10849","129","9","2","win","no-go","1"
"pit-trial","248","1412373","0.0-134.0","battery-v0.2","","""event"",""trial"",""time""
""fullscreenenter"",""1"",""2676""
","
","
","""event"",""trial"",""time""
""fullscreenenter"",""1"",""2676""
","
","","","-1","","","24","10849","5002","h","elianto","#f73b6a7A","-1","-1","1","0","[]","0","2","","","10849","130","6","4","lose","no-go","0"
"pit-trial","249","1417233","0.0-135.0","battery-v0.2","","""event"",""trial"",""time""
""fullscreenenter"",""1"",""2676""
","
","
","""event"",""trial"",""time""
""fullscreenenter"",""1"",""2676""
","
","","","-1","","","24","10849","5002","r","elianto","#3366ff99","-1","-1","1","+10","[]","0","2","","","10849","131","8","2","win","no-go","0"
"pit-trial","250","1422100","0.0-136.0","battery-v0.2","","""event"",""trial"",""time""
""fullscreenenter"",""1"",""2676""
","
","
","""event"",""trial"",""time""
""fullscreenenter"",""1"",""2676""
","
","","","-1","","","24","10849","5002","y","elianto","#f73b6a7A"," ","-1","0","-10","[]","0","2","","","10849","132","7","3","lose","go","0"
"pit-trial","251","1426964","0.0-137.0","battery-v0.2","","""event"",""trial"",""time""
""fullscreenenter"",""1"",""2676""
","
","
","""event"",""trial"",""time""
""fullscreenenter"",""1"",""2676""
","
","","","-1","","","24","10849","5002","r","elianto","#3366ff99","-1","-1","1","+10","[]","0","2","","","10849","133","8","2","win","no-go","0"
"pit-trial","252","1431828","0.0-138.0","battery-v0.2","","""event"",""trial"",""time""
""fullscreenenter"",""1"",""2676""
","
","
","""event"",""trial"",""time""
""fullscreenenter"",""1"",""2676""
","
","","","-1","","","24","10849","5002","m","elianto","#3366ff99","-1","-1","1","0","[]","0","2","","","10849","134","9","2","win","no-go","1"
"pit-trial","253","1436691","0.0-139.0","battery-v0.2","","""event"",""trial"",""time""
""fullscreenenter"",""1"",""2676""
","
","
","""event"",""trial"",""time""
""fullscreenenter"",""1"",""2676""
","
","","","-1","","","24","10849","5002","h","elianto","#f73b6a7A","-1","-1","1","0","[]","0","2","","","10849","135","6","4","lose","no-go","0"
"pit-trial","254","1440572","0.0-140.0","battery-v0.2","","""event"",""trial"",""time""
""fullscreenenter"",""1"",""2676""
","
","
","""event"",""trial"",""time""
""fullscreenenter"",""1"",""2676""
","
","","","1017.0999999046326","","","24","10849","5002","y","elianto","#f73b6a7A"," "," ","1","0","[1873.1000001430511]","1","2","","","10849","136","7","3","lose","go","0"
"pit-trial","255","1445433","0.0-141.0","battery-v0.2","","""event"",""trial"",""time""
""fullscreenenter"",""1"",""2676""
","
","
","""event"",""trial"",""time""
""fullscreenenter"",""1"",""2676""
","
","","","-1","","","24","10849","5002","h","elianto","#f73b6a7A","-1","-1","1","0","[]","0","2","","","10849","137","6","4","lose","no-go","0"
"pit-trial","256","1450296","0.0-142.0","battery-v0.2","","""event"",""trial"",""time""
""fullscreenenter"",""1"",""2676""
","
","
","""event"",""trial"",""time""
""fullscreenenter"",""1"",""2676""
","
","","","-1","","","24","10849","5002","m","elianto","#3366ff99","-1","-1","1","+10","[]","0","2","","","10849","138","9","2","win","no-go","0"
"pit-trial","257","1455162","0.0-143.0","battery-v0.2","","""event"",""trial"",""time""
""fullscreenenter"",""1"",""2676""
","
","
","""event"",""trial"",""time""
""fullscreenenter"",""1"",""2676""
","
","","","-1","","","24","10849","5002","r","elianto","#3366ff99","-1","-1","1","+10","[]","0","2","","","10849","139","8","2","win","no-go","0"
"pit-trial","258","1460039","0.0-144.0","battery-v0.2","","""event"",""trial"",""time""
""fullscreenenter"",""1"",""2676""
","
","
","""event"",""trial"",""time""
""fullscreenenter"",""1"",""2676""
","
","","","-1","","","24","10849","5002","y","elianto","#f73b6a7A"," ","-1","0","-10","[]","0","2","","","10849","140","7","3","lose","go","0"
"pit-instructions","259","1488545","0.0-145.0","battery-v0.2","","""event"",""trial"",""time""
""fullscreenenter"",""1"",""2676""
","
","
","""event"",""trial"",""time""
""fullscreenenter"",""1"",""2676""
","
","","[{""page_index"":0,""viewing_time"":18811.099999904633},{""page_index"":1,""viewing_time"":9691.600000143051}]","28503.299999952316","","","","","","","","","","","","","","","","","","","","","","","",""
"pit-trial","260","1493414","0.0-146.0","battery-v0.2","","""event"",""trial"",""time""
""fullscreenenter"",""1"",""2676""
","
","
","""event"",""trial"",""time""
""fullscreenenter"",""1"",""2676""
","
","","","-1","","","24","10849","5002","a","elianto","#f73b6a7A"," ","-1","0","-10","[]","0","3","","","10849","141","2","3","lose","go","0"
"pit-trial","261","1498294","0.0-147.0","battery-v0.2","","""event"",""trial"",""time""
""fullscreenenter"",""1"",""2676""
","
","
","""event"",""trial"",""time""
""fullscreenenter"",""1"",""2676""
","
","","","-1","","","24","10849","5002","l","elianto","#3366ff99","-1","-1","1","+10","[]","0","3","","","10849","142","1","2","win","no-go","0"
"pit-trial","262","1503165","0.0-148.0","battery-v0.2","","""event"",""trial"",""time""
""fullscreenenter"",""1"",""2676""
","
","
","""event"",""trial"",""time""
""fullscreenenter"",""1"",""2676""
","
","","","-1","","","24","10849","5002","g","elianto","#f73b6a7A","-1","-1","1","-10","[]","0","3","","","10849","143","3","4","lose","no-go","1"
"pit-trial","263","1508055","0.0-149.0","battery-v0.2","","""event"",""trial"",""time""
""fullscreenenter"",""1"",""2676""
","
","
","""event"",""trial"",""time""
""fullscreenenter"",""1"",""2676""
","
","","","-1","","","24","10849","5002","u","elianto","#f73b6a7A"," ","-1","0","-10","[]","0","3","","","10849","144","0","3","lose","go","0"
"pit-trial","264","1511565","0.0-150.0","battery-v0.2","","""event"",""trial"",""time""
""fullscreenenter"",""1"",""2676""
","
","
","""event"",""trial"",""time""
""fullscreenenter"",""1"",""2676""
","
","","","642.5","","","24","10849","5002","u","elianto","#f73b6a7A"," "," ","1","0","[1493.7999999523163]","1","3","","","10849","145","0","3","lose","go","0"
"pit-trial","265","1516445","0.0-151.0","battery-v0.2","","""event"",""trial"",""time""
""fullscreenenter"",""1"",""2676""
","
","
","""event"",""trial"",""time""
""fullscreenenter"",""1"",""2676""
","
","","","-1","","","24","10849","5002","l","elianto","#3366ff99","-1","-1","1","+10","[]","0","3","","","10849","146","1","2","win","no-go","0"
"pit-trial","266","1519932","0.0-152.0","battery-v0.2","","""event"",""trial"",""time""
""fullscreenenter"",""1"",""2676""
","
","
","""event"",""trial"",""time""
""fullscreenenter"",""1"",""2676""
","
","","","611.7000000476837","","","24","10849","5002","a","elianto","#f73b6a7A"," "," ","1","0","[1468.6000001430511]","1","3","","","10849","147","2","3","lose","go","0"
"pit-trial","267","1523420","0.0-153.0","battery-v0.2","","""event"",""trial"",""time""
""fullscreenenter"",""1"",""2676""
","
","
","""event"",""trial"",""time""
""fullscreenenter"",""1"",""2676""
","
","","","619.8999998569489","","","24","10849","5002","g","elianto","#f73b6a7A","-1"," ","0","-10","[1475.7999999523163]","1","3","","","10849","148","3","4","lose","no-go","0"
