"trial_type","trial_index","time_elapsed","internal_node_id","task_version","subject_id","interactions","blur_events","focus_events","fullscreenenter_events","fullscreenexit_events","success","view_history","rt","responses","num_errors","age","subject","participantId","rune","rune_set","hex","correct","choice","accuracy","outcome","keys","total_keys","block","practice","value","sub","trial","stimulus","robot","valence","action","sham"
"pavlovia","0","27","0.0-0.0","battery-v0.2","","""event"",""trial"",""time""
""focus"",""1"",""2059""
""fullscreenenter"",""1"",""3931""
","
","""event"",""trial"",""time""
""focus"",""1"",""2059""
","""event"",""trial"",""time""
""fullscreenenter"",""1"",""3931""
","
","","","","","","","","","","","","","","","","","","","","","","","","","","",""
"fullscreen","1","4915","0.0-1.0","battery-v0.2","","""event"",""trial"",""time""
""focus"",""1"",""2059""
""fullscreenenter"",""1"",""3931""
","
","""event"",""trial"",""time""
""focus"",""1"",""2059""
","""event"",""trial"",""time""
""fullscreenenter"",""1"",""3931""
","
","true","","","","","","","","","","","","","","","","","","","","","","","","","",""
"pit-instructions","2","9370","0.0-2.0-0.0","battery-v0.2","","""event"",""trial"",""time""
""focus"",""1"",""2059""
""fullscreenenter"",""1"",""3931""
","
","""event"",""trial"",""time""
""focus"",""1"",""2059""
","""event"",""trial"",""time""
""fullscreenenter"",""1"",""3931""
","
","","[{""page_index"":0,""viewing_time"":4449.30000000447}]","4450.20000000298","","","","","","","","","","","","","","","","","","","","","","","",""
"pit-comprehension","3","12815","0.0-2.0-1.0-0.0","battery-v0.2","","""event"",""trial"",""time""
""focus"",""1"",""2059""
""fullscreenenter"",""1"",""3931""
","
","""event"",""trial"",""time""
""focus"",""1"",""2059""
","""event"",""trial"",""time""
""fullscreenenter"",""1"",""3931""
","
","","","3440.0999999940395","[""shark""]","0","19","5832","287","","","","","","","","","","","","","","","","","","",""
"pit-instructions","4","16881","0.0-2.0-1.0-1.0","battery-v0.2","","""event"",""trial"",""time""
""focus"",""1"",""2059""
""fullscreenenter"",""1"",""3931""
","
","""event"",""trial"",""time""
""focus"",""1"",""2059""
","""event"",""trial"",""time""
""fullscreenenter"",""1"",""3931""
","
","","[{""page_index"":0,""viewing_time"":4016.3000000044703}]","4016.8000000044703","","","","","","","","","","","","","","","","","","","","","","","",""
"pit-comprehension","5","18969","0.0-2.0-2.0-0.0","battery-v0.2","","""event"",""trial"",""time""
""focus"",""1"",""2059""
""fullscreenenter"",""1"",""3931""
","
","""event"",""trial"",""time""
""focus"",""1"",""2059""
","""event"",""trial"",""time""
""fullscreenenter"",""1"",""3931""
","
","","","2084.3000000044703","[""tiger""]","0","19","5832","287","","","","","","","","","","","","","","","","","","",""
"pit-instructions","6","20091","0.0-2.0-2.0-1.0","battery-v0.2","","""event"",""trial"",""time""
""focus"",""1"",""2059""
""fullscreenenter"",""1"",""3931""
","
","""event"",""trial"",""time""
""focus"",""1"",""2059""
","""event"",""trial"",""time""
""fullscreenenter"",""1"",""3931""
","
","","[{""page_index"":0,""viewing_time"":1117.3999999985099}]","1118","","","","","","","","","","","","","","","","","","","","","","","",""
"pit-instructions","7","129885","0.0-2.0-3.0","battery-v0.2","","""event"",""trial"",""time""
""focus"",""1"",""2059""
""fullscreenenter"",""1"",""3931""
","
","""event"",""trial"",""time""
""focus"",""1"",""2059""
","""event"",""trial"",""time""
""fullscreenenter"",""1"",""3931""
","
","","[{""page_index"":0,""viewing_time"":8072.29999999702},{""page_index"":1,""viewing_time"":5968.70000000298},{""page_index"":2,""viewing_time"":7752.19999999553},{""page_index"":3,""viewing_time"":5407.5},{""page_index"":4,""viewing_time"":5431.89999999851},{""page_index"":5,""viewing_time"":5069},{""page_index"":6,""viewing_time"":6704.4000000059605},{""page_index"":7,""viewing_time"":6899.39999999851},{""page_index"":8,""viewing_time"":6790.69999999553},{""page_index"":9,""viewing_time"":7782.20000000298},{""page_index"":10,""viewing_time"":9562.10000000149},{""page_index"":11,""viewing_time"":6528.10000000149},{""page_index"":10,""viewing_time"":4321.39999999851},{""page_index"":11,""viewing_time"":1518.1999999955297},{""page_index"":10,""viewing_time"":496.5},{""page_index"":9,""viewing_time"":1321.9000000059605},{""page_index"":10,""viewing_time"":1908.5},{""page_index"":11,""viewing_time"":7084.29999999702},{""page_index"":12,""viewing_time"":6107.10000000149},{""page_index"":13,""viewing_time"":5064.5}]","109791.59999999404","","","","","","","","","","","","","","","","","","","","","","","",""
"pit-trial","8","133443","0.0-2.0-4.0-0.0","battery-v0.2","","""event"",""trial"",""time""
""focus"",""1"",""2059""
""fullscreenenter"",""1"",""3931""
","
","""event"",""trial"",""time""
""focus"",""1"",""2059""
","""event"",""trial"",""time""
""fullscreenenter"",""1"",""3931""
","
","","","694.6999999955297","","","19","5832","287","&#9784;","elianto","#FFFFF080"," "," ","1","&#10004","[1545.2999999970198]","1","0","0","","","","","","","",""
"pit-trial","9","136987","0.0-2.0-4.1-0.1","battery-v0.2","","""event"",""trial"",""time""
""focus"",""1"",""2059""
""fullscreenenter"",""1"",""3931""
","
","""event"",""trial"",""time""
""focus"",""1"",""2059""
","""event"",""trial"",""time""
""fullscreenenter"",""1"",""3931""
","
","","","677.0999999940395","","","19","5832","287","&#9784;","elianto","#FFFFF080"," "," ","1","&#10004","[1528.1000000014901]","1","0","0","","","","","","","",""
"pit-trial","10","140530","0.0-2.0-4.2-0.2","battery-v0.2","","""event"",""trial"",""time""
""focus"",""1"",""2059""
""fullscreenenter"",""1"",""3931""
","
","""event"",""trial"",""time""
""focus"",""1"",""2059""
","""event"",""trial"",""time""
""fullscreenenter"",""1"",""3931""
","
","","","684.6999999955297","","","19","5832","287","&#9784;","elianto","#FFFFF080"," "," ","1","&#10004","[1535.8000000044703]","1","0","0","","","","","","","",""
"pit-trial","11","144035","0.0-2.0-4.3-0.3","battery-v0.2","","""event"",""trial"",""time""
""focus"",""1"",""2059""
""fullscreenenter"",""1"",""3931""
","
","""event"",""trial"",""time""
""focus"",""1"",""2059""
","""event"",""trial"",""time""
""fullscreenenter"",""1"",""3931""
","
","","","643.2000000029802","","","19","5832","287","&#9784;","elianto","#FFFFF080"," "," ","1","&#10004","[1495.3999999985099]","1","0","0","","","","","","","",""
"pit-trial","12","147381","0.0-2.0-4.4-0.4","battery-v0.2","","""event"",""trial"",""time""
""focus"",""1"",""2059""
""fullscreenenter"",""1"",""3931""
","
","""event"",""trial"",""time""
""focus"",""1"",""2059""
","""event"",""trial"",""time""
""fullscreenenter"",""1"",""3931""
","
","","","477.80000000447035","","","19","5832","287","&#9784;","elianto","#FFFFF080"," "," ","1","&#10004","[1329.8000000044703]","1","0","0","","","","","","","",""
"pit-instructions","13","169169","0.0-2.0-5.0","battery-v0.2","","""event"",""trial"",""time""
""focus"",""1"",""2059""
""fullscreenenter"",""1"",""3931""
","
","""event"",""trial"",""time""
""focus"",""1"",""2059""
","""event"",""trial"",""time""
""fullscreenenter"",""1"",""3931""
","
","","[{""page_index"":0,""viewing_time"":4916.39999999851},{""page_index"":1,""viewing_time"":5273.39999999851},{""page_index"":2,""viewing_time"":6325.20000000298},{""page_index"":3,""viewing_time"":5267.0999999940395}]","21782.79999999702","","","","","","","","","","","","","","","","","","","","","","","",""
"pit-trial","14","174056","0.0-2.0-6.0-0.0","battery-v0.2","","""event"",""trial"",""time""
""focus"",""1"",""2059""
""fullscreenenter"",""1"",""3931""
","
","""event"",""trial"",""time""
""focus"",""1"",""2059""
","""event"",""trial"",""time""
""fullscreenenter"",""1"",""3931""
","
","","","-1","","","19","5832","287","&#9854;","elianto","#FFFFF080","-1","-1","1","&#10004","[]","0","0","1","","","","","","","",""
"pit-trial","15","178930","0.0-2.0-6.1-0.1","battery-v0.2","","""event"",""trial"",""time""
""focus"",""1"",""2059""
""fullscreenenter"",""1"",""3931""
","
","""event"",""trial"",""time""
""focus"",""1"",""2059""
","""event"",""trial"",""time""
""fullscreenenter"",""1"",""3931""
","
","","","-1","","","19","5832","287","&#9854;","elianto","#FFFFF080","-1","-1","1","&#10004","[]","0","0","1","","","","","","","",""
"pit-trial","16","183796","0.0-2.0-6.2-0.2","battery-v0.2","","""event"",""trial"",""time""
""focus"",""1"",""2059""
""fullscreenenter"",""1"",""3931""
","
","""event"",""trial"",""time""
""focus"",""1"",""2059""
","""event"",""trial"",""time""
""fullscreenenter"",""1"",""3931""
","
","","","-1","","","19","5832","287","&#9854;","elianto","#FFFFF080","-1","-1","1","&#10004","[]","0","0","1","","","","","","","",""
"pit-trial","17","188678","0.0-2.0-6.3-0.3","battery-v0.2","","""event"",""trial"",""time""
""focus"",""1"",""2059""
""fullscreenenter"",""1"",""3931""
","
","""event"",""trial"",""time""
""focus"",""1"",""2059""
","""event"",""trial"",""time""
""fullscreenenter"",""1"",""3931""
","
","","","-1","","","19","5832","287","&#9854;","elianto","#FFFFF080","-1","-1","1","&#10004","[]","0","0","1","","","","","","","",""
"pit-trial","18","193548","0.0-2.0-6.4-0.4","battery-v0.2","","""event"",""trial"",""time""
""focus"",""1"",""2059""
""fullscreenenter"",""1"",""3931""
","
","""event"",""trial"",""time""
""focus"",""1"",""2059""
","""event"",""trial"",""time""
""fullscreenenter"",""1"",""3931""
","
","","","-1","","","19","5832","287","&#9854;","elianto","#FFFFF080","-1","-1","1","&#10004","[]","0","0","1","","","","","","","",""
"pit-instructions","19","516675","0.0-2.0-7.0","battery-v0.2","","""event"",""trial"",""time""
""focus"",""1"",""2059""
""fullscreenenter"",""1"",""3931""
","
","""event"",""trial"",""time""
""focus"",""1"",""2059""
","""event"",""trial"",""time""
""fullscreenenter"",""1"",""3931""
","
","","[{""page_index"":0,""viewing_time"":6172.19999999553},{""page_index"":1,""viewing_time"":8297},{""page_index"":2,""viewing_time"":16875.80000000447},{""page_index"":3,""viewing_time"":6807.79999999702},{""page_index"":4,""viewing_time"":5108.20000000298},{""page_index"":5,""viewing_time"":77812.19999999553},{""page_index"":6,""viewing_time"":10081.70000000298},{""page_index"":7,""viewing_time"":65554},{""page_index"":8,""viewing_time"":32377.20000000298},{""page_index"":9,""viewing_time"":8468.59999999404},{""page_index"":10,""viewing_time"":32661},{""page_index"":11,""viewing_time"":5364.9000000059605},{""page_index"":12,""viewing_time"":8596.59999999404},{""page_index"":13,""viewing_time"":9422.90000000596},{""page_index"":14,""viewing_time"":7797.0999999940395},{""page_index"":15,""viewing_time"":6998.20000000298},{""page_index"":16,""viewing_time"":7037.5},{""page_index"":17,""viewing_time"":7688.79999999702}]","323122.5","","","","","","","","","","","","","","","","","","","","","","","",""
"pit-trial","20","520172","0.0-2.0-8.0-0.0","battery-v0.2","","""event"",""trial"",""time""
""focus"",""1"",""2059""
""fullscreenenter"",""1"",""3931""
","
","""event"",""trial"",""time""
""focus"",""1"",""2059""
","""event"",""trial"",""time""
""fullscreenenter"",""1"",""3931""
","
","","","626.3999999985099","","","19","5832","287","&#9776;","elianto","#3366ff99"," "," ","1","+10","[1486.7999999970198]","1","0","1","","","","","","","",""
"pit-trial","21","523526","0.0-2.0-8.0-1.0","battery-v0.2","","""event"",""trial"",""time""
""focus"",""1"",""2059""
""fullscreenenter"",""1"",""3931""
","
","""event"",""trial"",""time""
""focus"",""1"",""2059""
","""event"",""trial"",""time""
""fullscreenenter"",""1"",""3931""
","
","","","481.6000000014901","","","19","5832","287","&#9776;","elianto","#3366ff99"," "," ","1","+10","[1333.3999999985099]","1","0","1","","","","","","","",""
"pit-trial","22","526829","0.0-2.0-8.0-2.0","battery-v0.2","","""event"",""trial"",""time""
""focus"",""1"",""2059""
""fullscreenenter"",""1"",""3931""
","
","""event"",""trial"",""time""
""focus"",""1"",""2059""
","""event"",""trial"",""time""
""fullscreenenter"",""1"",""3931""
","
","","","436.69999999552965","","","19","5832","287","&#9776;","elianto","#3366ff99"," "," ","1","+10","[1294.7999999970198]","1","0","1","","","","","","","",""
"pit-trial","23","530084","0.0-2.0-8.0-3.0","battery-v0.2","","""event"",""trial"",""time""
""focus"",""1"",""2059""
""fullscreenenter"",""1"",""3931""
","
","""event"",""trial"",""time""
""focus"",""1"",""2059""
","""event"",""trial"",""time""
""fullscreenenter"",""1"",""3931""
","
","","","379.3999999985099","","","19","5832","287","&#9776;","elianto","#3366ff99"," "," ","1","0","[1234.2000000029802]","1","0","1","","","","","","","",""
"pit-trial","24","533250","0.0-2.0-8.0-4.0","battery-v0.2","","""event"",""trial"",""time""
""focus"",""1"",""2059""
""fullscreenenter"",""1"",""3931""
","
","""event"",""trial"",""time""
""focus"",""1"",""2059""
","""event"",""trial"",""time""
""fullscreenenter"",""1"",""3931""
","
","","","294.79999999701977","","","19","5832","287","&#9776;","elianto","#3366ff99"," "," ","1","+10","[1148.9000000059605]","1","0","1","","","","","","","",""
"pit-trial","25","536430","0.0-2.0-8.1-0.1","battery-v0.2","","""event"",""trial"",""time""
""focus"",""1"",""2059""
""fullscreenenter"",""1"",""3931""
","
","""event"",""trial"",""time""
""focus"",""1"",""2059""
","""event"",""trial"",""time""
""fullscreenenter"",""1"",""3931""
","
","","","307.69999999552965","","","19","5832","287","&#9776;","elianto","#3366ff99"," "," ","1","+10","[1160]","1","0","1","","","","","","","",""
"pit-trial","26","539893","0.0-2.0-8.1-1.1","battery-v0.2","","""event"",""trial"",""time""
""focus"",""1"",""2059""
""fullscreenenter"",""1"",""3931""
","
","""event"",""trial"",""time""
""focus"",""1"",""2059""
","""event"",""trial"",""time""
""fullscreenenter"",""1"",""3931""
","
","","","589.7999999970198","","","19","5832","287","&#9776;","elianto","#3366ff99"," "," ","1","+10","[1441]","1","0","1","","","","","","","",""
"pit-trial","27","543211","0.0-2.0-8.1-2.1","battery-v0.2","","""event"",""trial"",""time""
""focus"",""1"",""2059""
""fullscreenenter"",""1"",""3931""
","
","""event"",""trial"",""time""
""focus"",""1"",""2059""
","""event"",""trial"",""time""
""fullscreenenter"",""1"",""3931""
","
","","","460.79999999701977","","","19","5832","287","&#9776;","elianto","#3366ff99"," "," ","1","+10","[1311.6999999955297]","1","0","1","","","","","","","",""
"pit-trial","28","546548","0.0-2.0-8.1-3.1","battery-v0.2","","""event"",""trial"",""time""
""focus"",""1"",""2059""
""fullscreenenter"",""1"",""3931""
","
","""event"",""trial"",""time""
""focus"",""1"",""2059""
","""event"",""trial"",""time""
""fullscreenenter"",""1"",""3931""
","
","","","476.70000000298023","","","19","5832","287","&#9776;","elianto","#3366ff99"," "," ","1","0","[1329.2000000029802]","1","0","1","","","","","","","",""
"pit-trial","29","549811","0.0-2.0-8.1-4.1","battery-v0.2","","""event"",""trial"",""time""
""focus"",""1"",""2059""
""fullscreenenter"",""1"",""3931""
","
","""event"",""trial"",""time""
""focus"",""1"",""2059""
","""event"",""trial"",""time""
""fullscreenenter"",""1"",""3931""
","
","","","406.6000000014901","","","19","5832","287","&#9776;","elianto","#3366ff99"," "," ","1","+10","[1258.5]","1","0","1","","","","","","","",""
"pit-trial","30","553075","0.0-2.0-8.2-0.2","battery-v0.2","","""event"",""trial"",""time""
""focus"",""1"",""2059""
""fullscreenenter"",""1"",""3931""
","
","""event"",""trial"",""time""
""focus"",""1"",""2059""
","""event"",""trial"",""time""
""fullscreenenter"",""1"",""3931""
","
","","","401.20000000298023","","","19","5832","287","&#9776;","elianto","#3366ff99"," "," ","1","+10","[1252.7000000029802]","1","0","1","","","","","","","",""
"pit-trial","31","556315","0.0-2.0-8.2-1.2","battery-v0.2","","""event"",""trial"",""time""
""focus"",""1"",""2059""
""fullscreenenter"",""1"",""3931""
","
","""event"",""trial"",""time""
""focus"",""1"",""2059""
","""event"",""trial"",""time""
""fullscreenenter"",""1"",""3931""
","
","","","381","","","19","5832","287","&#9776;","elianto","#3366ff99"," "," ","1","+10","[1233.3999999985099]","1","0","1","","","","","","","",""
"pit-trial","32","559371","0.0-2.0-8.2-2.2","battery-v0.2","","""event"",""trial"",""time""
""focus"",""1"",""2059""
""fullscreenenter"",""1"",""3931""
","
","""event"",""trial"",""time""
""focus"",""1"",""2059""
","""event"",""trial"",""time""
""fullscreenenter"",""1"",""3931""
","
","","","194.60000000149012","","","19","5832","287","&#9776;","elianto","#3366ff99"," "," ","1","+10","[1047]","1","0","1","","","","","","","",""
"pit-trial","33","562745","0.0-2.0-8.2-3.2","battery-v0.2","","""event"",""trial"",""time""
""focus"",""1"",""2059""
""fullscreenenter"",""1"",""3931""
","
","""event"",""trial"",""time""
""focus"",""1"",""2059""
","""event"",""trial"",""time""
""fullscreenenter"",""1"",""3931""
","
","","","506.30000000447035","","","19","5832","287","&#9776;","elianto","#3366ff99"," "," ","1","0","[1359.8000000044703]","1","0","1","","","","","","","",""
"pit-trial","34","566084","0.0-2.0-8.2-4.2","battery-v0.2","","""event"",""trial"",""time""
""focus"",""1"",""2059""
""fullscreenenter"",""1"",""3931""
","
","""event"",""trial"",""time""
""focus"",""1"",""2059""
","""event"",""trial"",""time""
""fullscreenenter"",""1"",""3931""
","
","","","481.80000000447035","","","19","5832","287","&#9776;","elianto","#3366ff99"," "," ","1","+10","[1332.2000000029802]","1","0","1","","","","","","","",""
"call-function","35","566087","0.0-2.0-9.0","battery-v0.2","","""event"",""trial"",""time""
""focus"",""1"",""2059""
""fullscreenenter"",""1"",""3931""
","
","""event"",""trial"",""time""
""focus"",""1"",""2059""
","""event"",""trial"",""time""
""fullscreenenter"",""1"",""3931""
","
","","","","","","","","","","","","","","","","","","","","","","","","","","",""
"pit-instructions","36","608802","0.0-2.0-10.0","battery-v0.2","","""event"",""trial"",""time""
""focus"",""1"",""2059""
""fullscreenenter"",""1"",""3931""
","
","""event"",""trial"",""time""
""focus"",""1"",""2059""
","""event"",""trial"",""time""
""fullscreenenter"",""1"",""3931""
","
","","[{""page_index"":0,""viewing_time"":6527.79999999702},{""page_index"":1,""viewing_time"":8125.60000000149},{""page_index"":2,""viewing_time"":9726.20000000298},{""page_index"":3,""viewing_time"":9716.39999999851},{""page_index"":4,""viewing_time"":8617.10000000149}]","42713.79999999702","","","","","","","","","","","","","","","","","","","","","","","",""
"pit-trial","37","612451","0.0-2.0-11.0-0.0","battery-v0.2","","""event"",""trial"",""time""
""focus"",""1"",""2059""
""fullscreenenter"",""1"",""3931""
","
","""event"",""trial"",""time""
""focus"",""1"",""2059""
","""event"",""trial"",""time""
""fullscreenenter"",""1"",""3931""
","
","","","783","","","19","5832","287","&#9761;","elianto","#3366ff99","-1"," ","0","0","[1637.5]","1","0","2","","","","","","","",""
"pit-trial","38","617329","0.0-2.0-11.0-1.0","battery-v0.2","","""event"",""trial"",""time""
""focus"",""1"",""2059""
""fullscreenenter"",""1"",""3931""
","
","""event"",""trial"",""time""
""focus"",""1"",""2059""
","""event"",""trial"",""time""
""fullscreenenter"",""1"",""3931""
","
","","","-1","","","19","5832","287","&#9761;","elianto","#3366ff99","-1","-1","1","+10","[]","0","0","2","","","","","","","",""
"pit-trial","39","622207","0.0-2.0-11.0-2.0","battery-v0.2","","""event"",""trial"",""time""
""focus"",""1"",""2059""
""fullscreenenter"",""1"",""3931""
","
","""event"",""trial"",""time""
""focus"",""1"",""2059""
","""event"",""trial"",""time""
""fullscreenenter"",""1"",""3931""
","
","","","-1","","","19","5832","287","&#9761;","elianto","#3366ff99","-1","-1","1","+10","[]","0","0","2","","","","","","","",""
"pit-trial","40","627093","0.0-2.0-11.0-3.0","battery-v0.2","","""event"",""trial"",""time""
""focus"",""1"",""2059""
""fullscreenenter"",""1"",""3931""
","
","""event"",""trial"",""time""
""focus"",""1"",""2059""
","""event"",""trial"",""time""
""fullscreenenter"",""1"",""3931""
","
","","","-1","","","19","5832","287","&#9761;","elianto","#3366ff99","-1","-1","1","0","[]","0","0","2","","","","","","","",""
"pit-trial","41","631966","0.0-2.0-11.0-4.0","battery-v0.2","","""event"",""trial"",""time""
""focus"",""1"",""2059""
""fullscreenenter"",""1"",""3931""
","
","""event"",""trial"",""time""
""focus"",""1"",""2059""
","""event"",""trial"",""time""
""fullscreenenter"",""1"",""3931""
","
","","","-1","","","19","5832","287","&#9761;","elianto","#3366ff99","-1","-1","1","+10","[]","0","0","2","","","","","","","",""
"pit-trial","42","636847","0.0-2.0-11.1-0.1","battery-v0.2","","""event"",""trial"",""time""
""focus"",""1"",""2059""
""fullscreenenter"",""1"",""3931""
","
","""event"",""trial"",""time""
""focus"",""1"",""2059""
","""event"",""trial"",""time""
""fullscreenenter"",""1"",""3931""
","
","","","-1","","","19","5832","287","&#9761;","elianto","#3366ff99","-1","-1","1","+10","[]","0","0","2","","","","","","","",""
"pit-trial","43","641716","0.0-2.0-11.1-1.1","battery-v0.2","","""event"",""trial"",""time""
""focus"",""1"",""2059""
""fullscreenenter"",""1"",""3931""
","
","""event"",""trial"",""time""
""focus"",""1"",""2059""
","""event"",""trial"",""time""
""fullscreenenter"",""1"",""3931""
","
","","","-1","","","19","5832","287","&#9761;","elianto","#3366ff99","-1","-1","1","+10","[]","0","0","2","","","","","","","",""
"pit-trial","44","646578","0.0-2.0-11.1-2.1","battery-v0.2","","""event"",""trial"",""time""
""focus"",""1"",""2059""
""fullscreenenter"",""1"",""3931""
","
","""event"",""trial"",""time""
""focus"",""1"",""2059""
","""event"",""trial"",""time""
""fullscreenenter"",""1"",""3931""
","
","","","-1","","","19","5832","287","&#9761;","elianto","#3366ff99","-1","-1","1","+10","[]","0","0","2","","","","","","","",""
"pit-trial","45","651443","0.0-2.0-11.1-3.1","battery-v0.2","","""event"",""trial"",""time""
""focus"",""1"",""2059""
""fullscreenenter"",""1"",""3931""
","
","""event"",""trial"",""time""
""focus"",""1"",""2059""
","""event"",""trial"",""time""
""fullscreenenter"",""1"",""3931""
","
","","","-1","","","19","5832","287","&#9761;","elianto","#3366ff99","-1","-1","1","0","[]","0","0","2","","","","","","","",""
"pit-trial","46","656308","0.0-2.0-11.1-4.1","battery-v0.2","","""event"",""trial"",""time""
""focus"",""1"",""2059""
""fullscreenenter"",""1"",""3931""
","
","""event"",""trial"",""time""
""focus"",""1"",""2059""
","""event"",""trial"",""time""
""fullscreenenter"",""1"",""3931""
","
","","","-1","","","19","5832","287","&#9761;","elianto","#3366ff99","-1","-1","1","+10","[]","0","0","2","","","","","","","",""
"pit-trial","47","661177","0.0-2.0-11.2-0.2","battery-v0.2","","""event"",""trial"",""time""
""focus"",""1"",""2059""
""fullscreenenter"",""1"",""3931""
","
","""event"",""trial"",""time""
""focus"",""1"",""2059""
","""event"",""trial"",""time""
""fullscreenenter"",""1"",""3931""
","
","","","-1","","","19","5832","287","&#9761;","elianto","#3366ff99","-1","-1","1","+10","[]","0","0","2","","","","","","","",""
"pit-trial","48","666043","0.0-2.0-11.2-1.2","battery-v0.2","","""event"",""trial"",""time""
""focus"",""1"",""2059""
""fullscreenenter"",""1"",""3931""
","
","""event"",""trial"",""time""
""focus"",""1"",""2059""
","""event"",""trial"",""time""
""fullscreenenter"",""1"",""3931""
","
","","","-1","","","19","5832","287","&#9761;","elianto","#3366ff99","-1","-1","1","+10","[]","0","0","2","","","","","","","",""
"pit-trial","49","670914","0.0-2.0-11.2-2.2","battery-v0.2","","""event"",""trial"",""time""
""focus"",""1"",""2059""
""fullscreenenter"",""1"",""3931""
","
","""event"",""trial"",""time""
""focus"",""1"",""2059""
","""event"",""trial"",""time""
""fullscreenenter"",""1"",""3931""
","
","","","-1","","","19","5832","287","&#9761;","elianto","#3366ff99","-1","-1","1","+10","[]","0","0","2","","","","","","","",""
"pit-trial","50","675778","0.0-2.0-11.2-3.2","battery-v0.2","","""event"",""trial"",""time""
""focus"",""1"",""2059""
""fullscreenenter"",""1"",""3931""
","
","""event"",""trial"",""time""
""focus"",""1"",""2059""
","""event"",""trial"",""time""
""fullscreenenter"",""1"",""3931""
","
","","","-1","","","19","5832","287","&#9761;","elianto","#3366ff99","-1","-1","1","0","[]","0","0","2","","","","","","","",""
"pit-trial","51","680642","0.0-2.0-11.2-4.2","battery-v0.2","","""event"",""trial"",""time""
""focus"",""1"",""2059""
""fullscreenenter"",""1"",""3931""
","
","""event"",""trial"",""time""
""focus"",""1"",""2059""
","""event"",""trial"",""time""
""fullscreenenter"",""1"",""3931""
","
","","","-1","","","19","5832","287","&#9761;","elianto","#3366ff99","-1","-1","1","+10","[]","0","0","2","","","","","","","",""
"pit-trial","52","685514","0.0-2.0-11.3-0.3","battery-v0.2","","""event"",""trial"",""time""
""focus"",""1"",""2059""
""fullscreenenter"",""1"",""3931""
","
","""event"",""trial"",""time""
""focus"",""1"",""2059""
","""event"",""trial"",""time""
""fullscreenenter"",""1"",""3931""
","
","","","-1","","","19","5832","287","&#9761;","elianto","#3366ff99","-1","-1","1","+10","[]","0","0","2","","","","","","","",""
"pit-trial","53","690379","0.0-2.0-11.3-1.3","battery-v0.2","","""event"",""trial"",""time""
""focus"",""1"",""2059""
""fullscreenenter"",""1"",""3931""
","
","""event"",""trial"",""time""
""focus"",""1"",""2059""
","""event"",""trial"",""time""
""fullscreenenter"",""1"",""3931""
","
","","","-1","","","19","5832","287","&#9761;","elianto","#3366ff99","-1","-1","1","+10","[]","0","0","2","","","","","","","",""
"pit-trial","54","695243","0.0-2.0-11.3-2.3","battery-v0.2","","""event"",""trial"",""time""
""focus"",""1"",""2059""
""fullscreenenter"",""1"",""3931""
","
","""event"",""trial"",""time""
""focus"",""1"",""2059""
","""event"",""trial"",""time""
""fullscreenenter"",""1"",""3931""
","
","","","-1","","","19","5832","287","&#9761;","elianto","#3366ff99","-1","-1","1","+10","[]","0","0","2","","","","","","","",""
"pit-trial","55","700106","0.0-2.0-11.3-3.3","battery-v0.2","","""event"",""trial"",""time""
""focus"",""1"",""2059""
""fullscreenenter"",""1"",""3931""
","
","""event"",""trial"",""time""
""focus"",""1"",""2059""
","""event"",""trial"",""time""
""fullscreenenter"",""1"",""3931""
","
","","","-1","","","19","5832","287","&#9761;","elianto","#3366ff99","-1","-1","1","0","[]","0","0","2","","","","","","","",""
"pit-trial","56","704970","0.0-2.0-11.3-4.3","battery-v0.2","","""event"",""trial"",""time""
""focus"",""1"",""2059""
""fullscreenenter"",""1"",""3931""
","
","""event"",""trial"",""time""
""focus"",""1"",""2059""
","""event"",""trial"",""time""
""fullscreenenter"",""1"",""3931""
","
","","","-1","","","19","5832","287","&#9761;","elianto","#3366ff99","-1","-1","1","+10","[]","0","0","2","","","","","","","",""
"call-function","57","704973","0.0-2.0-12.0","battery-v0.2","","""event"",""trial"",""time""
""focus"",""1"",""2059""
""fullscreenenter"",""1"",""3931""
","
","""event"",""trial"",""time""
""focus"",""1"",""2059""
","""event"",""trial"",""time""
""fullscreenenter"",""1"",""3931""
","
","","","","","","","","","","","","","","","","","","","","","","","","","","",""
"pit-instructions","58","746175","0.0-2.0-13.0","battery-v0.2","","""event"",""trial"",""time""
""focus"",""1"",""2059""
""fullscreenenter"",""1"",""3931""
","
","""event"",""trial"",""time""
""focus"",""1"",""2059""
","""event"",""trial"",""time""
""fullscreenenter"",""1"",""3931""
","
","","[{""page_index"":0,""viewing_time"":15555.29999999702},{""page_index"":1,""viewing_time"":6680.5},{""page_index"":2,""viewing_time"":3175.60000000149},{""page_index"":3,""viewing_time"":10644.10000000149},{""page_index"":4,""viewing_time"":5145.29999999702}]","41201.39999999851","","","","","","","","","","","","","","","","","","","","","","","",""
"pit-trial","59","749548","0.0-2.0-14.0-0.0","battery-v0.2","","""event"",""trial"",""time""
""focus"",""1"",""2059""
""fullscreenenter"",""1"",""3931""
","
","""event"",""trial"",""time""
""focus"",""1"",""2059""
","""event"",""trial"",""time""
""fullscreenenter"",""1"",""3931""
","
","","","504.6000000014901","","","19","5832","287","&#9826;","elianto","#f73b6a7A","-1"," ","0","-10","[1355.3000000044703]","1","0","3","","","","","","","",""
"pit-trial","60","754412","0.0-2.0-14.0-1.0","battery-v0.2","","""event"",""trial"",""time""
""focus"",""1"",""2059""
""fullscreenenter"",""1"",""3931""
","
","""event"",""trial"",""time""
""focus"",""1"",""2059""
","""event"",""trial"",""time""
""fullscreenenter"",""1"",""3931""
","
","","","-1","","","19","5832","287","&#9826;","elianto","#f73b6a7A","-1","-1","1","0","[]","0","0","3","","","","","","","",""
"pit-trial","61","759288","0.0-2.0-14.0-2.0","battery-v0.2","","""event"",""trial"",""time""
""focus"",""1"",""2059""
""fullscreenenter"",""1"",""3931""
","
","""event"",""trial"",""time""
""focus"",""1"",""2059""
","""event"",""trial"",""time""
""fullscreenenter"",""1"",""3931""
","
","","","-1","","","19","5832","287","&#9826;","elianto","#f73b6a7A","-1","-1","1","0","[]","0","0","3","","","","","","","",""
"pit-trial","62","764166","0.0-2.0-14.0-3.0","battery-v0.2","","""event"",""trial"",""time""
""focus"",""1"",""2059""
""fullscreenenter"",""1"",""3931""
","
","""event"",""trial"",""time""
""focus"",""1"",""2059""
","""event"",""trial"",""time""
""fullscreenenter"",""1"",""3931""
","
","","","-1","","","19","5832","287","&#9826;","elianto","#f73b6a7A","-1","-1","1","-10","[]","0","0","3","","","","","","","",""
"pit-trial","63","769044","0.0-2.0-14.0-4.0","battery-v0.2","","""event"",""trial"",""time""
""focus"",""1"",""2059""
""fullscreenenter"",""1"",""3931""
","
","""event"",""trial"",""time""
""focus"",""1"",""2059""
","""event"",""trial"",""time""
""fullscreenenter"",""1"",""3931""
","
","","","-1","","","19","5832","287","&#9826;","elianto","#f73b6a7A","-1","-1","1","0","[]","0","0","3","","","","","","","",""
"pit-trial","64","773920","0.0-2.0-14.1-0.1","battery-v0.2","","""event"",""trial"",""time""
""focus"",""1"",""2059""
""fullscreenenter"",""1"",""3931""
","
","""event"",""trial"",""time""
""focus"",""1"",""2059""
","""event"",""trial"",""time""
""fullscreenenter"",""1"",""3931""
","
","","","-1","","","19","5832","287","&#9826;","elianto","#f73b6a7A","-1","-1","1","0","[]","0","0","3","","","","","","","",""
"pit-trial","65","778786","0.0-2.0-14.1-1.1","battery-v0.2","","""event"",""trial"",""time""
""focus"",""1"",""2059""
""fullscreenenter"",""1"",""3931""
","
","""event"",""trial"",""time""
""focus"",""1"",""2059""
","""event"",""trial"",""time""
""fullscreenenter"",""1"",""3931""
","
","","","-1","","","19","5832","287","&#9826;","elianto","#f73b6a7A","-1","-1","1","0","[]","0","0","3","","","","","","","",""
"pit-trial","66","783658","0.0-2.0-14.1-2.1","battery-v0.2","","""event"",""trial"",""time""
""focus"",""1"",""2059""
""fullscreenenter"",""1"",""3931""
","
","""event"",""trial"",""time""
""focus"",""1"",""2059""
","""event"",""trial"",""time""
""fullscreenenter"",""1"",""3931""
","
","","","-1","","","19","5832","287","&#9826;","elianto","#f73b6a7A","-1","-1","1","0","[]","0","0","3","","","","","","","",""
"pit-trial","67","788522","0.0-2.0-14.1-3.1","battery-v0.2","","""event"",""trial"",""time""
""focus"",""1"",""2059""
""fullscreenenter"",""1"",""3931""
","
","""event"",""trial"",""time""
""focus"",""1"",""2059""
","""event"",""trial"",""time""
""fullscreenenter"",""1"",""3931""
","
","","","-1","","","19","5832","287","&#9826;","elianto","#f73b6a7A","-1","-1","1","-10","[]","0","0","3","","","","","","","",""
"pit-trial","68","793386","0.0-2.0-14.1-4.1","battery-v0.2","","""event"",""trial"",""time""
""focus"",""1"",""2059""
""fullscreenenter"",""1"",""3931""
","
","""event"",""trial"",""time""
""focus"",""1"",""2059""
","""event"",""trial"",""time""
""fullscreenenter"",""1"",""3931""
","
","","","-1","","","19","5832","287","&#9826;","elianto","#f73b6a7A","-1","-1","1","0","[]","0","0","3","","","","","","","",""
"pit-trial","69","798251","0.0-2.0-14.2-0.2","battery-v0.2","","""event"",""trial"",""time""
""focus"",""1"",""2059""
""fullscreenenter"",""1"",""3931""
","
","""event"",""trial"",""time""
""focus"",""1"",""2059""
","""event"",""trial"",""time""
""fullscreenenter"",""1"",""3931""
","
","","","-1","","","19","5832","287","&#9826;","elianto","#f73b6a7A","-1","-1","1","0","[]","0","0","3","","","","","","","",""
"pit-trial","70","803114","0.0-2.0-14.2-1.2","battery-v0.2","","""event"",""trial"",""time""
""focus"",""1"",""2059""
""fullscreenenter"",""1"",""3931""
","
","""event"",""trial"",""time""
""focus"",""1"",""2059""
","""event"",""trial"",""time""
""fullscreenenter"",""1"",""3931""
","
","","","-1","","","19","5832","287","&#9826;","elianto","#f73b6a7A","-1","-1","1","0","[]","0","0","3","","","","","","","",""
"pit-trial","71","807978","0.0-2.0-14.2-2.2","battery-v0.2","","""event"",""trial"",""time""
""focus"",""1"",""2059""
""fullscreenenter"",""1"",""3931""
","
","""event"",""trial"",""time""
""focus"",""1"",""2059""
","""event"",""trial"",""time""
""fullscreenenter"",""1"",""3931""
","
","","","-1","","","19","5832","287","&#9826;","elianto","#f73b6a7A","-1","-1","1","0","[]","0","0","3","","","","","","","",""
"pit-trial","72","812843","0.0-2.0-14.2-3.2","battery-v0.2","","""event"",""trial"",""time""
""focus"",""1"",""2059""
""fullscreenenter"",""1"",""3931""
","
","""event"",""trial"",""time""
""focus"",""1"",""2059""
","""event"",""trial"",""time""
""fullscreenenter"",""1"",""3931""
","
","","","-1","","","19","5832","287","&#9826;","elianto","#f73b6a7A","-1","-1","1","-10","[]","0","0","3","","","","","","","",""
"pit-trial","73","817718","0.0-2.0-14.2-4.2","battery-v0.2","","""event"",""trial"",""time""
""focus"",""1"",""2059""
""fullscreenenter"",""1"",""3931""
","
","""event"",""trial"",""time""
""focus"",""1"",""2059""
","""event"",""trial"",""time""
""fullscreenenter"",""1"",""3931""
","
","","","-1","","","19","5832","287","&#9826;","elianto","#f73b6a7A","-1","-1","1","0","[]","0","0","3","","","","","","","",""
"pit-trial","74","822587","0.0-2.0-14.3-0.3","battery-v0.2","","""event"",""trial"",""time""
""focus"",""1"",""2059""
""fullscreenenter"",""1"",""3931""
","
","""event"",""trial"",""time""
""focus"",""1"",""2059""
","""event"",""trial"",""time""
""fullscreenenter"",""1"",""3931""
","
","","","-1","","","19","5832","287","&#9826;","elianto","#f73b6a7A","-1","-1","1","0","[]","0","0","3","","","","","","","",""
"pit-trial","75","827450","0.0-2.0-14.3-1.3","battery-v0.2","","""event"",""trial"",""time""
""focus"",""1"",""2059""
""fullscreenenter"",""1"",""3931""
","
","""event"",""trial"",""time""
""focus"",""1"",""2059""
","""event"",""trial"",""time""
""fullscreenenter"",""1"",""3931""
","
","","","-1","","","19","5832","287","&#9826;","elianto","#f73b6a7A","-1","-1","1","0","[]","0","0","3","","","","","","","",""
"pit-trial","76","832314","0.0-2.0-14.3-2.3","battery-v0.2","","""event"",""trial"",""time""
""focus"",""1"",""2059""
""fullscreenenter"",""1"",""3931""
","
","""event"",""trial"",""time""
""focus"",""1"",""2059""
","""event"",""trial"",""time""
""fullscreenenter"",""1"",""3931""
","
","","","-1","","","19","5832","287","&#9826;","elianto","#f73b6a7A","-1","-1","1","0","[]","0","0","3","","","","","","","",""
"pit-trial","77","837178","0.0-2.0-14.3-3.3","battery-v0.2","","""event"",""trial"",""time""
""focus"",""1"",""2059""
""fullscreenenter"",""1"",""3931""
","
","""event"",""trial"",""time""
""focus"",""1"",""2059""
","""event"",""trial"",""time""
""fullscreenenter"",""1"",""3931""
","
","","","-1","","","19","5832","287","&#9826;","elianto","#f73b6a7A","-1","-1","1","-10","[]","0","0","3","","","","","","","",""
"pit-trial","78","842042","0.0-2.0-14.3-4.3","battery-v0.2","","""event"",""trial"",""time""
""focus"",""1"",""2059""
""fullscreenenter"",""1"",""3931""
","
","""event"",""trial"",""time""
""focus"",""1"",""2059""
","""event"",""trial"",""time""
""fullscreenenter"",""1"",""3931""
","
","","","-1","","","19","5832","287","&#9826;","elianto","#f73b6a7A","-1","-1","1","0","[]","0","0","3","","","","","","","",""
"call-function","79","842046","0.0-2.0-15.0","battery-v0.2","","""event"",""trial"",""time""
""focus"",""1"",""2059""
""fullscreenenter"",""1"",""3931""
","
","""event"",""trial"",""time""
""focus"",""1"",""2059""
","""event"",""trial"",""time""
""fullscreenenter"",""1"",""3931""
","
","","","","","","","","","","","","","","","","","","","","","","","","","","",""
"pit-instructions","80","883948","0.0-2.0-16.0","battery-v0.2","","""event"",""trial"",""time""
""focus"",""1"",""2059""
""fullscreenenter"",""1"",""3931""
","
","""event"",""trial"",""time""
""focus"",""1"",""2059""
","""event"",""trial"",""time""
""fullscreenenter"",""1"",""3931""
","
","","[{""page_index"":0,""viewing_time"":14497.29999999702},{""page_index"":1,""viewing_time"":11752.10000000149},{""page_index"":2,""viewing_time"":4421.20000000298},{""page_index"":3,""viewing_time"":11229.79999999702}]","41901","","","","","","","","","","","","","","","","","","","","","","","",""
"pit-trial","81","887342","0.0-2.0-17.0-0.0","battery-v0.2","","""event"",""trial"",""time""
""focus"",""1"",""2059""
""fullscreenenter"",""1"",""3931""
","
","""event"",""trial"",""time""
""focus"",""1"",""2059""
","""event"",""trial"",""time""
""fullscreenenter"",""1"",""3931""
","
","","","522.6000000014901","","","19","5832","287","&#9789;","elianto","#f73b6a7A"," "," ","1","0","[1375.3999999985099]","1","0","4","","","","","","","",""
"pit-trial","82","890611","0.0-2.0-17.0-1.0","battery-v0.2","","""event"",""trial"",""time""
""focus"",""1"",""2059""
""fullscreenenter"",""1"",""3931""
","
","""event"",""trial"",""time""
""focus"",""1"",""2059""
","""event"",""trial"",""time""
""fullscreenenter"",""1"",""3931""
","
","","","403.79999999701977","","","19","5832","287","&#9789;","elianto","#f73b6a7A"," "," ","1","0","[1261.1000000014901]","1","0","4","","","","","","","",""
"pit-trial","83","893831","0.0-2.0-17.0-2.0","battery-v0.2","","""event"",""trial"",""time""
""focus"",""1"",""2059""
""fullscreenenter"",""1"",""3931""
","
","""event"",""trial"",""time""
""focus"",""1"",""2059""
","""event"",""trial"",""time""
""fullscreenenter"",""1"",""3931""
","
","","","350.6000000014901","","","19","5832","287","&#9789;","elianto","#f73b6a7A"," "," ","1","0","[1204]","1","0","4","","","","","","","",""
"pit-trial","84","897021","0.0-2.0-17.0-3.0","battery-v0.2","","""event"",""trial"",""time""
""focus"",""1"",""2059""
""fullscreenenter"",""1"",""3931""
","
","""event"",""trial"",""time""
""focus"",""1"",""2059""
","""event"",""trial"",""time""
""fullscreenenter"",""1"",""3931""
","
","","","326.1000000014901","","","19","5832","287","&#9789;","elianto","#f73b6a7A"," "," ","1","-10","[1183.3999999985099]","1","0","4","","","","","","","",""
"pit-trial","85","900249","0.0-2.0-17.0-4.0","battery-v0.2","","""event"",""trial"",""time""
""focus"",""1"",""2059""
""fullscreenenter"",""1"",""3931""
","
","""event"",""trial"",""time""
""focus"",""1"",""2059""
","""event"",""trial"",""time""
""fullscreenenter"",""1"",""3931""
","
","","","355.09999999403954","","","19","5832","287","&#9789;","elianto","#f73b6a7A"," "," ","1","0","[1206.5999999940395]","1","0","4","","","","","","","",""
"pit-trial","86","903540","0.0-2.0-17.1-0.1","battery-v0.2","","""event"",""trial"",""time""
""focus"",""1"",""2059""
""fullscreenenter"",""1"",""3931""
","
","""event"",""trial"",""time""
""focus"",""1"",""2059""
","""event"",""trial"",""time""
""fullscreenenter"",""1"",""3931""
","
","","","424.5","","","19","5832","287","&#9789;","elianto","#f73b6a7A"," "," ","1","0","[1278.5]","1","0","4","","","","","","","",""
"pit-trial","87","906747","0.0-2.0-17.1-1.1","battery-v0.2","","""event"",""trial"",""time""
""focus"",""1"",""2059""
""fullscreenenter"",""1"",""3931""
","
","""event"",""trial"",""time""
""focus"",""1"",""2059""
","""event"",""trial"",""time""
""fullscreenenter"",""1"",""3931""
","
","","","340.29999999701977","","","19","5832","287","&#9789;","elianto","#f73b6a7A"," "," ","1","0","[1190.6999999955297]","1","0","4","","","","","","","",""
"pit-trial","88","909835","0.0-2.0-17.1-2.1","battery-v0.2","","""event"",""trial"",""time""
""focus"",""1"",""2059""
""fullscreenenter"",""1"",""3931""
","
","""event"",""trial"",""time""
""focus"",""1"",""2059""
","""event"",""trial"",""time""
""fullscreenenter"",""1"",""3931""
","
","","","228","","","19","5832","287","&#9789;","elianto","#f73b6a7A"," "," ","1","0","[1081.5]","1","0","4","","","","","","","",""
"pit-trial","89","912939","0.0-2.0-17.1-3.1","battery-v0.2","","""event"",""trial"",""time""
""focus"",""1"",""2059""
""fullscreenenter"",""1"",""3931""
","
","""event"",""trial"",""time""
""focus"",""1"",""2059""
","""event"",""trial"",""time""
""fullscreenenter"",""1"",""3931""
","
","","","241.79999999701977","","","19","5832","287","&#9789;","elianto","#f73b6a7A"," "," ","1","-10","[1092.8999999985099]","1","0","4","","","","","","","",""
"pit-trial","90","915988","0.0-2.0-17.1-4.1","battery-v0.2","","""event"",""trial"",""time""
""focus"",""1"",""2059""
""fullscreenenter"",""1"",""3931""
","
","""event"",""trial"",""time""
""focus"",""1"",""2059""
","""event"",""trial"",""time""
""fullscreenenter"",""1"",""3931""
","
","","","191.39999999850988","","","19","5832","287","&#9789;","elianto","#f73b6a7A"," "," ","1","0","[1041.8999999985099]","1","0","4","","","","","","","",""
"pit-trial","91","919195","0.0-2.0-17.2-0.2","battery-v0.2","","""event"",""trial"",""time""
""focus"",""1"",""2059""
""fullscreenenter"",""1"",""3931""
","
","""event"",""trial"",""time""
""focus"",""1"",""2059""
","""event"",""trial"",""time""
""fullscreenenter"",""1"",""3931""
","
","","","342.8999999985099","","","19","5832","287","&#9789;","elianto","#f73b6a7A"," "," ","1","0","[1193.8999999985099]","1","0","4","","","","","","","",""
"pit-trial","92","922332","0.0-2.0-17.2-1.2","battery-v0.2","","""event"",""trial"",""time""
""focus"",""1"",""2059""
""fullscreenenter"",""1"",""3931""
","
","""event"",""trial"",""time""
""focus"",""1"",""2059""
","""event"",""trial"",""time""
""fullscreenenter"",""1"",""3931""
","
","","","277.5","","","19","5832","287","&#9789;","elianto","#f73b6a7A"," "," ","1","0","[1130.6000000014901]","1","0","4","","","","","","","",""
"pit-trial","93","925483","0.0-2.0-17.2-2.2","battery-v0.2","","""event"",""trial"",""time""
""focus"",""1"",""2059""
""fullscreenenter"",""1"",""3931""
","
","""event"",""trial"",""time""
""focus"",""1"",""2059""
","""event"",""trial"",""time""
""fullscreenenter"",""1"",""3931""
","
","","","288.3999999985099","","","19","5832","287","&#9789;","elianto","#f73b6a7A"," "," ","1","0","[1140.7999999970198]","1","0","4","","","","","","","",""
"pit-trial","94","928571","0.0-2.0-17.2-3.2","battery-v0.2","","""event"",""trial"",""time""
""focus"",""1"",""2059""
""fullscreenenter"",""1"",""3931""
","
","""event"",""trial"",""time""
""focus"",""1"",""2059""
","""event"",""trial"",""time""
""fullscreenenter"",""1"",""3931""
","
","","","224.39999999850988","","","19","5832","287","&#9789;","elianto","#f73b6a7A"," "," ","1","-10","[1076.8999999985099]","1","0","4","","","","","","","",""
"pit-trial","95","931724","0.0-2.0-17.2-4.2","battery-v0.2","","""event"",""trial"",""time""
""focus"",""1"",""2059""
""fullscreenenter"",""1"",""3931""
","
","""event"",""trial"",""time""
""focus"",""1"",""2059""
","""event"",""trial"",""time""
""fullscreenenter"",""1"",""3931""
","
","","","291.70000000298023","","","19","5832","287","&#9789;","elianto","#f73b6a7A"," "," ","1","0","[1143.7000000029802]","1","0","4","","","","","","","",""
"pit-trial","96","934828","0.0-2.0-17.3-0.3","battery-v0.2","","""event"",""trial"",""time""
""focus"",""1"",""2059""
""fullscreenenter"",""1"",""3931""
","
","""event"",""trial"",""time""
""focus"",""1"",""2059""
","""event"",""trial"",""time""
""fullscreenenter"",""1"",""3931""
","
","","","231.80000000447035","","","19","5832","287","&#9789;","elianto","#f73b6a7A"," "," ","1","0","[1090.3999999985099]","1","0","4","","","","","","","",""
"pit-trial","97","938067","0.0-2.0-17.3-1.3","battery-v0.2","","""event"",""trial"",""time""
""focus"",""1"",""2059""
""fullscreenenter"",""1"",""3931""
","
","""event"",""trial"",""time""
""focus"",""1"",""2059""
","""event"",""trial"",""time""
""fullscreenenter"",""1"",""3931""
","
","","","377.29999999701977","","","19","5832","287","&#9789;","elianto","#f73b6a7A"," "," ","1","0","[1232.3000000044703]","1","0","4","","","","","","","",""
"pit-trial","98","941152","0.0-2.0-17.3-2.3","battery-v0.2","","""event"",""trial"",""time""
""focus"",""1"",""2059""
""fullscreenenter"",""1"",""3931""
","
","""event"",""trial"",""time""
""focus"",""1"",""2059""
","""event"",""trial"",""time""
""fullscreenenter"",""1"",""3931""
","
","","","216.5","","","19","5832","287","&#9789;","elianto","#f73b6a7A"," "," ","1","0","[1069.8000000044703]","1","0","4","","","","","","","",""
"pit-trial","99","944292","0.0-2.0-17.3-3.3","battery-v0.2","","""event"",""trial"",""time""
""focus"",""1"",""2059""
""fullscreenenter"",""1"",""3931""
","
","""event"",""trial"",""time""
""focus"",""1"",""2059""
","""event"",""trial"",""time""
""fullscreenenter"",""1"",""3931""
","
","","","275.30000000447035","","","19","5832","287","&#9789;","elianto","#f73b6a7A"," "," ","1","-10","[1131.1000000014901]","1","0","4","","","","","","","",""
"pit-trial","100","947411","0.0-2.0-17.3-4.3","battery-v0.2","","""event"",""trial"",""time""
""focus"",""1"",""2059""
""fullscreenenter"",""1"",""3931""
","
","""event"",""trial"",""time""
""focus"",""1"",""2059""
","""event"",""trial"",""time""
""fullscreenenter"",""1"",""3931""
","
","","","259.8999999985099","","","19","5832","287","&#9789;","elianto","#f73b6a7A"," "," ","1","0","[1110.6000000014901]","1","0","4","","","","","","","",""
"call-function","101","947414","0.0-2.0-18.0","battery-v0.2","","""event"",""trial"",""time""
""focus"",""1"",""2059""
""fullscreenenter"",""1"",""3931""
","
","""event"",""trial"",""time""
""focus"",""1"",""2059""
","""event"",""trial"",""time""
""fullscreenenter"",""1"",""3931""
","
","","","","","","","","","","","","","","","","","","","","","","","","","","",""
"pit-instructions","102","1097393","0.0-2.0-19.0","battery-v0.2","","""event"",""trial"",""time""
""focus"",""1"",""2059""
""fullscreenenter"",""1"",""3931""
","
","""event"",""trial"",""time""
""focus"",""1"",""2059""
","""event"",""trial"",""time""
""fullscreenenter"",""1"",""3931""
","
","","[{""page_index"":0,""viewing_time"":6586.4000000059605},{""page_index"":1,""viewing_time"":34297.29999999702},{""page_index"":2,""viewing_time"":32184.39999999851},{""page_index"":3,""viewing_time"":7474},{""page_index"":4,""viewing_time"":9907.70000000298},{""page_index"":5,""viewing_time"":9625.39999999851},{""page_index"":6,""viewing_time"":15693.10000000149},{""page_index"":7,""viewing_time"":8882.19999999553},{""page_index"":8,""viewing_time"":25326.70000000298}]","149977.80000000447","","","","","","","","","","","","","","","","","","","","","","","",""
"pit-comprehension","103","1102017","0.0-2.0-20.0-0.0","battery-v0.2","","""event"",""trial"",""time""
""focus"",""1"",""2059""
""fullscreenenter"",""1"",""3931""
","
","""event"",""trial"",""time""
""focus"",""1"",""2059""
","""event"",""trial"",""time""
""fullscreenenter"",""1"",""3931""
","
","","","4618.89999999851","[""SPACE""]","0","19","5832","287","","","","","","","","","","","","","","","","","","",""
"pit-instructions","104","1105952","0.0-2.0-20.0-1.0","battery-v0.2","","""event"",""trial"",""time""
""focus"",""1"",""2059""
""fullscreenenter"",""1"",""3931""
","
","""event"",""trial"",""time""
""focus"",""1"",""2059""
","""event"",""trial"",""time""
""fullscreenenter"",""1"",""3931""
","
","","[{""page_index"":0,""viewing_time"":3798.10000000149}]","3798.39999999851","","","","","","","","","","","","","","","","","","","","","","","",""
"pit-comprehension","105","1112724","0.0-2.0-21.0-0.0","battery-v0.2","","""event"",""trial"",""time""
""focus"",""1"",""2059""
""fullscreenenter"",""1"",""3931""
","
","""event"",""trial"",""time""
""focus"",""1"",""2059""
","""event"",""trial"",""time""
""fullscreenenter"",""1"",""3931""
","
","","","6767.39999999851","[""10""]","0","19","5832","287","","","","","","","","","","","","","","","","","","",""
"pit-instructions","106","1174088","0.0-2.0-21.0-1.0","battery-v0.2","","""event"",""trial"",""time""
""focus"",""1"",""2059""
""fullscreenenter"",""1"",""3931""
","
","""event"",""trial"",""time""
""focus"",""1"",""2059""
","""event"",""trial"",""time""
""fullscreenenter"",""1"",""3931""
","
","","[{""page_index"":0,""viewing_time"":61304.5}]","61305.79999999702","","","","","","","","","","","","","","","","","","","","","","","",""
"pit-comprehension","107","1180909","0.0-2.0-22.0-0.0","battery-v0.2","","""event"",""trial"",""time""
""focus"",""1"",""2059""
""fullscreenenter"",""1"",""3931""
","
","""event"",""trial"",""time""
""focus"",""1"",""2059""
","""event"",""trial"",""time""
""fullscreenenter"",""1"",""3931""
","
","","","6815.89999999851","[""0""]","0","19","5832","287","","","","","","","","","","","","","","","","","","",""
"pit-instructions","108","1208909","0.0-2.0-22.0-1.0","battery-v0.2","","""event"",""trial"",""time""
""focus"",""1"",""2059""
""fullscreenenter"",""1"",""3931""
","
","""event"",""trial"",""time""
""focus"",""1"",""2059""
","""event"",""trial"",""time""
""fullscreenenter"",""1"",""3931""
","
","","[{""page_index"":0,""viewing_time"":27948.70000000298}]","27949.29999999702","","","","","","","","","","","","","","","","","","","","","","","",""
"pit-comprehension","109","1220747","0.0-2.0-23.0-0.0","battery-v0.2","","""event"",""trial"",""time""
""focus"",""1"",""2059""
""fullscreenenter"",""1"",""3931""
","
","""event"",""trial"",""time""
""focus"",""1"",""2059""
","""event"",""trial"",""time""
""fullscreenenter"",""1"",""3931""
","
","","","11835.19999999553","[""False""]","1","19","5832","287","","","","","","","","","","","","","","","","","","",""
"pit-instructions","110","1223661","0.0-2.0-23.0-1.0","battery-v0.2","","""event"",""trial"",""time""
""focus"",""1"",""2059""
""fullscreenenter"",""1"",""3931""
","
","""event"",""trial"",""time""
""focus"",""1"",""2059""
","""event"",""trial"",""time""
""fullscreenenter"",""1"",""3931""
","
","","[{""page_index"":0,""viewing_time"":2855.39999999851}]","2856","","","","","","","","","","","","","","","","","","","","","","","",""
"pit-instructions","111","1224996","0.0-2.0-23.0-2.0-0.0","battery-v0.2","","""event"",""trial"",""time""
""focus"",""1"",""2059""
""fullscreenenter"",""1"",""3931""
","
","""event"",""trial"",""time""
""focus"",""1"",""2059""
","""event"",""trial"",""time""
""fullscreenenter"",""1"",""3931""
","
","","[{""page_index"":0,""viewing_time"":1332.8000000044703}]","1333.3000000044703","","","","","","","","","","","","","","","","","","","","","","","",""
"pit-comprehension","112","1233438","0.0-2.0-23.1-0.1","battery-v0.2","","""event"",""trial"",""time""
""focus"",""1"",""2059""
""fullscreenenter"",""1"",""3931""
","
","""event"",""trial"",""time""
""focus"",""1"",""2059""
","""event"",""trial"",""time""
""fullscreenenter"",""1"",""3931""
","
","","","8438.29999999702","[""True""]","0","19","5832","287","","","","","","","","","","","","","","","","","","",""
"pit-instructions","113","1235437","0.0-2.0-23.1-1.1","battery-v0.2","","""event"",""trial"",""time""
""focus"",""1"",""2059""
""fullscreenenter"",""1"",""3931""
","
","""event"",""trial"",""time""
""focus"",""1"",""2059""
","""event"",""trial"",""time""
""fullscreenenter"",""1"",""3931""
","
","","[{""page_index"":0,""viewing_time"":1942.2000000029802}]","1942.7000000029802","","","","","","","","","","","","","","","","","","","","","","","",""
"pit-comprehension","114","1243088","0.0-2.0-24.0-0.0","battery-v0.2","","""event"",""trial"",""time""
""focus"",""1"",""2059""
""fullscreenenter"",""1"",""3931""
","
","""event"",""trial"",""time""
""focus"",""1"",""2059""
","""event"",""trial"",""time""
""fullscreenenter"",""1"",""3931""
","
","","","7647.89999999851","[""True""]","0","19","5832","287","","","","","","","","","","","","","","","","","","",""
"pit-instructions","115","1246585","0.0-2.0-24.0-1.0","battery-v0.2","","""event"",""trial"",""time""
""focus"",""1"",""2059""
""fullscreenenter"",""1"",""3931""
","
","""event"",""trial"",""time""
""focus"",""1"",""2059""
","""event"",""trial"",""time""
""fullscreenenter"",""1"",""3931""
","
","","[{""page_index"":0,""viewing_time"":3443.2999999970198}]","3443.7000000029802","","","","","","","","","","","","","","","","","","","","","","","",""
"pit-comprehension","116","1253166","0.0-2.0-25.0-0.0","battery-v0.2","","""event"",""trial"",""time""
""focus"",""1"",""2059""
""fullscreenenter"",""1"",""3931""
","
","""event"",""trial"",""time""
""focus"",""1"",""2059""
","""event"",""trial"",""time""
""fullscreenenter"",""1"",""3931""
","
","","","6576.70000000298","[""True""]","0","19","5832","287","","","","","","","","","","","","","","","","","","",""
"pit-instructions","117","1255176","0.0-2.0-25.0-1.0","battery-v0.2","","""event"",""trial"",""time""
""focus"",""1"",""2059""
""fullscreenenter"",""1"",""3931""
","
","""event"",""trial"",""time""
""focus"",""1"",""2059""
","""event"",""trial"",""time""
""fullscreenenter"",""1"",""3931""
","
","","[{""page_index"":0,""viewing_time"":1961.7999999970198}]","1962.2999999970198","","","","","","","","","","","","","","","","","","","","","","","",""
"pit-comprehension","118","1259978","0.0-2.0-26.0-0.0","battery-v0.2","","""event"",""trial"",""time""
""focus"",""1"",""2059""
""fullscreenenter"",""1"",""3931""
","
","""event"",""trial"",""time""
""focus"",""1"",""2059""
","""event"",""trial"",""time""
""fullscreenenter"",""1"",""3931""
","
","","","4798.19999999553","[""False""]","0","19","5832","287","","","","","","","","","","","","","","","","","","",""
"pit-instructions","119","1261897","0.0-2.0-26.0-1.0","battery-v0.2","","""event"",""trial"",""time""
""focus"",""1"",""2059""
""fullscreenenter"",""1"",""3931""
","
","""event"",""trial"",""time""
""focus"",""1"",""2059""
","""event"",""trial"",""time""
""fullscreenenter"",""1"",""3931""
","
","","[{""page_index"":0,""viewing_time"":1863.1000000014901}]","1863.5","","","","","","","","","","","","","","","","","","","","","","","",""
"pit-instructions","120","1437856","0.0-3.0","battery-v0.2","","""event"",""trial"",""time""
""focus"",""1"",""2059""
""fullscreenenter"",""1"",""3931""
","
","""event"",""trial"",""time""
""focus"",""1"",""2059""
","""event"",""trial"",""time""
""fullscreenenter"",""1"",""3931""
","
","","[{""page_index"":0,""viewing_time"":162214.80000000447},{""page_index"":1,""viewing_time"":6176.5999999940395},{""page_index"":2,""viewing_time"":7565.5}]","175957.30000000447","","","","","","","","","","","","","","","","","","","","","","","",""
"pit-trial","121","1441364","0.0-4.0","battery-v0.2","","""event"",""trial"",""time""
""focus"",""1"",""2059""
""fullscreenenter"",""1"",""3931""
","
","""event"",""trial"",""time""
""focus"",""1"",""2059""
","""event"",""trial"",""time""
""fullscreenenter"",""1"",""3931""
","
","","","641.4000000059605","","","19","5832","287","&#9733;","elianto","#3366ff99","-1"," ","0","0","[1492.7000000029802]","1","1","","","5832","1","2","2","win","no-go","0"
"pit-trial","122","1444995","0.0-5.0","battery-v0.2","","""event"",""trial"",""time""
""focus"",""1"",""2059""
""fullscreenenter"",""1"",""3931""
","
","""event"",""trial"",""time""
""focus"",""1"",""2059""
","""event"",""trial"",""time""
""fullscreenenter"",""1"",""3931""
","
","","","769.1000000014901","","","19","5832","287","&#9730;","elianto","#3366ff99"," "," ","1","+10","[1621.2999999970198]","1","1","","","5832","2","1","1","win","go","0"
"pit-trial","123","1448750","0.0-6.0","battery-v0.2","","""event"",""trial"",""time""
""focus"",""1"",""2059""
""fullscreenenter"",""1"",""3931""
","
","""event"",""trial"",""time""
""focus"",""1"",""2059""
","""event"",""trial"",""time""
""fullscreenenter"",""1"",""3931""
","
","","","889.3000000044703","","","19","5832","287","&#9728;","elianto","#f73b6a7A","-1"," ","0","-10","[1740.8999999985099]","1","1","","","5832","3","0","4","lose","no-go","0"
"pit-trial","124","1452427","0.0-7.0","battery-v0.2","","""event"",""trial"",""time""
""focus"",""1"",""2059""
""fullscreenenter"",""1"",""3931""
","
","""event"",""trial"",""time""
""focus"",""1"",""2059""
","""event"",""trial"",""time""
""fullscreenenter"",""1"",""3931""
","
","","","816.8999999985099","","","19","5832","287","&#9752;","elianto","#f73b6a7A"," "," ","1","0","[1672.2999999970198]","1","1","","","5832","4","3","3","lose","go","0"
"pit-trial","125","1457291","0.0-8.0","battery-v0.2","","""event"",""trial"",""time""
""focus"",""1"",""2059""
""fullscreenenter"",""1"",""3931""
","
","""event"",""trial"",""time""
""focus"",""1"",""2059""
","""event"",""trial"",""time""
""fullscreenenter"",""1"",""3931""
","
","","","-1","","","19","5832","287","&#9733;","elianto","#3366ff99","-1","-1","1","+10","[]","0","1","","","5832","5","2","2","win","no-go","0"
"pit-trial","126","1461195","0.0-9.0","battery-v0.2","","""event"",""trial"",""time""
""focus"",""1"",""2059""
""fullscreenenter"",""1"",""3931""
","
","""event"",""trial"",""time""
""focus"",""1"",""2059""
","""event"",""trial"",""time""
""fullscreenenter"",""1"",""3931""
","
","","","1045.3999999985099","","","19","5832","287","&#9728;","elianto","#f73b6a7A","-1"," ","0","-10","[1898.3999999985099]","1","1","","","5832","6","0","4","lose","no-go","0"
"pit-trial","127","1464811","0.0-10.0","battery-v0.2","","""event"",""trial"",""time""
""focus"",""1"",""2059""
""fullscreenenter"",""1"",""3931""
","
","""event"",""trial"",""time""
""focus"",""1"",""2059""
","""event"",""trial"",""time""
""fullscreenenter"",""1"",""3931""
","
","","","741","","","19","5832","287","&#9730;","elianto","#3366ff99"," "," ","1","+10","[1599.1000000014901]","1","1","","","5832","7","1","1","win","go","0"
"pit-trial","128","1469675","0.0-11.0","battery-v0.2","","""event"",""trial"",""time""
""focus"",""1"",""2059""
""fullscreenenter"",""1"",""3931""
","
","""event"",""trial"",""time""
""focus"",""1"",""2059""
","""event"",""trial"",""time""
""fullscreenenter"",""1"",""3931""
","
","","","-1","","","19","5832","287","&#9752;","elianto","#f73b6a7A"," ","-1","0","-10","[]","0","1","","","5832","8","3","3","lose","go","0"
"pit-trial","129","1473442","0.0-12.0","battery-v0.2","","""event"",""trial"",""time""
""focus"",""1"",""2059""
""fullscreenenter"",""1"",""3931""
","
","""event"",""trial"",""time""
""focus"",""1"",""2059""
","""event"",""trial"",""time""
""fullscreenenter"",""1"",""3931""
","
","","","908.3000000044703","","","19","5832","287","&#9730;","elianto","#3366ff99"," "," ","1","+10","[1759.5]","1","1","","","5832","9","1","1","win","go","0"
"pit-trial","130","1478307","0.0-13.0","battery-v0.2","","""event"",""trial"",""time""
""focus"",""1"",""2059""
""fullscreenenter"",""1"",""3931""
","
","""event"",""trial"",""time""
""focus"",""1"",""2059""
","""event"",""trial"",""time""
""fullscreenenter"",""1"",""3931""
","
","","","-1","","","19","5832","287","&#9752;","elianto","#f73b6a7A"," ","-1","0","0","[]","0","1","","","5832","10","3","3","lose","go","1"
"pit-trial","131","1483171","0.0-14.0","battery-v0.2","","""event"",""trial"",""time""
""focus"",""1"",""2059""
""fullscreenenter"",""1"",""3931""
","
","""event"",""trial"",""time""
""focus"",""1"",""2059""
","""event"",""trial"",""time""
""fullscreenenter"",""1"",""3931""
","
","","","-1","","","19","5832","287","&#9733;","elianto","#3366ff99","-1","-1","1","+10","[]","0","1","","","5832","11","2","2","win","no-go","0"
"pit-trial","132","1488035","0.0-15.0","battery-v0.2","","""event"",""trial"",""time""
""focus"",""1"",""2059""
""fullscreenenter"",""1"",""3931""
","
","""event"",""trial"",""time""
""focus"",""1"",""2059""
","""event"",""trial"",""time""
""fullscreenenter"",""1"",""3931""
","
","","","-1","","","19","5832","287","&#9728;","elianto","#f73b6a7A","-1","-1","1","0","[]","0","1","","","5832","12","0","4","lose","no-go","0"
"pit-trial","133","1492900","0.0-16.0","battery-v0.2","","""event"",""trial"",""time""
""focus"",""1"",""2059""
""fullscreenenter"",""1"",""3931""
","
","""event"",""trial"",""time""
""focus"",""1"",""2059""
","""event"",""trial"",""time""
""fullscreenenter"",""1"",""3931""
","
","","","-1","","","19","5832","287","&#9733;","elianto","#3366ff99","-1","-1","1","+10","[]","0","1","","","5832","13","2","2","win","no-go","0"
"pit-trial","134","1497763","0.0-17.0","battery-v0.2","","""event"",""trial"",""time""
""focus"",""1"",""2059""
""fullscreenenter"",""1"",""3931""
","
","""event"",""trial"",""time""
""focus"",""1"",""2059""
","""event"",""trial"",""time""
""fullscreenenter"",""1"",""3931""
","
","","","-1","","","19","5832","287","&#9752;","elianto","#f73b6a7A"," ","-1","0","-10","[]","0","1","","","5832","14","3","3","lose","go","0"
"pit-trial","135","1502627","0.0-18.0","battery-v0.2","","""event"",""trial"",""time""
""focus"",""1"",""2059""
""fullscreenenter"",""1"",""3931""
","
","""event"",""trial"",""time""
""focus"",""1"",""2059""
","""event"",""trial"",""time""
""fullscreenenter"",""1"",""3931""
","
","","","-1","","","19","5832","287","&#9728;","elianto","#f73b6a7A","-1","-1","1","-10","[]","0","1","","","5832","15","0","4","lose","no-go","1"
"pit-trial","136","1506195","0.0-19.0","battery-v0.2","","""event"",""trial"",""time""
""focus"",""1"",""2059""
""fullscreenenter"",""1"",""3931""
","
","""event"",""trial"",""time""
""focus"",""1"",""2059""
","""event"",""trial"",""time""
""fullscreenenter"",""1"",""3931""
","
","","","704.1000000014901","","","19","5832","287","&#9730;","elianto","#3366ff99"," "," ","1","+10","[1556.2000000029802]","1","1","","","5832","16","1","1","win","go","0"
"pit-trial","137","1511067","0.0-20.0","battery-v0.2","","""event"",""trial"",""time""
""focus"",""1"",""2059""
""fullscreenenter"",""1"",""3931""
","
","""event"",""trial"",""time""
""focus"",""1"",""2059""
","""event"",""trial"",""time""
""fullscreenenter"",""1"",""3931""
","
","","","-1","","","19","5832","287","&#9733;","elianto","#3366ff99","-1","-1","1","+10","[]","0","1","","","5832","17","2","2","win","no-go","0"
"pit-trial","138","1515930","0.0-21.0","battery-v0.2","","""event"",""trial"",""time""
""focus"",""1"",""2059""
""fullscreenenter"",""1"",""3931""
","
","""event"",""trial"",""time""
""focus"",""1"",""2059""
","""event"",""trial"",""time""
""fullscreenenter"",""1"",""3931""
","
","","","-1","","","19","5832","287","&#9752;","elianto","#f73b6a7A"," ","-1","0","-10","[]","0","1","","","5832","18","3","3","lose","go","0"
"pit-trial","139","1520795","0.0-22.0","battery-v0.2","","""event"",""trial"",""time""
""focus"",""1"",""2059""
""fullscreenenter"",""1"",""3931""
","
","""event"",""trial"",""time""
""focus"",""1"",""2059""
","""event"",""trial"",""time""
""fullscreenenter"",""1"",""3931""
","
","","","-1","","","19","5832","287","&#9728;","elianto","#f73b6a7A","-1","-1","1","-10","[]","0","1","","","5832","19","0","4","lose","no-go","1"
"pit-trial","140","1524443","0.0-23.0","battery-v0.2","","""event"",""trial"",""time""
""focus"",""1"",""2059""
""fullscreenenter"",""1"",""3931""
""blur"",""141"",""2473451""
""focus"",""141"",""2488441""
","""event"",""trial"",""time""
""blur"",""141"",""2473451""
","""event"",""trial"",""time""
""focus"",""1"",""2059""
""focus"",""141"",""2488441""
","""event"",""trial"",""time""
""fullscreenenter"",""1"",""3931""
","
","","","784.3999999985099","","","19","5832","287","&#9730;","elianto","#3366ff99"," "," ","1","+10","[1637.1999999955297]","1","1","","","5832","20","1","1","win","go","0"
"pit-instructions","141","2490165","0.0-24.0","battery-v0.2","","""event"",""trial"",""time""
""focus"",""1"",""2059""
""fullscreenenter"",""1"",""3931""
""blur"",""141"",""2473451""
""focus"",""141"",""2488441""
","""event"",""trial"",""time""
""blur"",""141"",""2473451""
","""event"",""trial"",""time""
""focus"",""1"",""2059""
""focus"",""141"",""2488441""
","""event"",""trial"",""time""
""fullscreenenter"",""1"",""3931""
","
","","[{""page_index"":0,""viewing_time"":181661.5},{""page_index"":1,""viewing_time"":784057.1000000015}]","965719.1000000015","","","","","","","","","","","","","","","","","","","","","","","",""
"pit-trial","142","2493659","0.0-25.0","battery-v0.2","","""event"",""trial"",""time""
""focus"",""1"",""2059""
""fullscreenenter"",""1"",""3931""
""blur"",""141"",""2473451""
""focus"",""141"",""2488441""
","""event"",""trial"",""time""
""blur"",""141"",""2473451""
","""event"",""trial"",""time""
""focus"",""1"",""2059""
""focus"",""141"",""2488441""
","""event"",""trial"",""time""
""fullscreenenter"",""1"",""3931""
","
","","","629","","","19","5832","287","l","elianto","#3366ff99"," "," ","1","+10","[1486.5999999940395]","1","2","","","5832","21","1","1","win","go","0"
"pit-trial","143","2497266","0.0-26.0","battery-v0.2","","""event"",""trial"",""time""
""focus"",""1"",""2059""
""fullscreenenter"",""1"",""3931""
""blur"",""141"",""2473451""
""focus"",""141"",""2488441""
","""event"",""trial"",""time""
""blur"",""141"",""2473451""
","""event"",""trial"",""time""
""focus"",""1"",""2059""
""focus"",""141"",""2488441""
","""event"",""trial"",""time""
""fullscreenenter"",""1"",""3931""
","
","","","750.2000000029802","","","19","5832","287","g","elianto","#f73b6a7A"," "," ","1","0","[1602.6000000014901]","1","2","","","5832","22","3","3","lose","go","0"
"pit-trial","144","2501251","0.0-27.0","battery-v0.2","","""event"",""trial"",""time""
""focus"",""1"",""2059""
""fullscreenenter"",""1"",""3931""
""blur"",""141"",""2473451""
""focus"",""141"",""2488441""
","""event"",""trial"",""time""
""blur"",""141"",""2473451""
","""event"",""trial"",""time""
""focus"",""1"",""2059""
""focus"",""141"",""2488441""
","""event"",""trial"",""time""
""fullscreenenter"",""1"",""3931""
","
","","","1119.7999999970198","","","19","5832","287","a","elianto","#f73b6a7A","-1"," ","0","-10","[1972.6999999955297]","1","2","","","5832","23","2","4","lose","no-go","0"
"pit-trial","145","2505123","0.0-28.0","battery-v0.2","","""event"",""trial"",""time""
""focus"",""1"",""2059""
""fullscreenenter"",""1"",""3931""
""blur"",""141"",""2473451""
""focus"",""141"",""2488441""
","""event"",""trial"",""time""
""blur"",""141"",""2473451""
","""event"",""trial"",""time""
""focus"",""1"",""2059""
""focus"",""141"",""2488441""
","""event"",""trial"",""time""
""fullscreenenter"",""1"",""3931""
","
","","","1007.7999999970198","","","19","5832","287","u","elianto","#f73b6a7A","-1"," ","0","0","[1860.6000000014901]","1","2","","","5832","24","0","4","lose","no-go","1"
"pit-trial","146","2509987","0.0-29.0","battery-v0.2","","""event"",""trial"",""time""
""focus"",""1"",""2059""
""fullscreenenter"",""1"",""3931""
""blur"",""141"",""2473451""
""focus"",""141"",""2488441""
","""event"",""trial"",""time""
""blur"",""141"",""2473451""
","""event"",""trial"",""time""
""focus"",""1"",""2059""
""focus"",""141"",""2488441""
","""event"",""trial"",""time""
""fullscreenenter"",""1"",""3931""
","
","","","-1","","","19","5832","287","a","elianto","#f73b6a7A","-1","-1","1","0","[]","0","2","","","5832","25","2","4","lose","no-go","0"
"pit-trial","147","2514012","0.0-30.0","battery-v0.2","","""event"",""trial"",""time""
""focus"",""1"",""2059""
""fullscreenenter"",""1"",""3931""
""blur"",""141"",""2473451""
""focus"",""141"",""2488441""
","""event"",""trial"",""time""
""blur"",""141"",""2473451""
","""event"",""trial"",""time""
""focus"",""1"",""2059""
""focus"",""141"",""2488441""
","""event"",""trial"",""time""
""fullscreenenter"",""1"",""3931""
","
","","","1160.7000000029802","","","19","5832","287","g","elianto","#f73b6a7A"," "," ","1","-10","[2013.2000000029802]","1","2","","","5832","26","3","3","lose","go","1"
"pit-trial","148","2518323","0.0-31.0","battery-v0.2","","""event"",""trial"",""time""
""focus"",""1"",""2059""
""fullscreenenter"",""1"",""3931""
""blur"",""141"",""2473451""
""focus"",""141"",""2488441""
","""event"",""trial"",""time""
""blur"",""141"",""2473451""
","""event"",""trial"",""time""
""focus"",""1"",""2059""
""focus"",""141"",""2488441""
","""event"",""trial"",""time""
""fullscreenenter"",""1"",""3931""
","
","","","1439.5999999940395","","","19","5832","287","u","elianto","#f73b6a7A","-1"," ","0","0","[2298.0999999940395]","1","2","","","5832","27","0","4","lose","no-go","1"
"pit-trial","149","2522052","0.0-32.0","battery-v0.2","","""event"",""trial"",""time""
""focus"",""1"",""2059""
""fullscreenenter"",""1"",""3931""
""blur"",""141"",""2473451""
""focus"",""141"",""2488441""
","""event"",""trial"",""time""
""blur"",""141"",""2473451""
","""event"",""trial"",""time""
""focus"",""1"",""2059""
""focus"",""141"",""2488441""
","""event"",""trial"",""time""
""fullscreenenter"",""1"",""3931""
","
","","","870.2000000029802","","","19","5832","287","l","elianto","#3366ff99"," "," ","1","+10","[1723.3999999985099]","1","2","","","5832","28","1","1","win","go","0"
"pit-trial","150","2526556","0.0-33.0","battery-v0.2","","""event"",""trial"",""time""
""focus"",""1"",""2059""
""fullscreenenter"",""1"",""3931""
""blur"",""141"",""2473451""
""focus"",""141"",""2488441""
","""event"",""trial"",""time""
""blur"",""141"",""2473451""
","""event"",""trial"",""time""
""focus"",""1"",""2059""
""focus"",""141"",""2488441""
","""event"",""trial"",""time""
""fullscreenenter"",""1"",""3931""
","
","","","1639.5","","","19","5832","287","a","elianto","#f73b6a7A","-1"," ","0","0","[2491.8000000044703]","1","2","","","5832","29","2","4","lose","no-go","1"
"pit-trial","151","2531419","0.0-34.0","battery-v0.2","","""event"",""trial"",""time""
""focus"",""1"",""2059""
""fullscreenenter"",""1"",""3931""
""blur"",""141"",""2473451""
""focus"",""141"",""2488441""
","""event"",""trial"",""time""
""blur"",""141"",""2473451""
","""event"",""trial"",""time""
""focus"",""1"",""2059""
""focus"",""141"",""2488441""
","""event"",""trial"",""time""
""fullscreenenter"",""1"",""3931""
","
","","","-1","","","19","5832","287","u","elianto","#f73b6a7A","-1","-1","1","0","[]","0","2","","","5832","30","0","4","lose","no-go","0"
"pit-trial","152","2535019","0.0-35.0","battery-v0.2","","""event"",""trial"",""time""
""focus"",""1"",""2059""
""fullscreenenter"",""1"",""3931""
""blur"",""141"",""2473451""
""focus"",""141"",""2488441""
","""event"",""trial"",""time""
""blur"",""141"",""2473451""
","""event"",""trial"",""time""
""focus"",""1"",""2059""
""focus"",""141"",""2488441""
","""event"",""trial"",""time""
""fullscreenenter"",""1"",""3931""
","
","","","735","","","19","5832","287","l","elianto","#3366ff99"," "," ","1","+10","[1587.5]","1","2","","","5832","31","1","1","win","go","0"
"pit-trial","153","2539746","0.0-36.0","battery-v0.2","","""event"",""trial"",""time""
""focus"",""1"",""2059""
""fullscreenenter"",""1"",""3931""
""blur"",""141"",""2473451""
""focus"",""141"",""2488441""
","""event"",""trial"",""time""
""blur"",""141"",""2473451""
","""event"",""trial"",""time""
""focus"",""1"",""2059""
""focus"",""141"",""2488441""
","""event"",""trial"",""time""
""fullscreenenter"",""1"",""3931""
","
","","","1869.2000000029802","","","19","5832","287","g","elianto","#f73b6a7A"," "," ","1","0","[2722.5]","1","2","","","5832","32","3","3","lose","go","0"
"pit-trial","154","2544611","0.0-37.0","battery-v0.2","","""event"",""trial"",""time""
""focus"",""1"",""2059""
""fullscreenenter"",""1"",""3931""
""blur"",""141"",""2473451""
""focus"",""141"",""2488441""
","""event"",""trial"",""time""
""blur"",""141"",""2473451""
","""event"",""trial"",""time""
""focus"",""1"",""2059""
""focus"",""141"",""2488441""
","""event"",""trial"",""time""
""fullscreenenter"",""1"",""3931""
","
","","","-1","","","19","5832","287","u","elianto","#f73b6a7A","-1","-1","1","0","[]","0","2","","","5832","33","0","4","lose","no-go","0"
"pit-trial","155","2548443","0.0-38.0","battery-v0.2","","""event"",""trial"",""time""
""focus"",""1"",""2059""
""fullscreenenter"",""1"",""3931""
""blur"",""141"",""2473451""
""focus"",""141"",""2488441""
","""event"",""trial"",""time""
""blur"",""141"",""2473451""
","""event"",""trial"",""time""
""focus"",""1"",""2059""
""focus"",""141"",""2488441""
","""event"",""trial"",""time""
""fullscreenenter"",""1"",""3931""
","
","","","973.3999999985099","","","19","5832","287","g","elianto","#f73b6a7A"," "," ","1","0","[1824.6000000014901]","1","2","","","5832","34","3","3","lose","go","0"
"pit-trial","156","2551946","0.0-39.0","battery-v0.2","","""event"",""trial"",""time""
""focus"",""1"",""2059""
""fullscreenenter"",""1"",""3931""
""blur"",""141"",""2473451""
""focus"",""141"",""2488441""
","""event"",""trial"",""time""
""blur"",""141"",""2473451""
","""event"",""trial"",""time""
""focus"",""1"",""2059""
""focus"",""141"",""2488441""
","""event"",""trial"",""time""
""fullscreenenter"",""1"",""3931""
","
","","","645.7999999970198","","","19","5832","287","l","elianto","#3366ff99"," "," ","1","+10","[1497.5]","1","2","","","5832","35","1","1","win","go","0"
"pit-trial","157","2556755","0.0-40.0","battery-v0.2","","""event"",""trial"",""time""
""focus"",""1"",""2059""
""fullscreenenter"",""1"",""3931""
""blur"",""141"",""2473451""
""focus"",""141"",""2488441""
","""event"",""trial"",""time""
""blur"",""141"",""2473451""
","""event"",""trial"",""time""
""focus"",""1"",""2059""
""focus"",""141"",""2488441""
","""event"",""trial"",""time""
""fullscreenenter"",""1"",""3931""
","
","","","1944.8999999985099","","","19","5832","287","a","elianto","#f73b6a7A","-1"," ","0","-10","[2794.8000000044703]","1","2","","","5832","36","2","4","lose","no-go","0"
"pit-trial","158","2560379","0.0-41.0","battery-v0.2","","""event"",""trial"",""time""
""focus"",""1"",""2059""
""fullscreenenter"",""1"",""3931""
""blur"",""141"",""2473451""
""focus"",""141"",""2488441""
","""event"",""trial"",""time""
""blur"",""141"",""2473451""
","""event"",""trial"",""time""
""focus"",""1"",""2059""
""focus"",""141"",""2488441""
","""event"",""trial"",""time""
""fullscreenenter"",""1"",""3931""
","
","","","761.3000000044703","","","19","5832","287","l","elianto","#3366ff99"," "," ","1","+10","[1615.1000000014901]","1","2","","","5832","37","1","1","win","go","0"
"pit-trial","159","2565244","0.0-42.0","battery-v0.2","","""event"",""trial"",""time""
""focus"",""1"",""2059""
""fullscreenenter"",""1"",""3931""
""blur"",""141"",""2473451""
""focus"",""141"",""2488441""
","""event"",""trial"",""time""
""blur"",""141"",""2473451""
","""event"",""trial"",""time""
""focus"",""1"",""2059""
""focus"",""141"",""2488441""
","""event"",""trial"",""time""
""fullscreenenter"",""1"",""3931""
","
","","","-1","","","19","5832","287","g","elianto","#f73b6a7A"," ","-1","0","0","[3083.2000000029802]","1","2","","","5832","38","3","3","lose","go","1"
"pit-trial","160","2570107","0.0-43.0","battery-v0.2","","""event"",""trial"",""time""
""focus"",""1"",""2059""
""fullscreenenter"",""1"",""3931""
""blur"",""141"",""2473451""
""focus"",""141"",""2488441""
","""event"",""trial"",""time""
""blur"",""141"",""2473451""
","""event"",""trial"",""time""
""focus"",""1"",""2059""
""focus"",""141"",""2488441""
","""event"",""trial"",""time""
""fullscreenenter"",""1"",""3931""
","
","","","-1","","","19","5832","287","u","elianto","#f73b6a7A","-1","-1","1","0","[]","0","2","","","5832","39","0","4","lose","no-go","0"
"pit-trial","161","2574972","0.0-44.0","battery-v0.2","","""event"",""trial"",""time""
""focus"",""1"",""2059""
""fullscreenenter"",""1"",""3931""
""blur"",""141"",""2473451""
""focus"",""141"",""2488441""
","""event"",""trial"",""time""
""blur"",""141"",""2473451""
","""event"",""trial"",""time""
""focus"",""1"",""2059""
""focus"",""141"",""2488441""
","""event"",""trial"",""time""
""fullscreenenter"",""1"",""3931""
","
","","","-1","","","19","5832","287","a","elianto","#f73b6a7A","-1","-1","1","0","[]","0","2","","","5832","40","2","4","lose","no-go","0"
"pit-trial","162","2579843","0.0-45.0","battery-v0.2","","""event"",""trial"",""time""
""focus"",""1"",""2059""
""fullscreenenter"",""1"",""3931""
""blur"",""141"",""2473451""
""focus"",""141"",""2488441""
","""event"",""trial"",""time""
""blur"",""141"",""2473451""
","""event"",""trial"",""time""
""focus"",""1"",""2059""
""focus"",""141"",""2488441""
","""event"",""trial"",""time""
""fullscreenenter"",""1"",""3931""
","
","","","-1","","","19","5832","287","u","elianto","#f73b6a7A","-1","-1","1","-10","[]","0","2","","","5832","41","0","4","lose","no-go","1"
"pit-trial","163","2583433","0.0-46.0","battery-v0.2","","""event"",""trial"",""time""
""focus"",""1"",""2059""
""fullscreenenter"",""1"",""3931""
""blur"",""141"",""2473451""
""focus"",""141"",""2488441""
","""event"",""trial"",""time""
""blur"",""141"",""2473451""
","""event"",""trial"",""time""
""focus"",""1"",""2059""
""focus"",""141"",""2488441""
","""event"",""trial"",""time""
""fullscreenenter"",""1"",""3931""
","
","","","734.0999999940395","","","19","5832","287","l","elianto","#3366ff99"," "," ","1","+10","[1587.0999999940395]","1","2","","","5832","42","1","1","win","go","0"
"pit-trial","164","2588299","0.0-47.0","battery-v0.2","","""event"",""trial"",""time""
""focus"",""1"",""2059""
""fullscreenenter"",""1"",""3931""
""blur"",""141"",""2473451""
""focus"",""141"",""2488441""
","""event"",""trial"",""time""
""blur"",""141"",""2473451""
","""event"",""trial"",""time""
""focus"",""1"",""2059""
""focus"",""141"",""2488441""
","""event"",""trial"",""time""
""fullscreenenter"",""1"",""3931""
","
","","","-1","","","19","5832","287","a","elianto","#f73b6a7A","-1","-1","1","0","[]","0","2","","","5832","43","2","4","lose","no-go","0"
"pit-trial","165","2593163","0.0-48.0","battery-v0.2","","""event"",""trial"",""time""
""focus"",""1"",""2059""
""fullscreenenter"",""1"",""3931""
""blur"",""141"",""2473451""
""focus"",""141"",""2488441""
","""event"",""trial"",""time""
""blur"",""141"",""2473451""
","""event"",""trial"",""time""
""focus"",""1"",""2059""
""focus"",""141"",""2488441""
","""event"",""trial"",""time""
""fullscreenenter"",""1"",""3931""
","
","","","-1","","","19","5832","287","g","elianto","#f73b6a7A"," ","-1","0","-10","[]","0","2","","","5832","44","3","3","lose","go","0"
"pit-trial","166","2598027","0.0-49.0","battery-v0.2","","""event"",""trial"",""time""
""focus"",""1"",""2059""
""fullscreenenter"",""1"",""3931""
""blur"",""141"",""2473451""
""focus"",""141"",""2488441""
","""event"",""trial"",""time""
""blur"",""141"",""2473451""
","""event"",""trial"",""time""
""focus"",""1"",""2059""
""focus"",""141"",""2488441""
","""event"",""trial"",""time""
""fullscreenenter"",""1"",""3931""
","
","","","-1","","","19","5832","287","p","elianto","#3366ff99","-1","-1","1","+10","[2873.6999999955297]","1","2","","","5832","45","4","2","win","no-go","0"
"pit-trial","167","2602891","0.0-50.0","battery-v0.2","","""event"",""trial"",""time""
""focus"",""1"",""2059""
""fullscreenenter"",""1"",""3931""
""blur"",""141"",""2473451""
""focus"",""141"",""2488441""
","""event"",""trial"",""time""
""blur"",""141"",""2473451""
","""event"",""trial"",""time""
""focus"",""1"",""2059""
""focus"",""141"",""2488441""
","""event"",""trial"",""time""
""fullscreenenter"",""1"",""3931""
","
","","","-1","","","19","5832","287","u","elianto","#f73b6a7A","-1","-1","1","0","[]","0","2","","","5832","46","0","4","lose","no-go","0"
"pit-trial","168","2606540","0.0-51.0","battery-v0.2","","""event"",""trial"",""time""
""focus"",""1"",""2059""
""fullscreenenter"",""1"",""3931""
""blur"",""141"",""2473451""
""focus"",""141"",""2488441""
","""event"",""trial"",""time""
""blur"",""141"",""2473451""
","""event"",""trial"",""time""
""focus"",""1"",""2059""
""focus"",""141"",""2488441""
","""event"",""trial"",""time""
""fullscreenenter"",""1"",""3931""
","
","","","790.1999999955297","","","19","5832","287","g","elianto","#f73b6a7A"," "," ","1","0","[1643.2000000029802]","1","2","","","5832","47","3","3","lose","go","0"
"pit-trial","169","2611402","0.0-52.0","battery-v0.2","","""event"",""trial"",""time""
""focus"",""1"",""2059""
""fullscreenenter"",""1"",""3931""
""blur"",""141"",""2473451""
""focus"",""141"",""2488441""
","""event"",""trial"",""time""
""blur"",""141"",""2473451""
","""event"",""trial"",""time""
""focus"",""1"",""2059""
""focus"",""141"",""2488441""
","""event"",""trial"",""time""
""fullscreenenter"",""1"",""3931""
","
","","","-1","","","19","5832","287","a","elianto","#f73b6a7A","-1","-1","1","-10","[]","0","2","","","5832","48","2","4","lose","no-go","1"
"pit-trial","170","2616155","0.0-53.0","battery-v0.2","","""event"",""trial"",""time""
""focus"",""1"",""2059""
""fullscreenenter"",""1"",""3931""
""blur"",""141"",""2473451""
""focus"",""141"",""2488441""
","""event"",""trial"",""time""
""blur"",""141"",""2473451""
","""event"",""trial"",""time""
""focus"",""1"",""2059""
""focus"",""141"",""2488441""
","""event"",""trial"",""time""
""fullscreenenter"",""1"",""3931""
","
","","","1892.5","","","19","5832","287","g","elianto","#f73b6a7A"," "," ","1","0","[2745.2000000029802]","1","2","","","5832","49","3","3","lose","go","0"
"pit-trial","171","2621019","0.0-54.0","battery-v0.2","","""event"",""trial"",""time""
""focus"",""1"",""2059""
""fullscreenenter"",""1"",""3931""
""blur"",""141"",""2473451""
""focus"",""141"",""2488441""
","""event"",""trial"",""time""
""blur"",""141"",""2473451""
","""event"",""trial"",""time""
""focus"",""1"",""2059""
""focus"",""141"",""2488441""
","""event"",""trial"",""time""
""fullscreenenter"",""1"",""3931""
","
","","","-1","","","19","5832","287","u","elianto","#f73b6a7A","-1","-1","1","0","[]","0","2","","","5832","50","0","4","lose","no-go","0"
"pit-trial","172","2624757","0.0-55.0","battery-v0.2","","""event"",""trial"",""time""
""focus"",""1"",""2059""
""fullscreenenter"",""1"",""3931""
""blur"",""141"",""2473451""
""focus"",""141"",""2488441""
","""event"",""trial"",""time""
""blur"",""141"",""2473451""
","""event"",""trial"",""time""
""focus"",""1"",""2059""
""focus"",""141"",""2488441""
","""event"",""trial"",""time""
""fullscreenenter"",""1"",""3931""
","
","","","863","","","19","5832","287","p","elianto","#3366ff99","-1"," ","0","+10","[1715.6000000014901]","1","2","","","5832","51","4","2","win","no-go","1"
"pit-trial","173","2628476","0.0-56.0","battery-v0.2","","""event"",""trial"",""time""
""focus"",""1"",""2059""
""fullscreenenter"",""1"",""3931""
""blur"",""141"",""2473451""
""focus"",""141"",""2488441""
","""event"",""trial"",""time""
""blur"",""141"",""2473451""
","""event"",""trial"",""time""
""focus"",""1"",""2059""
""focus"",""141"",""2488441""
","""event"",""trial"",""time""
""fullscreenenter"",""1"",""3931""
","
","","","848.6000000014901","","","19","5832","287","l","elianto","#3366ff99"," "," ","1","+10","[1707.6000000014901]","1","2","","","5832","52","1","1","win","go","0"
"pit-trial","174","2632490","0.0-57.0","battery-v0.2","","""event"",""trial"",""time""
""focus"",""1"",""2059""
""fullscreenenter"",""1"",""3931""
""blur"",""141"",""2473451""
""focus"",""141"",""2488441""
","""event"",""trial"",""time""
""blur"",""141"",""2473451""
","""event"",""trial"",""time""
""focus"",""1"",""2059""
""focus"",""141"",""2488441""
","""event"",""trial"",""time""
""fullscreenenter"",""1"",""3931""
","
","","","1150.8999999985099","","","19","5832","287","p","elianto","#3366ff99","-1"," ","0","0","[2005.2000000029802]","1","2","","","5832","53","4","2","win","no-go","0"
"pit-trial","175","2636018","0.0-58.0","battery-v0.2","","""event"",""trial"",""time""
""focus"",""1"",""2059""
""fullscreenenter"",""1"",""3931""
""blur"",""141"",""2473451""
""focus"",""141"",""2488441""
","""event"",""trial"",""time""
""blur"",""141"",""2473451""
","""event"",""trial"",""time""
""focus"",""1"",""2059""
""focus"",""141"",""2488441""
","""event"",""trial"",""time""
""fullscreenenter"",""1"",""3931""
","
","","","664","","","19","5832","287","l","elianto","#3366ff99"," "," ","1","+10","[1518.1999999955297]","1","2","","","5832","54","1","1","win","go","0"
"pit-trial","176","2640090","0.0-59.0","battery-v0.2","","""event"",""trial"",""time""
""focus"",""1"",""2059""
""fullscreenenter"",""1"",""3931""
""blur"",""141"",""2473451""
""focus"",""141"",""2488441""
","""event"",""trial"",""time""
""blur"",""141"",""2473451""
","""event"",""trial"",""time""
""focus"",""1"",""2059""
""focus"",""141"",""2488441""
","""event"",""trial"",""time""
""fullscreenenter"",""1"",""3931""
","
","","","1213.6000000014901","","","19","5832","287","a","elianto","#f73b6a7A","-1"," ","0","-10","[2066.8000000044703]","1","2","","","5832","55","2","4","lose","no-go","0"
"pit-trial","177","2644955","0.0-60.0","battery-v0.2","","""event"",""trial"",""time""
""focus"",""1"",""2059""
""fullscreenenter"",""1"",""3931""
""blur"",""141"",""2473451""
""focus"",""141"",""2488441""
","""event"",""trial"",""time""
""blur"",""141"",""2473451""
","""event"",""trial"",""time""
""focus"",""1"",""2059""
""focus"",""141"",""2488441""
","""event"",""trial"",""time""
""fullscreenenter"",""1"",""3931""
","
","","","-1","","","19","5832","287","u","elianto","#f73b6a7A","-1","-1","1","0","[]","0","2","","","5832","56","0","4","lose","no-go","0"
"pit-trial","178","2648547","0.0-61.0","battery-v0.2","","""event"",""trial"",""time""
""focus"",""1"",""2059""
""fullscreenenter"",""1"",""3931""
""blur"",""141"",""2473451""
""focus"",""141"",""2488441""
","""event"",""trial"",""time""
""blur"",""141"",""2473451""
","""event"",""trial"",""time""
""focus"",""1"",""2059""
""focus"",""141"",""2488441""
","""event"",""trial"",""time""
""fullscreenenter"",""1"",""3931""
","
","","","729.6000000014901","","","19","5832","287","p","elianto","#3366ff99","-1"," ","0","0","[1581.5]","1","2","","","5832","57","4","2","win","no-go","0"
"pit-trial","179","2652298","0.0-62.0","battery-v0.2","","""event"",""trial"",""time""
""focus"",""1"",""2059""
""fullscreenenter"",""1"",""3931""
""blur"",""141"",""2473451""
""focus"",""141"",""2488441""
","""event"",""trial"",""time""
""blur"",""141"",""2473451""
","""event"",""trial"",""time""
""focus"",""1"",""2059""
""focus"",""141"",""2488441""
","""event"",""trial"",""time""
""fullscreenenter"",""1"",""3931""
","
","","","887.7000000029802","","","19","5832","287","l","elianto","#3366ff99"," "," ","1","+10","[1739.5]","1","2","","","5832","58","1","1","win","go","0"
"pit-trial","180","2657162","0.0-63.0","battery-v0.2","","""event"",""trial"",""time""
""focus"",""1"",""2059""
""fullscreenenter"",""1"",""3931""
""blur"",""141"",""2473451""
""focus"",""141"",""2488441""
","""event"",""trial"",""time""
""blur"",""141"",""2473451""
","""event"",""trial"",""time""
""focus"",""1"",""2059""
""focus"",""141"",""2488441""
","""event"",""trial"",""time""
""fullscreenenter"",""1"",""3931""
","
","","","-1","","","19","5832","287","u","elianto","#f73b6a7A","-1","-1","1","0","[]","0","2","","","5832","59","0","4","lose","no-go","0"
"pit-trial","181","2660627","0.0-64.0","battery-v0.2","","""event"",""trial"",""time""
""focus"",""1"",""2059""
""fullscreenenter"",""1"",""3931""
""blur"",""141"",""2473451""
""focus"",""141"",""2488441""
","""event"",""trial"",""time""
""blur"",""141"",""2473451""
","""event"",""trial"",""time""
""focus"",""1"",""2059""
""focus"",""141"",""2488441""
","""event"",""trial"",""time""
""fullscreenenter"",""1"",""3931""
","
","","","604.2000000029802","","","19","5832","287","g","elianto","#f73b6a7A"," "," ","1","0","[1457.2000000029802]","1","2","","","5832","60","3","3","lose","go","0"
"pit-trial","182","2664291","0.0-65.0","battery-v0.2","","""event"",""trial"",""time""
""focus"",""1"",""2059""
""fullscreenenter"",""1"",""3931""
""blur"",""141"",""2473451""
""focus"",""141"",""2488441""
","""event"",""trial"",""time""
""blur"",""141"",""2473451""
","""event"",""trial"",""time""
""focus"",""1"",""2059""
""focus"",""141"",""2488441""
","""event"",""trial"",""time""
""fullscreenenter"",""1"",""3931""
","
","","","799.5999999940395","","","19","5832","287","g","elianto","#f73b6a7A"," "," ","1","0","[1652.1000000014901]","1","2","","","5832","61","3","3","lose","go","0"
"pit-trial","183","2669164","0.0-66.0","battery-v0.2","","""event"",""trial"",""time""
""focus"",""1"",""2059""
""fullscreenenter"",""1"",""3931""
""blur"",""141"",""2473451""
""focus"",""141"",""2488441""
","""event"",""trial"",""time""
""blur"",""141"",""2473451""
","""event"",""trial"",""time""
""focus"",""1"",""2059""
""focus"",""141"",""2488441""
","""event"",""trial"",""time""
""fullscreenenter"",""1"",""3931""
","
","","","-1","","","19","5832","287","a","elianto","#f73b6a7A","-1","-1","1","0","[]","0","2","","","5832","62","2","4","lose","no-go","0"
"pit-trial","184","2672715","0.0-67.0","battery-v0.2","","""event"",""trial"",""time""
""focus"",""1"",""2059""
""fullscreenenter"",""1"",""3931""
""blur"",""141"",""2473451""
""focus"",""141"",""2488441""
","""event"",""trial"",""time""
""blur"",""141"",""2473451""
","""event"",""trial"",""time""
""focus"",""1"",""2059""
""focus"",""141"",""2488441""
","""event"",""trial"",""time""
""fullscreenenter"",""1"",""3931""
","
","","","693.3000000044703","","","19","5832","287","p","elianto","#3366ff99","-1"," ","0","0","[1545.5]","1","2","","","5832","63","4","2","win","no-go","0"
"pit-trial","185","2676346","0.0-68.0","battery-v0.2","","""event"",""trial"",""time""
""focus"",""1"",""2059""
""fullscreenenter"",""1"",""3931""
""blur"",""141"",""2473451""
""focus"",""141"",""2488441""
","""event"",""trial"",""time""
""blur"",""141"",""2473451""
","""event"",""trial"",""time""
""focus"",""1"",""2059""
""focus"",""141"",""2488441""
","""event"",""trial"",""time""
""fullscreenenter"",""1"",""3931""
","
","","","767.6999999955297","","","19","5832","287","l","elianto","#3366ff99"," "," ","1","+10","[1619.2000000029802]","1","2","","","5832","64","1","1","win","go","0"
"pit-trial","186","2679987","0.0-69.0","battery-v0.2","","""event"",""trial"",""time""
""focus"",""1"",""2059""
""fullscreenenter"",""1"",""3931""
""blur"",""141"",""2473451""
""focus"",""141"",""2488441""
","""event"",""trial"",""time""
""blur"",""141"",""2473451""
","""event"",""trial"",""time""
""focus"",""1"",""2059""
""focus"",""141"",""2488441""
","""event"",""trial"",""time""
""fullscreenenter"",""1"",""3931""
","
","","","774.6000000014901","","","19","5832","287","g","elianto","#f73b6a7A"," "," ","1","-10","[1627.1999999955297]","1","2","","","5832","65","3","3","lose","go","1"
"pit-trial","187","2684850","0.0-70.0","battery-v0.2","","""event"",""trial"",""time""
""focus"",""1"",""2059""
""fullscreenenter"",""1"",""3931""
""blur"",""141"",""2473451""
""focus"",""141"",""2488441""
","""event"",""trial"",""time""
""blur"",""141"",""2473451""
","""event"",""trial"",""time""
""focus"",""1"",""2059""
""focus"",""141"",""2488441""
","""event"",""trial"",""time""
""fullscreenenter"",""1"",""3931""
","
","","","-1","","","19","5832","287","a","elianto","#f73b6a7A","-1","-1","1","0","[]","0","2","","","5832","66","2","4","lose","no-go","0"
"pit-trial","188","2688602","0.0-71.0","battery-v0.2","","""event"",""trial"",""time""
""focus"",""1"",""2059""
""fullscreenenter"",""1"",""3931""
""blur"",""141"",""2473451""
""focus"",""141"",""2488441""
","""event"",""trial"",""time""
""blur"",""141"",""2473451""
","""event"",""trial"",""time""
""focus"",""1"",""2059""
""focus"",""141"",""2488441""
","""event"",""trial"",""time""
""fullscreenenter"",""1"",""3931""
","
","","","889.3999999985099","","","19","5832","287","l","elianto","#3366ff99"," "," ","1","+10","[1743.5]","1","2","","","5832","67","1","1","win","go","0"
"pit-trial","189","2693466","0.0-72.0","battery-v0.2","","""event"",""trial"",""time""
""focus"",""1"",""2059""
""fullscreenenter"",""1"",""3931""
""blur"",""141"",""2473451""
""focus"",""141"",""2488441""
","""event"",""trial"",""time""
""blur"",""141"",""2473451""
","""event"",""trial"",""time""
""focus"",""1"",""2059""
""focus"",""141"",""2488441""
","""event"",""trial"",""time""
""fullscreenenter"",""1"",""3931""
","
","","","-1","","","19","5832","287","p","elianto","#3366ff99","-1","-1","1","+10","[]","0","2","","","5832","68","4","2","win","no-go","0"
"pit-trial","190","2697219","0.0-73.0","battery-v0.2","","""event"",""trial"",""time""
""focus"",""1"",""2059""
""fullscreenenter"",""1"",""3931""
""blur"",""141"",""2473451""
""focus"",""141"",""2488441""
","""event"",""trial"",""time""
""blur"",""141"",""2473451""
","""event"",""trial"",""time""
""focus"",""1"",""2059""
""focus"",""141"",""2488441""
","""event"",""trial"",""time""
""fullscreenenter"",""1"",""3931""
","
","","","889.5","","","19","5832","287","l","elianto","#3366ff99"," "," ","1","+10","[1741.6000000014901]","1","2","","","5832","69","1","1","win","go","0"
"pit-trial","191","2702082","0.0-74.0","battery-v0.2","","""event"",""trial"",""time""
""focus"",""1"",""2059""
""fullscreenenter"",""1"",""3931""
""blur"",""141"",""2473451""
""focus"",""141"",""2488441""
","""event"",""trial"",""time""
""blur"",""141"",""2473451""
","""event"",""trial"",""time""
""focus"",""1"",""2059""
""focus"",""141"",""2488441""
","""event"",""trial"",""time""
""fullscreenenter"",""1"",""3931""
","
","","","-1","","","19","5832","287","p","elianto","#3366ff99","-1","-1","1","+10","[]","0","2","","","5832","70","4","2","win","no-go","0"
"pit-trial","192","2705779","0.0-75.0","battery-v0.2","","""event"",""trial"",""time""
""focus"",""1"",""2059""
""fullscreenenter"",""1"",""3931""
""blur"",""141"",""2473451""
""focus"",""141"",""2488441""
","""event"",""trial"",""time""
""blur"",""141"",""2473451""
","""event"",""trial"",""time""
""focus"",""1"",""2059""
""focus"",""141"",""2488441""
","""event"",""trial"",""time""
""fullscreenenter"",""1"",""3931""
","
","","","831.1999999955297","","","19","5832","287","g","elianto","#f73b6a7A"," "," ","1","0","[1684.6000000014901]","1","2","","","5832","71","3","3","lose","go","0"
"pit-trial","193","2709939","0.0-76.0","battery-v0.2","","""event"",""trial"",""time""
""focus"",""1"",""2059""
""fullscreenenter"",""1"",""3931""
""blur"",""141"",""2473451""
""focus"",""141"",""2488441""
","""event"",""trial"",""time""
""blur"",""141"",""2473451""
","""event"",""trial"",""time""
""focus"",""1"",""2059""
""focus"",""141"",""2488441""
","""event"",""trial"",""time""
""fullscreenenter"",""1"",""3931""
","
","","","1302","","","19","5832","287","s","elianto","#3366ff99"," "," ","1","+10","[2154.60000000149]","1","2","","","5832","72","5","1","win","go","0"
"pit-trial","194","2714803","0.0-77.0","battery-v0.2","","""event"",""trial"",""time""
""focus"",""1"",""2059""
""fullscreenenter"",""1"",""3931""
""blur"",""141"",""2473451""
""focus"",""141"",""2488441""
","""event"",""trial"",""time""
""blur"",""141"",""2473451""
","""event"",""trial"",""time""
""focus"",""1"",""2059""
""focus"",""141"",""2488441""
","""event"",""trial"",""time""
""fullscreenenter"",""1"",""3931""
","
","","","-1","","","19","5832","287","p","elianto","#3366ff99","-1","-1","1","0","[]","0","2","","","5832","73","4","2","win","no-go","1"
"pit-trial","195","2718555","0.0-78.0","battery-v0.2","","""event"",""trial"",""time""
""focus"",""1"",""2059""
""fullscreenenter"",""1"",""3931""
""blur"",""141"",""2473451""
""focus"",""141"",""2488441""
","""event"",""trial"",""time""
""blur"",""141"",""2473451""
","""event"",""trial"",""time""
""focus"",""1"",""2059""
""focus"",""141"",""2488441""
","""event"",""trial"",""time""
""fullscreenenter"",""1"",""3931""
","
","","","887","","","19","5832","287","s","elianto","#3366ff99"," "," ","1","+10","[1738.8999999985099]","1","2","","","5832","74","5","1","win","go","0"
"pit-trial","196","2722482","0.0-79.0","battery-v0.2","","""event"",""trial"",""time""
""focus"",""1"",""2059""
""fullscreenenter"",""1"",""3931""
""blur"",""141"",""2473451""
""focus"",""141"",""2488441""
","""event"",""trial"",""time""
""blur"",""141"",""2473451""
","""event"",""trial"",""time""
""focus"",""1"",""2059""
""focus"",""141"",""2488441""
","""event"",""trial"",""time""
""fullscreenenter"",""1"",""3931""
","
","","","1066.0999999940395","","","19","5832","287","g","elianto","#f73b6a7A"," "," ","1","0","[1917.5]","1","2","","","5832","75","3","3","lose","go","0"
"pit-trial","197","2726218","0.0-80.0","battery-v0.2","","""event"",""trial"",""time""
""focus"",""1"",""2059""
""fullscreenenter"",""1"",""3931""
""blur"",""141"",""2473451""
""focus"",""141"",""2488441""
","""event"",""trial"",""time""
""blur"",""141"",""2473451""
","""event"",""trial"",""time""
""focus"",""1"",""2059""
""focus"",""141"",""2488441""
","""event"",""trial"",""time""
""fullscreenenter"",""1"",""3931""
","
","","","874","","","19","5832","287","l","elianto","#3366ff99"," "," ","1","+10","[1725.3000000044703]","1","2","","","5832","76","1","1","win","go","0"
"pit-trial","198","2731082","0.0-81.0","battery-v0.2","","""event"",""trial"",""time""
""focus"",""1"",""2059""
""fullscreenenter"",""1"",""3931""
""blur"",""141"",""2473451""
""focus"",""141"",""2488441""
","""event"",""trial"",""time""
""blur"",""141"",""2473451""
","""event"",""trial"",""time""
""focus"",""1"",""2059""
""focus"",""141"",""2488441""
","""event"",""trial"",""time""
""fullscreenenter"",""1"",""3931""
","
","","","-1","","","19","5832","287","w","elianto","#f73b6a7A","-1","-1","1","0","[]","0","2","","","5832","77","6","4","lose","no-go","0"
"pit-trial","199","2735162","0.0-82.0","battery-v0.2","","""event"",""trial"",""time""
""focus"",""1"",""2059""
""fullscreenenter"",""1"",""3931""
""blur"",""141"",""2473451""
