"trial_type","trial_index","time_elapsed","internal_node_id","task_version","subject_id","interactions","blur_events","focus_events","fullscreenenter_events","fullscreenexit_events","success","view_history","rt","responses","num_errors","age","subject","participantId","rune","rune_set","hex","correct","choice","accuracy","outcome","keys","total_keys","block","practice","value","sub","trial","stimulus","robot","valence","action","sham"
"pavlovia","0","7","0.0-0.0","battery-v0.2","","""event"",""trial"",""time""
""fullscreenenter"",""1"",""1191""
","
","
","""event"",""trial"",""time""
""fullscreenenter"",""1"",""1191""
","
","","","","","","","","","","","","","","","","","","","","","","","","","","",""
"fullscreen","1","2191","0.0-1.0","battery-v0.2","","""event"",""trial"",""time""
""fullscreenenter"",""1"",""1191""
","
","
","""event"",""trial"",""time""
""fullscreenenter"",""1"",""1191""
","
","true","","","","","","","","","","","","","","","","","","","","","","","","","",""
"pit-instructions","2","6795","0.0-2.0-0.0","battery-v0.2","","""event"",""trial"",""time""
""fullscreenenter"",""1"",""1191""
","
","
","""event"",""trial"",""time""
""fullscreenenter"",""1"",""1191""
","
","","[{""page_index"":0,""viewing_time"":4598.700000000186}]","4599","","","","","","","","","","","","","","","","","","","","","","","",""
"pit-comprehension","3","10389","0.0-2.0-1.0-0.0","battery-v0.2","","""event"",""trial"",""time""
""fullscreenenter"",""1"",""1191""
","
","
","""event"",""trial"",""time""
""fullscreenenter"",""1"",""1191""
","
","","","3591.2000000001863","[""shark""]","0","25","7264","3923","","","","","","","","","","","","","","","","","","",""
"pit-instructions","4","12476","0.0-2.0-1.0-1.0","battery-v0.2","","""event"",""trial"",""time""
""fullscreenenter"",""1"",""1191""
","
","
","""event"",""trial"",""time""
""fullscreenenter"",""1"",""1191""
","
","","[{""page_index"":0,""viewing_time"":2068.5}]","2068.800000000745","","","","","","","","","","","","","","","","","","","","","","","",""
"pit-comprehension","5","14676","0.0-2.0-2.0-0.0","battery-v0.2","","""event"",""trial"",""time""
""fullscreenenter"",""1"",""1191""
","
","
","""event"",""trial"",""time""
""fullscreenenter"",""1"",""1191""
","
","","","2196.7999999998137","[""tiger""]","0","25","7264","3923","","","","","","","","","","","","","","","","","","",""
"pit-instructions","6","15596","0.0-2.0-2.0-1.0","battery-v0.2","","""event"",""trial"",""time""
""fullscreenenter"",""1"",""1191""
","
","
","""event"",""trial"",""time""
""fullscreenenter"",""1"",""1191""
","
","","[{""page_index"":0,""viewing_time"":916}]","916.2999999998137","","","","","","","","","","","","","","","","","","","","","","","",""
"pit-instructions","7","208405","0.0-2.0-3.0","battery-v0.2","","""event"",""trial"",""time""
""fullscreenenter"",""1"",""1191""
","
","
","""event"",""trial"",""time""
""fullscreenenter"",""1"",""1191""
","
","","[{""page_index"":0,""viewing_time"":10515.5},{""page_index"":1,""viewing_time"":8840},{""page_index"":2,""viewing_time"":98232.79999999981},{""page_index"":3,""viewing_time"":6136.5},{""page_index"":4,""viewing_time"":5439.600000000559},{""page_index"":5,""viewing_time"":5288.0999999996275},{""page_index"":6,""viewing_time"":7056.5},{""page_index"":7,""viewing_time"":6535.600000000559},{""page_index"":8,""viewing_time"":6879.799999999814},{""page_index"":9,""viewing_time"":11824.299999999814},{""page_index"":10,""viewing_time"":7718.700000000186},{""page_index"":11,""viewing_time"":7505.0999999996275},{""page_index"":12,""viewing_time"":6095.9000000003725},{""page_index"":13,""viewing_time"":4736.200000000186}]","192805","","","","","","","","","","","","","","","","","","","","","","","",""
"pit-trial","8","211936","0.0-2.0-4.0-0.0","battery-v0.2","","""event"",""trial"",""time""
""fullscreenenter"",""1"",""1191""
","
","
","""event"",""trial"",""time""
""fullscreenenter"",""1"",""1191""
","
","","","658.2000000001863","","","25","7264","3923","&#9784;","elianto","#FFFFF080"," "," ","1","&#10004","[1512.4000000003725]","1","0","0","","","","","","","",""
"pit-trial","9","215206","0.0-2.0-4.1-0.1","battery-v0.2","","""event"",""trial"",""time""
""fullscreenenter"",""1"",""1191""
","
","
","""event"",""trial"",""time""
""fullscreenenter"",""1"",""1191""
","
","","","392.29999999981374","","","25","7264","3923","&#9784;","elianto","#FFFFF080"," "," ","1","&#10004","[1245.2999999998137]","1","0","0","","","","","","","",""
"pit-trial","10","218256","0.0-2.0-4.2-0.2","battery-v0.2","","""event"",""trial"",""time""
""fullscreenenter"",""1"",""1191""
","
","
","""event"",""trial"",""time""
""fullscreenenter"",""1"",""1191""
","
","","","180.8999999994412","","","25","7264","3923","&#9784;","elianto","#FFFFF080"," "," ","1","&#10004","[1034]","1","0","0","","","","","","","",""
"pit-trial","11","221296","0.0-2.0-4.3-0.3","battery-v0.2","","""event"",""trial"",""time""
""fullscreenenter"",""1"",""1191""
","
","
","""event"",""trial"",""time""
""fullscreenenter"",""1"",""1191""
","
","","","163.29999999981374","","","25","7264","3923","&#9784;","elianto","#FFFFF080"," "," ","1","&#10004","[1015.1999999992549]","1","0","0","","","","","","","",""
"pit-trial","12","224546","0.0-2.0-4.4-0.4","battery-v0.2","","""event"",""trial"",""time""
""fullscreenenter"",""1"",""1191""
","
","
","""event"",""trial"",""time""
""fullscreenenter"",""1"",""1191""
","
","","","374","","","25","7264","3923","&#9784;","elianto","#FFFFF080"," "," ","1","&#10004","[1227.5999999996275]","1","0","0","","","","","","","",""
"pit-instructions","13","254180","0.0-2.0-5.0","battery-v0.2","","""event"",""trial"",""time""
""fullscreenenter"",""1"",""1191""
","
","
","""event"",""trial"",""time""
""fullscreenenter"",""1"",""1191""
","
","","[{""page_index"":0,""viewing_time"":4549.799999999814},{""page_index"":1,""viewing_time"":6430.799999999814},{""page_index"":2,""viewing_time"":5697.299999999814},{""page_index"":3,""viewing_time"":12951.5}]","29629.700000000186","","","","","","","","","","","","","","","","","","","","","","","",""
"pit-trial","14","259055","0.0-2.0-6.0-0.0","battery-v0.2","","""event"",""trial"",""time""
""fullscreenenter"",""1"",""1191""
","
","
","""event"",""trial"",""time""
""fullscreenenter"",""1"",""1191""
","
","","","-1","","","25","7264","3923","&#9854;","elianto","#FFFFF080","-1","-1","1","&#10004","[]","0","0","1","","","","","","","",""
"pit-trial","15","263926","0.0-2.0-6.1-0.1","battery-v0.2","","""event"",""trial"",""time""
""fullscreenenter"",""1"",""1191""
","
","
","""event"",""trial"",""time""
""fullscreenenter"",""1"",""1191""
","
","","","-1","","","25","7264","3923","&#9854;","elianto","#FFFFF080","-1","-1","1","&#10004","[]","0","0","1","","","","","","","",""
"pit-trial","16","268806","0.0-2.0-6.2-0.2","battery-v0.2","","""event"",""trial"",""time""
""fullscreenenter"",""1"",""1191""
","
","
","""event"",""trial"",""time""
""fullscreenenter"",""1"",""1191""
","
","","","-1","","","25","7264","3923","&#9854;","elianto","#FFFFF080","-1","-1","1","&#10004","[]","0","0","1","","","","","","","",""
"pit-trial","17","273686","0.0-2.0-6.3-0.3","battery-v0.2","","""event"",""trial"",""time""
""fullscreenenter"",""1"",""1191""
","
","
","""event"",""trial"",""time""
""fullscreenenter"",""1"",""1191""
","
","","","-1","","","25","7264","3923","&#9854;","elianto","#FFFFF080","-1","-1","1","&#10004","[]","0","0","1","","","","","","","",""
"pit-trial","18","278544","0.0-2.0-6.4-0.4","battery-v0.2","","""event"",""trial"",""time""
""fullscreenenter"",""1"",""1191""
","
","
","""event"",""trial"",""time""
""fullscreenenter"",""1"",""1191""
","
","","","-1","","","25","7264","3923","&#9854;","elianto","#FFFFF080","-1","-1","1","&#10004","[]","0","0","1","","","","","","","",""
"pit-instructions","19","397868","0.0-2.0-7.0","battery-v0.2","","""event"",""trial"",""time""
""fullscreenenter"",""1"",""1191""
","
","
","""event"",""trial"",""time""
""fullscreenenter"",""1"",""1191""
","
","","[{""page_index"":0,""viewing_time"":8906.700000000186},{""page_index"":1,""viewing_time"":8184.5},{""page_index"":2,""viewing_time"":5536.200000000186},{""page_index"":3,""viewing_time"":6503.899999999441},{""page_index"":4,""viewing_time"":5487.9000000003725},{""page_index"":5,""viewing_time"":6231.700000000186},{""page_index"":6,""viewing_time"":5720},{""page_index"":7,""viewing_time"":7496.5},{""page_index"":8,""viewing_time"":6191.699999999255},{""page_index"":9,""viewing_time"":5807.800000000745},{""page_index"":10,""viewing_time"":6184.199999999255},{""page_index"":11,""viewing_time"":6032.4000000003725},{""page_index"":12,""viewing_time"":6486.200000000186},{""page_index"":13,""viewing_time"":7169.399999999441},{""page_index"":14,""viewing_time"":8040},{""page_index"":15,""viewing_time"":6800.5},{""page_index"":16,""viewing_time"":6167.800000000745},{""page_index"":17,""viewing_time"":6368}]","119315.79999999981","","","","","","","","","","","","","","","","","","","","","","","",""
"pit-trial","20","401580","0.0-2.0-8.0-0.0","battery-v0.2","","""event"",""trial"",""time""
""fullscreenenter"",""1"",""1191""
","
","
","""event"",""trial"",""time""
""fullscreenenter"",""1"",""1191""
","
","","","838.2999999998137","","","25","7264","3923","&#9776;","elianto","#3366ff99"," "," ","1","+10","[1689.2000000001863]","1","0","1","","","","","","","",""
"pit-trial","21","404920","0.0-2.0-8.0-1.0","battery-v0.2","","""event"",""trial"",""time""
""fullscreenenter"",""1"",""1191""
","
","
","""event"",""trial"",""time""
""fullscreenenter"",""1"",""1191""
","
","","","462.29999999981374","","","25","7264","3923","&#9776;","elianto","#3366ff99"," "," ","1","+10","[1315.1000000005588]","1","0","1","","","","","","","",""
"pit-trial","22","407950","0.0-2.0-8.0-2.0","battery-v0.2","","""event"",""trial"",""time""
""fullscreenenter"",""1"",""1191""
","
","
","""event"",""trial"",""time""
""fullscreenenter"",""1"",""1191""
","
","","","159.70000000018626","","","25","7264","3923","&#9776;","elianto","#3366ff99"," "," ","1","+10","[1012.6000000005588]","1","0","1","","","","","","","",""
"pit-trial","23","410991","0.0-2.0-8.0-3.0","battery-v0.2","","""event"",""trial"",""time""
""fullscreenenter"",""1"",""1191""
","
","
","""event"",""trial"",""time""
""fullscreenenter"",""1"",""1191""
","
","","","162.80000000074506","","","25","7264","3923","&#9776;","elianto","#3366ff99"," "," ","1","0","[1019.5]","1","0","1","","","","","","","",""
"pit-trial","24","413960","0.0-2.0-8.0-4.0","battery-v0.2","","""event"",""trial"",""time""
""fullscreenenter"",""1"",""1191""
","
","
","""event"",""trial"",""time""
""fullscreenenter"",""1"",""1191""
","
","","","111.70000000018626","","","25","7264","3923","&#9776;","elianto","#3366ff99"," "," ","1","+10","[964.4000000003725]","1","0","1","","","","","","","",""
"pit-trial","25","417031","0.0-2.0-8.1-0.1","battery-v0.2","","""event"",""trial"",""time""
""fullscreenenter"",""1"",""1191""
","
","
","""event"",""trial"",""time""
""fullscreenenter"",""1"",""1191""
","
","","","197.40000000037253","","","25","7264","3923","&#9776;","elianto","#3366ff99"," "," ","1","+10","[1051.2000000001863]","1","0","1","","","","","","","",""
"pit-trial","26","420030","0.0-2.0-8.1-1.1","battery-v0.2","","""event"",""trial"",""time""
""fullscreenenter"",""1"",""1191""
","
","
","""event"",""trial"",""time""
""fullscreenenter"",""1"",""1191""
","
","","","140.59999999962747","","","25","7264","3923","&#9776;","elianto","#3366ff99"," "," ","1","+10","[992.4000000003725]","1","0","1","","","","","","","",""
"pit-trial","27","423120","0.0-2.0-8.1-2.1","battery-v0.2","","""event"",""trial"",""time""
""fullscreenenter"",""1"",""1191""
","
","
","""event"",""trial"",""time""
""fullscreenenter"",""1"",""1191""
","
","","","230.70000000018626","","","25","7264","3923","&#9776;","elianto","#3366ff99"," "," ","1","+10","[1084.7999999998137,1811.5999999996275]","2","0","1","","","","","","","",""
"pit-trial","28","426260","0.0-2.0-8.1-3.1","battery-v0.2","","""event"",""trial"",""time""
""fullscreenenter"",""1"",""1191""
","
","
","""event"",""trial"",""time""
""fullscreenenter"",""1"",""1191""
","
","","","270.20000000018626","","","25","7264","3923","&#9776;","elianto","#3366ff99"," "," ","1","0","[1122.7000000001863]","1","0","1","","","","","","","",""
"pit-trial","29","429382","0.0-2.0-8.1-4.1","battery-v0.2","","""event"",""trial"",""time""
""fullscreenenter"",""1"",""1191""
","
","
","""event"",""trial"",""time""
""fullscreenenter"",""1"",""1191""
","
","","","258.5","","","25","7264","3923","&#9776;","elianto","#3366ff99"," "," ","1","+10","[1115.2999999998137]","1","0","1","","","","","","","",""
"pit-trial","30","432513","0.0-2.0-8.2-0.2","battery-v0.2","","""event"",""trial"",""time""
""fullscreenenter"",""1"",""1191""
""blur"",""31"",""432630""
""focus"",""31"",""434186""
","""event"",""trial"",""time""
""blur"",""31"",""432630""
","""event"",""trial"",""time""
""focus"",""31"",""434186""
","""event"",""trial"",""time""
""fullscreenenter"",""1"",""1191""
","
","","","272.5","","","25","7264","3923","&#9776;","elianto","#3366ff99"," "," ","1","+10","[1123]","1","0","1","","","","","","","",""
"pit-trial","31","437177","0.0-2.0-8.2-1.2","battery-v0.2","","""event"",""trial"",""time""
""fullscreenenter"",""1"",""1191""
""blur"",""31"",""432630""
""focus"",""31"",""434186""
","""event"",""trial"",""time""
""blur"",""31"",""432630""
","""event"",""trial"",""time""
""focus"",""31"",""434186""
","""event"",""trial"",""time""
""fullscreenenter"",""1"",""1191""
","
","","","1806.7000000001863","","","25","7264","3923","&#9776;","elianto","#3366ff99"," "," ","1","+10","[2657.5]","1","0","1","","","","","","","",""
"pit-trial","32","440583","0.0-2.0-8.2-2.2","battery-v0.2","","""event"",""trial"",""time""
""fullscreenenter"",""1"",""1191""
""blur"",""31"",""432630""
""focus"",""31"",""434186""
","""event"",""trial"",""time""
""blur"",""31"",""432630""
","""event"",""trial"",""time""
""focus"",""31"",""434186""
","""event"",""trial"",""time""
""fullscreenenter"",""1"",""1191""
","
","","","552","","","25","7264","3923","&#9776;","elianto","#3366ff99"," "," ","1","+10","[507.6000000005588,1403.1000000005588,1683.7999999998137,1933.2999999998137,2165.9000000003725,2402,2606.7999999998137,2815.4000000003725,3030,3255]","10","0","1","","","","","","","",""
"pit-trial","33","443497","0.0-2.0-8.2-3.2","battery-v0.2","","""event"",""trial"",""time""
""fullscreenenter"",""1"",""1191""
""blur"",""31"",""432630""
""focus"",""31"",""434186""
","""event"",""trial"",""time""
""blur"",""31"",""432630""
","""event"",""trial"",""time""
""focus"",""31"",""434186""
","""event"",""trial"",""time""
""fullscreenenter"",""1"",""1191""
","
","","","61","","","25","7264","3923","&#9776;","elianto","#3366ff99"," "," ","1","0","[82.79999999981374,300.5,515.5999999996275,711.5,911.7999999998137,1171.8999999994412,1416.0999999996275,1641,1877.2000000001863,2100.5,2311,2560.7999999998137,2771.5]","13","0","1","","","","","","","",""
"pit-trial","34","446502","0.0-2.0-8.2-4.2","battery-v0.2","","""event"",""trial"",""time""
""fullscreenenter"",""1"",""1191""
""blur"",""31"",""432630""
""focus"",""31"",""434186""
","""event"",""trial"",""time""
""blur"",""31"",""432630""
","""event"",""trial"",""time""
""focus"",""31"",""434186""
","""event"",""trial"",""time""
""fullscreenenter"",""1"",""1191""
","
","","","150.70000000018626","","","25","7264","3923","&#9776;","elianto","#3366ff99"," "," ","1","+10","[74.8999999994412,296.5,492.59999999962747,748,1001.5,1249.699999999255,1505.199999999255,1707.699999999255,1980.2999999998137,2229.199999999255,2475.399999999441,2701.7999999998137,2958.2999999998137]","13","0","1","","","","","","","",""
"call-function","35","446509","0.0-2.0-9.0","battery-v0.2","","""event"",""trial"",""time""
""fullscreenenter"",""1"",""1191""
""blur"",""31"",""432630""
""focus"",""31"",""434186""
","""event"",""trial"",""time""
""blur"",""31"",""432630""
","""event"",""trial"",""time""
""focus"",""31"",""434186""
","""event"",""trial"",""time""
""fullscreenenter"",""1"",""1191""
","
","","","","","","","","","","","","","","","","","","","","","","","","","","",""
"pit-instructions","36","487244","0.0-2.0-10.0","battery-v0.2","","""event"",""trial"",""time""
""fullscreenenter"",""1"",""1191""
""blur"",""31"",""432630""
""focus"",""31"",""434186""
","""event"",""trial"",""time""
""blur"",""31"",""432630""
","""event"",""trial"",""time""
""focus"",""31"",""434186""
","""event"",""trial"",""time""
""fullscreenenter"",""1"",""1191""
","
","","[{""page_index"":0,""viewing_time"":6407.299999999814},{""page_index"":1,""viewing_time"":7575.300000000745},{""page_index"":2,""viewing_time"":9638.899999999441},{""page_index"":3,""viewing_time"":9625.299999999814},{""page_index"":4,""viewing_time"":7488.200000000186}]","40735.299999999814","","","","","","","","","","","","","","","","","","","","","","","",""
"pit-trial","37","492118","0.0-2.0-11.0-0.0","battery-v0.2","","""event"",""trial"",""time""
""fullscreenenter"",""1"",""1191""
""blur"",""31"",""432630""
""focus"",""31"",""434186""
","""event"",""trial"",""time""
""blur"",""31"",""432630""
","""event"",""trial"",""time""
""focus"",""31"",""434186""
","""event"",""trial"",""time""
""fullscreenenter"",""1"",""1191""
","
","","","-1","","","25","7264","3923","&#9761;","elianto","#3366ff99","-1","-1","1","+10","[]","0","0","2","","","","","","","",""
"pit-trial","38","496989","0.0-2.0-11.0-1.0","battery-v0.2","","""event"",""trial"",""time""
""fullscreenenter"",""1"",""1191""
""blur"",""31"",""432630""
""focus"",""31"",""434186""
","""event"",""trial"",""time""
""blur"",""31"",""432630""
","""event"",""trial"",""time""
""focus"",""31"",""434186""
","""event"",""trial"",""time""
""fullscreenenter"",""1"",""1191""
","
","","","-1","","","25","7264","3923","&#9761;","elianto","#3366ff99","-1","-1","1","+10","[]","0","0","2","","","","","","","",""
"pit-trial","39","501858","0.0-2.0-11.0-2.0","battery-v0.2","","""event"",""trial"",""time""
""fullscreenenter"",""1"",""1191""
""blur"",""31"",""432630""
""focus"",""31"",""434186""
","""event"",""trial"",""time""
""blur"",""31"",""432630""
","""event"",""trial"",""time""
""focus"",""31"",""434186""
","""event"",""trial"",""time""
""fullscreenenter"",""1"",""1191""
","
","","","-1","","","25","7264","3923","&#9761;","elianto","#3366ff99","-1","-1","1","+10","[]","0","0","2","","","","","","","",""
"pit-trial","40","506738","0.0-2.0-11.0-3.0","battery-v0.2","","""event"",""trial"",""time""
""fullscreenenter"",""1"",""1191""
""blur"",""31"",""432630""
""focus"",""31"",""434186""
","""event"",""trial"",""time""
""blur"",""31"",""432630""
","""event"",""trial"",""time""
""focus"",""31"",""434186""
","""event"",""trial"",""time""
""fullscreenenter"",""1"",""1191""
","
","","","-1","","","25","7264","3923","&#9761;","elianto","#3366ff99","-1","-1","1","0","[]","0","0","2","","","","","","","",""
"pit-trial","41","511628","0.0-2.0-11.0-4.0","battery-v0.2","","""event"",""trial"",""time""
""fullscreenenter"",""1"",""1191""
""blur"",""31"",""432630""
""focus"",""31"",""434186""
","""event"",""trial"",""time""
""blur"",""31"",""432630""
","""event"",""trial"",""time""
""focus"",""31"",""434186""
","""event"",""trial"",""time""
""fullscreenenter"",""1"",""1191""
","
","","","-1","","","25","7264","3923","&#9761;","elianto","#3366ff99","-1","-1","1","+10","[]","0","0","2","","","","","","","",""
"pit-trial","42","516510","0.0-2.0-11.1-0.1","battery-v0.2","","""event"",""trial"",""time""
""fullscreenenter"",""1"",""1191""
""blur"",""31"",""432630""
""focus"",""31"",""434186""
","""event"",""trial"",""time""
""blur"",""31"",""432630""
","""event"",""trial"",""time""
""focus"",""31"",""434186""
","""event"",""trial"",""time""
""fullscreenenter"",""1"",""1191""
","
","","","-1","","","25","7264","3923","&#9761;","elianto","#3366ff99","-1","-1","1","+10","[]","0","0","2","","","","","","","",""
"pit-trial","43","521367","0.0-2.0-11.1-1.1","battery-v0.2","","""event"",""trial"",""time""
""fullscreenenter"",""1"",""1191""
""blur"",""31"",""432630""
""focus"",""31"",""434186""
","""event"",""trial"",""time""
""blur"",""31"",""432630""
","""event"",""trial"",""time""
""focus"",""31"",""434186""
","""event"",""trial"",""time""
""fullscreenenter"",""1"",""1191""
","
","","","-1","","","25","7264","3923","&#9761;","elianto","#3366ff99","-1","-1","1","+10","[]","0","0","2","","","","","","","",""
"pit-trial","44","526222","0.0-2.0-11.1-2.1","battery-v0.2","","""event"",""trial"",""time""
""fullscreenenter"",""1"",""1191""
""blur"",""31"",""432630""
""focus"",""31"",""434186""
","""event"",""trial"",""time""
""blur"",""31"",""432630""
","""event"",""trial"",""time""
""focus"",""31"",""434186""
","""event"",""trial"",""time""
""fullscreenenter"",""1"",""1191""
","
","","","-1","","","25","7264","3923","&#9761;","elianto","#3366ff99","-1","-1","1","+10","[]","0","0","2","","","","","","","",""
"pit-trial","45","531079","0.0-2.0-11.1-3.1","battery-v0.2","","""event"",""trial"",""time""
""fullscreenenter"",""1"",""1191""
""blur"",""31"",""432630""
""focus"",""31"",""434186""
","""event"",""trial"",""time""
""blur"",""31"",""432630""
","""event"",""trial"",""time""
""focus"",""31"",""434186""
","""event"",""trial"",""time""
""fullscreenenter"",""1"",""1191""
","
","","","-1","","","25","7264","3923","&#9761;","elianto","#3366ff99","-1","-1","1","0","[]","0","0","2","","","","","","","",""
"pit-trial","46","535937","0.0-2.0-11.1-4.1","battery-v0.2","","""event"",""trial"",""time""
""fullscreenenter"",""1"",""1191""
""blur"",""31"",""432630""
""focus"",""31"",""434186""
","""event"",""trial"",""time""
""blur"",""31"",""432630""
","""event"",""trial"",""time""
""focus"",""31"",""434186""
","""event"",""trial"",""time""
""fullscreenenter"",""1"",""1191""
","
","","","-1","","","25","7264","3923","&#9761;","elianto","#3366ff99","-1","-1","1","+10","[]","0","0","2","","","","","","","",""
"pit-trial","47","540792","0.0-2.0-11.2-0.2","battery-v0.2","","""event"",""trial"",""time""
""fullscreenenter"",""1"",""1191""
""blur"",""31"",""432630""
""focus"",""31"",""434186""
","""event"",""trial"",""time""
""blur"",""31"",""432630""
","""event"",""trial"",""time""
""focus"",""31"",""434186""
","""event"",""trial"",""time""
""fullscreenenter"",""1"",""1191""
","
","","","-1","","","25","7264","3923","&#9761;","elianto","#3366ff99","-1","-1","1","+10","[]","0","0","2","","","","","","","",""
"pit-trial","48","545654","0.0-2.0-11.2-1.2","battery-v0.2","","""event"",""trial"",""time""
""fullscreenenter"",""1"",""1191""
""blur"",""31"",""432630""
""focus"",""31"",""434186""
","""event"",""trial"",""time""
""blur"",""31"",""432630""
","""event"",""trial"",""time""
""focus"",""31"",""434186""
","""event"",""trial"",""time""
""fullscreenenter"",""1"",""1191""
","
","","","-1","","","25","7264","3923","&#9761;","elianto","#3366ff99","-1","-1","1","+10","[]","0","0","2","","","","","","","",""
"pit-trial","49","550513","0.0-2.0-11.2-2.2","battery-v0.2","","""event"",""trial"",""time""
""fullscreenenter"",""1"",""1191""
""blur"",""31"",""432630""
""focus"",""31"",""434186""
","""event"",""trial"",""time""
""blur"",""31"",""432630""
","""event"",""trial"",""time""
""focus"",""31"",""434186""
","""event"",""trial"",""time""
""fullscreenenter"",""1"",""1191""
","
","","","-1","","","25","7264","3923","&#9761;","elianto","#3366ff99","-1","-1","1","+10","[]","0","0","2","","","","","","","",""
"pit-trial","50","555371","0.0-2.0-11.2-3.2","battery-v0.2","","""event"",""trial"",""time""
""fullscreenenter"",""1"",""1191""
""blur"",""31"",""432630""
""focus"",""31"",""434186""
","""event"",""trial"",""time""
""blur"",""31"",""432630""
","""event"",""trial"",""time""
""focus"",""31"",""434186""
","""event"",""trial"",""time""
""fullscreenenter"",""1"",""1191""
","
","","","-1","","","25","7264","3923","&#9761;","elianto","#3366ff99","-1","-1","1","0","[]","0","0","2","","","","","","","",""
"pit-trial","51","560229","0.0-2.0-11.2-4.2","battery-v0.2","","""event"",""trial"",""time""
""fullscreenenter"",""1"",""1191""
""blur"",""31"",""432630""
""focus"",""31"",""434186""
","""event"",""trial"",""time""
""blur"",""31"",""432630""
","""event"",""trial"",""time""
""focus"",""31"",""434186""
","""event"",""trial"",""time""
""fullscreenenter"",""1"",""1191""
","
","","","-1","","","25","7264","3923","&#9761;","elianto","#3366ff99","-1","-1","1","+10","[]","0","0","2","","","","","","","",""
"pit-trial","52","565085","0.0-2.0-11.3-0.3","battery-v0.2","","""event"",""trial"",""time""
""fullscreenenter"",""1"",""1191""
""blur"",""31"",""432630""
""focus"",""31"",""434186""
""blur"",""53"",""569669""
""focus"",""53"",""569671""
""fullscreenexit"",""53"",""569671""
","""event"",""trial"",""time""
""blur"",""31"",""432630""
""blur"",""53"",""569669""
","""event"",""trial"",""time""
""focus"",""31"",""434186""
""focus"",""53"",""569671""
","""event"",""trial"",""time""
""fullscreenenter"",""1"",""1191""
","""event"",""trial"",""time""
""fullscreenexit"",""53"",""569671""
","","","-1","","","25","7264","3923","&#9761;","elianto","#3366ff99","-1","-1","1","+10","[]","0","0","2","","","","","","","",""
"pit-trial","53","571673","0.0-2.0-11.3-1.3","battery-v0.2","","""event"",""trial"",""time""
""fullscreenenter"",""1"",""1191""
""blur"",""31"",""432630""
""focus"",""31"",""434186""
""blur"",""53"",""569669""
""focus"",""53"",""569671""
""fullscreenexit"",""53"",""569671""
","""event"",""trial"",""time""
""blur"",""31"",""432630""
""blur"",""53"",""569669""
","""event"",""trial"",""time""
""focus"",""31"",""434186""
""focus"",""53"",""569671""
","""event"",""trial"",""time""
""fullscreenenter"",""1"",""1191""
","""event"",""trial"",""time""
""fullscreenexit"",""53"",""569671""
","","","-1","","","25","7264","3923","&#9761;","elianto","#3366ff99","-1","-1","1","+10","[]","0","0","2","","","","","","","",""
"pit-trial","54","576529","0.0-2.0-11.3-2.3","battery-v0.2","","""event"",""trial"",""time""
""fullscreenenter"",""1"",""1191""
""blur"",""31"",""432630""
""focus"",""31"",""434186""
""blur"",""53"",""569669""
""focus"",""53"",""569671""
""fullscreenexit"",""53"",""569671""
","""event"",""trial"",""time""
""blur"",""31"",""432630""
""blur"",""53"",""569669""
","""event"",""trial"",""time""
""focus"",""31"",""434186""
""focus"",""53"",""569671""
","""event"",""trial"",""time""
""fullscreenenter"",""1"",""1191""
","""event"",""trial"",""time""
""fullscreenexit"",""53"",""569671""
","","","-1","","","25","7264","3923","&#9761;","elianto","#3366ff99","-1","-1","1","+10","[]","0","0","2","","","","","","","",""
"pit-trial","55","581388","0.0-2.0-11.3-3.3","battery-v0.2","","""event"",""trial"",""time""
""fullscreenenter"",""1"",""1191""
""blur"",""31"",""432630""
""focus"",""31"",""434186""
""blur"",""53"",""569669""
""focus"",""53"",""569671""
""fullscreenexit"",""53"",""569671""
""blur"",""56"",""585094""
","""event"",""trial"",""time""
""blur"",""31"",""432630""
""blur"",""53"",""569669""
""blur"",""56"",""585094""
","""event"",""trial"",""time""
""focus"",""31"",""434186""
""focus"",""53"",""569671""
","""event"",""trial"",""time""
""fullscreenenter"",""1"",""1191""
","""event"",""trial"",""time""
""fullscreenexit"",""53"",""569671""
","","","-1","","","25","7264","3923","&#9761;","elianto","#3366ff99","-1","-1","1","0","[]","0","0","2","","","","","","","",""
"pit-trial","56","586335","0.0-2.0-11.3-4.3","battery-v0.2","","""event"",""trial"",""time""
""fullscreenenter"",""1"",""1191""
""blur"",""31"",""432630""
""focus"",""31"",""434186""
""blur"",""53"",""569669""
""focus"",""53"",""569671""
""fullscreenexit"",""53"",""569671""
""blur"",""56"",""585094""
","""event"",""trial"",""time""
""blur"",""31"",""432630""
""blur"",""53"",""569669""
""blur"",""56"",""585094""
","""event"",""trial"",""time""
""focus"",""31"",""434186""
""focus"",""53"",""569671""
","""event"",""trial"",""time""
""fullscreenenter"",""1"",""1191""
","""event"",""trial"",""time""
""fullscreenexit"",""53"",""569671""
","","","-1","","","25","7264","3923","&#9761;","elianto","#3366ff99","-1","-1","1","+10","[]","0","0","2","","","","","","","",""
"call-function","57","586337","0.0-2.0-12.0","battery-v0.2","","""event"",""trial"",""time""
""fullscreenenter"",""1"",""1191""
""blur"",""31"",""432630""
""focus"",""31"",""434186""
""blur"",""53"",""569669""
""focus"",""53"",""569671""
""fullscreenexit"",""53"",""569671""
""blur"",""56"",""585094""
""focus"",""58"",""593663""
","""event"",""trial"",""time""
""blur"",""31"",""432630""
""blur"",""53"",""569669""
""blur"",""56"",""585094""
","""event"",""trial"",""time""
""focus"",""31"",""434186""
""focus"",""53"",""569671""
""focus"",""58"",""593663""
","""event"",""trial"",""time""
""fullscreenenter"",""1"",""1191""
","""event"",""trial"",""time""
""fullscreenexit"",""53"",""569671""
","","","","","","","","","","","","","","","","","","","","","","","","","","",""
"pit-instructions","58","622252","0.0-2.0-13.0","battery-v0.2","","""event"",""trial"",""time""
""fullscreenenter"",""1"",""1191""
""blur"",""31"",""432630""
""focus"",""31"",""434186""
""blur"",""53"",""569669""
""focus"",""53"",""569671""
""fullscreenexit"",""53"",""569671""
""blur"",""56"",""585094""
""focus"",""58"",""593663""
","""event"",""trial"",""time""
""blur"",""31"",""432630""
""blur"",""53"",""569669""
""blur"",""56"",""585094""
","""event"",""trial"",""time""
""focus"",""31"",""434186""
""focus"",""53"",""569671""
""focus"",""58"",""593663""
","""event"",""trial"",""time""
""fullscreenenter"",""1"",""1191""
","""event"",""trial"",""time""
""fullscreenexit"",""53"",""569671""
","","[{""page_index"":0,""viewing_time"":8674.700000000186},{""page_index"":1,""viewing_time"":6838.799999999814},{""page_index"":2,""viewing_time"":4473.0999999996275},{""page_index"":3,""viewing_time"":10007.900000000373},{""page_index"":4,""viewing_time"":5920.0999999996275}]","35914.89999999944","","","","","","","","","","","","","","","","","","","","","","","",""
"pit-trial","59","625607","0.0-2.0-14.0-0.0","battery-v0.2","","""event"",""trial"",""time""
""fullscreenenter"",""1"",""1191""
""blur"",""31"",""432630""
""focus"",""31"",""434186""
""blur"",""53"",""569669""
""focus"",""53"",""569671""
""fullscreenexit"",""53"",""569671""
""blur"",""56"",""585094""
""focus"",""58"",""593663""
","""event"",""trial"",""time""
""blur"",""31"",""432630""
""blur"",""53"",""569669""
""blur"",""56"",""585094""
","""event"",""trial"",""time""
""focus"",""31"",""434186""
""focus"",""53"",""569671""
""focus"",""58"",""593663""
","""event"",""trial"",""time""
""fullscreenenter"",""1"",""1191""
","""event"",""trial"",""time""
""fullscreenexit"",""53"",""569671""
","","","486.80000000074506","","","25","7264","3923","&#9826;","elianto","#f73b6a7A","-1"," ","0","-10","[1336.7999999998137]","1","0","3","","","","","","","",""
"pit-trial","60","630496","0.0-2.0-14.0-1.0","battery-v0.2","","""event"",""trial"",""time""
""fullscreenenter"",""1"",""1191""
""blur"",""31"",""432630""
""focus"",""31"",""434186""
""blur"",""53"",""569669""
""focus"",""53"",""569671""
""fullscreenexit"",""53"",""569671""
""blur"",""56"",""585094""
""focus"",""58"",""593663""
","""event"",""trial"",""time""
""blur"",""31"",""432630""
""blur"",""53"",""569669""
""blur"",""56"",""585094""
","""event"",""trial"",""time""
""focus"",""31"",""434186""
""focus"",""53"",""569671""
""focus"",""58"",""593663""
","""event"",""trial"",""time""
""fullscreenenter"",""1"",""1191""
","""event"",""trial"",""time""
""fullscreenexit"",""53"",""569671""
","","","-1","","","25","7264","3923","&#9826;","elianto","#f73b6a7A","-1","-1","1","0","[]","0","0","3","","","","","","","",""
"pit-trial","61","635361","0.0-2.0-14.0-2.0","battery-v0.2","","""event"",""trial"",""time""
""fullscreenenter"",""1"",""1191""
""blur"",""31"",""432630""
""focus"",""31"",""434186""
""blur"",""53"",""569669""
""focus"",""53"",""569671""
""fullscreenexit"",""53"",""569671""
""blur"",""56"",""585094""
""focus"",""58"",""593663""
""blur"",""62"",""635371""
","""event"",""trial"",""time""
""blur"",""31"",""432630""
""blur"",""53"",""569669""
""blur"",""56"",""585094""
""blur"",""62"",""635371""
","""event"",""trial"",""time""
""focus"",""31"",""434186""
""focus"",""53"",""569671""
""focus"",""58"",""593663""
","""event"",""trial"",""time""
""fullscreenenter"",""1"",""1191""
","""event"",""trial"",""time""
""fullscreenexit"",""53"",""569671""
","","","-1","","","25","7264","3923","&#9826;","elianto","#f73b6a7A","-1","-1","1","0","[]","0","0","3","","","","","","","",""
"pit-trial","62","640226","0.0-2.0-14.0-3.0","battery-v0.2","","""event"",""trial"",""time""
""fullscreenenter"",""1"",""1191""
""blur"",""31"",""432630""
""focus"",""31"",""434186""
""blur"",""53"",""569669""
""focus"",""53"",""569671""
""fullscreenexit"",""53"",""569671""
""blur"",""56"",""585094""
""focus"",""58"",""593663""
""blur"",""62"",""635371""
","""event"",""trial"",""time""
""blur"",""31"",""432630""
""blur"",""53"",""569669""
""blur"",""56"",""585094""
""blur"",""62"",""635371""
","""event"",""trial"",""time""
""focus"",""31"",""434186""
""focus"",""53"",""569671""
""focus"",""58"",""593663""
","""event"",""trial"",""time""
""fullscreenenter"",""1"",""1191""
","""event"",""trial"",""time""
""fullscreenexit"",""53"",""569671""
","","","-1","","","25","7264","3923","&#9826;","elianto","#f73b6a7A","-1","-1","1","-10","[]","0","0","3","","","","","","","",""
"pit-trial","63","645091","0.0-2.0-14.0-4.0","battery-v0.2","","""event"",""trial"",""time""
""fullscreenenter"",""1"",""1191""
""blur"",""31"",""432630""
""focus"",""31"",""434186""
""blur"",""53"",""569669""
""focus"",""53"",""569671""
""fullscreenexit"",""53"",""569671""
""blur"",""56"",""585094""
""focus"",""58"",""593663""
""blur"",""62"",""635371""
","""event"",""trial"",""time""
""blur"",""31"",""432630""
""blur"",""53"",""569669""
""blur"",""56"",""585094""
""blur"",""62"",""635371""
","""event"",""trial"",""time""
""focus"",""31"",""434186""
""focus"",""53"",""569671""
""focus"",""58"",""593663""
","""event"",""trial"",""time""
""fullscreenenter"",""1"",""1191""
","""event"",""trial"",""time""
""fullscreenexit"",""53"",""569671""
","","","-1","","","25","7264","3923","&#9826;","elianto","#f73b6a7A","-1","-1","1","0","[]","0","0","3","","","","","","","",""
"pit-trial","64","649955","0.0-2.0-14.1-0.1","battery-v0.2","","""event"",""trial"",""time""
""fullscreenenter"",""1"",""1191""
""blur"",""31"",""432630""
""focus"",""31"",""434186""
""blur"",""53"",""569669""
""focus"",""53"",""569671""
""fullscreenexit"",""53"",""569671""
""blur"",""56"",""585094""
""focus"",""58"",""593663""
""blur"",""62"",""635371""
","""event"",""trial"",""time""
""blur"",""31"",""432630""
""blur"",""53"",""569669""
""blur"",""56"",""585094""
""blur"",""62"",""635371""
","""event"",""trial"",""time""
""focus"",""31"",""434186""
""focus"",""53"",""569671""
""focus"",""58"",""593663""
","""event"",""trial"",""time""
""fullscreenenter"",""1"",""1191""
","""event"",""trial"",""time""
""fullscreenexit"",""53"",""569671""
","","","-1","","","25","7264","3923","&#9826;","elianto","#f73b6a7A","-1","-1","1","0","[]","0","0","3","","","","","","","",""
"pit-trial","65","655328","0.0-2.0-14.1-1.1","battery-v0.2","","""event"",""trial"",""time""
""fullscreenenter"",""1"",""1191""
""blur"",""31"",""432630""
""focus"",""31"",""434186""
""blur"",""53"",""569669""
""focus"",""53"",""569671""
""fullscreenexit"",""53"",""569671""
""blur"",""56"",""585094""
""focus"",""58"",""593663""
""blur"",""62"",""635371""
","""event"",""trial"",""time""
""blur"",""31"",""432630""
""blur"",""53"",""569669""
""blur"",""56"",""585094""
""blur"",""62"",""635371""
","""event"",""trial"",""time""
""focus"",""31"",""434186""
""focus"",""53"",""569671""
""focus"",""58"",""593663""
","""event"",""trial"",""time""
""fullscreenenter"",""1"",""1191""
","""event"",""trial"",""time""
""fullscreenexit"",""53"",""569671""
","","","-1","","","25","7264","3923","&#9826;","elianto","#f73b6a7A","-1","-1","1","0","[]","0","0","3","","","","","","","",""
"pit-trial","66","660327","0.0-2.0-14.1-2.1","battery-v0.2","","""event"",""trial"",""time""
""fullscreenenter"",""1"",""1191""
""blur"",""31"",""432630""
""focus"",""31"",""434186""
""blur"",""53"",""569669""
""focus"",""53"",""569671""
""fullscreenexit"",""53"",""569671""
""blur"",""56"",""585094""
""focus"",""58"",""593663""
""blur"",""62"",""635371""
","""event"",""trial"",""time""
""blur"",""31"",""432630""
""blur"",""53"",""569669""
""blur"",""56"",""585094""
""blur"",""62"",""635371""
","""event"",""trial"",""time""
""focus"",""31"",""434186""
""focus"",""53"",""569671""
""focus"",""58"",""593663""
","""event"",""trial"",""time""
""fullscreenenter"",""1"",""1191""
","""event"",""trial"",""time""
""fullscreenexit"",""53"",""569671""
","","","-1","","","25","7264","3923","&#9826;","elianto","#f73b6a7A","-1","-1","1","0","[]","0","0","3","","","","","","","",""
"pit-trial","67","665328","0.0-2.0-14.1-3.1","battery-v0.2","","""event"",""trial"",""time""
""fullscreenenter"",""1"",""1191""
""blur"",""31"",""432630""
""focus"",""31"",""434186""
""blur"",""53"",""569669""
""focus"",""53"",""569671""
""fullscreenexit"",""53"",""569671""
""blur"",""56"",""585094""
""focus"",""58"",""593663""
""blur"",""62"",""635371""
","""event"",""trial"",""time""
""blur"",""31"",""432630""
""blur"",""53"",""569669""
""blur"",""56"",""585094""
""blur"",""62"",""635371""
","""event"",""trial"",""time""
""focus"",""31"",""434186""
""focus"",""53"",""569671""
""focus"",""58"",""593663""
","""event"",""trial"",""time""
""fullscreenenter"",""1"",""1191""
","""event"",""trial"",""time""
""fullscreenexit"",""53"",""569671""
","","","-1","","","25","7264","3923","&#9826;","elianto","#f73b6a7A","-1","-1","1","-10","[]","0","0","3","","","","","","","",""
"pit-trial","68","670328","0.0-2.0-14.1-4.1","battery-v0.2","","""event"",""trial"",""time""
""fullscreenenter"",""1"",""1191""
""blur"",""31"",""432630""
""focus"",""31"",""434186""
""blur"",""53"",""569669""
""focus"",""53"",""569671""
""fullscreenexit"",""53"",""569671""
""blur"",""56"",""585094""
""focus"",""58"",""593663""
""blur"",""62"",""635371""
","""event"",""trial"",""time""
""blur"",""31"",""432630""
""blur"",""53"",""569669""
""blur"",""56"",""585094""
""blur"",""62"",""635371""
","""event"",""trial"",""time""
""focus"",""31"",""434186""
""focus"",""53"",""569671""
""focus"",""58"",""593663""
","""event"",""trial"",""time""
""fullscreenenter"",""1"",""1191""
","""event"",""trial"",""time""
""fullscreenexit"",""53"",""569671""
","","","-1","","","25","7264","3923","&#9826;","elianto","#f73b6a7A","-1","-1","1","0","[]","0","0","3","","","","","","","",""
"pit-trial","69","675327","0.0-2.0-14.2-0.2","battery-v0.2","","""event"",""trial"",""time""
""fullscreenenter"",""1"",""1191""
""blur"",""31"",""432630""
""focus"",""31"",""434186""
""blur"",""53"",""569669""
""focus"",""53"",""569671""
""fullscreenexit"",""53"",""569671""
""blur"",""56"",""585094""
""focus"",""58"",""593663""
""blur"",""62"",""635371""
","""event"",""trial"",""time""
""blur"",""31"",""432630""
""blur"",""53"",""569669""
""blur"",""56"",""585094""
""blur"",""62"",""635371""
","""event"",""trial"",""time""
""focus"",""31"",""434186""
""focus"",""53"",""569671""
""focus"",""58"",""593663""
","""event"",""trial"",""time""
""fullscreenenter"",""1"",""1191""
","""event"",""trial"",""time""
""fullscreenexit"",""53"",""569671""
","","","-1","","","25","7264","3923","&#9826;","elianto","#f73b6a7A","-1","-1","1","0","[]","0","0","3","","","","","","","",""
"pit-trial","70","680327","0.0-2.0-14.2-1.2","battery-v0.2","","""event"",""trial"",""time""
""fullscreenenter"",""1"",""1191""
""blur"",""31"",""432630""
""focus"",""31"",""434186""
""blur"",""53"",""569669""
""focus"",""53"",""569671""
""fullscreenexit"",""53"",""569671""
""blur"",""56"",""585094""
""focus"",""58"",""593663""
""blur"",""62"",""635371""
","""event"",""trial"",""time""
""blur"",""31"",""432630""
""blur"",""53"",""569669""
""blur"",""56"",""585094""
""blur"",""62"",""635371""
","""event"",""trial"",""time""
""focus"",""31"",""434186""
""focus"",""53"",""569671""
""focus"",""58"",""593663""
","""event"",""trial"",""time""
""fullscreenenter"",""1"",""1191""
","""event"",""trial"",""time""
""fullscreenexit"",""53"",""569671""
","","","-1","","","25","7264","3923","&#9826;","elianto","#f73b6a7A","-1","-1","1","0","[]","0","0","3","","","","","","","",""
"pit-trial","71","685335","0.0-2.0-14.2-2.2","battery-v0.2","","""event"",""trial"",""time""
""fullscreenenter"",""1"",""1191""
""blur"",""31"",""432630""
""focus"",""31"",""434186""
""blur"",""53"",""569669""
""focus"",""53"",""569671""
""fullscreenexit"",""53"",""569671""
""blur"",""56"",""585094""
""focus"",""58"",""593663""
""blur"",""62"",""635371""
","""event"",""trial"",""time""
""blur"",""31"",""432630""
""blur"",""53"",""569669""
""blur"",""56"",""585094""
""blur"",""62"",""635371""
","""event"",""trial"",""time""
""focus"",""31"",""434186""
""focus"",""53"",""569671""
""focus"",""58"",""593663""
","""event"",""trial"",""time""
""fullscreenenter"",""1"",""1191""
","""event"",""trial"",""time""
""fullscreenexit"",""53"",""569671""
","","","-1","","","25","7264","3923","&#9826;","elianto","#f73b6a7A","-1","-1","1","0","[]","0","0","3","","","","","","","",""
"pit-trial","72","690329","0.0-2.0-14.2-3.2","battery-v0.2","","""event"",""trial"",""time""
""fullscreenenter"",""1"",""1191""
""blur"",""31"",""432630""
""focus"",""31"",""434186""
""blur"",""53"",""569669""
""focus"",""53"",""569671""
""fullscreenexit"",""53"",""569671""
""blur"",""56"",""585094""
""focus"",""58"",""593663""
""blur"",""62"",""635371""
","""event"",""trial"",""time""
""blur"",""31"",""432630""
""blur"",""53"",""569669""
""blur"",""56"",""585094""
""blur"",""62"",""635371""
","""event"",""trial"",""time""
""focus"",""31"",""434186""
""focus"",""53"",""569671""
""focus"",""58"",""593663""
","""event"",""trial"",""time""
""fullscreenenter"",""1"",""1191""
","""event"",""trial"",""time""
""fullscreenexit"",""53"",""569671""
","","","-1","","","25","7264","3923","&#9826;","elianto","#f73b6a7A","-1","-1","1","-10","[]","0","0","3","","","","","","","",""
"pit-trial","73","695327","0.0-2.0-14.2-4.2","battery-v0.2","","""event"",""trial"",""time""
""fullscreenenter"",""1"",""1191""
""blur"",""31"",""432630""
""focus"",""31"",""434186""
""blur"",""53"",""569669""
""focus"",""53"",""569671""
""fullscreenexit"",""53"",""569671""
""blur"",""56"",""585094""
""focus"",""58"",""593663""
""blur"",""62"",""635371""
","""event"",""trial"",""time""
""blur"",""31"",""432630""
""blur"",""53"",""569669""
""blur"",""56"",""585094""
""blur"",""62"",""635371""
","""event"",""trial"",""time""
""focus"",""31"",""434186""
""focus"",""53"",""569671""
""focus"",""58"",""593663""
","""event"",""trial"",""time""
""fullscreenenter"",""1"",""1191""
","""event"",""trial"",""time""
""fullscreenexit"",""53"",""569671""
","","","-1","","","25","7264","3923","&#9826;","elianto","#f73b6a7A","-1","-1","1","0","[]","0","0","3","","","","","","","",""
"pit-trial","74","700329","0.0-2.0-14.3-0.3","battery-v0.2","","""event"",""trial"",""time""
""fullscreenenter"",""1"",""1191""
""blur"",""31"",""432630""
""focus"",""31"",""434186""
""blur"",""53"",""569669""
""focus"",""53"",""569671""
""fullscreenexit"",""53"",""569671""
""blur"",""56"",""585094""
""focus"",""58"",""593663""
""blur"",""62"",""635371""
","""event"",""trial"",""time""
""blur"",""31"",""432630""
""blur"",""53"",""569669""
""blur"",""56"",""585094""
""blur"",""62"",""635371""
","""event"",""trial"",""time""
""focus"",""31"",""434186""
""focus"",""53"",""569671""
""focus"",""58"",""593663""
","""event"",""trial"",""time""
""fullscreenenter"",""1"",""1191""
","""event"",""trial"",""time""
""fullscreenexit"",""53"",""569671""
","","","-1","","","25","7264","3923","&#9826;","elianto","#f73b6a7A","-1","-1","1","0","[]","0","0","3","","","","","","","",""
"pit-trial","75","705327","0.0-2.0-14.3-1.3","battery-v0.2","","""event"",""trial"",""time""
""fullscreenenter"",""1"",""1191""
""blur"",""31"",""432630""
""focus"",""31"",""434186""
""blur"",""53"",""569669""
""focus"",""53"",""569671""
""fullscreenexit"",""53"",""569671""
""blur"",""56"",""585094""
""focus"",""58"",""593663""
""blur"",""62"",""635371""
","""event"",""trial"",""time""
""blur"",""31"",""432630""
""blur"",""53"",""569669""
""blur"",""56"",""585094""
""blur"",""62"",""635371""
","""event"",""trial"",""time""
""focus"",""31"",""434186""
""focus"",""53"",""569671""
""focus"",""58"",""593663""
","""event"",""trial"",""time""
""fullscreenenter"",""1"",""1191""
","""event"",""trial"",""time""
""fullscreenexit"",""53"",""569671""
","","","-1","","","25","7264","3923","&#9826;","elianto","#f73b6a7A","-1","-1","1","0","[]","0","0","3","","","","","","","",""
"pit-trial","76","710329","0.0-2.0-14.3-2.3","battery-v0.2","","""event"",""trial"",""time""
""fullscreenenter"",""1"",""1191""
""blur"",""31"",""432630""
""focus"",""31"",""434186""
""blur"",""53"",""569669""
""focus"",""53"",""569671""
""fullscreenexit"",""53"",""569671""
""blur"",""56"",""585094""
""focus"",""58"",""593663""
""blur"",""62"",""635371""
","""event"",""trial"",""time""
""blur"",""31"",""432630""
""blur"",""53"",""569669""
""blur"",""56"",""585094""
""blur"",""62"",""635371""
","""event"",""trial"",""time""
""focus"",""31"",""434186""
""focus"",""53"",""569671""
""focus"",""58"",""593663""
","""event"",""trial"",""time""
""fullscreenenter"",""1"",""1191""
","""event"",""trial"",""time""
""fullscreenexit"",""53"",""569671""
","","","-1","","","25","7264","3923","&#9826;","elianto","#f73b6a7A","-1","-1","1","0","[]","0","0","3","","","","","","","",""
"pit-trial","77","715329","0.0-2.0-14.3-3.3","battery-v0.2","","""event"",""trial"",""time""
""fullscreenenter"",""1"",""1191""
""blur"",""31"",""432630""
""focus"",""31"",""434186""
""blur"",""53"",""569669""
""focus"",""53"",""569671""
""fullscreenexit"",""53"",""569671""
""blur"",""56"",""585094""
""focus"",""58"",""593663""
""blur"",""62"",""635371""
","""event"",""trial"",""time""
""blur"",""31"",""432630""
""blur"",""53"",""569669""
""blur"",""56"",""585094""
""blur"",""62"",""635371""
","""event"",""trial"",""time""
""focus"",""31"",""434186""
""focus"",""53"",""569671""
""focus"",""58"",""593663""
","""event"",""trial"",""time""
""fullscreenenter"",""1"",""1191""
","""event"",""trial"",""time""
""fullscreenexit"",""53"",""569671""
","","","-1","","","25","7264","3923","&#9826;","elianto","#f73b6a7A","-1","-1","1","-10","[]","0","0","3","","","","","","","",""
"pit-trial","78","720336","0.0-2.0-14.3-4.3","battery-v0.2","","""event"",""trial"",""time""
""fullscreenenter"",""1"",""1191""
""blur"",""31"",""432630""
""focus"",""31"",""434186""
""blur"",""53"",""569669""
""focus"",""53"",""569671""
""fullscreenexit"",""53"",""569671""
""blur"",""56"",""585094""
""focus"",""58"",""593663""
""blur"",""62"",""635371""
","""event"",""trial"",""time""
""blur"",""31"",""432630""
""blur"",""53"",""569669""
""blur"",""56"",""585094""
""blur"",""62"",""635371""
","""event"",""trial"",""time""
""focus"",""31"",""434186""
""focus"",""53"",""569671""
""focus"",""58"",""593663""
","""event"",""trial"",""time""
""fullscreenenter"",""1"",""1191""
","""event"",""trial"",""time""
""fullscreenexit"",""53"",""569671""
","","","-1","","","25","7264","3923","&#9826;","elianto","#f73b6a7A","-1","-1","1","0","[]","0","0","3","","","","","","","",""
"call-function","79","720337","0.0-2.0-15.0","battery-v0.2","","""event"",""trial"",""time""
""fullscreenenter"",""1"",""1191""
""blur"",""31"",""432630""
""focus"",""31"",""434186""
""blur"",""53"",""569669""
""focus"",""53"",""569671""
""fullscreenexit"",""53"",""569671""
""blur"",""56"",""585094""
""focus"",""58"",""593663""
""blur"",""62"",""635371""
""focus"",""80"",""725425""
","""event"",""trial"",""time""
""blur"",""31"",""432630""
""blur"",""53"",""569669""
""blur"",""56"",""585094""
""blur"",""62"",""635371""
","""event"",""trial"",""time""
""focus"",""31"",""434186""
""focus"",""53"",""569671""
""focus"",""58"",""593663""
""focus"",""80"",""725425""
","""event"",""trial"",""time""
""fullscreenenter"",""1"",""1191""
","""event"",""trial"",""time""
""fullscreenexit"",""53"",""569671""
","","","","","","","","","","","","","","","","","","","","","","","","","","",""
"pit-instructions","80","747084","0.0-2.0-16.0","battery-v0.2","","""event"",""trial"",""time""
""fullscreenenter"",""1"",""1191""
""blur"",""31"",""432630""
""focus"",""31"",""434186""
""blur"",""53"",""569669""
""focus"",""53"",""569671""
""fullscreenexit"",""53"",""569671""
""blur"",""56"",""585094""
""focus"",""58"",""593663""
""blur"",""62"",""635371""
""focus"",""80"",""725425""
","""event"",""trial"",""time""
""blur"",""31"",""432630""
""blur"",""53"",""569669""
""blur"",""56"",""585094""
""blur"",""62"",""635371""
","""event"",""trial"",""time""
""focus"",""31"",""434186""
""focus"",""53"",""569671""
""focus"",""58"",""593663""
""focus"",""80"",""725425""
","""event"",""trial"",""time""
""fullscreenenter"",""1"",""1191""
","""event"",""trial"",""time""
""fullscreenexit"",""53"",""569671""
","","[{""page_index"":0,""viewing_time"":7793},{""page_index"":1,""viewing_time"":8945.299999999814},{""page_index"":2,""viewing_time"":4543.899999999441},{""page_index"":3,""viewing_time"":5464.200000000186}]","26746.799999999814","","","","","","","","","","","","","","","","","","","","","","","",""
"pit-trial","81","750575","0.0-2.0-17.0-0.0","battery-v0.2","","""event"",""trial"",""time""
""fullscreenenter"",""1"",""1191""
""blur"",""31"",""432630""
""focus"",""31"",""434186""
""blur"",""53"",""569669""
""focus"",""53"",""569671""
""fullscreenexit"",""53"",""569671""
""blur"",""56"",""585094""
""focus"",""58"",""593663""
""blur"",""62"",""635371""
""focus"",""80"",""725425""
","""event"",""trial"",""time""
""blur"",""31"",""432630""
""blur"",""53"",""569669""
""blur"",""56"",""585094""
""blur"",""62"",""635371""
","""event"",""trial"",""time""
""focus"",""31"",""434186""
""focus"",""53"",""569671""
""focus"",""58"",""593663""
""focus"",""80"",""725425""
","""event"",""trial"",""time""
""fullscreenenter"",""1"",""1191""
","""event"",""trial"",""time""
""fullscreenexit"",""53"",""569671""
","","","621.1000000005588","","","25","7264","3923","&#9789;","elianto","#f73b6a7A"," "," ","1","0","[1476.1000000005588]","1","0","4","","","","","","","",""
"pit-trial","82","753476","0.0-2.0-17.0-1.0","battery-v0.2","","""event"",""trial"",""time""
""fullscreenenter"",""1"",""1191""
""blur"",""31"",""432630""
""focus"",""31"",""434186""
""blur"",""53"",""569669""
""focus"",""53"",""569671""
""fullscreenexit"",""53"",""569671""
""blur"",""56"",""585094""
""focus"",""58"",""593663""
""blur"",""62"",""635371""
""focus"",""80"",""725425""
","""event"",""trial"",""time""
""blur"",""31"",""432630""
""blur"",""53"",""569669""
""blur"",""56"",""585094""
""blur"",""62"",""635371""
","""event"",""trial"",""time""
""focus"",""31"",""434186""
""focus"",""53"",""569671""
""focus"",""58"",""593663""
""focus"",""80"",""725425""
","""event"",""trial"",""time""
""fullscreenenter"",""1"",""1191""
","""event"",""trial"",""time""
""fullscreenexit"",""53"",""569671""
","","","34.40000000037253","","","25","7264","3923","&#9789;","elianto","#f73b6a7A"," "," ","1","0","[887.8000000007451,1172.9000000003725,1387.1000000005588,1552.5,1716.7000000001863,1882.6000000005588,2062.300000000745,2254.4000000003725,2425.100000000559,2564.2000000001863,2726]","11","0","4","","","","","","","",""
"pit-trial","83","756486","0.0-2.0-17.0-2.0","battery-v0.2","","""event"",""trial"",""time""
""fullscreenenter"",""1"",""1191""
""blur"",""31"",""432630""
""focus"",""31"",""434186""
""blur"",""53"",""569669""
""focus"",""53"",""569671""
""fullscreenexit"",""53"",""569671""
""blur"",""56"",""585094""
""focus"",""58"",""593663""
""blur"",""62"",""635371""
""focus"",""80"",""725425""
","""event"",""trial"",""time""
""blur"",""31"",""432630""
""blur"",""53"",""569669""
""blur"",""56"",""585094""
""blur"",""62"",""635371""
","""event"",""trial"",""time""
""focus"",""31"",""434186""
""focus"",""53"",""569671""
""focus"",""58"",""593663""
""focus"",""80"",""725425""
","""event"",""trial"",""time""
""fullscreenenter"",""1"",""1191""
","""event"",""trial"",""time""
""fullscreenexit"",""53"",""569671""
","","","144.59999999962747","","","25","7264","3923","&#9789;","elianto","#f73b6a7A"," "," ","1","0","[18.100000000558794,179.29999999981374,346.5,506.40000000037253,672.1000000005588,838.2999999998137,999.7999999998137,1137.6000000005588,1340.5,1467.9000000003725,1631,1829.1000000005588,1997.5,2176.2000000001863,2344.2000000001863,2519.7000000001863,2731.4000000003725,2875.7000000001863]","18","0","4","","","","","","","",""
"pit-trial","84","759446","0.0-2.0-17.0-3.0","battery-v0.2","","""event"",""trial"",""time""
""fullscreenenter"",""1"",""1191""
""blur"",""31"",""432630""
""focus"",""31"",""434186""
""blur"",""53"",""569669""
""focus"",""53"",""569671""
""fullscreenexit"",""53"",""569671""
""blur"",""56"",""585094""
""focus"",""58"",""593663""
""blur"",""62"",""635371""
""focus"",""80"",""725425""
","""event"",""trial"",""time""
""blur"",""31"",""432630""
""blur"",""53"",""569669""
""blur"",""56"",""585094""
""blur"",""62"",""635371""
","""event"",""trial"",""time""
""focus"",""31"",""434186""
""focus"",""53"",""569671""
""focus"",""58"",""593663""
""focus"",""80"",""725425""
","""event"",""trial"",""time""
""fullscreenenter"",""1"",""1191""
","""event"",""trial"",""time""
""fullscreenexit"",""53"",""569671""
","","","92.90000000037253","","","25","7264","3923","&#9789;","elianto","#f73b6a7A"," "," ","1","-10","[3.3999999994412065,195.5,385.29999999981374,570.8999999994412,757.1999999992549,945,1118.5999999996275,1321.699999999255,1545.2999999998137,1710.0999999996275,1868.699999999255,2065.7999999998137,2245.5999999996275,2403.899999999441,2599.7999999998137,2785.699999999255]","16","0","4","","","","","","","",""
"pit-trial","85","762436","0.0-2.0-17.0-4.0","battery-v0.2","","""event"",""trial"",""time""
""fullscreenenter"",""1"",""1191""
""blur"",""31"",""432630""
""focus"",""31"",""434186""
""blur"",""53"",""569669""
""focus"",""53"",""569671""
""fullscreenexit"",""53"",""569671""
""blur"",""56"",""585094""
""focus"",""58"",""593663""
""blur"",""62"",""635371""
""focus"",""80"",""725425""
","""event"",""trial"",""time""
""blur"",""31"",""432630""
""blur"",""53"",""569669""
""blur"",""56"",""585094""
""blur"",""62"",""635371""
","""event"",""trial"",""time""
""focus"",""31"",""434186""
""focus"",""53"",""569671""
""focus"",""58"",""593663""
""focus"",""80"",""725425""
","""event"",""trial"",""time""
""fullscreenenter"",""1"",""1191""
","""event"",""trial"",""time""
""fullscreenexit"",""53"",""569671""
","","","127.20000000018626","","","25","7264","3923","&#9789;","elianto","#f73b6a7A"," "," ","1","0","[18.299999999813735,207.70000000018626,414.5,602.2999999998137,790.2999999998137,978.0999999996275,1158.5,1328.5,1490.2999999998137,1648.7999999998137,1846.9000000003725,2004.4000000003725,2169.2999999998137,2353.2999999998137,2546.7000000001863,2729.9000000003725]","16","0","4","","","","","","","",""
"pit-trial","86","765376","0.0-2.0-17.1-0.1","battery-v0.2","","""event"",""trial"",""time""
""fullscreenenter"",""1"",""1191""
""blur"",""31"",""432630""
""focus"",""31"",""434186""
""blur"",""53"",""569669""
""focus"",""53"",""569671""
""fullscreenexit"",""53"",""569671""
""blur"",""56"",""585094""
""focus"",""58"",""593663""
""blur"",""62"",""635371""
""focus"",""80"",""725425""
","""event"",""trial"",""time""
""blur"",""31"",""432630""
""blur"",""53"",""569669""
""blur"",""56"",""585094""
""blur"",""62"",""635371""
","""event"",""trial"",""time""
""focus"",""31"",""434186""
""focus"",""53"",""569671""
""focus"",""58"",""593663""
""focus"",""80"",""725425""
","""event"",""trial"",""time""
""fullscreenenter"",""1"",""1191""
","""event"",""trial"",""time""
""fullscreenexit"",""53"",""569671""
","","","77.6000000005588","","","25","7264","3923","&#9789;","elianto","#f73b6a7A"," "," ","1","0","[1.7999999998137355,201.79999999981374,364.59999999962747,537.7999999998137,726.2999999998137,931.7000000001863,1095.4000000003725,1290.9000000003725,1479.2999999998137,1670.0999999996275,2014.4000000003725,2212,2410.2999999998137,2606.5,2826.7999999998137]","15","0","4","","","","","","","",""
"pit-trial","87","768246","0.0-2.0-17.1-1.1","battery-v0.2","","""event"",""trial"",""time""
""fullscreenenter"",""1"",""1191""
""blur"",""31"",""432630""
""focus"",""31"",""434186""
""blur"",""53"",""569669""
""focus"",""53"",""569671""
""fullscreenexit"",""53"",""569671""
""blur"",""56"",""585094""
""focus"",""58"",""593663""
""blur"",""62"",""635371""
""focus"",""80"",""725425""
","""event"",""trial"",""time""
""blur"",""31"",""432630""
""blur"",""53"",""569669""
""blur"",""56"",""585094""
""blur"",""62"",""635371""
","""event"",""trial"",""time""
""focus"",""31"",""434186""
""focus"",""53"",""569671""
""focus"",""58"",""593663""
""focus"",""80"",""725425""
","""event"",""trial"",""time""
""fullscreenenter"",""1"",""1191""
","""event"",""trial"",""time""
""fullscreenexit"",""53"",""569671""
","","","8.299999999813735","","","25","7264","3923","&#9789;","elianto","#f73b6a7A"," "," ","1","0","[67.09999999962747,273.09999999962747,465.90000000037253,664.5,858.7000000001863,1018.5,1159.5,1388.2000000001863,1566.5,1747,1942.9000000003725,2148.4000000003725,2348.4000000003725,2539.4000000003725,2713.2000000001863]","15","0","4","","","","","","","",""
"pit-trial","88","771142","0.0-2.0-17.1-2.1","battery-v0.2","","""event"",""trial"",""time""
""fullscreenenter"",""1"",""1191""
""blur"",""31"",""432630""
""focus"",""31"",""434186""
""blur"",""53"",""569669""
""focus"",""53"",""569671""
""fullscreenexit"",""53"",""569671""
""blur"",""56"",""585094""
""focus"",""58"",""593663""
""blur"",""62"",""635371""
""focus"",""80"",""725425""
","""event"",""trial"",""time""
""blur"",""31"",""432630""
""blur"",""53"",""569669""
""blur"",""56"",""585094""
""blur"",""62"",""635371""
","""event"",""trial"",""time""
""focus"",""31"",""434186""
""focus"",""53"",""569671""
""focus"",""58"",""593663""
""focus"",""80"",""725425""
","""event"",""trial"",""time""
""fullscreenenter"",""1"",""1191""
","""event"",""trial"",""time""
""fullscreenexit"",""53"",""569671""
","","","31.5","","","25","7264","3923","&#9789;","elianto","#f73b6a7A"," "," ","1","0","[46.799999999813735,257.6000000005588,692.7999999998137,885.7999999998137,1097.6000000005588,1312.1000000005588,1519.6000000005588,1743.4000000003725,1928.7999999998137,2149.9000000003725,2364.4000000003725,2571.2999999998137,2780.7999999998137]","13","0","4","","","","","","","",""
"pit-trial","89","774016","0.0-2.0-17.1-3.1","battery-v0.2","","""event"",""trial"",""time""
""fullscreenenter"",""1"",""1191""
""blur"",""31"",""432630""
""focus"",""31"",""434186""
""blur"",""53"",""569669""
""focus"",""53"",""569671""
""fullscreenexit"",""53"",""569671""
""blur"",""56"",""585094""
""focus"",""58"",""593663""
""blur"",""62"",""635371""
""focus"",""80"",""725425""
","""event"",""trial"",""time""
""blur"",""31"",""432630""
""blur"",""53"",""569669""
""blur"",""56"",""585094""
""blur"",""62"",""635371""
","""event"",""trial"",""time""
""focus"",""31"",""434186""
""focus"",""53"",""569671""
""focus"",""58"",""593663""
""focus"",""80"",""725425""
","""event"",""trial"",""time""
""fullscreenenter"",""1"",""1191""
","""event"",""trial"",""time""
""fullscreenexit"",""53"",""569671""
","","","5.2000000001862645","","","25","7264","3923","&#9789;","elianto","#f73b6a7A"," "," ","1","-10","[72.59999999962747,248.20000000018626,471,663.2999999998137,855.5,1085.5,1272.2000000001863,1477.7000000001863,1673.5,1881,2102.5,2322.0999999996275,2544.899999999441,2738.5]","14","0","4","","","","","","","",""
"pit-trial","90","776977","0.0-2.0-17.1-4.1","battery-v0.2","","""event"",""trial"",""time""
""fullscreenenter"",""1"",""1191""
""blur"",""31"",""432630""
""focus"",""31"",""434186""
""blur"",""53"",""569669""
""focus"",""53"",""569671""
""fullscreenexit"",""53"",""569671""
""blur"",""56"",""585094""
""focus"",""58"",""593663""
""blur"",""62"",""635371""
""focus"",""80"",""725425""
","""event"",""trial"",""time""
""blur"",""31"",""432630""
""blur"",""53"",""569669""
""blur"",""56"",""585094""
""blur"",""62"",""635371""
","""event"",""trial"",""time""
""focus"",""31"",""434186""
""focus"",""53"",""569671""
""focus"",""58"",""593663""
""focus"",""80"",""725425""
","""event"",""trial"",""time""
""fullscreenenter"",""1"",""1191""
","""event"",""trial"",""time""
""fullscreenexit"",""53"",""569671""
","","","101.30000000074506","","","25","7264","3923","&#9789;","elianto","#f73b6a7A"," "," ","1","0","[70.59999999962747,342.20000000018626,556.5999999996275,752.0999999996275,954.0999999996275,1207.0999999996275,1455.2000000001863,1650.2999999998137,1868,2091.7999999998137,2292,2476.2999999998137,2661.2999999998137,2855]","14","0","4","","","","","","","",""
"pit-trial","91","779977","0.0-2.0-17.2-0.2","battery-v0.2","","""event"",""trial"",""time""
""fullscreenenter"",""1"",""1191""
""blur"",""31"",""432630""
""focus"",""31"",""434186""
""blur"",""53"",""569669""
""focus"",""53"",""569671""
""fullscreenexit"",""53"",""569671""
""blur"",""56"",""585094""
""focus"",""58"",""593663""
""blur"",""62"",""635371""
""focus"",""80"",""725425""
","""event"",""trial"",""time""
""blur"",""31"",""432630""
""blur"",""53"",""569669""
""blur"",""56"",""585094""
""blur"",""62"",""635371""
","""event"",""trial"",""time""
""focus"",""31"",""434186""
""focus"",""53"",""569671""
""focus"",""58"",""593663""
""focus"",""80"",""725425""
","""event"",""trial"",""time""
""fullscreenenter"",""1"",""1191""
","""event"",""trial"",""time""
""fullscreenexit"",""53"",""569671""
","","","147","","","25","7264","3923","&#9789;","elianto","#f73b6a7A"," "," ","1","0","[83.79999999981374,254.29999999981374,430.69999999925494,620.7999999998137,811.3999999994412,997,1207.3999999994412,1440.5999999996275,1613.8999999994412,1814.199999999255,2015.8999999994412,2949.399999999441]","12","0","4","","","","","","","",""
"pit-trial","92","783842","0.0-2.0-17.2-1.2","battery-v0.2","","""event"",""trial"",""time""
""fullscreenenter"",""1"",""1191""
""blur"",""31"",""432630""
""focus"",""31"",""434186""
""blur"",""53"",""569669""
""focus"",""53"",""569671""
""fullscreenexit"",""53"",""569671""
""blur"",""56"",""585094""
""focus"",""58"",""593663""
""blur"",""62"",""635371""
""focus"",""80"",""725425""
","""event"",""trial"",""time""
""blur"",""31"",""432630""
""blur"",""53"",""569669""
""blur"",""56"",""585094""
""blur"",""62"",""635371""
","""event"",""trial"",""time""
""focus"",""31"",""434186""
""focus"",""53"",""569671""
""focus"",""58"",""593663""
""focus"",""80"",""725425""
","""event"",""trial"",""time""
""fullscreenenter"",""1"",""1191""
","""event"",""trial"",""time""
""fullscreenexit"",""53"",""569671""
","","","1011.9000000003725","","","25","7264","3923","&#9789;","elianto","#f73b6a7A"," "," ","1","0","[1862.6000000005588,2033.6000000005588,2216.9000000003725,2405.600000000559,2615.9000000003725,2808.600000000559,3002.9000000003725,3179.2000000001863,3378.5,3581.100000000559,3787.7999999998137]","11","0","4","","","","","","","",""
"pit-trial","93","786745","0.0-2.0-17.2-2.2","battery-v0.2","","""event"",""trial"",""time""
""fullscreenenter"",""1"",""1191""
""blur"",""31"",""432630""
""focus"",""31"",""434186""
""blur"",""53"",""569669""
""focus"",""53"",""569671""
""fullscreenexit"",""53"",""569671""
""blur"",""56"",""585094""
""focus"",""58"",""593663""
""blur"",""62"",""635371""
""focus"",""80"",""725425""
","""event"",""trial"",""time""
""blur"",""31"",""432630""
""blur"",""53"",""569669""
""blur"",""56"",""585094""
""blur"",""62"",""635371""
","""event"",""trial"",""time""
""focus"",""31"",""434186""
""focus"",""53"",""569671""
""focus"",""58"",""593663""
""focus"",""80"",""725425""
","""event"",""trial"",""time""
""fullscreenenter"",""1"",""1191""
","""event"",""trial"",""time""
""fullscreenexit"",""53"",""569671""
","","","47.10000000055879","","","25","7264","3923","&#9789;","elianto","#f73b6a7A"," "," ","1","0","[114,295.20000000018626,498.40000000037253,701.9000000003725,897.7000000001863,1087.5,1270.5999999996275,1465.2999999998137,1664.9000000003725,1888,2093.7000000001863,2274.4000000003725,2497.2000000001863,2723.4000000003725]","14","0","4","","","","","","","",""
"pit-trial","94","789806","0.0-2.0-17.2-3.2","battery-v0.2","","""event"",""trial"",""time""
""fullscreenenter"",""1"",""1191""
""blur"",""31"",""432630""
""focus"",""31"",""434186""
""blur"",""53"",""569669""
""focus"",""53"",""569671""
""fullscreenexit"",""53"",""569671""
""blur"",""56"",""585094""
""focus"",""58"",""593663""
""blur"",""62"",""635371""
""focus"",""80"",""725425""
","""event"",""trial"",""time""
""blur"",""31"",""432630""
""blur"",""53"",""569669""
""blur"",""56"",""585094""
""blur"",""62"",""635371""
","""event"",""trial"",""time""
""focus"",""31"",""434186""
""focus"",""53"",""569671""
""focus"",""58"",""593663""
""focus"",""80"",""725425""
","""event"",""trial"",""time""
""fullscreenenter"",""1"",""1191""
","""event"",""trial"",""time""
""fullscreenexit"",""53"",""569671""
","","","203.90000000037253","","","25","7264","3923","&#9789;","elianto","#f73b6a7A"," "," ","1","-10","[20.399999999441206,234.3999999994412,440.3999999994412,638.5999999996275,841,1054.5,1279.5,1521.7000000001863,1750.5,1962.7999999998137,2102.2999999998137,2284.2000000001863,2486.5999999996275,2705,2969.7000000001863]","15","0","4","","","","","","","",""
"pit-trial","95","792695","0.0-2.0-17.2-4.2","battery-v0.2","","""event"",""trial"",""time""
""fullscreenenter"",""1"",""1191""
""blur"",""31"",""432630""
""focus"",""31"",""434186""
""blur"",""53"",""569669""
""focus"",""53"",""569671""
""fullscreenexit"",""53"",""569671""
""blur"",""56"",""585094""
""focus"",""58"",""593663""
""blur"",""62"",""635371""
""focus"",""80"",""725425""
","""event"",""trial"",""time""
""blur"",""31"",""432630""
""blur"",""53"",""569669""
""blur"",""56"",""585094""
""blur"",""62"",""635371""
","""event"",""trial"",""time""
""focus"",""31"",""434186""
""focus"",""53"",""569671""
""focus"",""58"",""593663""
""focus"",""80"",""725425""
","""event"",""trial"",""time""
""fullscreenenter"",""1"",""1191""
","""event"",""trial"",""time""
""fullscreenexit"",""53"",""569671""
","","","31.90000000037253","","","25","7264","3923","&#9789;","elianto","#f73b6a7A"," "," ","1","0","[136.6000000005588,325.79999999981374,518.1000000005588,696.4000000003725,882.1000000005588,1060.7000000001863,1255.5,1442.1000000005588,1742.5,1973.5,2237.5,2437.5,2621.2999999998137,2809.5]","14","0","4","","","","","","","",""
"pit-trial","96","795564","0.0-2.0-17.3-0.3","battery-v0.2","","""event"",""trial"",""time""
""fullscreenenter"",""1"",""1191""
""blur"",""31"",""432630""
""focus"",""31"",""434186""
""blur"",""53"",""569669""
""focus"",""53"",""569671""
""fullscreenexit"",""53"",""569671""
""blur"",""56"",""585094""
""focus"",""58"",""593663""
""blur"",""62"",""635371""
""focus"",""80"",""725425""
","""event"",""trial"",""time""
""blur"",""31"",""432630""
""blur"",""53"",""569669""
""blur"",""56"",""585094""
""blur"",""62"",""635371""
","""event"",""trial"",""time""
""focus"",""31"",""434186""
""focus"",""53"",""569671""
""focus"",""58"",""593663""
""focus"",""80"",""725425""
","""event"",""trial"",""time""
""fullscreenenter"",""1"",""1191""
","""event"",""trial"",""time""
""fullscreenexit"",""53"",""569671""
","","","14.199999999254942","","","25","7264","3923","&#9789;","elianto","#f73b6a7A"," "," ","1","0","[108.5,293,482.29999999981374,683.2000000001863,866.2999999998137,1067.2999999998137,1291.5,1524.9000000003725,1752,2009.1000000005588,2261.7000000001863,2490.9000000003725,2702.100000000559,2853.7000000001863]","14","0","4","","","","","","","",""
"pit-trial","97","798581","0.0-2.0-17.3-1.3","battery-v0.2","","""event"",""trial"",""time""
""fullscreenenter"",""1"",""1191""
""blur"",""31"",""432630""
""focus"",""31"",""434186""
""blur"",""53"",""569669""
""focus"",""53"",""569671""
""fullscreenexit"",""53"",""569671""
""blur"",""56"",""585094""
""focus"",""58"",""593663""
""blur"",""62"",""635371""
""focus"",""80"",""725425""
","""event"",""trial"",""time""
""blur"",""31"",""432630""
""blur"",""53"",""569669""
""blur"",""56"",""585094""
""blur"",""62"",""635371""
","""event"",""trial"",""time""
""focus"",""31"",""434186""
""focus"",""53"",""569671""
""focus"",""58"",""593663""
""focus"",""80"",""725425""
","""event"",""trial"",""time""
""fullscreenenter"",""1"",""1191""
","""event"",""trial"",""time""
""fullscreenexit"",""53"",""569671""
","","","163.79999999981374","","","25","7264","3923","&#9789;","elianto","#f73b6a7A"," "," ","1","0","[373.3999999994412,614,819.2999999998137,1014,1213.5,1436.199999999255,1628.0999999996275,1832.8999999994412,2034.3999999994412,2194.7999999998137,2402.5999999996275,2609.899999999441,2799.699999999255,3001]","14","0","4","","","","","","","",""
"pit-trial","98","801470","0.0-2.0-17.3-2.3","battery-v0.2","","""event"",""trial"",""time""
""fullscreenenter"",""1"",""1191""
""blur"",""31"",""432630""
""focus"",""31"",""434186""
""blur"",""53"",""569669""
""focus"",""53"",""569671""
""fullscreenexit"",""53"",""569671""
""blur"",""56"",""585094""
""focus"",""58"",""593663""
""blur"",""62"",""635371""
""focus"",""80"",""725425""
","""event"",""trial"",""time""
""blur"",""31"",""432630""
""blur"",""53"",""569669""
""blur"",""56"",""585094""
""blur"",""62"",""635371""
","""event"",""trial"",""time""
""focus"",""31"",""434186""
""focus"",""53"",""569671""
""focus"",""58"",""593663""
""focus"",""80"",""725425""
","""event"",""trial"",""time""
""fullscreenenter"",""1"",""1191""
","""event"",""trial"",""time""
""fullscreenexit"",""53"",""569671""
","","","37.200000000186265","","","25","7264","3923","&#9789;","elianto","#f73b6a7A"," "," ","1","0","[153.80000000074506,320.20000000018626,470.80000000074506,663.5,887.2000000001863,1110.1000000005588,1302.2000000001863,1510.5,1712.5,1902.300000000745,2105.7000000001863,2306.7000000001863,2509.5,2705.5,2871.600000000559]","15","0","4","","","","","","","",""
"pit-trial","99","804415","0.0-2.0-17.3-3.3","battery-v0.2","","""event"",""trial"",""time""
""fullscreenenter"",""1"",""1191""
""blur"",""31"",""432630""
""focus"",""31"",""434186""
""blur"",""53"",""569669""
""focus"",""53"",""569671""
""fullscreenexit"",""53"",""569671""
""blur"",""56"",""585094""
""focus"",""58"",""593663""
""blur"",""62"",""635371""
""focus"",""80"",""725425""
","""event"",""trial"",""time""
""blur"",""31"",""432630""
""blur"",""53"",""569669""
""blur"",""56"",""585094""
""blur"",""62"",""635371""
","""event"",""trial"",""time""
""focus"",""31"",""434186""
""focus"",""53"",""569671""
""focus"",""58"",""593663""
""focus"",""80"",""725425""
","""event"",""trial"",""time""
""fullscreenenter"",""1"",""1191""
","""event"",""trial"",""time""
""fullscreenexit"",""53"",""569671""
","","","89.29999999981374","","","25","7264","3923","&#9789;","elianto","#f73b6a7A"," "," ","1","-10","[194.79999999981374,380.59999999962747,576.1999999992549,775.0999999996275,941.1999999992549,1091.199999999255,1297.699999999255,1491.0999999996275,1691.8999999994412,1894.699999999255,2083.0999999996275,2273.399999999441,2462.0999999996275,2663.0999999996275,2855.699999999255]","15","0","4","","","","","","","",""
"pit-trial","100","807325","0.0-2.0-17.3-4.3","battery-v0.2","","""event"",""trial"",""time""
""fullscreenenter"",""1"",""1191""
""blur"",""31"",""432630""
""focus"",""31"",""434186""
""blur"",""53"",""569669""
""focus"",""53"",""569671""
""fullscreenexit"",""53"",""569671""
""blur"",""56"",""585094""
""focus"",""58"",""593663""
""blur"",""62"",""635371""
""focus"",""80"",""725425""
","""event"",""trial"",""time""
""blur"",""31"",""432630""
""blur"",""53"",""569669""
""blur"",""56"",""585094""
""blur"",""62"",""635371""
","""event"",""trial"",""time""
""focus"",""31"",""434186""
""focus"",""53"",""569671""
""focus"",""58"",""593663""
""focus"",""80"",""725425""
","""event"",""trial"",""time""
""fullscreenenter"",""1"",""1191""
","""event"",""trial"",""time""
""fullscreenexit"",""53"",""569671""
","","","53.09999999962747","","","25","7264","3923","&#9789;","elianto","#f73b6a7A"," "," ","1","0","[96.8999999994412,299.69999999925494,500.19999999925494,681.1999999992549,904.1999999992549,1125,1305.199999999255,1524.3999999994412,1732.699999999255,1932.3999999994412,2138.5,2324.2999999998137,2529.399999999441,2705.199999999255,2887.699999999255]","15","0","4","","","","","","","",""
"call-function","101","807327","0.0-2.0-18.0","battery-v0.2","","""event"",""trial"",""time""
""fullscreenenter"",""1"",""1191""
""blur"",""31"",""432630""
""focus"",""31"",""434186""
""blur"",""53"",""569669""
""focus"",""53"",""569671""
""fullscreenexit"",""53"",""569671""
""blur"",""56"",""585094""
""focus"",""58"",""593663""
""blur"",""62"",""635371""
""focus"",""80"",""725425""
","""event"",""trial"",""time""
""blur"",""31"",""432630""
""blur"",""53"",""569669""
""blur"",""56"",""585094""
""blur"",""62"",""635371""
","""event"",""trial"",""time""
""focus"",""31"",""434186""
""focus"",""53"",""569671""
""focus"",""58"",""593663""
""focus"",""80"",""725425""
","""event"",""trial"",""time""
""fullscreenenter"",""1"",""1191""
","""event"",""trial"",""time""
""fullscreenexit"",""53"",""569671""
","","","","","","","","","","","","","","","","","","","","","","","","","","",""
"pit-instructions","102","886444","0.0-2.0-19.0","battery-v0.2","","""event"",""trial"",""time""
""fullscreenenter"",""1"",""1191""
""blur"",""31"",""432630""
""focus"",""31"",""434186""
""blur"",""53"",""569669""
""focus"",""53"",""569671""
""fullscreenexit"",""53"",""569671""
""blur"",""56"",""585094""
""focus"",""58"",""593663""
""blur"",""62"",""635371""
""focus"",""80"",""725425""
","""event"",""trial"",""time""
""blur"",""31"",""432630""
""blur"",""53"",""569669""
""blur"",""56"",""585094""
""blur"",""62"",""635371""
","""event"",""trial"",""time""
""focus"",""31"",""434186""
""focus"",""53"",""569671""
""focus"",""58"",""593663""
""focus"",""80"",""725425""
","""event"",""trial"",""time""
""fullscreenenter"",""1"",""1191""
","""event"",""trial"",""time""
""fullscreenexit"",""53"",""569671""
","","[{""page_index"":0,""viewing_time"":22516.5},{""page_index"":1,""viewing_time"":6310.199999999255},{""page_index"":2,""viewing_time"":11305.300000000745},{""page_index"":3,""viewing_time"":6776.699999999255},{""page_index"":4,""viewing_time"":10791.200000000186},{""page_index"":5,""viewing_time"":8135.600000000559},{""page_index"":6,""viewing_time"":4648.699999999255},{""page_index"":7,""viewing_time"":4784.600000000559},{""page_index"":8,""viewing_time"":3855.2000000001863}]","79124.39999999944","","","","","","","","","","","","","","","","","","","","","","","",""
"pit-comprehension","103","890837","0.0-2.0-20.0-0.0","battery-v0.2","","""event"",""trial"",""time""
""fullscreenenter"",""1"",""1191""
""blur"",""31"",""432630""
""focus"",""31"",""434186""
""blur"",""53"",""569669""
""focus"",""53"",""569671""
""fullscreenexit"",""53"",""569671""
""blur"",""56"",""585094""
""focus"",""58"",""593663""
""blur"",""62"",""635371""
""focus"",""80"",""725425""
","""event"",""trial"",""time""
""blur"",""31"",""432630""
""blur"",""53"",""569669""
""blur"",""56"",""585094""
""blur"",""62"",""635371""
","""event"",""trial"",""time""
""focus"",""31"",""434186""
""focus"",""53"",""569671""
""focus"",""58"",""593663""
""focus"",""80"",""725425""
","""event"",""trial"",""time""
""fullscreenenter"",""1"",""1191""
","""event"",""trial"",""time""
""fullscreenexit"",""53"",""569671""
","","","4389.5","[""SPACE""]","0","25","7264","3923","","","","","","","","","","","","","","","","","","",""
"pit-instructions","104","893139","0.0-2.0-20.0-1.0","battery-v0.2","","""event"",""trial"",""time""
""fullscreenenter"",""1"",""1191""
""blur"",""31"",""432630""
""focus"",""31"",""434186""
""blur"",""53"",""569669""
""focus"",""53"",""569671""
""fullscreenexit"",""53"",""569671""
""blur"",""56"",""585094""
""focus"",""58"",""593663""
""blur"",""62"",""635371""
""focus"",""80"",""725425""
","""event"",""trial"",""time""
""blur"",""31"",""432630""
""blur"",""53"",""569669""
""blur"",""56"",""585094""
""blur"",""62"",""635371""
","""event"",""trial"",""time""
""focus"",""31"",""434186""
""focus"",""53"",""569671""
""focus"",""58"",""593663""
""focus"",""80"",""725425""
","""event"",""trial"",""time""
""fullscreenenter"",""1"",""1191""
","""event"",""trial"",""time""
""fullscreenexit"",""53"",""569671""
","","[{""page_index"":0,""viewing_time"":2269.7999999998137}]","2269.899999999441","","","","","","","","","","","","","","","","","","","","","","","",""
"pit-comprehension","105","897645","0.0-2.0-21.0-0.0","battery-v0.2","","""event"",""trial"",""time""
""fullscreenenter"",""1"",""1191""
""blur"",""31"",""432630""
""focus"",""31"",""434186""
""blur"",""53"",""569669""
""focus"",""53"",""569671""
""fullscreenexit"",""53"",""569671""
""blur"",""56"",""585094""
""focus"",""58"",""593663""
""blur"",""62"",""635371""
""focus"",""80"",""725425""
","""event"",""trial"",""time""
""blur"",""31"",""432630""
""blur"",""53"",""569669""
""blur"",""56"",""585094""
""blur"",""62"",""635371""
","""event"",""trial"",""time""
""focus"",""31"",""434186""
""focus"",""53"",""569671""
""focus"",""58"",""593663""
""focus"",""80"",""725425""
","""event"",""trial"",""time""
""fullscreenenter"",""1"",""1191""
","""event"",""trial"",""time""
""fullscreenexit"",""53"",""569671""
","","","4502.899999999441","[""10""]","0","25","7264","3923","","","","","","","","","","","","","","","","","","",""
"pit-instructions","106","898709","0.0-2.0-21.0-1.0","battery-v0.2","","""event"",""trial"",""time""
""fullscreenenter"",""1"",""1191""
""blur"",""31"",""432630""
""focus"",""31"",""434186""
""blur"",""53"",""569669""
""focus"",""53"",""569671""
""fullscreenexit"",""53"",""569671""
""blur"",""56"",""585094""
""focus"",""58"",""593663""
""blur"",""62"",""635371""
""focus"",""80"",""725425""
","""event"",""trial"",""time""
""blur"",""31"",""432630""
""blur"",""53"",""569669""
""blur"",""56"",""585094""
""blur"",""62"",""635371""
","""event"",""trial"",""time""
""focus"",""31"",""434186""
""focus"",""53"",""569671""
""focus"",""58"",""593663""
""focus"",""80"",""725425""
","""event"",""trial"",""time""
""fullscreenenter"",""1"",""1191""
","""event"",""trial"",""time""
""fullscreenexit"",""53"",""569671""
","","[{""page_index"":0,""viewing_time"":1024.6000000005588}]","1024.7000000001863","","","","","","","","","","","","","","","","","","","","","","","",""
"pit-comprehension","107","905422","0.0-2.0-22.0-0.0","battery-v0.2","","""event"",""trial"",""time""
""fullscreenenter"",""1"",""1191""
""blur"",""31"",""432630""
""focus"",""31"",""434186""
""blur"",""53"",""569669""
""focus"",""53"",""569671""
""fullscreenexit"",""53"",""569671""
""blur"",""56"",""585094""
""focus"",""58"",""593663""
""blur"",""62"",""635371""
""focus"",""80"",""725425""
","""event"",""trial"",""time""
""blur"",""31"",""432630""
""blur"",""53"",""569669""
""blur"",""56"",""585094""
""blur"",""62"",""635371""
","""event"",""trial"",""time""
""focus"",""31"",""434186""
""focus"",""53"",""569671""
""focus"",""58"",""593663""
""focus"",""80"",""725425""
","""event"",""trial"",""time""
""fullscreenenter"",""1"",""1191""
","""event"",""trial"",""time""
""fullscreenexit"",""53"",""569671""
","","","6709.9000000003725","[""0""]","0","25","7264","3923","","","","","","","","","","","","","","","","","","",""
"pit-instructions","108","906837","0.0-2.0-22.0-1.0","battery-v0.2","","""event"",""trial"",""time""
""fullscreenenter"",""1"",""1191""
""blur"",""31"",""432630""
""focus"",""31"",""434186""
""blur"",""53"",""569669""
""focus"",""53"",""569671""
""fullscreenexit"",""53"",""569671""
""blur"",""56"",""585094""
""focus"",""58"",""593663""
""blur"",""62"",""635371""
""focus"",""80"",""725425""
","""event"",""trial"",""time""
""blur"",""31"",""432630""
""blur"",""53"",""569669""
""blur"",""56"",""585094""
""blur"",""62"",""635371""
","""event"",""trial"",""time""
""focus"",""31"",""434186""
""focus"",""53"",""569671""
""focus"",""58"",""593663""
""focus"",""80"",""725425""
","""event"",""trial"",""time""
""fullscreenenter"",""1"",""1191""
","""event"",""trial"",""time""
""fullscreenexit"",""53"",""569671""
","","[{""page_index"":0,""viewing_time"":1383.7999999998137}]","1384","","","","","","","","","","","","","","","","","","","","","","","",""
"pit-comprehension","109","916102","0.0-2.0-23.0-0.0","battery-v0.2","","""event"",""trial"",""time""
""fullscreenenter"",""1"",""1191""
""blur"",""31"",""432630""
""focus"",""31"",""434186""
""blur"",""53"",""569669""
""focus"",""53"",""569671""
""fullscreenexit"",""53"",""569671""
""blur"",""56"",""585094""
""focus"",""58"",""593663""
""blur"",""62"",""635371""
""focus"",""80"",""725425""
","""event"",""trial"",""time""
""blur"",""31"",""432630""
""blur"",""53"",""569669""
""blur"",""56"",""585094""
""blur"",""62"",""635371""
","""event"",""trial"",""time""
""focus"",""31"",""434186""
""focus"",""53"",""569671""
""focus"",""58"",""593663""
""focus"",""80"",""725425""
","""event"",""trial"",""time""
""fullscreenenter"",""1"",""1191""
","""event"",""trial"",""time""
""fullscreenexit"",""53"",""569671""
","","","9261.300000000745","[""True""]","0","25","7264","3923","","","","","","","","","","","","","","","","","","",""
"pit-instructions","110","918557","0.0-2.0-23.0-1.0","battery-v0.2","","""event"",""trial"",""time""
""fullscreenenter"",""1"",""1191""
""blur"",""31"",""432630""
""focus"",""31"",""434186""
""blur"",""53"",""569669""
""focus"",""53"",""569671""
""fullscreenexit"",""53"",""569671""
""blur"",""56"",""585094""
""focus"",""58"",""593663""
""blur"",""62"",""635371""
""focus"",""80"",""725425""
","""event"",""trial"",""time""
""blur"",""31"",""432630""
""blur"",""53"",""569669""
""blur"",""56"",""585094""
""blur"",""62"",""635371""
","""event"",""trial"",""time""
""focus"",""31"",""434186""
""focus"",""53"",""569671""
""focus"",""58"",""593663""
""focus"",""80"",""725425""
","""event"",""trial"",""time""
""fullscreenenter"",""1"",""1191""
","""event"",""trial"",""time""
""fullscreenexit"",""53"",""569671""
","","[{""page_index"":0,""viewing_time"":2423.699999999255}]","2423.7999999998137","","","","","","","","","","","","","","","","","","","","","","","",""
"pit-comprehension","111","926821","0.0-2.0-24.0-0.0","battery-v0.2","","""event"",""trial"",""time""
""fullscreenenter"",""1"",""1191""
""blur"",""31"",""432630""
""focus"",""31"",""434186""
""blur"",""53"",""569669""
""focus"",""53"",""569671""
""fullscreenexit"",""53"",""569671""
""blur"",""56"",""585094""
""focus"",""58"",""593663""
""blur"",""62"",""635371""
""focus"",""80"",""725425""
","""event"",""trial"",""time""
""blur"",""31"",""432630""
""blur"",""53"",""569669""
""blur"",""56"",""585094""
""blur"",""62"",""635371""
","""event"",""trial"",""time""
""focus"",""31"",""434186""
""focus"",""53"",""569671""
""focus"",""58"",""593663""
""focus"",""80"",""725425""
","""event"",""trial"",""time""
""fullscreenenter"",""1"",""1191""
","""event"",""trial"",""time""
""fullscreenexit"",""53"",""569671""
","","","8253.899999999441","[""True""]","0","25","7264","3923","","","","","","","","","","","","","","","","","","",""
"pit-instructions","112","928308","0.0-2.0-24.0-1.0","battery-v0.2","","""event"",""trial"",""time""
""fullscreenenter"",""1"",""1191""
""blur"",""31"",""432630""
""focus"",""31"",""434186""
""blur"",""53"",""569669""
""focus"",""53"",""569671""
""fullscreenexit"",""53"",""569671""
""blur"",""56"",""585094""
""focus"",""58"",""593663""
""blur"",""62"",""635371""
""focus"",""80"",""725425""
","""event"",""trial"",""time""
""blur"",""31"",""432630""
""blur"",""53"",""569669""
""blur"",""56"",""585094""
""blur"",""62"",""635371""
","""event"",""trial"",""time""
""focus"",""31"",""434186""
""focus"",""53"",""569671""
""focus"",""58"",""593663""
""focus"",""80"",""725425""
","""event"",""trial"",""time""
""fullscreenenter"",""1"",""1191""
","""event"",""trial"",""time""
""fullscreenexit"",""53"",""569671""
","","[{""page_index"":0,""viewing_time"":1452.9000000003725}]","1453.1000000005588","","","","","","","","","","","","","","","","","","","","","","","",""
"pit-comprehension","113","934718","0.0-2.0-25.0-0.0","battery-v0.2","","""event"",""trial"",""time""
""fullscreenenter"",""1"",""1191""
""blur"",""31"",""432630""
""focus"",""31"",""434186""
""blur"",""53"",""569669""
""focus"",""53"",""569671""
""fullscreenexit"",""53"",""569671""
""blur"",""56"",""585094""
""focus"",""58"",""593663""
""blur"",""62"",""635371""
""focus"",""80"",""725425""
","""event"",""trial"",""time""
""blur"",""31"",""432630""
""blur"",""53"",""569669""
""blur"",""56"",""585094""
""blur"",""62"",""635371""
","""event"",""trial"",""time""
""focus"",""31"",""434186""
""focus"",""53"",""569671""
""focus"",""58"",""593663""
""focus"",""80"",""725425""
","""event"",""trial"",""time""
""fullscreenenter"",""1"",""1191""
","""event"",""trial"",""time""
""fullscreenexit"",""53"",""569671""
","","","6406.899999999441","[""True""]","0","25","7264","3923","","","","","","","","","","","","","","","","","","",""
"pit-instructions","114","936835","0.0-2.0-25.0-1.0","battery-v0.2","","""event"",""trial"",""time""
""fullscreenenter"",""1"",""1191""
""blur"",""31"",""432630""
""focus"",""31"",""434186""
""blur"",""53"",""569669""
""focus"",""53"",""569671""
""fullscreenexit"",""53"",""569671""
""blur"",""56"",""585094""
""focus"",""58"",""593663""
""blur"",""62"",""635371""
""focus"",""80"",""725425""
","""event"",""trial"",""time""
""blur"",""31"",""432630""
""blur"",""53"",""569669""
""blur"",""56"",""585094""
""blur"",""62"",""635371""
","""event"",""trial"",""time""
""focus"",""31"",""434186""
""focus"",""53"",""569671""
""focus"",""58"",""593663""
""focus"",""80"",""725425""
","""event"",""trial"",""time""
""fullscreenenter"",""1"",""1191""
","""event"",""trial"",""time""
""fullscreenexit"",""53"",""569671""
","","[{""page_index"":0,""viewing_time"":2085.9000000003725}]","2086.0999999996275","","","","","","","","","","","","","","","","","","","","","","","",""
"pit-comprehension","115","941462","0.0-2.0-26.0-0.0","battery-v0.2","","""event"",""trial"",""time""
""fullscreenenter"",""1"",""1191""
""blur"",""31"",""432630""
""focus"",""31"",""434186""
""blur"",""53"",""569669""
""focus"",""53"",""569671""
""fullscreenexit"",""53"",""569671""
""blur"",""56"",""585094""
""focus"",""58"",""593663""
""blur"",""62"",""635371""
""focus"",""80"",""725425""
","""event"",""trial"",""time""
""blur"",""31"",""432630""
""blur"",""53"",""569669""
""blur"",""56"",""585094""
""blur"",""62"",""635371""
","""event"",""trial"",""time""
""focus"",""31"",""434186""
""focus"",""53"",""569671""
""focus"",""58"",""593663""
""focus"",""80"",""725425""
","""event"",""trial"",""time""
""fullscreenenter"",""1"",""1191""
","""event"",""trial"",""time""
""fullscreenexit"",""53"",""569671""
","","","4623.300000000745","[""False""]","0","25","7264","3923","","","","","","","","","","","","","","","","","","",""
"pit-instructions","116","943060","0.0-2.0-26.0-1.0","battery-v0.2","","""event"",""trial"",""time""
""fullscreenenter"",""1"",""1191""
""blur"",""31"",""432630""
""focus"",""31"",""434186""
""blur"",""53"",""569669""
""focus"",""53"",""569671""
""fullscreenexit"",""53"",""569671""
""blur"",""56"",""585094""
""focus"",""58"",""593663""
""blur"",""62"",""635371""
""focus"",""80"",""725425""
","""event"",""trial"",""time""
""blur"",""31"",""432630""
""blur"",""53"",""569669""
""blur"",""56"",""585094""
""blur"",""62"",""635371""
","""event"",""trial"",""time""
""focus"",""31"",""434186""
""focus"",""53"",""569671""
""focus"",""58"",""593663""
""focus"",""80"",""725425""
","""event"",""trial"",""time""
""fullscreenenter"",""1"",""1191""
","""event"",""trial"",""time""
""fullscreenexit"",""53"",""569671""
","","[{""page_index"":0,""viewing_time"":1565.5999999996275}]","1565.9000000003725","","","","","","","","","","","","","","","","","","","","","","","",""
"pit-instructions","117","958422","0.0-3.0","battery-v0.2","","""event"",""trial"",""time""
""fullscreenenter"",""1"",""1191""
""blur"",""31"",""432630""
""focus"",""31"",""434186""
""blur"",""53"",""569669""
""focus"",""53"",""569671""
""fullscreenexit"",""53"",""569671""
""blur"",""56"",""585094""
""focus"",""58"",""593663""
""blur"",""62"",""635371""
""focus"",""80"",""725425""
","""event"",""trial"",""time""
""blur"",""31"",""432630""
""blur"",""53"",""569669""
""blur"",""56"",""585094""
""blur"",""62"",""635371""
","""event"",""trial"",""time""
""focus"",""31"",""434186""
""focus"",""53"",""569671""
""focus"",""58"",""593663""
""focus"",""80"",""725425""
","""event"",""trial"",""time""
""fullscreenenter"",""1"",""1191""
","""event"",""trial"",""time""
""fullscreenexit"",""53"",""569671""
","","[{""page_index"":0,""viewing_time"":3534.5999999996275},{""page_index"":1,""viewing_time"":5103.9000000003725},{""page_index"":2,""viewing_time"":6721.0999999996275}]","15359.899999999441","","","","","","","","","","","","","","","","","","","","","","","",""
"pit-trial","118","961949","0.0-4.0","battery-v0.2","","""event"",""trial"",""time""
""fullscreenenter"",""1"",""1191""
""blur"",""31"",""432630""
""focus"",""31"",""434186""
""blur"",""53"",""569669""
""focus"",""53"",""569671""
""fullscreenexit"",""53"",""569671""
""blur"",""56"",""585094""
""focus"",""58"",""593663""
""blur"",""62"",""635371""
""focus"",""80"",""725425""
","""event"",""trial"",""time""
""blur"",""31"",""432630""
""blur"",""53"",""569669""
""blur"",""56"",""585094""
""blur"",""62"",""635371""
","""event"",""trial"",""time""
""focus"",""31"",""434186""
""focus"",""53"",""569671""
""focus"",""58"",""593663""
""focus"",""80"",""725425""
","""event"",""trial"",""time""
""fullscreenenter"",""1"",""1191""
","""event"",""trial"",""time""
""fullscreenexit"",""53"",""569671""
","","","663.5999999996275","","","25","7264","3923","&#9730;","elianto","#3366ff99"," "," ","1","+10","[1514.5]","1","1","","","7264","1","1","1","win","go","0"
"pit-trial","119","965529","0.0-5.0","battery-v0.2","","""event"",""trial"",""time""
""fullscreenenter"",""1"",""1191""
""blur"",""31"",""432630""
""focus"",""31"",""434186""
""blur"",""53"",""569669""
""focus"",""53"",""569671""
""fullscreenexit"",""53"",""569671""
""blur"",""56"",""585094""
""focus"",""58"",""593663""
""blur"",""62"",""635371""
""focus"",""80"",""725425""
","""event"",""trial"",""time""
""blur"",""31"",""432630""
""blur"",""53"",""569669""
""blur"",""56"",""585094""
""blur"",""62"",""635371""
","""event"",""trial"",""time""
""focus"",""31"",""434186""
""focus"",""53"",""569671""
""focus"",""58"",""593663""
""focus"",""80"",""725425""
","""event"",""trial"",""time""
""fullscreenenter"",""1"",""1191""
","""event"",""trial"",""time""
""fullscreenexit"",""53"",""569671""
","","","704.3999999994412","","","25","7264","3923","&#9733;","elianto","#3366ff99","-1"," ","0","0","[1559.7999999998137]","1","1","","","7264","2","2","2","win","no-go","0"
"pit-trial","120","969079","0.0-6.0","battery-v0.2","","""event"",""trial"",""time""
""fullscreenenter"",""1"",""1191""
""blur"",""31"",""432630""
""focus"",""31"",""434186""
""blur"",""53"",""569669""
""focus"",""53"",""569671""
""fullscreenexit"",""53"",""569671""
""blur"",""56"",""585094""
""focus"",""58"",""593663""
""blur"",""62"",""635371""
""focus"",""80"",""725425""
","""event"",""trial"",""time""
""blur"",""31"",""432630""
""blur"",""53"",""569669""
""blur"",""56"",""585094""
""blur"",""62"",""635371""
","""event"",""trial"",""time""
""focus"",""31"",""434186""
""focus"",""53"",""569671""
""focus"",""58"",""593663""
""focus"",""80"",""725425""
","""event"",""trial"",""time""
""fullscreenenter"",""1"",""1191""
","""event"",""trial"",""time""
""fullscreenexit"",""53"",""569671""
","","","685.9000000003725","","","25","7264","3923","&#9752;","elianto","#f73b6a7A"," "," ","1","0","[1537.7000000001863]","1","1","","","7264","3","3","3","lose","go","0"
"pit-trial","121","972439","0.0-7.0","battery-v0.2","","""event"",""trial"",""time""
""fullscreenenter"",""1"",""1191""
""blur"",""31"",""432630""
""focus"",""31"",""434186""
""blur"",""53"",""569669""
""focus"",""53"",""569671""
""fullscreenexit"",""53"",""569671""
""blur"",""56"",""585094""
""focus"",""58"",""593663""
""blur"",""62"",""635371""
""focus"",""80"",""725425""
","""event"",""trial"",""time""
""blur"",""31"",""432630""
""blur"",""53"",""569669""
""blur"",""56"",""585094""
""blur"",""62"",""635371""
","""event"",""trial"",""time""
""focus"",""31"",""434186""
""focus"",""53"",""569671""
""focus"",""58"",""593663""
""focus"",""80"",""725425""
","""event"",""trial"",""time""
""fullscreenenter"",""1"",""1191""
","""event"",""trial"",""time""
""fullscreenexit"",""53"",""569671""
","","","487.79999999981374","","","25","7264","3923","&#9728;","elianto","#f73b6a7A","-1"," ","0","-10","[1338.3999999994412]","1","1","","","7264","4","0","4","lose","no-go","0"
"pit-trial","122","975789","0.0-8.0","battery-v0.2","","""event"",""trial"",""time""
""fullscreenenter"",""1"",""1191""
""blur"",""31"",""432630""
""focus"",""31"",""434186""
""blur"",""53"",""569669""
""focus"",""53"",""569671""
""fullscreenexit"",""53"",""569671""
""blur"",""56"",""585094""
""focus"",""58"",""593663""
""blur"",""62"",""635371""
""focus"",""80"",""725425""
","""event"",""trial"",""time""
""blur"",""31"",""432630""
""blur"",""53"",""569669""
""blur"",""56"",""585094""
""blur"",""62"",""635371""
","""event"",""trial"",""time""
""focus"",""31"",""434186""
""focus"",""53"",""569671""
""focus"",""58"",""593663""
""focus"",""80"",""725425""
","""event"",""trial"",""time""
""fullscreenenter"",""1"",""1191""
","""event"",""trial"",""time""
""fullscreenexit"",""53"",""569671""
","","","478.79999999981374","","","25","7264","3923","&#9752;","elianto","#f73b6a7A"," "," ","1","0","[1329.5999999996275]","1","1","","","7264","5","3","3","lose","go","0"
"pit-trial","123","979249","0.0-9.0","battery-v0.2","","""event"",""trial"",""time""
""fullscreenenter"",""1"",""1191""
""blur"",""31"",""432630""
""focus"",""31"",""434186""
""blur"",""53"",""569669""
""focus"",""53"",""569671""
""fullscreenexit"",""53"",""569671""
""blur"",""56"",""585094""
""focus"",""58"",""593663""
""blur"",""62"",""635371""
""focus"",""80"",""725425""
","""event"",""trial"",""time""
""blur"",""31"",""432630""
""blur"",""53"",""569669""
""blur"",""56"",""585094""
""blur"",""62"",""635371""
","""event"",""trial"",""time""
""focus"",""31"",""434186""
""focus"",""53"",""569671""
""focus"",""58"",""593663""
""focus"",""80"",""725425""
","""event"",""trial"",""time""
""fullscreenenter"",""1"",""1191""
","""event"",""trial"",""time""
""fullscreenexit"",""53"",""569671""
","","","585.5","","","25","7264","3923","&#9730;","elianto","#3366ff99"," "," ","1","+10","[1438.5]","1","1","","","7264","6","1","1","win","go","0"
"pit-trial","124","982669","0.0-10.0","battery-v0.2","","""event"",""trial"",""time""
""fullscreenenter"",""1"",""1191""
""blur"",""31"",""432630""
""focus"",""31"",""434186""
""blur"",""53"",""569669""
""focus"",""53"",""569671""
""fullscreenexit"",""53"",""569671""
""blur"",""56"",""585094""
""focus"",""58"",""593663""
""blur"",""62"",""635371""
""focus"",""80"",""725425""
","""event"",""trial"",""time""
""blur"",""31"",""432630""
""blur"",""53"",""569669""
""blur"",""56"",""585094""
""blur"",""62"",""635371""
","""event"",""trial"",""time""
""focus"",""31"",""434186""
""focus"",""53"",""569671""
""focus"",""58"",""593663""
""focus"",""80"",""725425""
","""event"",""trial"",""time""
""fullscreenenter"",""1"",""1191""
","""event"",""trial"",""time""
""fullscreenexit"",""53"",""569671""
","","","546.6000000005588","","","25","7264","3923","&#9728;","elianto","#f73b6a7A","-1"," ","0","0","[1398.7999999998137]","1","1","","","7264","7","0","4","lose","no-go","1"
"pit-trial","125","986399","0.0-11.0","battery-v0.2","","""event"",""trial"",""time""
""fullscreenenter"",""1"",""1191""
""blur"",""31"",""432630""
""focus"",""31"",""434186""
""blur"",""53"",""569669""
""focus"",""53"",""569671""
""fullscreenexit"",""53"",""569671""
""blur"",""56"",""585094""
""focus"",""58"",""593663""
""blur"",""62"",""635371""
""focus"",""80"",""725425""
","""event"",""trial"",""time""
""blur"",""31"",""432630""
""blur"",""53"",""569669""
""blur"",""56"",""585094""
""blur"",""62"",""635371""
","""event"",""trial"",""time""
""focus"",""31"",""434186""
""focus"",""53"",""569671""
""focus"",""58"",""593663""
""focus"",""80"",""725425""
","""event"",""trial"",""time""
""fullscreenenter"",""1"",""1191""
","""event"",""trial"",""time""
""fullscreenexit"",""53"",""569671""
","","","868.1000000005588","","","25","7264","3923","&#9733;","elianto","#3366ff99","-1"," ","0","0","[1721.5]","1","1","","","7264","8","2","2","win","no-go","0"
"pit-trial","126","990087","0.0-12.0","battery-v0.2","","""event"",""trial"",""time""
""fullscreenenter"",""1"",""1191""
""blur"",""31"",""432630""
""focus"",""31"",""434186""
""blur"",""53"",""569669""
""focus"",""53"",""569671""
""fullscreenexit"",""53"",""569671""
""blur"",""56"",""585094""
""focus"",""58"",""593663""
""blur"",""62"",""635371""
""focus"",""80"",""725425""
","""event"",""trial"",""time""
""blur"",""31"",""432630""
