"trial_type","trial_index","time_elapsed","internal_node_id","task_version","subject_id","interactions","blur_events","focus_events","fullscreenenter_events","fullscreenexit_events","success","view_history","rt","responses","num_errors","age","subject","participantId","rune","rune_set","hex","correct","choice","accuracy","outcome","keys","total_keys","block","practice","value","sub","trial","stimulus","robot","valence","action","sham"
"pavlovia","0","13","0.0-0.0","battery-v0.2","","""event"",""trial"",""time""
""fullscreenenter"",""1"",""3422""
","
","
","""event"",""trial"",""time""
""fullscreenenter"",""1"",""3422""
","
","","","","","","","","","","","","","","","","","","","","","","","","","","",""
"fullscreen","1","4419","0.0-1.0","battery-v0.2","","""event"",""trial"",""time""
""fullscreenenter"",""1"",""3422""
","
","
","""event"",""trial"",""time""
""fullscreenenter"",""1"",""3422""
","
","true","","","","","","","","","","","","","","","","","","","","","","","","","",""
"pit-instructions","2","9888","0.0-2.0-0.0","battery-v0.2","","""event"",""trial"",""time""
""fullscreenenter"",""1"",""3422""
","
","
","""event"",""trial"",""time""
""fullscreenenter"",""1"",""3422""
","
","","[{""page_index"":0,""viewing_time"":5461.100000143051}]","5462.299999952316","","","","","","","","","","","","","","","","","","","","","","","",""
"pit-comprehension","3","13270","0.0-2.0-1.0-0.0","battery-v0.2","","""event"",""trial"",""time""
""fullscreenenter"",""1"",""3422""
","
","
","""event"",""trial"",""time""
""fullscreenenter"",""1"",""3422""
","
","","","3376.2000000476837","[""shark""]","0","14","5599","2134","","","","","","","","","","","","","","","","","","",""
"pit-instructions","4","14646","0.0-2.0-1.0-1.0","battery-v0.2","","""event"",""trial"",""time""
""fullscreenenter"",""1"",""3422""
","
","
","""event"",""trial"",""time""
""fullscreenenter"",""1"",""3422""
","
","","[{""page_index"":0,""viewing_time"":1364.1000001430511}]","1364.8000001907349","","","","","","","","","","","","","","","","","","","","","","","",""
"pit-comprehension","5","17811","0.0-2.0-2.0-0.0","battery-v0.2","","""event"",""trial"",""time""
""fullscreenenter"",""1"",""3422""
","
","
","""event"",""trial"",""time""
""fullscreenenter"",""1"",""3422""
","
","","","3157.899999856949","[""tiger""]","0","14","5599","2134","","","","","","","","","","","","","","","","","","",""
"pit-instructions","6","19107","0.0-2.0-2.0-1.0","battery-v0.2","","""event"",""trial"",""time""
""fullscreenenter"",""1"",""3422""
","
","
","""event"",""trial"",""time""
""fullscreenenter"",""1"",""3422""
","
","","[{""page_index"":0,""viewing_time"":1291}]","1291.8999998569489","","","","","","","","","","","","","","","","","","","","","","","",""
"pit-instructions","7","136336","0.0-2.0-3.0","battery-v0.2","","""event"",""trial"",""time""
""fullscreenenter"",""1"",""3422""
","
","
","""event"",""trial"",""time""
""fullscreenenter"",""1"",""3422""
","
","","[{""page_index"":0,""viewing_time"":13705.299999952316},{""page_index"":1,""viewing_time"":9538.100000143051},{""page_index"":2,""viewing_time"":6194.199999809265},{""page_index"":3,""viewing_time"":6400.600000143051},{""page_index"":4,""viewing_time"":13307},{""page_index"":5,""viewing_time"":6940.399999856949},{""page_index"":6,""viewing_time"":8467.100000143051},{""page_index"":7,""viewing_time"":8502.599999904633},{""page_index"":8,""viewing_time"":6201.400000095367},{""page_index"":9,""viewing_time"":9285.099999904633},{""page_index"":10,""viewing_time"":7570.799999952316},{""page_index"":11,""viewing_time"":7801.400000095367},{""page_index"":12,""viewing_time"":7663.799999952316},{""page_index"":13,""viewing_time"":5638.700000047684}]","117217.29999995232","","","","","","","","","","","","","","","","","","","","","","","",""
"pit-trial","8","139834","0.0-2.0-4.0-0.0","battery-v0.2","","""event"",""trial"",""time""
""fullscreenenter"",""1"",""3422""
","
","
","""event"",""trial"",""time""
""fullscreenenter"",""1"",""3422""
","
","","","636.2000000476837","","","14","5599","2134","&#9784;","elianto","#FFFFF080"," "," ","1","&#10004","[1489.9000000953674]","1","0","0","","","","","","","",""
"pit-trial","9","143403","0.0-2.0-4.1-0.1","battery-v0.2","","""event"",""trial"",""time""
""fullscreenenter"",""1"",""3422""
","
","
","""event"",""trial"",""time""
""fullscreenenter"",""1"",""3422""
","
","","","703.1999998092651","","","14","5599","2134","&#9784;","elianto","#FFFFF080"," "," ","1","&#10004","[1558.7000000476837]","1","0","0","","","","","","","",""
"pit-trial","10","147025","0.0-2.0-4.2-0.2","battery-v0.2","","""event"",""trial"",""time""
""fullscreenenter"",""1"",""3422""
","
","
","""event"",""trial"",""time""
""fullscreenenter"",""1"",""3422""
","
","","","760.5","","","14","5599","2134","&#9784;","elianto","#FFFFF080"," "," ","1","&#10004","[1612.2000000476837]","1","0","0","","","","","","","",""
"pit-trial","11","150650","0.0-2.0-4.3-0.3","battery-v0.2","","""event"",""trial"",""time""
""fullscreenenter"",""1"",""3422""
","
","
","""event"",""trial"",""time""
""fullscreenenter"",""1"",""3422""
","
","","","767.5999999046326","","","14","5599","2134","&#9784;","elianto","#FFFFF080"," "," ","1","&#10004","[1619]","1","0","0","","","","","","","",""
"pit-trial","12","154201","0.0-2.0-4.4-0.4","battery-v0.2","","""event"",""trial"",""time""
""fullscreenenter"",""1"",""3422""
","
","
","""event"",""trial"",""time""
""fullscreenenter"",""1"",""3422""
","
","","","694.0999999046326","","","14","5599","2134","&#9784;","elianto","#FFFFF080"," "," ","1","&#10004","[1546.5999999046326]","1","0","0","","","","","","","",""
"pit-instructions","13","178720","0.0-2.0-5.0","battery-v0.2","","""event"",""trial"",""time""
""fullscreenenter"",""1"",""3422""
","
","
","""event"",""trial"",""time""
""fullscreenenter"",""1"",""3422""
","
","","[{""page_index"":0,""viewing_time"":7298.100000143051},{""page_index"":1,""viewing_time"":6078},{""page_index"":2,""viewing_time"":5125.899999856949},{""page_index"":3,""viewing_time"":6011.5}]","24514.200000047684","","","","","","","","","","","","","","","","","","","","","","","",""
"pit-trial","14","183587","0.0-2.0-6.0-0.0","battery-v0.2","","""event"",""trial"",""time""
""fullscreenenter"",""1"",""3422""
","
","
","""event"",""trial"",""time""
""fullscreenenter"",""1"",""3422""
","
","","","-1","","","14","5599","2134","&#9854;","elianto","#FFFFF080","-1","-1","1","&#10004","[]","0","0","1","","","","","","","",""
"pit-trial","15","188451","0.0-2.0-6.1-0.1","battery-v0.2","","""event"",""trial"",""time""
""fullscreenenter"",""1"",""3422""
","
","
","""event"",""trial"",""time""
""fullscreenenter"",""1"",""3422""
","
","","","-1","","","14","5599","2134","&#9854;","elianto","#FFFFF080","-1","-1","1","&#10004","[]","0","0","1","","","","","","","",""
"pit-trial","16","193319","0.0-2.0-6.2-0.2","battery-v0.2","","""event"",""trial"",""time""
""fullscreenenter"",""1"",""3422""
","
","
","""event"",""trial"",""time""
""fullscreenenter"",""1"",""3422""
","
","","","-1","","","14","5599","2134","&#9854;","elianto","#FFFFF080","-1","-1","1","&#10004","[]","0","0","1","","","","","","","",""
"pit-trial","17","198184","0.0-2.0-6.3-0.3","battery-v0.2","","""event"",""trial"",""time""
""fullscreenenter"",""1"",""3422""
","
","
","""event"",""trial"",""time""
""fullscreenenter"",""1"",""3422""
","
","","","-1","","","14","5599","2134","&#9854;","elianto","#FFFFF080","-1","-1","1","&#10004","[]","0","0","1","","","","","","","",""
"pit-trial","18","203048","0.0-2.0-6.4-0.4","battery-v0.2","","""event"",""trial"",""time""
""fullscreenenter"",""1"",""3422""
","
","
","""event"",""trial"",""time""
""fullscreenenter"",""1"",""3422""
","
","","","-1","","","14","5599","2134","&#9854;","elianto","#FFFFF080","-1","-1","1","&#10004","[]","0","0","1","","","","","","","",""
"pit-instructions","19","341745","0.0-2.0-7.0","battery-v0.2","","""event"",""trial"",""time""
""fullscreenenter"",""1"",""3422""
","
","
","""event"",""trial"",""time""
""fullscreenenter"",""1"",""3422""
","
","","[{""page_index"":0,""viewing_time"":6275},{""page_index"":1,""viewing_time"":8158.600000143051},{""page_index"":2,""viewing_time"":6624.399999856949},{""page_index"":3,""viewing_time"":7683.300000190735},{""page_index"":4,""viewing_time"":6261.699999809265},{""page_index"":5,""viewing_time"":10130.5},{""page_index"":6,""viewing_time"":6487.700000047684},{""page_index"":7,""viewing_time"":8629},{""page_index"":8,""viewing_time"":7816.900000095367},{""page_index"":9,""viewing_time"":8096.599999904633},{""page_index"":10,""viewing_time"":9077.600000143051},{""page_index"":11,""viewing_time"":5830.899999856949},{""page_index"":12,""viewing_time"":8540.600000143051},{""page_index"":13,""viewing_time"":6921},{""page_index"":14,""viewing_time"":8375.899999856949},{""page_index"":15,""viewing_time"":6968.100000143051},{""page_index"":16,""viewing_time"":8141},{""page_index"":17,""viewing_time"":8673}]","138692.70000004768","","","","","","","","","","","","","","","","","","","","","","","",""
"pit-trial","20","345404","0.0-2.0-8.0-0.0","battery-v0.2","","""event"",""trial"",""time""
""fullscreenenter"",""1"",""3422""
","
","
","""event"",""trial"",""time""
""fullscreenenter"",""1"",""3422""
","
","","","792.7999999523163","","","14","5599","2134","&#9776;","elianto","#3366ff99"," "," ","1","+10","[1645.7999999523163]","1","0","1","","","","","","","",""
"pit-trial","21","348961","0.0-2.0-8.0-1.0","battery-v0.2","","""event"",""trial"",""time""
""fullscreenenter"",""1"",""3422""
","
","
","""event"",""trial"",""time""
""fullscreenenter"",""1"",""3422""
","
","","","694.7000000476837","","","14","5599","2134","&#9776;","elianto","#3366ff99"," "," ","1","+10","[1553.6000001430511]","1","0","1","","","","","","","",""
"pit-trial","22","352530","0.0-2.0-8.0-2.0","battery-v0.2","","""event"",""trial"",""time""
""fullscreenenter"",""1"",""3422""
","
","
","""event"",""trial"",""time""
""fullscreenenter"",""1"",""3422""
","
","","","710.5999999046326","","","14","5599","2134","&#9776;","elianto","#3366ff99"," "," ","1","+10","[1563.9000000953674]","1","0","1","","","","","","","",""
"pit-trial","23","355906","0.0-2.0-8.0-3.0","battery-v0.2","","""event"",""trial"",""time""
""fullscreenenter"",""1"",""3422""
","
","
","""event"",""trial"",""time""
""fullscreenenter"",""1"",""3422""
","
","","","518.2999999523163","","","14","5599","2134","&#9776;","elianto","#3366ff99"," "," ","1","0","[1369.9000000953674]","1","0","1","","","","","","","",""
"pit-trial","24","360769","0.0-2.0-8.0-4.0","battery-v0.2","","""event"",""trial"",""time""
""fullscreenenter"",""1"",""3422""
","
","
","""event"",""trial"",""time""
""fullscreenenter"",""1"",""3422""
","
","","","-1","","","14","5599","2134","&#9776;","elianto","#3366ff99"," ","-1","0","0","[]","0","0","1","","","","","","","",""
"pit-trial","25","365635","0.0-2.0-8.1-0.1","battery-v0.2","","""event"",""trial"",""time""
""fullscreenenter"",""1"",""3422""
","
","
","""event"",""trial"",""time""
""fullscreenenter"",""1"",""3422""
","
","","","-1","","","14","5599","2134","&#9776;","elianto","#3366ff99"," ","-1","0","0","[3825.7999999523163]","1","0","1","","","","","","","",""
"pit-trial","26","368953","0.0-2.0-8.1-1.1","battery-v0.2","","""event"",""trial"",""time""
""fullscreenenter"",""1"",""3422""
","
","
","""event"",""trial"",""time""
""fullscreenenter"",""1"",""3422""
","
","","","461.60000014305115","","","14","5599","2134","&#9776;","elianto","#3366ff99"," "," ","1","+10","[1314.9000000953674]","1","0","1","","","","","","","",""
"pit-trial","27","372244","0.0-2.0-8.1-2.1","battery-v0.2","","""event"",""trial"",""time""
""fullscreenenter"",""1"",""3422""
","
","
","""event"",""trial"",""time""
""fullscreenenter"",""1"",""3422""
","
","","","424.2999999523163","","","14","5599","2134","&#9776;","elianto","#3366ff99"," "," ","1","+10","[1277.7000000476837]","1","0","1","","","","","","","",""
"pit-trial","28","375578","0.0-2.0-8.1-3.1","battery-v0.2","","""event"",""trial"",""time""
""fullscreenenter"",""1"",""3422""
","
","
","""event"",""trial"",""time""
""fullscreenenter"",""1"",""3422""
","
","","","469.7999999523163","","","14","5599","2134","&#9776;","elianto","#3366ff99"," "," ","1","0","[1321.9000000953674]","1","0","1","","","","","","","",""
"pit-trial","29","380441","0.0-2.0-8.1-4.1","battery-v0.2","","""event"",""trial"",""time""
""fullscreenenter"",""1"",""3422""
","
","
","""event"",""trial"",""time""
""fullscreenenter"",""1"",""3422""
","
","","","-1","","","14","5599","2134","&#9776;","elianto","#3366ff99"," ","-1","0","0","[3488.199999809265]","1","0","1","","","","","","","",""
"pit-trial","30","383750","0.0-2.0-8.2-0.2","battery-v0.2","","""event"",""trial"",""time""
""fullscreenenter"",""1"",""3422""
","
","
","""event"",""trial"",""time""
""fullscreenenter"",""1"",""3422""
","
","","","440.2000000476837","","","14","5599","2134","&#9776;","elianto","#3366ff99"," "," ","1","+10","[1293.5]","1","0","1","","","","","","","",""
"pit-trial","31","387046","0.0-2.0-8.2-1.2","battery-v0.2","","""event"",""trial"",""time""
""fullscreenenter"",""1"",""3422""
","
","
","""event"",""trial"",""time""
""fullscreenenter"",""1"",""3422""
","
","","","426","","","14","5599","2134","&#9776;","elianto","#3366ff99"," "," ","1","+10","[1286.7999999523163]","1","0","1","","","","","","","",""
"pit-trial","32","391917","0.0-2.0-8.2-2.2","battery-v0.2","","""event"",""trial"",""time""
""fullscreenenter"",""1"",""3422""
","
","
","""event"",""trial"",""time""
""fullscreenenter"",""1"",""3422""
","
","","","-1","","","14","5599","2134","&#9776;","elianto","#3366ff99"," ","-1","0","0","[]","0","0","1","","","","","","","",""
"pit-trial","33","396787","0.0-2.0-8.2-3.2","battery-v0.2","","""event"",""trial"",""time""
""fullscreenenter"",""1"",""3422""
","
","
","""event"",""trial"",""time""
""fullscreenenter"",""1"",""3422""
","
","","","-1","","","14","5599","2134","&#9776;","elianto","#3366ff99"," ","-1","0","+10","[]","0","0","1","","","","","","","",""
"pit-trial","34","400233","0.0-2.0-8.2-4.2","battery-v0.2","","""event"",""trial"",""time""
""fullscreenenter"",""1"",""3422""
","
","
","""event"",""trial"",""time""
""fullscreenenter"",""1"",""3422""
","
","","","580.2000000476837","","","14","5599","2134","&#9776;","elianto","#3366ff99"," "," ","1","+10","[1435]","1","0","1","","","","","","","",""
"call-function","35","400236","0.0-2.0-9.0","battery-v0.2","","""event"",""trial"",""time""
""fullscreenenter"",""1"",""3422""
","
","
","""event"",""trial"",""time""
""fullscreenenter"",""1"",""3422""
","
","","","","","","","","","","","","","","","","","","","","","","","","","","",""
"pit-instructions","36","450095","0.0-2.0-10.0","battery-v0.2","","""event"",""trial"",""time""
""fullscreenenter"",""1"",""3422""
","
","
","""event"",""trial"",""time""
""fullscreenenter"",""1"",""3422""
","
","","[{""page_index"":0,""viewing_time"":8151.200000047684},{""page_index"":1,""viewing_time"":8141.900000095367},{""page_index"":2,""viewing_time"":13426.299999952316},{""page_index"":3,""viewing_time"":10863.200000047684},{""page_index"":4,""viewing_time"":9272.700000047684}]","49856.10000014305","","","","","","","","","","","","","","","","","","","","","","","",""
"pit-trial","37","454961","0.0-2.0-11.0-0.0","battery-v0.2","","""event"",""trial"",""time""
""fullscreenenter"",""1"",""3422""
","
","
","""event"",""trial"",""time""
""fullscreenenter"",""1"",""3422""
","
","","","-1","","","14","5599","2134","&#9761;","elianto","#3366ff99","-1","-1","1","+10","[3180.0999999046326]","1","0","2","","","","","","","",""
"pit-trial","38","458604","0.0-2.0-11.0-1.0","battery-v0.2","","""event"",""trial"",""time""
""fullscreenenter"",""1"",""3422""
","
","
","""event"",""trial"",""time""
""fullscreenenter"",""1"",""3422""
","
","","","778.9000000953674","","","14","5599","2134","&#9761;","elianto","#3366ff99","-1"," ","0","0","[1634.4000000953674]","1","0","2","","","","","","","",""
"pit-trial","39","463474","0.0-2.0-11.0-2.0","battery-v0.2","","""event"",""trial"",""time""
""fullscreenenter"",""1"",""3422""
","
","
","""event"",""trial"",""time""
""fullscreenenter"",""1"",""3422""
","
","","","-1","","","14","5599","2134","&#9761;","elianto","#3366ff99","-1","-1","1","+10","[]","0","0","2","","","","","","","",""
"pit-trial","40","468338","0.0-2.0-11.0-3.0","battery-v0.2","","""event"",""trial"",""time""
""fullscreenenter"",""1"",""3422""
","
","
","""event"",""trial"",""time""
""fullscreenenter"",""1"",""3422""
","
","","","-1","","","14","5599","2134","&#9761;","elianto","#3366ff99","-1","-1","1","0","[]","0","0","2","","","","","","","",""
"pit-trial","41","473202","0.0-2.0-11.0-4.0","battery-v0.2","","""event"",""trial"",""time""
""fullscreenenter"",""1"",""3422""
","
","
","""event"",""trial"",""time""
""fullscreenenter"",""1"",""3422""
","
","","","-1","","","14","5599","2134","&#9761;","elianto","#3366ff99","-1","-1","1","+10","[]","0","0","2","","","","","","","",""
"pit-trial","42","478073","0.0-2.0-11.1-0.1","battery-v0.2","","""event"",""trial"",""time""
""fullscreenenter"",""1"",""3422""
","
","
","""event"",""trial"",""time""
""fullscreenenter"",""1"",""3422""
","
","","","-1","","","14","5599","2134","&#9761;","elianto","#3366ff99","-1","-1","1","+10","[]","0","0","2","","","","","","","",""
"pit-trial","43","482943","0.0-2.0-11.1-1.1","battery-v0.2","","""event"",""trial"",""time""
""fullscreenenter"",""1"",""3422""
","
","
","""event"",""trial"",""time""
""fullscreenenter"",""1"",""3422""
","
","","","-1","","","14","5599","2134","&#9761;","elianto","#3366ff99","-1","-1","1","+10","[]","0","0","2","","","","","","","",""
"pit-trial","44","487341","0.0-2.0-11.1-2.1","battery-v0.2","","""event"",""trial"",""time""
""fullscreenenter"",""1"",""3422""
","
","
","""event"",""trial"",""time""
""fullscreenenter"",""1"",""3422""
","
","","","1530.7999999523163","","","14","5599","2134","&#9761;","elianto","#3366ff99","-1"," ","0","0","[2386.0999999046326]","1","0","2","","","","","","","",""
"pit-trial","45","492204","0.0-2.0-11.1-3.1","battery-v0.2","","""event"",""trial"",""time""
""fullscreenenter"",""1"",""3422""
","
","
","""event"",""trial"",""time""
""fullscreenenter"",""1"",""3422""
","
","","","-1","","","14","5599","2134","&#9761;","elianto","#3366ff99","-1","-1","1","0","[]","0","0","2","","","","","","","",""
"pit-trial","46","495784","0.0-2.0-11.1-4.1","battery-v0.2","","""event"",""trial"",""time""
""fullscreenenter"",""1"",""3422""
","
","
","""event"",""trial"",""time""
""fullscreenenter"",""1"",""3422""
","
","","","710.7999999523163","","","14","5599","2134","&#9761;","elianto","#3366ff99","-1"," ","0","0","[1565.0999999046326]","1","0","2","","","","","","","",""
"pit-trial","47","500656","0.0-2.0-11.2-0.2","battery-v0.2","","""event"",""trial"",""time""
""fullscreenenter"",""1"",""3422""
","
","
","""event"",""trial"",""time""
""fullscreenenter"",""1"",""3422""
","
","","","-1","","","14","5599","2134","&#9761;","elianto","#3366ff99","-1","-1","1","+10","[]","0","0","2","","","","","","","",""
"pit-trial","48","504922","0.0-2.0-11.2-1.2","battery-v0.2","","""event"",""trial"",""time""
""fullscreenenter"",""1"",""3422""
","
","
","""event"",""trial"",""time""
""fullscreenenter"",""1"",""3422""
","
","","","1405.3999998569489","","","14","5599","2134","&#9761;","elianto","#3366ff99","-1"," ","0","0","[2262.2999999523163]","1","0","2","","","","","","","",""
"pit-trial","49","509792","0.0-2.0-11.2-2.2","battery-v0.2","","""event"",""trial"",""time""
""fullscreenenter"",""1"",""3422""
","
","
","""event"",""trial"",""time""
""fullscreenenter"",""1"",""3422""
","
","","","-1","","","14","5599","2134","&#9761;","elianto","#3366ff99","-1","-1","1","+10","[]","0","0","2","","","","","","","",""
"pit-trial","50","514666","0.0-2.0-11.2-3.2","battery-v0.2","","""event"",""trial"",""time""
""fullscreenenter"",""1"",""3422""
","
","
","""event"",""trial"",""time""
""fullscreenenter"",""1"",""3422""
","
","","","-1","","","14","5599","2134","&#9761;","elianto","#3366ff99","-1","-1","1","0","[]","0","0","2","","","","","","","",""
"pit-trial","51","518951","0.0-2.0-11.2-4.2","battery-v0.2","","""event"",""trial"",""time""
""fullscreenenter"",""1"",""3422""
","
","
","""event"",""trial"",""time""
""fullscreenenter"",""1"",""3422""
","
","","","1419","","","14","5599","2134","&#9761;","elianto","#3366ff99","-1"," ","0","0","[2273.5]","1","0","2","","","","","","","",""
"pit-trial","52","522345","0.0-2.0-11.3-0.3","battery-v0.2","","""event"",""trial"",""time""
""fullscreenenter"",""1"",""3422""
","
","
","""event"",""trial"",""time""
""fullscreenenter"",""1"",""3422""
","
","","","526.2000000476837","","","14","5599","2134","&#9761;","elianto","#3366ff99","-1"," ","0","0","[1383.2999999523163]","1","0","2","","","","","","","",""
"pit-trial","53","526630","0.0-2.0-11.3-1.3","battery-v0.2","","""event"",""trial"",""time""
""fullscreenenter"",""1"",""3422""
","
","
","""event"",""trial"",""time""
""fullscreenenter"",""1"",""3422""
","
","","","1420.9000000953674","","","14","5599","2134","&#9761;","elianto","#3366ff99","-1"," ","0","0","[2271.2999999523163]","1","0","2","","","","","","","",""
"pit-trial","54","531512","0.0-2.0-11.3-2.3","battery-v0.2","","""event"",""trial"",""time""
""fullscreenenter"",""1"",""3422""
","
","
","""event"",""trial"",""time""
""fullscreenenter"",""1"",""3422""
","
","","","-1","","","14","5599","2134","&#9761;","elianto","#3366ff99","-1","-1","1","+10","[]","0","0","2","","","","","","","",""
"pit-trial","55","536383","0.0-2.0-11.3-3.3","battery-v0.2","","""event"",""trial"",""time""
""fullscreenenter"",""1"",""3422""
","
","
","""event"",""trial"",""time""
""fullscreenenter"",""1"",""3422""
","
","","","-1","","","14","5599","2134","&#9761;","elianto","#3366ff99","-1","-1","1","0","[]","0","0","2","","","","","","","",""
"pit-trial","56","539698","0.0-2.0-11.3-4.3","battery-v0.2","","""event"",""trial"",""time""
""fullscreenenter"",""1"",""3422""
","
","
","""event"",""trial"",""time""
""fullscreenenter"",""1"",""3422""
","
","","","450.7000000476837","","","14","5599","2134","&#9761;","elianto","#3366ff99","-1"," ","0","0","[1308]","1","0","2","","","","","","","",""
"call-function","57","539701","0.0-2.0-12.0","battery-v0.2","","""event"",""trial"",""time""
""fullscreenenter"",""1"",""3422""
","
","
","""event"",""trial"",""time""
""fullscreenenter"",""1"",""3422""
","
","","","","","","","","","","","","","","","","","","","","","","","","","","",""
"pit-instructions","58","583233","0.0-2.0-13.0","battery-v0.2","","""event"",""trial"",""time""
""fullscreenenter"",""1"",""3422""
","
","
","""event"",""trial"",""time""
""fullscreenenter"",""1"",""3422""
","
","","[{""page_index"":0,""viewing_time"":8080.300000190735},{""page_index"":1,""viewing_time"":9440.199999809265},{""page_index"":2,""viewing_time"":7297.5},{""page_index"":3,""viewing_time"":11573.300000190735},{""page_index"":4,""viewing_time"":7139.899999856949}]","43532.200000047684","","","","","","","","","","","","","","","","","","","","","","","",""
"pit-trial","59","588098","0.0-2.0-14.0-0.0","battery-v0.2","","""event"",""trial"",""time""
""fullscreenenter"",""1"",""3422""
","
","
","""event"",""trial"",""time""
""fullscreenenter"",""1"",""3422""
","
","","","-1","","","14","5599","2134","&#9826;","elianto","#f73b6a7A","-1","-1","1","0","[]","0","0","3","","","","","","","",""
"pit-trial","60","592961","0.0-2.0-14.0-1.0","battery-v0.2","","""event"",""trial"",""time""
""fullscreenenter"",""1"",""3422""
","
","
","""event"",""trial"",""time""
""fullscreenenter"",""1"",""3422""
","
","","","-1","","","14","5599","2134","&#9826;","elianto","#f73b6a7A","-1","-1","1","0","[]","0","0","3","","","","","","","",""
"pit-trial","61","597826","0.0-2.0-14.0-2.0","battery-v0.2","","""event"",""trial"",""time""
""fullscreenenter"",""1"",""3422""
","
","
","""event"",""trial"",""time""
""fullscreenenter"",""1"",""3422""
","
","","","-1","","","14","5599","2134","&#9826;","elianto","#f73b6a7A","-1","-1","1","0","[]","0","0","3","","","","","","","",""
"pit-trial","62","602690","0.0-2.0-14.0-3.0","battery-v0.2","","""event"",""trial"",""time""
""fullscreenenter"",""1"",""3422""
","
","
","""event"",""trial"",""time""
""fullscreenenter"",""1"",""3422""
","
","","","-1","","","14","5599","2134","&#9826;","elianto","#f73b6a7A","-1","-1","1","-10","[]","0","0","3","","","","","","","",""
"pit-trial","63","607554","0.0-2.0-14.0-4.0","battery-v0.2","","""event"",""trial"",""time""
""fullscreenenter"",""1"",""3422""
","
","
","""event"",""trial"",""time""
""fullscreenenter"",""1"",""3422""
","
","","","-1","","","14","5599","2134","&#9826;","elianto","#f73b6a7A","-1","-1","1","0","[]","0","0","3","","","","","","","",""
"pit-trial","64","612419","0.0-2.0-14.1-0.1","battery-v0.2","","""event"",""trial"",""time""
""fullscreenenter"",""1"",""3422""
","
","
","""event"",""trial"",""time""
""fullscreenenter"",""1"",""3422""
","
","","","-1","","","14","5599","2134","&#9826;","elianto","#f73b6a7A","-1","-1","1","0","[]","0","0","3","","","","","","","",""
"pit-trial","65","617290","0.0-2.0-14.1-1.1","battery-v0.2","","""event"",""trial"",""time""
""fullscreenenter"",""1"",""3422""
","
","
","""event"",""trial"",""time""
""fullscreenenter"",""1"",""3422""
","
","","","-1","","","14","5599","2134","&#9826;","elianto","#f73b6a7A","-1","-1","1","0","[]","0","0","3","","","","","","","",""
"pit-trial","66","622164","0.0-2.0-14.1-2.1","battery-v0.2","","""event"",""trial"",""time""
""fullscreenenter"",""1"",""3422""
","
","
","""event"",""trial"",""time""
""fullscreenenter"",""1"",""3422""
","
","","","-1","","","14","5599","2134","&#9826;","elianto","#f73b6a7A","-1","-1","1","0","[]","0","0","3","","","","","","","",""
"pit-trial","67","627029","0.0-2.0-14.1-3.1","battery-v0.2","","""event"",""trial"",""time""
""fullscreenenter"",""1"",""3422""
","
","
","""event"",""trial"",""time""
""fullscreenenter"",""1"",""3422""
","
","","","-1","","","14","5599","2134","&#9826;","elianto","#f73b6a7A","-1","-1","1","-10","[]","0","0","3","","","","","","","",""
"pit-trial","68","631914","0.0-2.0-14.1-4.1","battery-v0.2","","""event"",""trial"",""time""
""fullscreenenter"",""1"",""3422""
","
","
","""event"",""trial"",""time""
""fullscreenenter"",""1"",""3422""
","
","","","-1","","","14","5599","2134","&#9826;","elianto","#f73b6a7A","-1","-1","1","0","[]","0","0","3","","","","","","","",""
"pit-trial","69","636781","0.0-2.0-14.2-0.2","battery-v0.2","","""event"",""trial"",""time""
""fullscreenenter"",""1"",""3422""
","
","
","""event"",""trial"",""time""
""fullscreenenter"",""1"",""3422""
","
","","","-1","","","14","5599","2134","&#9826;","elianto","#f73b6a7A","-1","-1","1","0","[]","0","0","3","","","","","","","",""
"pit-trial","70","641658","0.0-2.0-14.2-1.2","battery-v0.2","","""event"",""trial"",""time""
""fullscreenenter"",""1"",""3422""
","
","
","""event"",""trial"",""time""
""fullscreenenter"",""1"",""3422""
","
","","","-1","","","14","5599","2134","&#9826;","elianto","#f73b6a7A","-1","-1","1","0","[]","0","0","3","","","","","","","",""
"pit-trial","71","646524","0.0-2.0-14.2-2.2","battery-v0.2","","""event"",""trial"",""time""
""fullscreenenter"",""1"",""3422""
","
","
","""event"",""trial"",""time""
""fullscreenenter"",""1"",""3422""
","
","","","-1","","","14","5599","2134","&#9826;","elianto","#f73b6a7A","-1","-1","1","0","[]","0","0","3","","","","","","","",""
"pit-trial","72","651395","0.0-2.0-14.2-3.2","battery-v0.2","","""event"",""trial"",""time""
""fullscreenenter"",""1"",""3422""
","
","
","""event"",""trial"",""time""
""fullscreenenter"",""1"",""3422""
","
","","","-1","","","14","5599","2134","&#9826;","elianto","#f73b6a7A","-1","-1","1","-10","[]","0","0","3","","","","","","","",""
"pit-trial","73","656269","0.0-2.0-14.2-4.2","battery-v0.2","","""event"",""trial"",""time""
""fullscreenenter"",""1"",""3422""
","
","
","""event"",""trial"",""time""
""fullscreenenter"",""1"",""3422""
","
","","","-1","","","14","5599","2134","&#9826;","elianto","#f73b6a7A","-1","-1","1","0","[]","0","0","3","","","","","","","",""
"pit-trial","74","661143","0.0-2.0-14.3-0.3","battery-v0.2","","""event"",""trial"",""time""
""fullscreenenter"",""1"",""3422""
","
","
","""event"",""trial"",""time""
""fullscreenenter"",""1"",""3422""
","
","","","-1","","","14","5599","2134","&#9826;","elianto","#f73b6a7A","-1","-1","1","0","[]","0","0","3","","","","","","","",""
"pit-trial","75","664491","0.0-2.0-14.3-1.3","battery-v0.2","","""event"",""trial"",""time""
""fullscreenenter"",""1"",""3422""
","
","
","""event"",""trial"",""time""
""fullscreenenter"",""1"",""3422""
","
","","","473","","","14","5599","2134","&#9826;","elianto","#f73b6a7A","-1"," ","0","-10","[1327.3000001907349]","1","0","3","","","","","","","",""
"pit-trial","76","669375","0.0-2.0-14.3-2.3","battery-v0.2","","""event"",""trial"",""time""
""fullscreenenter"",""1"",""3422""
","
","
","""event"",""trial"",""time""
""fullscreenenter"",""1"",""3422""
","
","","","-1","","","14","5599","2134","&#9826;","elianto","#f73b6a7A","-1","-1","1","0","[]","0","0","3","","","","","","","",""
"pit-trial","77","674252","0.0-2.0-14.3-3.3","battery-v0.2","","""event"",""trial"",""time""
""fullscreenenter"",""1"",""3422""
","
","
","""event"",""trial"",""time""
""fullscreenenter"",""1"",""3422""
","
","","","-1","","","14","5599","2134","&#9826;","elianto","#f73b6a7A","-1","-1","1","-10","[]","0","0","3","","","","","","","",""
"pit-trial","78","679118","0.0-2.0-14.3-4.3","battery-v0.2","","""event"",""trial"",""time""
""fullscreenenter"",""1"",""3422""
","
","
","""event"",""trial"",""time""
""fullscreenenter"",""1"",""3422""
","
","","","-1","","","14","5599","2134","&#9826;","elianto","#f73b6a7A","-1","-1","1","0","[]","0","0","3","","","","","","","",""
"call-function","79","679119","0.0-2.0-15.0","battery-v0.2","","""event"",""trial"",""time""
""fullscreenenter"",""1"",""3422""
","
","
","""event"",""trial"",""time""
""fullscreenenter"",""1"",""3422""
","
","","","","","","","","","","","","","","","","","","","","","","","","","","",""
"pit-instructions","80","714708","0.0-2.0-16.0","battery-v0.2","","""event"",""trial"",""time""
""fullscreenenter"",""1"",""3422""
","
","
","""event"",""trial"",""time""
""fullscreenenter"",""1"",""3422""
","
","","[{""page_index"":0,""viewing_time"":7590.099999904633},{""page_index"":1,""viewing_time"":14975},{""page_index"":2,""viewing_time"":6582},{""page_index"":3,""viewing_time"":6438.799999952316}]","35586.200000047684","","","","","","","","","","","","","","","","","","","","","","","",""
"pit-trial","81","718114","0.0-2.0-17.0-0.0","battery-v0.2","","""event"",""trial"",""time""
""fullscreenenter"",""1"",""3422""
","
","
","""event"",""trial"",""time""
""fullscreenenter"",""1"",""3422""
","
","","","547","","","14","5599","2134","&#9789;","elianto","#f73b6a7A"," "," ","1","0","[1398.2999999523163]","1","0","4","","","","","","","",""
"pit-trial","82","721450","0.0-2.0-17.0-1.0","battery-v0.2","","""event"",""trial"",""time""
""fullscreenenter"",""1"",""3422""
","
","
","""event"",""trial"",""time""
""fullscreenenter"",""1"",""3422""
","
","","","472","","","14","5599","2134","&#9789;","elianto","#f73b6a7A"," "," ","1","0","[1324.4000000953674]","1","0","4","","","","","","","",""
"pit-trial","83","724849","0.0-2.0-17.0-2.0","battery-v0.2","","""event"",""trial"",""time""
""fullscreenenter"",""1"",""3422""
","
","
","""event"",""trial"",""time""
""fullscreenenter"",""1"",""3422""
","
","","","543.2000000476837","","","14","5599","2134","&#9789;","elianto","#f73b6a7A"," "," ","1","0","[1393.9000000953674]","1","0","4","","","","","","","",""
"pit-trial","84","728220","0.0-2.0-17.0-3.0","battery-v0.2","","""event"",""trial"",""time""
""fullscreenenter"",""1"",""3422""
","
","
","""event"",""trial"",""time""
""fullscreenenter"",""1"",""3422""
","
","","","507.7000000476837","","","14","5599","2134","&#9789;","elianto","#f73b6a7A"," "," ","1","-10","[1358.8000001907349]","1","0","4","","","","","","","",""
"pit-trial","85","731506","0.0-2.0-17.0-4.0","battery-v0.2","","""event"",""trial"",""time""
""fullscreenenter"",""1"",""3422""
","
","
","""event"",""trial"",""time""
""fullscreenenter"",""1"",""3422""
","
","","","422.39999985694885","","","14","5599","2134","&#9789;","elianto","#f73b6a7A"," "," ","1","0","[1274.0999999046326]","1","0","4","","","","","","","",""
"pit-trial","86","735497","0.0-2.0-17.1-0.1","battery-v0.2","","""event"",""trial"",""time""
""fullscreenenter"",""1"",""3422""
","
","
","""event"",""trial"",""time""
""fullscreenenter"",""1"",""3422""
","
","","","1134.1999998092651","","","14","5599","2134","&#9789;","elianto","#f73b6a7A"," "," ","1","0","[1987.5999999046326]","1","0","4","","","","","","","",""
"pit-trial","87","738827","0.0-2.0-17.1-1.1","battery-v0.2","","""event"",""trial"",""time""
""fullscreenenter"",""1"",""3422""
","
","
","""event"",""trial"",""time""
""fullscreenenter"",""1"",""3422""
","
","","","472.90000009536743","","","14","5599","2134","&#9789;","elianto","#f73b6a7A"," "," ","1","0","[1324.0999999046326]","1","0","4","","","","","","","",""
"pit-trial","88","742203","0.0-2.0-17.1-2.1","battery-v0.2","","""event"",""trial"",""time""
""fullscreenenter"",""1"",""3422""
","
","
","""event"",""trial"",""time""
""fullscreenenter"",""1"",""3422""
","
","","","511","","","14","5599","2134","&#9789;","elianto","#f73b6a7A"," "," ","1","0","[1363.5999999046326]","1","0","4","","","","","","","",""
"pit-trial","89","745584","0.0-2.0-17.1-3.1","battery-v0.2","","""event"",""trial"",""time""
""fullscreenenter"",""1"",""3422""
","
","
","""event"",""trial"",""time""
""fullscreenenter"",""1"",""3422""
","
","","","517.1999998092651","","","14","5599","2134","&#9789;","elianto","#f73b6a7A"," "," ","1","-10","[1370]","1","0","4","","","","","","","",""
"pit-trial","90","749183","0.0-2.0-17.1-4.1","battery-v0.2","","""event"",""trial"",""time""
""fullscreenenter"",""1"",""3422""
","
","
","""event"",""trial"",""time""
""fullscreenenter"",""1"",""3422""
","
","","","734.7999999523163","","","14","5599","2134","&#9789;","elianto","#f73b6a7A"," "," ","1","0","[1584.7999999523163]","1","0","4","","","","","","","",""
"pit-trial","91","752465","0.0-2.0-17.2-0.2","battery-v0.2","","""event"",""trial"",""time""
""fullscreenenter"",""1"",""3422""
","
","
","""event"",""trial"",""time""
""fullscreenenter"",""1"",""3422""
","
","","","416.2999999523163","","","14","5599","2134","&#9789;","elianto","#f73b6a7A"," "," ","1","0","[1277.6000001430511]","1","0","4","","","","","","","",""
"pit-trial","92","757332","0.0-2.0-17.2-1.2","battery-v0.2","","""event"",""trial"",""time""
""fullscreenenter"",""1"",""3422""
","
","
","""event"",""trial"",""time""
""fullscreenenter"",""1"",""3422""
","
","","","-1","","","14","5599","2134","&#9789;","elianto","#f73b6a7A"," ","-1","0","-10","[99.29999995231628,3051.2999999523163]","2","0","4","","","","","","","",""
"pit-trial","93","760623","0.0-2.0-17.2-2.2","battery-v0.2","","""event"",""trial"",""time""
""fullscreenenter"",""1"",""3422""
","
","
","""event"",""trial"",""time""
""fullscreenenter"",""1"",""3422""
","
","","","429.89999985694885","","","14","5599","2134","&#9789;","elianto","#f73b6a7A"," "," ","1","0","[1280.5]","1","0","4","","","","","","","",""
"pit-trial","94","763951","0.0-2.0-17.2-3.2","battery-v0.2","","""event"",""trial"",""time""
""fullscreenenter"",""1"",""3422""
","
","
","""event"",""trial"",""time""
""fullscreenenter"",""1"",""3422""
","
","","","465.89999985694885","","","14","5599","2134","&#9789;","elianto","#f73b6a7A"," "," ","1","-10","[343.89999985694885,1316.7999999523163]","2","0","4","","","","","","","",""
"pit-trial","95","767209","0.0-2.0-17.2-4.2","battery-v0.2","","""event"",""trial"",""time""
""fullscreenenter"",""1"",""3422""
","
","
","""event"",""trial"",""time""
""fullscreenenter"",""1"",""3422""
","
","","","396.2000000476837","","","14","5599","2134","&#9789;","elianto","#f73b6a7A"," "," ","1","0","[1251.7000000476837]","1","0","4","","","","","","","",""
"pit-trial","96","770472","0.0-2.0-17.3-0.3","battery-v0.2","","""event"",""trial"",""time""
""fullscreenenter"",""1"",""3422""
","
","
","""event"",""trial"",""time""
""fullscreenenter"",""1"",""3422""
","
","","","397.90000009536743","","","14","5599","2134","&#9789;","elianto","#f73b6a7A"," "," ","1","0","[1250.2000000476837]","1","0","4","","","","","","","",""
"pit-trial","97","773455","0.0-2.0-17.3-1.3","battery-v0.2","","""event"",""trial"",""time""
""fullscreenenter"",""1"",""3422""
","
","
","""event"",""trial"",""time""
""fullscreenenter"",""1"",""3422""
","
","","","116.5","","","14","5599","2134","&#9789;","elianto","#f73b6a7A"," "," ","1","0","[971.5999999046326]","1","0","4","","","","","","","",""
"pit-trial","98","776788","0.0-2.0-17.3-2.3","battery-v0.2","","""event"",""trial"",""time""
""fullscreenenter"",""1"",""3422""
","
","
","""event"",""trial"",""time""
""fullscreenenter"",""1"",""3422""
","
","","","469","","","14","5599","2134","&#9789;","elianto","#f73b6a7A"," "," ","1","0","[367.30000019073486,1323.8000001907349]","2","0","4","","","","","","","",""
"pit-trial","99","780122","0.0-2.0-17.3-3.3","battery-v0.2","","""event"",""trial"",""time""
""fullscreenenter"",""1"",""3422""
","
","
","""event"",""trial"",""time""
""fullscreenenter"",""1"",""3422""
","
","","","468.5","","","14","5599","2134","&#9789;","elianto","#f73b6a7A"," "," ","1","-10","[1324]","1","0","4","","","","","","","",""
"pit-trial","100","783523","0.0-2.0-17.3-4.3","battery-v0.2","","""event"",""trial"",""time""
""fullscreenenter"",""1"",""3422""
","
","
","""event"",""trial"",""time""
""fullscreenenter"",""1"",""3422""
","
","","","540.7000000476837","","","14","5599","2134","&#9789;","elianto","#f73b6a7A"," "," ","1","0","[1394.3999998569489]","1","0","4","","","","","","","",""
"call-function","101","783527","0.0-2.0-18.0","battery-v0.2","","""event"",""trial"",""time""
""fullscreenenter"",""1"",""3422""
","
","
","""event"",""trial"",""time""
""fullscreenenter"",""1"",""3422""
","
","","","","","","","","","","","","","","","","","","","","","","","","","","",""
"pit-instructions","102","875258","0.0-2.0-19.0","battery-v0.2","","""event"",""trial"",""time""
""fullscreenenter"",""1"",""3422""
","
","
","""event"",""trial"",""time""
""fullscreenenter"",""1"",""3422""
","
","","[{""page_index"":0,""viewing_time"":6615.200000047684},{""page_index"":1,""viewing_time"":10480.900000095367},{""page_index"":2,""viewing_time"":16790.799999952316},{""page_index"":3,""viewing_time"":9468.299999952316},{""page_index"":4,""viewing_time"":13069.600000143051},{""page_index"":5,""viewing_time"":10095.599999904633},{""page_index"":6,""viewing_time"":11089.700000047684},{""page_index"":7,""viewing_time"":8310.099999904633},{""page_index"":8,""viewing_time"":5808.600000143051}]","91729.70000004768","","","","","","","","","","","","","","","","","","","","","","","",""
"pit-comprehension","103","885838","0.0-2.0-20.0-0.0","battery-v0.2","","""event"",""trial"",""time""
""fullscreenenter"",""1"",""3422""
","
","
","""event"",""trial"",""time""
""fullscreenenter"",""1"",""3422""
","
","","","10574.700000047684","[""SPACE""]","0","14","5599","2134","","","","","","","","","","","","","","","","","","",""
"pit-instructions","104","889994","0.0-2.0-20.0-1.0","battery-v0.2","","""event"",""trial"",""time""
""fullscreenenter"",""1"",""3422""
","
","
","""event"",""trial"",""time""
""fullscreenenter"",""1"",""3422""
","
","","[{""page_index"":0,""viewing_time"":4097.200000047684}]","4098","","","","","","","","","","","","","","","","","","","","","","","",""
"pit-comprehension","105","898243","0.0-2.0-21.0-0.0","battery-v0.2","","""event"",""trial"",""time""
""fullscreenenter"",""1"",""3422""
","
","
","""event"",""trial"",""time""
""fullscreenenter"",""1"",""3422""
","
","","","8242.299999952316","[""10""]","0","14","5599","2134","","","","","","","","","","","","","","","","","","",""
"pit-instructions","106","901034","0.0-2.0-21.0-1.0","battery-v0.2","","""event"",""trial"",""time""
""fullscreenenter"",""1"",""3422""
","
","
","""event"",""trial"",""time""
""fullscreenenter"",""1"",""3422""
","
","","[{""page_index"":0,""viewing_time"":2746.5}]","2747.2999999523163","","","","","","","","","","","","","","","","","","","","","","","",""
"pit-comprehension","107","907816","0.0-2.0-22.0-0.0","battery-v0.2","","""event"",""trial"",""time""
""fullscreenenter"",""1"",""3422""
","
","
","""event"",""trial"",""time""
""fullscreenenter"",""1"",""3422""
","
","","","6775.5","[""0""]","0","14","5599","2134","","","","","","","","","","","","","","","","","","",""
"pit-instructions","108","909491","0.0-2.0-22.0-1.0","battery-v0.2","","""event"",""trial"",""time""
""fullscreenenter"",""1"",""3422""
","
","
","""event"",""trial"",""time""
""fullscreenenter"",""1"",""3422""
","
","","[{""page_index"":0,""viewing_time"":1619.5999999046326}]","1620.5","","","","","","","","","","","","","","","","","","","","","","","",""
"pit-comprehension","109","924202","0.0-2.0-23.0-0.0","battery-v0.2","","""event"",""trial"",""time""
""fullscreenenter"",""1"",""3422""
","
","
","""event"",""trial"",""time""
""fullscreenenter"",""1"",""3422""
","
","","","14706.400000095367","[""True""]","0","14","5599","2134","","","","","","","","","","","","","","","","","","",""
"pit-instructions","110","926571","0.0-2.0-23.0-1.0","battery-v0.2","","""event"",""trial"",""time""
""fullscreenenter"",""1"",""3422""
","
","
","""event"",""trial"",""time""
""fullscreenenter"",""1"",""3422""
","
","","[{""page_index"":0,""viewing_time"":2309.7000000476837}]","2310","","","","","","","","","","","","","","","","","","","","","","","",""
"pit-comprehension","111","934521","0.0-2.0-24.0-0.0","battery-v0.2","","""event"",""trial"",""time""
""fullscreenenter"",""1"",""3422""
","
","
","""event"",""trial"",""time""
""fullscreenenter"",""1"",""3422""
","
","","","7946.900000095367","[""True""]","0","14","5599","2134","","","","","","","","","","","","","","","","","","",""
"pit-instructions","112","936330","0.0-2.0-24.0-1.0","battery-v0.2","","""event"",""trial"",""time""
""fullscreenenter"",""1"",""3422""
","
","
","""event"",""trial"",""time""
""fullscreenenter"",""1"",""3422""
","
","","[{""page_index"":0,""viewing_time"":1751.7000000476837}]","1752.5","","","","","","","","","","","","","","","","","","","","","","","",""
"pit-comprehension","113","943142","0.0-2.0-25.0-0.0","battery-v0.2","","""event"",""trial"",""time""
""fullscreenenter"",""1"",""3422""
","
","
","""event"",""trial"",""time""
""fullscreenenter"",""1"",""3422""
","
","","","6806.199999809265","[""True""]","0","14","5599","2134","","","","","","","","","","","","","","","","","","",""
"pit-instructions","114","950492","0.0-2.0-25.0-1.0","battery-v0.2","","""event"",""trial"",""time""
""fullscreenenter"",""1"",""3422""
","
","
","""event"",""trial"",""time""
""fullscreenenter"",""1"",""3422""
","
","","[{""page_index"":0,""viewing_time"":7298.399999856949}]","7298.899999856949","","","","","","","","","","","","","","","","","","","","","","","",""
"pit-comprehension","115","958938","0.0-2.0-26.0-0.0","battery-v0.2","","""event"",""trial"",""time""
""fullscreenenter"",""1"",""3422""
","
","
","""event"",""trial"",""time""
""fullscreenenter"",""1"",""3422""
","
","","","8441","[""False""]","0","14","5599","2134","","","","","","","","","","","","","","","","","","",""
"pit-instructions","116","961004","0.0-2.0-26.0-1.0","battery-v0.2","","""event"",""trial"",""time""
""fullscreenenter"",""1"",""3422""
","
","
","""event"",""trial"",""time""
""fullscreenenter"",""1"",""3422""
","
","","[{""page_index"":0,""viewing_time"":2006.5999999046326}]","2007.0999999046326","","","","","","","","","","","","","","","","","","","","","","","",""
"pit-instructions","117","979153","0.0-3.0","battery-v0.2","","""event"",""trial"",""time""
""fullscreenenter"",""1"",""3422""
","
","
","""event"",""trial"",""time""
""fullscreenenter"",""1"",""3422""
","
","","[{""page_index"":0,""viewing_time"":5065.400000095367},{""page_index"":1,""viewing_time"":6958.099999904633},{""page_index"":2,""viewing_time"":6122.5}]","18146.299999952316","","","","","","","","","","","","","","","","","","","","","","","",""
"pit-trial","118","982931","0.0-4.0","battery-v0.2","","""event"",""trial"",""time""
""fullscreenenter"",""1"",""3422""
","
","
","""event"",""trial"",""time""
""fullscreenenter"",""1"",""3422""
","
","","","916.6000001430511","","","14","5599","2134","&#9730;","elianto","#3366ff99"," "," ","1","+10","[1768.4000000953674]","1","1","","","5599","1","1","1","win","go","0"
"pit-trial","119","987794","0.0-5.0","battery-v0.2","","""event"",""trial"",""time""
""fullscreenenter"",""1"",""3422""
","
","
","""event"",""trial"",""time""
""fullscreenenter"",""1"",""3422""
","
","","","-1","","","14","5599","2134","&#9733;","elianto","#3366ff99","-1","-1","1","+10","[]","0","1","","","5599","2","2","2","win","no-go","0"
"pit-trial","120","992658","0.0-6.0","battery-v0.2","","""event"",""trial"",""time""
""fullscreenenter"",""1"",""3422""
","
","
","""event"",""trial"",""time""
""fullscreenenter"",""1"",""3422""
","
","","","-1","","","14","5599","2134","&#9752;","elianto","#f73b6a7A"," ","-1","0","-10","[]","0","1","","","5599","3","3","3","lose","go","0"
"pit-trial","121","996624","0.0-7.0","battery-v0.2","","""event"",""trial"",""time""
""fullscreenenter"",""1"",""3422""
","
","
","""event"",""trial"",""time""
""fullscreenenter"",""1"",""3422""
","
","","","1105.2000000476837","","","14","5599","2134","&#9728;","elianto","#f73b6a7A","-1"," ","0","-10","[1957.6000001430511]","1","1","","","5599","4","0","4","lose","no-go","0"
"pit-trial","122","1000746","0.0-8.0","battery-v0.2","","""event"",""trial"",""time""
""fullscreenenter"",""1"",""3422""
","
","
","""event"",""trial"",""time""
""fullscreenenter"",""1"",""3422""
","
","","","1259.0999999046326","","","14","5599","2134","&#9728;","elianto","#f73b6a7A","-1"," ","0","0","[2114]","1","1","","","5599","5","0","4","lose","no-go","1"
"pit-trial","123","1004346","0.0-9.0","battery-v0.2","","""event"",""trial"",""time""
""fullscreenenter"",""1"",""3422""
","
","
","""event"",""trial"",""time""
""fullscreenenter"",""1"",""3422""
","
","","","743","","","14","5599","2134","&#9733;","elianto","#3366ff99","-1"," ","0","0","[1595.7000000476837]","1","1","","","5599","6","2","2","win","no-go","0"
"pit-trial","124","1009212","0.0-10.0","battery-v0.2","","""event"",""trial"",""time""
""fullscreenenter"",""1"",""3422""
","
","
","""event"",""trial"",""time""
""fullscreenenter"",""1"",""3422""
","
","","","-1","","","14","5599","2134","&#9752;","elianto","#f73b6a7A"," ","-1","0","-10","[3814.7999999523163]","1","1","","","5599","7","3","3","lose","go","0"
"pit-trial","125","1013305","0.0-11.0","battery-v0.2","","""event"",""trial"",""time""
""fullscreenenter"",""1"",""3422""
","
","
","""event"",""trial"",""time""
""fullscreenenter"",""1"",""3422""
","
","","","1233.6999998092651","","","14","5599","2134","&#9730;","elianto","#3366ff99"," "," ","1","0","[2085.0999999046326]","1","1","","","5599","8","1","1","win","go","1"
"pit-trial","126","1017489","0.0-12.0","battery-v0.2","","""event"",""trial"",""time""
""fullscreenenter"",""1"",""3422""
","
","
","""event"",""trial"",""time""
""fullscreenenter"",""1"",""3422""
","
","","","1324.2000000476837","","","14","5599","2134","&#9733;","elianto","#3366ff99","-1"," ","0","0","[2178.5]","1","1","","","5599","9","2","2","win","no-go","0"
"pit-trial","127","1021158","0.0-13.0","battery-v0.2","","""event"",""trial"",""time""
""fullscreenenter"",""1"",""3422""
","
","
","""event"",""trial"",""time""
""fullscreenenter"",""1"",""3422""
","
","","","797.6000001430511","","","14","5599","2134","&#9728;","elianto","#f73b6a7A","-1"," ","0","-10","[1652]","1","1","","","5599","10","0","4","lose","no-go","0"
"pit-trial","128","1025272","0.0-14.0","battery-v0.2","","""event"",""trial"",""time""
""fullscreenenter"",""1"",""3422""
","
","
","""event"",""trial"",""time""
""fullscreenenter"",""1"",""3422""
","
","","","1234.5","","","14","5599","2134","&#9752;","elianto","#f73b6a7A"," "," ","1","0","[2090.2000000476837]","1","1","","","5599","11","3","3","lose","go","0"
"pit-trial","129","1029028","0.0-15.0","battery-v0.2","","""event"",""trial"",""time""
""fullscreenenter"",""1"",""3422""
","
","
","""event"",""trial"",""time""
""fullscreenenter"",""1"",""3422""
","
","","","885.4000000953674","","","14","5599","2134","&#9730;","elianto","#3366ff99"," "," ","1","+10","[1741.9000000953674]","1","1","","","5599","12","1","1","win","go","0"
"pit-trial","130","1033904","0.0-16.0","battery-v0.2","","""event"",""trial"",""time""
""fullscreenenter"",""1"",""3422""
","
","
","""event"",""trial"",""time""
""fullscreenenter"",""1"",""3422""
","
","","","-1","","","14","5599","2134","&#9728;","elianto","#f73b6a7A","-1","-1","1","-10","[]","0","1","","","5599","13","0","4","lose","no-go","1"
"pit-trial","131","1038287","0.0-17.0","battery-v0.2","","""event"",""trial"",""time""
""fullscreenenter"",""1"",""3422""
","
","
","""event"",""trial"",""time""
""fullscreenenter"",""1"",""3422""
","
","","","1516.5999999046326","","","14","5599","2134","&#9752;","elianto","#f73b6a7A"," "," ","1","0","[2373.699999809265]","1","1","","","5599","14","3","3","lose","go","0"
"pit-trial","132","1043155","0.0-18.0","battery-v0.2","","""event"",""trial"",""time""
""fullscreenenter"",""1"",""3422""
","
","
","""event"",""trial"",""time""
""fullscreenenter"",""1"",""3422""
","
","","","-1","","","14","5599","2134","&#9733;","elianto","#3366ff99","-1","-1","1","+10","[]","0","1","","","5599","15","2","2","win","no-go","0"
"pit-trial","133","1046722","0.0-19.0","battery-v0.2","","""event"",""trial"",""time""
""fullscreenenter"",""1"",""3422""
","
","
","""event"",""trial"",""time""
""fullscreenenter"",""1"",""3422""
","
","","","702.2000000476837","","","14","5599","2134","&#9730;","elianto","#3366ff99"," "," ","1","+10","[1556]","1","1","","","5599","16","1","1","win","go","0"
"pit-trial","134","1051590","0.0-20.0","battery-v0.2","","""event"",""trial"",""time""
""fullscreenenter"",""1"",""3422""
","
","
","""event"",""trial"",""time""
""fullscreenenter"",""1"",""3422""
","
","","","-1","","","14","5599","2134","&#9733;","elianto","#3366ff99","-1","-1","1","0","[4292.700000047684]","1","1","","","5599","17","2","2","win","no-go","1"
"pit-trial","135","1055811","0.0-21.0","battery-v0.2","","""event"",""trial"",""time""
""fullscreenenter"",""1"",""3422""
","
","
","""event"",""trial"",""time""
""fullscreenenter"",""1"",""3422""
","
","","","1357.2000000476837","","","14","5599","2134","&#9730;","elianto","#3366ff99"," "," ","1","+10","[2209.100000143051]","1","1","","","5599","18","1","1","win","go","0"
"pit-trial","136","1059453","0.0-22.0","battery-v0.2","","""event"",""trial"",""time""
""fullscreenenter"",""1"",""3422""
","
","
","""event"",""trial"",""time""
""fullscreenenter"",""1"",""3422""
","
","","","772.2999999523163","","","14","5599","2134","&#9752;","elianto","#f73b6a7A"," "," ","1","0","[1627.6999998092651]","1","1","","","5599","19","3","3","lose","go","0"
"pit-trial","137","1064325","0.0-23.0","battery-v0.2","","""event"",""trial"",""time""
""fullscreenenter"",""1"",""3422""
","
","
","""event"",""trial"",""time""
""fullscreenenter"",""1"",""3422""
","
","","","-1","","","14","5599","2134","&#9728;","elianto","#f73b6a7A","-1","-1","1","0","[]","0","1","","","5599","20","0","4","lose","no-go","0"
"pit-instructions","138","1127380","0.0-24.0","battery-v0.2","","""event"",""trial"",""time""
""fullscreenenter"",""1"",""3422""
","
","
","""event"",""trial"",""time""
""fullscreenenter"",""1"",""3422""
","
","","[{""page_index"":0,""viewing_time"":6022.799999952316},{""page_index"":1,""viewing_time"":57027}]","63050.09999990463","","","","","","","","","","","","","","","","","","","","","","","",""
"pit-trial","139","1131401","0.0-25.0","battery-v0.2","","""event"",""trial"",""time""
""fullscreenenter"",""1"",""3422""
","
","
","""event"",""trial"",""time""
""fullscreenenter"",""1"",""3422""
","
","","","1150.6000001430511","","","14","5599","2134","h","elianto","#f73b6a7A","-1"," ","0","-10","[2002.7000000476837]","1","2","","","5599","21","3","4","lose","no-go","0"
"pit-trial","140","1135096","0.0-26.0","battery-v0.2","","""event"",""trial"",""time""
""fullscreenenter"",""1"",""3422""
","
","
","""event"",""trial"",""time""
""fullscreenenter"",""1"",""3422""
","
","","","827.9000000953674","","","14","5599","2134","m","elianto","#f73b6a7A"," "," ","1","0","[1682.7000000476837]","1","2","","","5599","22","0","3","lose","go","0"
"pit-trial","141","1138841","0.0-27.0","battery-v0.2","","""event"",""trial"",""time""
""fullscreenenter"",""1"",""3422""
","
","
","""event"",""trial"",""time""
""fullscreenenter"",""1"",""3422""
","
","","","879.2999999523163","","","14","5599","2134","r","elianto","#3366ff99","-1"," ","0","+10","[1731]","1","2","","","5599","23","1","2","win","no-go","1"
"pit-trial","142","1143708","0.0-28.0","battery-v0.2","","""event"",""trial"",""time""
""fullscreenenter"",""1"",""3422""
","
","
","""event"",""trial"",""time""
""fullscreenenter"",""1"",""3422""
","
","","","-1","","","14","5599","2134","y","elianto","#f73b6a7A"," ","-1","0","0","[]","0","2","","","5599","24","2","3","lose","go","1"
"pit-trial","143","1147471","0.0-29.0","battery-v0.2","","""event"",""trial"",""time""
""fullscreenenter"",""1"",""3422""
","
","
","""event"",""trial"",""time""
""fullscreenenter"",""1"",""3422""
","
","","","896.7999999523163","","","14","5599","2134","m","elianto","#f73b6a7A"," "," ","1","0","[1750.7999999523163]","1","2","","","5599","25","0","3","lose","go","0"
"pit-trial","144","1151295","0.0-30.0","battery-v0.2","","""event"",""trial"",""time""
""fullscreenenter"",""1"",""3422""
","
","
","""event"",""trial"",""time""
""fullscreenenter"",""1"",""3422""
","
","","","952.7999999523163","","","14","5599","2134","r","elianto","#3366ff99","-1"," ","0","0","[1810]","1","2","","","5599","26","1","2","win","no-go","0"
"pit-trial","145","1156161","0.0-31.0","battery-v0.2","","""event"",""trial"",""time""
""fullscreenenter"",""1"",""3422""
","
","
","""event"",""trial"",""time""
""fullscreenenter"",""1"",""3422""
","
","","","-1","","","14","5599","2134","y","elianto","#f73b6a7A"," ","-1","0","0","[]","0","2","","","5599","27","2","3","lose","go","1"
"pit-trial","146","1161030","0.0-32.0","battery-v0.2","","""event"",""trial"",""time""
""fullscreenenter"",""1"",""3422""
","
","
","""event"",""trial"",""time""
""fullscreenenter"",""1"",""3422""
","
","","","-1","","","14","5599","2134","h","elianto","#f73b6a7A","-1","-1","1","0","[]","0","2","","","5599","28","3","4","lose","no-go","0"
"pit-trial","147","1164572","0.0-33.0","battery-v0.2","","""event"",""trial"",""time""
""fullscreenenter"",""1"",""3422""
","
","
","""event"",""trial"",""time""
""fullscreenenter"",""1"",""3422""
","
","","","675.8999998569489","","","14","5599","2134","r","elianto","#3366ff99","-1"," ","0","+10","[1534.5999999046326]","1","2","","","5599","29","1","2","win","no-go","1"
"pit-trial","148","1169447","0.0-34.0","battery-v0.2","","""event"",""trial"",""time""
""fullscreenenter"",""1"",""3422""
","
","
","""event"",""trial"",""time""
""fullscreenenter"",""1"",""3422""
","
","","","-1","","","14","5599","2134","h","elianto","#f73b6a7A","-1","-1","1","0","[]","0","2","","","5599","30","3","4","lose","no-go","0"
"pit-trial","149","1174319","0.0-35.0","battery-v0.2","","""event"",""trial"",""time""
""fullscreenenter"",""1"",""3422""
","
","
","""event"",""trial"",""time""
""fullscreenenter"",""1"",""3422""
","
","","","-1","","","14","5599","2134","y","elianto","#f73b6a7A"," ","-1","0","-10","[]","0","2","","","5599","31","2","3","lose","go","0"
"pit-trial","150","1177910","0.0-36.0","battery-v0.2","","""event"",""trial"",""time""
""fullscreenenter"",""1"",""3422""
","
","
","""event"",""trial"",""time""
""fullscreenenter"",""1"",""3422""
","
","","","718","","","14","5599","2134","m","elianto","#f73b6a7A"," "," ","1","0","[1574.5999999046326]","1","2","","","5599","32","0","3","lose","go","0"
"pit-trial","151","1182778","0.0-37.0","battery-v0.2","","""event"",""trial"",""time""
""fullscreenenter"",""1"",""3422""
","
","
","""event"",""trial"",""time""
""fullscreenenter"",""1"",""3422""
","
","","","-1","","","14","5599","2134","h","elianto","#f73b6a7A","-1","-1","1","0","[]","0","2","","","5599","33","3","4","lose","no-go","0"
"pit-trial","152","1186490","0.0-38.0","battery-v0.2","","""event"",""trial"",""time""
""fullscreenenter"",""1"",""3422""
","
","
","""event"",""trial"",""time""
""fullscreenenter"",""1"",""3422""
","
","","","851.6000001430511","","","14","5599","2134","m","elianto","#f73b6a7A"," "," ","1","0","[1702.7999999523163]","1","2","","","5599","34","0","3","lose","go","0"
"pit-trial","153","1191357","0.0-39.0","battery-v0.2","","""event"",""trial"",""time""
""fullscreenenter"",""1"",""3422""
","
","
","""event"",""trial"",""time""
""fullscreenenter"",""1"",""3422""
","
","","","-1","","","14","5599","2134","y","elianto","#f73b6a7A"," ","-1","0","-10","[]","0","2","","","5599","35","2","3","lose","go","0"
"pit-trial","154","1194759","0.0-40.0","battery-v0.2","","""event"",""trial"",""time""
""fullscreenenter"",""1"",""3422""
","
","
","""event"",""trial"",""time""
""fullscreenenter"",""1"",""3422""
","
","","","537.0999999046326","","","14","5599","2134","r","elianto","#3366ff99","-1"," ","0","0","[1393.2000000476837]","1","2","","","5599","36","1","2","win","no-go","0"
"pit-trial","155","1199632","0.0-41.0","battery-v0.2","","""event"",""trial"",""time""
""fullscreenenter"",""1"",""3422""
","
","
","""event"",""trial"",""time""
""fullscreenenter"",""1"",""3422""
","
","","","-1","","","14","5599","2134","h","elianto","#f73b6a7A","-1","-1","1","0","[]","0","2","","","5599","37","3","4","lose","no-go","0"
"pit-trial","156","1203567","0.0-42.0","battery-v0.2","","""event"",""trial"",""time""
""fullscreenenter"",""1"",""3422""
","
","
","""event"",""trial"",""time""
""fullscreenenter"",""1"",""3422""
","
","","","1074.8999998569489","","","14","5599","2134","m","elianto","#f73b6a7A"," "," ","1","0","[1929.3999998569489]","1","2","","","5599","38","0","3","lose","go","0"
"pit-trial","157","1207404","0.0-43.0","battery-v0.2","","""event"",""trial"",""time""
""fullscreenenter"",""1"",""3422""
","
","
","""event"",""trial"",""time""
""fullscreenenter"",""1"",""3422""
","
","","","972.2000000476837","","","14","5599","2134","y","elianto","#f73b6a7A"," "," ","1","0","[1825.2000000476837]","1","2","","","5599","39","2","3","lose","go","0"
"pit-trial","158","1210946","0.0-44.0","battery-v0.2","","""event"",""trial"",""time""
""fullscreenenter"",""1"",""3422""
","
","
","""event"",""trial"",""time""
""fullscreenenter"",""1"",""3422""
","
","","","670.6000001430511","","","14","5599","2134","r","elianto","#3366ff99","-1"," ","0","+10","[1521.2000000476837]","1","2","","","5599","40","1","2","win","no-go","1"
"pit-trial","159","1214739","0.0-45.0","battery-v0.2","","""event"",""trial"",""time""
""fullscreenenter"",""1"",""3422""
","
","
","""event"",""trial"",""time""
""fullscreenenter"",""1"",""3422""
","
","","","921.2999999523163","","","14","5599","2134","y","elianto","#f73b6a7A"," "," ","1","0","[1775.6999998092651]","1","2","","","5599","41","2","3","lose","go","0"
"pit-trial","160","1218320","0.0-46.0","battery-v0.2","","""event"",""trial"",""time""
""fullscreenenter"",""1"",""3422""
","
","
","""event"",""trial"",""time""
""fullscreenenter"",""1"",""3422""
","
","","","712.2000000476837","","","14","5599","2134","r","elianto","#3366ff99","-1"," ","0","0","[1573]","1","2","","","5599","42","1","2","win","no-go","0"
"pit-trial","161","1222031","0.0-47.0","battery-v0.2","","""event"",""trial"",""time""
""fullscreenenter"",""1"",""3422""
","
","
","""event"",""trial"",""time""
""fullscreenenter"",""1"",""3422""
","
","","","840.0999999046326","","","14","5599","2134","m","elianto","#f73b6a7A"," "," ","1","0","[1701.2999999523163]","1","2","","","5599","43","0","3","lose","go","0"
"pit-trial","162","1226899","0.0-48.0","battery-v0.2","","""event"",""trial"",""time""
""fullscreenenter"",""1"",""3422""
","
","
","""event"",""trial"",""time""
""fullscreenenter"",""1"",""3422""
","
","","","-1","","","14","5599","2134","h","elianto","#f73b6a7A","-1","-1","1","0","[]","0","2","","","5599","44","3","4","lose","no-go","0"
"pit-trial","163","1231361","0.0-49.0","battery-v0.2","","""event"",""trial"",""time""
""fullscreenenter"",""1"",""3422""
","
","
","""event"",""trial"",""time""
""fullscreenenter"",""1"",""3422""
","
","","","1600.4000000953674","","","14","5599","2134","y","elianto","#f73b6a7A"," "," ","1","0","[2451.0999999046326]","1","2","","","5599","45","2","3","lose","go","0"
"pit-trial","164","1236242","0.0-50.0","battery-v0.2","","""event"",""trial"",""time""
""fullscreenenter"",""1"",""3422""
","
","
","""event"",""trial"",""time""
""fullscreenenter"",""1"",""3422""
","
","","","-1","","","14","5599","2134","h","elianto","#f73b6a7A","-1","-1","1","0","[]","0","2","","","5599","46","3","4","lose","no-go","0"
"pit-trial","165","1240333","0.0-51.0","battery-v0.2","","""event"",""trial"",""time""
""fullscreenenter"",""1"",""3422""
","
","
","""event"",""trial"",""time""
""fullscreenenter"",""1"",""3422""
","
","","","1229.1000001430511","","","14","5599","2134","m","elianto","#f73b6a7A"," "," ","1","0","[2086]","1","2","","","5599","47","0","3","lose","go","0"
"pit-trial","166","1244049","0.0-52.0","battery-v0.2","","""event"",""trial"",""time""
""fullscreenenter"",""1"",""3422""
","
","
","""event"",""trial"",""time""
""fullscreenenter"",""1"",""3422""
","
","","","847.0999999046326","","","14","5599","2134","r","elianto","#3366ff99","-1"," ","0","0","[1697.3000001907349]","1","2","","","5599","48","1","2","win","no-go","0"
"pit-trial","167","1248928","0.0-53.0","battery-v0.2","","""event"",""trial"",""time""
""fullscreenenter"",""1"",""3422""
","
","
","""event"",""trial"",""time""
""fullscreenenter"",""1"",""3422""
","
","","","-1","","","14","5599","2134","r","elianto","#3366ff99","-1","-1","1","+10","[]","0","2","","","5599","49","1","2","win","no-go","0"
"pit-trial","168","1252645","0.0-54.0","battery-v0.2","","""event"",""trial"",""time""
""fullscreenenter"",""1"",""3422""
","
","
","""event"",""trial"",""time""
""fullscreenenter"",""1"",""3422""
","
","","","848.4000000953674","","","14","5599","2134","m","elianto","#f73b6a7A"," "," ","1","0","[1702.5]","1","2","","","5599","50","0","3","lose","go","0"
"pit-trial","169","1256424","0.0-55.0","battery-v0.2","","""event"",""trial"",""time""
""fullscreenenter"",""1"",""3422""
","
","
","""event"",""trial"",""time""
""fullscreenenter"",""1"",""3422""
","
","","","914.2000000476837","","","14","5599","2134","y","elianto","#f73b6a7A"," "," ","1","0","[1769.5999999046326]","1","2","","","5599","51","2","3","lose","go","0"
"pit-trial","170","1261292","0.0-56.0","battery-v0.2","","""event"",""trial"",""time""
""fullscreenenter"",""1"",""3422""
","
","
","""event"",""trial"",""time""
""fullscreenenter"",""1"",""3422""
","
","","","-1","","","14","5599","2134","h","elianto","#f73b6a7A","-1","-1","1","0","[]","0","2","","","5599","52","3","4","lose","no-go","0"
"pit-trial","171","1265076","0.0-57.0","battery-v0.2","","""event"",""trial"",""time""
""fullscreenenter"",""1"",""3422""
","
","
","""event"",""trial"",""time""
""fullscreenenter"",""1"",""3422""
","
","","","922.3999998569489","","","14","5599","2134","m","elianto","#f73b6a7A"," "," ","1","0","[1774.1999998092651]","1","2","","","5599","53","0","3","lose","go","0"
"pit-trial","172","1268972","0.0-58.0","battery-v0.2","","""event"",""trial"",""time""
""fullscreenenter"",""1"",""3422""
","
","
","""event"",""trial"",""time""
""fullscreenenter"",""1"",""3422""
","
","","","1034.1999998092651","","","14","5599","2134","y","elianto","#f73b6a7A"," "," ","1","-10","[1889.1999998092651]","1","2","","","5599","54","2","3","lose","go","1"
"pit-trial","173","1273835","0.0-59.0","battery-v0.2","","""event"",""trial"",""time""
""fullscreenenter"",""1"",""3422""
","
","
","""event"",""trial"",""time""
""fullscreenenter"",""1"",""3422""
","
","","","-1","","","14","5599","2134","h","elianto","#f73b6a7A","-1","-1","1","0","[]","0","2","","","5599","55","3","4","lose","no-go","0"
"pit-trial","174","1277764","0.0-60.0","battery-v0.2","","""event"",""trial"",""time""
""fullscreenenter"",""1"",""3422""
","
","
","""event"",""trial"",""time""
""fullscreenenter"",""1"",""3422""
","
","","","1057.9000000953674","","","14","5599","2134","r","elianto","#3366ff99","-1"," ","0","+10","[1918.5999999046326]","1","2","","","5599","56","1","2","win","no-go","1"
"pit-trial","175","1282640","0.0-61.0","battery-v0.2","","""event"",""trial"",""time""
""fullscreenenter"",""1"",""3422""
","
","
","""event"",""trial"",""time""
""fullscreenenter"",""1"",""3422""
","
","","","-1","","","14","5599","2134","h","elianto","#f73b6a7A","-1","-1","1","0","[]","0","2","","","5599","57","3","4","lose","no-go","0"
"pit-trial","176","1286524","0.0-62.0","battery-v0.2","","""event"",""trial"",""time""
""fullscreenenter"",""1"",""3422""
","
","
","""event"",""trial"",""time""
""fullscreenenter"",""1"",""3422""
","
","","","1019.5","","","14","5599","2134","y","elianto","#f73b6a7A"," "," ","1","0","[1874.5]","1","2","","","5599","58","2","3","lose","go","0"
"pit-trial","177","1290678","0.0-63.0","battery-v0.2","","""event"",""trial"",""time""
""fullscreenenter"",""1"",""3422""
","
","
","""event"",""trial"",""time""
""fullscreenenter"",""1"",""3422""
","
","","","1290.8999998569489","","","14","5599","2134","m","elianto","#f73b6a7A"," "," ","1","0","[2145.7999999523163]","1","2","","","5599","59","0","3","lose","go","0"
"pit-trial","178","1295023","0.0-64.0","battery-v0.2","","""event"",""trial"",""time""
""fullscreenenter"",""1"",""3422""
","
","
","""event"",""trial"",""time""
""fullscreenenter"",""1"",""3422""
","
","","","1480.7000000476837","","","14","5599","2134","z","elianto","#3366ff99"," "," ","1","0","[2331.2000000476837]","1","2","","","5599","60","4","1","win","go","1"
"pit-trial","179","1299896","0.0-65.0","battery-v0.2","","""event"",""trial"",""time""
""fullscreenenter"",""1"",""3422""
","
","
","""event"",""trial"",""time""
""fullscreenenter"",""1"",""3422""
","
","","","-1","","","14","5599","2134","z","elianto","#3366ff99"," ","-1","0","0","[]","0","2","","","5599","61","4","1","win","go","0"
"pit-trial","180","1304768","0.0-66.0","battery-v0.2","","""event"",""trial"",""time""
""fullscreenenter"",""1"",""3422""
","
","
","""event"",""trial"",""time""
""fullscreenenter"",""1"",""3422""
","
","","","-1","","","14","5599","2134","r","elianto","#3366ff99","-1","-1","1","+10","[]","0","2","","","5599","62","1","2","win","no-go","0"
"pit-trial","181","1308958","0.0-67.0","battery-v0.2","","""event"",""trial"",""time""
""fullscreenenter"",""1"",""3422""
","
","
","""event"",""trial"",""time""
""fullscreenenter"",""1"",""3422""
","
","","","1317.5","","","14","5599","2134","y","elianto","#f73b6a7A"," "," ","1","0","[2175.4000000953674]","1","2","","","5599","63","2","3","lose","go","0"
"pit-trial","182","1313829","0.0-68.0","battery-v0.2","","""event"",""trial"",""time""
""fullscreenenter"",""1"",""3422""
","
","
","""event"",""trial"",""time""
""fullscreenenter"",""1"",""3422""
","
","","","-1","","","14","5599","2134","h","elianto","#f73b6a7A","-1","-1","1","0","[]","0","2","","","5599","64","3","4","lose","no-go","0"
"pit-trial","183","1318713","0.0-69.0","battery-v0.2","","""event"",""trial"",""time""
""fullscreenenter"",""1"",""3422""
","
","
","""event"",""trial"",""time""
""fullscreenenter"",""1"",""3422""
","
","","","-1","","","14","5599","2134","h","elianto","#f73b6a7A","-1","-1","1","-10","[]","0","2","","","5599","65","3","4","lose","no-go","1"
"pit-trial","184","1322400","0.0-70.0","battery-v0.2","","""event"",""trial"",""time""
""fullscreenenter"",""1"",""3422""
","
","
","""event"",""trial"",""time""
""fullscreenenter"",""1"",""3422""
","
","","","816.8999998569489","","","14","5599","2134","z","elianto","#3366ff99"," "," ","1","+10","[1669.1999998092651]","1","2","","","5599","66","4","1","win","go","0"
"pit-trial","185","1327273","0.0-71.0","battery-v0.2","","""event"",""trial"",""time""
""fullscreenenter"",""1"",""3422""
","
","
","""event"",""trial"",""time""
""fullscreenenter"",""1"",""3422""
","
","","","-1","","","14","5599","2134","c","elianto","#3366ff99","-1","-1","1","+10","[]","0","2","","","5599","67","5","2","win","no-go","0"
"pit-trial","186","1332138","0.0-72.0","battery-v0.2","","""event"",""trial"",""time""
""fullscreenenter"",""1"",""3422""
","
","
","""event"",""trial"",""time""
""fullscreenenter"",""1"",""3422""
","
","","","-1","","","14","5599","2134","r","elianto","#3366ff99","-1","-1","1","+10","[]","0","2","","","5599","68","1","2","win","no-go","0"
"pit-trial","187","1336636","0.0-73.0","battery-v0.2","","""event"",""trial"",""time""
""fullscreenenter"",""1"",""3422""
","
","
","""event"",""trial"",""time""
""fullscreenenter"",""1"",""3422""
","
","","","1635","","","14","5599","2134","c","elianto","#3366ff99","-1"," ","0","0","[2487]","1","2","","","5599","69","5","2","win","no-go","0"
"pit-trial","188","1341506","0.0-74.0","battery-v0.2","","""event"",""trial"",""time""
""fullscreenenter"",""1"",""3422""
","
","
","""event"",""trial"",""time""
""fullscreenenter"",""1"",""3422""
","
","","","-1","","","14","5599","2134","r","elianto","#3366ff99","-1","-1","1","0","[]","0","2","","","5599","70","1","2","win","no-go","1"
"pit-trial","189","1345953","0.0-75.0","battery-v0.2","","""event"",""trial"",""time""
""fullscreenenter"",""1"",""3422""
","
","
","""event"",""trial"",""time""
""fullscreenenter"",""1"",""3422""
","
","","","1587.0999999046326","","","14","5599","2134","y","elianto","#f73b6a7A"," "," ","1","0","[2437.7000000476837]","1","2","","","5599","71","2","3","lose","go","0"
"pit-trial","190","1350282","0.0-76.0","battery-v0.2","","""event"",""trial"",""time""
""fullscreenenter"",""1"",""3422""
","
","
","""event"",""trial"",""time""
""fullscreenenter"",""1"",""3422""
","
","","","1457.7999999523163","","","14","5599","2134","z","elianto","#3366ff99"," "," ","1","+10","[2308]","1","2","","","5599","72","4","1","win","go","0"
"pit-trial","191","1354188","0.0-77.0","battery-v0.2","","""event"",""trial"",""time""
""fullscreenenter"",""1"",""3422""
","
","
","""event"",""trial"",""time""
""fullscreenenter"",""1"",""3422""
","
","","","1038.7000000476837","","","14","5599","2134","z","elianto","#3366ff99"," "," ","1","+10","[1892.4000000953674]","1","2","","","5599","73","4","1","win","go","0"
"pit-trial","192","1358544","0.0-78.0","battery-v0.2","","""event"",""trial"",""time""
""fullscreenenter"",""1"",""3422""
","
","
","""event"",""trial"",""time""
""fullscreenenter"",""1"",""3422""
","
","","","1488.7000000476837","","","14","5599","2134","c","elianto","#3366ff99","-1"," ","0","0","[2339]","1","2","","","5599","74","5","2","win","no-go","0"
"pit-trial","193","1362294","0.0-79.0","battery-v0.2","","""event"",""trial"",""time""
""fullscreenenter"",""1"",""3422""
","
","
","""event"",""trial"",""time""
""fullscreenenter"",""1"",""3422""
","
","","","883.1000001430511","","","14","5599","2134","r","elianto","#3366ff99","-1"," ","0","0","[1741.2000000476837]","1","2","","","5599","75","1","2","win","no-go","0"
"pit-trial","194","1367170","0.0-80.0","battery-v0.2","","""event"",""trial"",""time""
""fullscreenenter"",""1"",""3422""
","
","
","""event"",""trial"",""time""
""fullscreenenter"",""1"",""3422""
","
","","","-1","","","14","5599","2134","h","elianto","#f73b6a7A","-1","-1","1","0","[]","0","2","","","5599","76","3","4","lose","no-go","0"
"pit-trial","195","1372038","0.0-81.0","battery-v0.2","","""event"",""trial"",""time""
""fullscreenenter"",""1"",""3422""
","
","
","""event"",""trial"",""time""
""fullscreenenter"",""1"",""3422""
","
","","","-1","","","14","5599","2134","c","elianto","#3366ff99","-1","-1","1","+10","[]","0","2","","","5599","77","5","2","win","no-go","0"
"pit-trial","196","1376039","0.0-82.0","battery-v0.2","","""event"",""trial"",""time""
""fullscreenenter"",""1"",""3422""
","
","
","""event"",""trial"",""time""
""fullscreenenter"",""1"",""3422""
","
","","","1137.7999999523163","","","14","5599","2134","z","elianto","#3366ff99"," "," ","1","0","[1992.5999999046326]","1","2","","","5599","78","4","1","win","go","1"
"pit-trial","197","1380906","0.0-83.0","battery-v0.2","","""event"",""trial"",""time""
""fullscreenenter"",""1"",""3422""
","
","
","""event"",""trial"",""time""
""fullscreenenter"",""1"",""3422""
","
","","","-1","","","14","5599","2134","h","elianto","#f73b6a7A","-1","-1","1","-10","[]","0","2","","","5599","79","3","4","lose","no-go","1"
"pit-trial","198","1385013","0.0-84.0","battery-v0.2","","""event"",""trial"",""time""
""fullscreenenter"",""1"",""3422""
","
","
","""event"",""trial"",""time""
""fullscreenenter"",""1"",""3422""
","
","","","1236.2999999523163","","","14","5599","2134","z","elianto","#3366ff99"," "," ","1","+10","[2092.7999999523163]","1","2","","","5599","80","4","1","win","go","0"
"pit-trial","199","1389878","0.0-85.0","battery-v0.2","","""event"",""trial"",""time""
""fullscreenenter"",""1"",""3422""
","
","
","""event"",""trial"",""time""
""fullscreenenter"",""1"",""3422""
","
","","","-1","","","14","5599","2134","c","elianto","#3366ff99","-1","-1","1","+10","[]","0","2","","","5599","81","5","2","win","no-go","0"
"pit-trial","200","1393828","0.0-86.0","battery-v0.2","","""event"",""trial"",""time""
""fullscreenenter"",""1"",""3422""
","
","
","""event"",""trial"",""time""
""fullscreenenter"",""1"",""3422""
","
","","","1079.9000000953674","","","14","5599","2134","z","elianto","#3366ff99"," "," ","1","0","[1931.7000000476837]","1","2","","","5599","82","4","1","win","go","1"
"pit-trial","201","1398698","0.0-87.0","battery-v0.2","","""event"",""trial"",""time""
""fullscreenenter"",""1"",""3422""
","
","
","""event"",""trial"",""time""
""fullscreenenter"",""1"",""3422""
","
","","","-1","","","14","5599","2134","t","elianto","#f73b6a7A","-1","-1","1","0","[]","0","2","","","5599","83","7","4","lose","no-go","0"
"pit-trial","202","1403571","0.0-88.0","battery-v0.2","","""event"",""trial"",""time""
""fullscreenenter"",""1"",""3422""
","
","
","""event"",""trial"",""time""
""fullscreenenter"",""1"",""3422""
","
","","","-1","","","14","5599","2134","h","elianto","#f73b6a7A","-1","-1","1","0","[]","0","2","","","5599","84","3","4","lose","no-go","0"
"pit-trial","203","1408444","0.0-89.0","battery-v0.2","","""event"",""trial"",""time""
""fullscreenenter"",""1"",""3422""
","
","
","""event"",""trial"",""time""
""fullscreenenter"",""1"",""3422""
","
","","","-1","","","14","5599","2134","t","elianto","#f73b6a7A","-1","-1","1","0","[]","0","2","","","5599","85","7","4","lose","no-go","0"
"pit-trial","204","1412447","0.0-90.0","battery-v0.2","","""event"",""trial"",""time""
""fullscreenenter"",""1"",""3422""
","
","
","""event"",""trial"",""time""
""fullscreenenter"",""1"",""3422""
","
","","","1139.2000000476837","","","14","5599","2134","b","elianto","#f73b6a7A"," "," ","1","0","[1989.9000000953674]","1","2","","","5599","86","6","3","lose","go","0"
"pit-trial","205","1416531","0.0-91.0","battery-v0.2","","""event"",""trial"",""time""
""fullscreenenter"",""1"",""3422""
","
","
","""event"",""trial"",""time""
""fullscreenenter"",""1"",""3422""
","
","","","1216.6000001430511","","","14","5599","2134","z","elianto","#3366ff99"," "," ","1","0","[2071.4000000953674]","1","2","","","5599","87","4","1","win","go","1"
"pit-trial","206","1421403","0.0-92.0","battery-v0.2","","""event"",""trial"",""time""
""fullscreenenter"",""1"",""3422""
","
","
","""event"",""trial"",""time""
""fullscreenenter"",""1"",""3422""
","
","","","-1","","","14","5599","2134","c","elianto","#3366ff99","-1","-1","1","0","[]","0","2","","","5599","88","5","2","win","no-go","1"
"pit-trial","207","1426274","0.0-93.0","battery-v0.2","","""event"",""trial"",""time""
""fullscreenenter"",""1"",""3422""
","
","
","""event"",""trial"",""time""
""fullscreenenter"",""1"",""3422""
","
","","","-1","","","14","5599","2134","b","elianto","#f73b6a7A"," ","-1","0","-10","[]","0","2","","","5599","89","6","3","lose","go","0"
"pit-trial","208","1430066","0.0-94.0","battery-v0.2","","""event"",""trial"",""time""
""fullscreenenter"",""1"",""3422""
","
","
","""event"",""trial"",""time""
""fullscreenenter"",""1"",""3422""
","
","","","930.4000000953674","","","14","5599","2134","c","elianto","#3366ff99","-1"," ","0","0","[1781.6000001430511]","1","2","","","5599","90","5","2","win","no-go","0"
"pit-trial","209","1434931","0.0-95.0","battery-v0.2","","""event"",""trial"",""time""
""fullscreenenter"",""1"",""3422""
","
","
","""event"",""trial"",""time""
""fullscreenenter"",""1"",""3422""
","
","","","-1","","","14","5599","2134","z","elianto","#3366ff99"," ","-1","0","0","[]","0","2","","","5599","91","4","1","win","go","0"
"pit-trial","210","1439804","0.0-96.0","battery-v0.2","","""event"",""trial"",""time""
""fullscreenenter"",""1"",""3422""
","
","
","""event"",""trial"",""time""
""fullscreenenter"",""1"",""3422""
","
","","","-1","","","14","5599","2134","t","elianto","#f73b6a7A","-1","-1","1","-10","[]","0","2","","","5599","92","7","4","lose","no-go","1"
"pit-trial","211","1444667","0.0-97.0","battery-v0.2","","""event"",""trial"",""time""
""fullscreenenter"",""1"",""3422""
","
","
","""event"",""trial"",""time""
""fullscreenenter"",""1"",""3422""
","
","","","-1","","","14","5599","2134","t","elianto","#f73b6a7A","-1","-1","1","0","[]","0","2","","","5599","93","7","4","lose","no-go","0"
"pit-trial","212","1448347","0.0-98.0","battery-v0.2","","""event"",""trial"",""time""
""fullscreenenter"",""1"",""3422""
","
","
","""event"",""trial"",""time""
""fullscreenenter"",""1"",""3422""
","
","","","809.5999999046326","","","14","5599","2134","b","elianto","#f73b6a7A"," "," ","1","0","[1662.5]","1","2","","","5599","94","6","3","lose","go","0"
"pit-trial","213","1452452","0.0-99.0","battery-v0.2","","""event"",""trial"",""time""
""fullscreenenter"",""1"",""3422""
","
","
","""event"",""trial"",""time""
""fullscreenenter"",""1"",""3422""
","
","","","1240.0999999046326","","","14","5599","2134","c","elianto","#3366ff99","-1"," ","0","0","[2094.5999999046326]","1","2","","","5599","95","5","2","win","no-go","0"
"pit-trial","214","1456335","0.0-100.0","battery-v0.2","","""event"",""trial"",""time""
""fullscreenenter"",""1"",""3422""
","
","
","""event"",""trial"",""time""
""fullscreenenter"",""1"",""3422""
","
","","","1016.8999998569489","","","14","5599","2134","f","elianto","#3366ff99"," "," ","1","+10","[1871.7000000476837]","1","2","","","5599","96","8","1","win","go","0"
"pit-trial","215","1460371","0.0-101.0","battery-v0.2","","""event"",""trial"",""time""
""fullscreenenter"",""1"",""3422""
","
","
","""event"",""trial"",""time""
""fullscreenenter"",""1"",""3422""
","
","","","1168.0999999046326","","","14","5599","2134","t","elianto","#f73b6a7A","-1"," ","0","-10","[2022.7000000476837]","1","2","","","5599","97","7","4","lose","no-go","0"
"pit-trial","216","1464234","0.0-102.0","battery-v0.2","","""event"",""trial"",""time""
""fullscreenenter"",""1"",""3422""
","
","
","""event"",""trial"",""time""
""fullscreenenter"",""1"",""3422""
","
","","","998.3000001907349","","","14","5599","2134","b","elianto","#f73b6a7A"," "," ","1","0","[1851.2000000476837]","1","2","","","5599","98","6","3","lose","go","0"
"pit-trial","217","1468308","0.0-103.0","battery-v0.2","","""event"",""trial"",""time""
""fullscreenenter"",""1"",""3422""
","
","
","""event"",""trial"",""time""
""fullscreenenter"",""1"",""3422""
","
","","","1210","","","14","5599","2134","f","elianto","#3366ff99"," "," ","1","+10","[2064.7000000476837]","1","2","","","5599","99","8","1","win","go","0"
"pit-trial","218","1472032","0.0-104.0","battery-v0.2","","""event"",""trial"",""time""
""fullscreenenter"",""1"",""3422""
","
","
","""event"",""trial"",""time""
""fullscreenenter"",""1"",""3422""
","
","","","845.7000000476837","","","14","5599","2134","c","elianto","#3366ff99","-1"," ","0","+10","[1706.9000000953674]","1","2","","","5599","100","5","2","win","no-go","1"
"pit-trial","219","1475587","0.0-105.0","battery-v0.2","","""event"",""trial"",""time""
""fullscreenenter"",""1"",""3422""
","
","
","""event"",""trial"",""time""
""fullscreenenter"",""1"",""3422""
","
","","","691.2000000476837","","","14","5599","2134","c","elianto","#3366ff99","-1"," ","0","0","[1545.9000000953674]","1","2","","","5599","101","5","2","win","no-go","0"
"pit-trial","220","1479370","0.0-106.0","battery-v0.2","","""event"",""trial"",""time""
""fullscreenenter"",""1"",""3422""
","
","
","""event"",""trial"",""time""
""fullscreenenter"",""1"",""3422""
","
","","","924.8999998569489","","","14","5599","2134","f","elianto","#3366ff99"," "," ","1","+10","[1776.5]","1","2","","","5599","102","8","1","win","go","0"
"pit-trial","221","1484247","0.0-107.0","battery-v0.2","","""event"",""trial"",""time""
""fullscreenenter"",""1"",""3422""
","
","
","""event"",""trial"",""time""
""fullscreenenter"",""1"",""3422""
","
","","","-1","","","14","5599","2134","n","elianto","#3366ff99"," ","-1","0","0","[]","0","2","","","5599","103","9","1","win","go","0"
"pit-trial","222","1489117","0.0-108.0","battery-v0.2","","""event"",""trial"",""time""
""fullscreenenter"",""1"",""3422""
","
","
","""event"",""trial"",""time""
""fullscreenenter"",""1"",""3422""
","
","","","-1","","","14","5599","2134","t","elianto","#f73b6a7A","-1","-1","1","-10","[]","0","2","","","5599","104","7","4","lose","no-go","1"
"pit-trial","223","1493107","0.0-109.0","battery-v0.2","","""event"",""trial"",""time""
""fullscreenenter"",""1"",""3422""
","
","
","""event"",""trial"",""time""
""fullscreenenter"",""1"",""3422""
","
","","","1125.7000000476837","","","14","5599","2134","b","elianto","#f73b6a7A"," "," ","1","0","[1977]","1","2","","","5599","105","6","3","lose","go","0"
"pit-trial","224","1496730","0.0-110.0","battery-v0.2","","""event"",""trial"",""time""
""fullscreenenter"",""1"",""3422""
","
","
","""event"",""trial"",""time""
""fullscreenenter"",""1"",""3422""
","
","","","762.1999998092651","","","14","5599","2134","z","elianto","#3366ff99"," "," ","1","+10","[1615.9000000953674]","1","2","","","5599","106","4","1","win","go","0"
"pit-trial","225","1500388","0.0-111.0","battery-v0.2","","""event"",""trial"",""time""
""fullscreenenter"",""1"",""3422""
","
","
","""event"",""trial"",""time""
""fullscreenenter"",""1"",""3422""
","
","","","796","","","14","5599","2134","f","elianto","#3366ff99"," "," ","1","+10","[1648.7999999523163]","1","2","","","5599","107","8","1","win","go","0"
"pit-trial","226","1505267","0.0-112.0","battery-v0.2","","""event"",""trial"",""time""
""fullscreenenter"",""1"",""3422""
","
","
","""event"",""trial"",""time""
""fullscreenenter"",""1"",""3422""
","
","","","-1","","","14","5599","2134","n","elianto","#3366ff99"," ","-1","0","0","[]","0","2","","","5599","108","9","1","win","go","0"
"pit-trial","227","1508864","0.0-113.0","battery-v0.2","","""event"",""trial"",""time""
""fullscreenenter"",""1"",""3422""
","
","
","""event"",""trial"",""time""
""fullscreenenter"",""1"",""3422""
","
","","","733.7000000476837","","","14","5599","2134","f","elianto","#3366ff99"," "," ","1","0","[1585.4000000953674]","1","2","","","5599","109","8","1","win","go","1"
"pit-trial","228","1512465","0.0-114.0","battery-v0.2","","""event"",""trial"",""time""
""fullscreenenter"",""1"",""3422""
","
","
","""event"",""trial"",""time""
""fullscreenenter"",""1"",""3422""
","
","","","733.5999999046326","","","14","5599","2134","n","elianto","#3366ff99"," "," ","1","0","[1586.7000000476837]","1","2","","","5599","110","9","1","win","go","1"
"pit-trial","229","1516032","0.0-115.0","battery-v0.2","","""event"",""trial"",""time""
""fullscreenenter"",""1"",""3422""
","
","
","""event"",""trial"",""time""
""fullscreenenter"",""1"",""3422""
","
","","","698.0999999046326","","","14","5599","2134","b","elianto","#f73b6a7A"," "," ","1","-10","[1549]","1","2","","","5599","111","6","3","lose","go","1"
"pit-trial","230","1520902","0.0-116.0","battery-v0.2","","""event"",""trial"",""time""
""fullscreenenter"",""1"",""3422""
","
","
","""event"",""trial"",""time""
""fullscreenenter"",""1"",""3422""
","
","","","-1","","","14","5599","2134","c","elianto","#3366ff99","-1","-1","1","+10","[]","0","2","","","5599","112","5","2","win","no-go","0"
"pit-trial","231","1524490","0.0-117.0","battery-v0.2","","""event"",""trial"",""time""
""fullscreenenter"",""1"",""3422""
","
","
","""event"",""trial"",""time""
""fullscreenenter"",""1"",""3422""
","
","","","731.6000001430511","","","14","5599","2134","f","elianto","#3366ff99"," "," ","1","+10","[1582]","1","2","","","5599","113","8","1","win","go","0"
"pit-trial","232","1528106","0.0-118.0","battery-v0.2","","""event"",""trial"",""time""
""fullscreenenter"",""1"",""3422""
","
","
","""event"",""trial"",""time""
""fullscreenenter"",""1"",""3422""
","
","","","756.8000001907349","","","14","5599","2134","c","elianto","#3366ff99","-1"," ","0","0","[1612.3000001907349]","1","2","","","5599","114","5","2","win","no-go","0"
"pit-trial","233","1531857","0.0-119.0","battery-v0.2","","""event"",""trial"",""time""
""fullscreenenter"",""1"",""3422""
","
","
","""event"",""trial"",""time""
""fullscreenenter"",""1"",""3422""
","
","","","884.0999999046326","","","14","5599","2134","b","elianto","#f73b6a7A"," "," ","1","0","[1739.2000000476837]","1","2","","","5599","115","6","3","lose","go","0"
"pit-trial","234","1535590","0.0-120.0","battery-v0.2","","""event"",""trial"",""time""
""fullscreenenter"",""1"",""3422""
","
","
","""event"",""trial"",""time""
""fullscreenenter"",""1"",""3422""
","
","","","864.7999999523163","","","14","5599","2134","n","elianto","#3366ff99"," "," ","1","+10","[1718.4000000953674]","1","2","","","5599","116","9","1","win","go","0"
"pit-trial","235","1540471","0.0-121.0","battery-v0.2","","""event"",""trial"",""time""
""fullscreenenter"",""1"",""3422""
","
","
","""event"",""trial"",""time""
""fullscreenenter"",""1"",""3422""
","
","","","-1","","","14","5599","2134","n","elianto","#3366ff99"," ","-1","0","0","[]","0","2","","","5599","117","9","1","win","go","0"
"pit-trial","236","1544549","0.0-122.0","battery-v0.2","","""event"",""trial"",""time""
""fullscreenenter"",""1"",""3422""
","
","
","""event"",""trial"",""time""
""fullscreenenter"",""1"",""3422""
","
","","","1208.6999998092651","","","14","5599","2134","b","elianto","#f73b6a7A"," "," ","1","0","[2066.699999809265]","1","2","","","5599","118","6","3","lose","go","0"
"pit-trial","237","1549427","0.0-123.0","battery-v0.2","","""event"",""trial"",""time""
""fullscreenenter"",""1"",""3422""
","
","
","""event"",""trial"",""time""
""fullscreenenter"",""1"",""3422""
","
","","","-1","","","14","5599","2134","c","elianto","#3366ff99","-1","-1","1","+10","[]","0","2","","","5599","119","5","2","win","no-go","0"
"pit-trial","238","1554293","0.0-124.0","battery-v0.2","","""event"",""trial"",""time""
""fullscreenenter"",""1"",""3422""
","
","
","""event"",""trial"",""time""
""fullscreenenter"",""1"",""3422""
","
","","","-1","","","14","5599","2134","f","elianto","#3366ff99"," ","-1","0","0","[]","0","2","","","5599","120","8","1","win","go","0"
"pit-trial","239","1557889","0.0-125.0","battery-v0.2","","""event"",""trial"",""time""
""fullscreenenter"",""1"",""3422""
","
","
","""event"",""trial"",""time""
""fullscreenenter"",""1"",""3422""
","
","","","727.6000001430511","","","14","5599","2134","b","elianto","#f73b6a7A"," "," ","1","-10","[1582.4000000953674]","1","2","","","5599","121","6","3","lose","go","1"
"pit-trial","240","1561548","0.0-126.0","battery-v0.2","","""event"",""trial"",""time""
""fullscreenenter"",""1"",""3422""
","
","
","""event"",""trial"",""time""
""fullscreenenter"",""1"",""3422""
","
","","","790.2000000476837","","","14","5599","2134","f","elianto","#3366ff99"," "," ","1","+10","[1641]","1","2","","","5599","122","8","1","win","go","0"
"pit-trial","241","1565511","0.0-127.0","battery-v0.2","","""event"",""trial"",""time""
""fullscreenenter"",""1"",""3422""
","
","
","""event"",""trial"",""time""
""fullscreenenter"",""1"",""3422""
","
","","","1096.7000000476837","","","14","5599","2134","t","elianto","#f73b6a7A","-1"," ","0","-10","[1950.5999999046326]","1","2","","","5599","123","7","4","lose","no-go","0"
"pit-trial","242","1569133","0.0-128.0","battery-v0.2","","""event"",""trial"",""time""
""fullscreenenter"",""1"",""3422""
","
","
","""event"",""trial"",""time""
""fullscreenenter"",""1"",""3422""
","
","","","760.0999999046326","","","14","5599","2134","n","elianto","#3366ff99"," "," ","1","+10","[1613.5999999046326]","1","2","","","5599","124","9","1","win","go","0"
"pit-trial","243","1572799","0.0-129.0","battery-v0.2","","""event"",""trial"",""time""
""fullscreenenter"",""1"",""3422""
","
","
","""event"",""trial"",""time""
""fullscreenenter"",""1"",""3422""
","
","","","801.2000000476837","","","14","5599","2134","n","elianto","#3366ff99"," "," ","1","+10","[1652.7999999523163]","1","2","","","5599","125","9","1","win","go","0"
"pit-trial","244","1576364","0.0-130.0","battery-v0.2","","""event"",""trial"",""time""
""fullscreenenter"",""1"",""3422""
","
","
","""event"",""trial"",""time""
""fullscreenenter"",""1"",""3422""
","
","","","697.8999998569489","","","14","5599","2134","f","elianto","#3366ff99"," "," ","1","+10","[1552.4000000953674]","1","2","","","5599","126","8","1","win","go","0"
"pit-trial","245","1581229","0.0-131.0","battery-v0.2","","""event"",""trial"",""time""
""fullscreenenter"",""1"",""3422""
","
","
","""event"",""trial"",""time""
""fullscreenenter"",""1"",""3422""
","
","","","-1","","","14","5599","2134","t","elianto","#f73b6a7A","-1","-1","1","-10","[]","0","2","","","5599","127","7","4","lose","no-go","1"
"pit-trial","246","1584817","0.0-132.0","battery-v0.2","","""event"",""trial"",""time""
""fullscreenenter"",""1"",""3422""
","
","
","""event"",""trial"",""time""
""fullscreenenter"",""1"",""3422""
","
","","","724.0999999046326","","","14","5599","2134","b","elianto","#f73b6a7A"," "," ","1","0","[1578.7000000476837]","1","2","","","5599","128","6","3","lose","go","0"
"pit-trial","247","1589688","0.0-133.0","battery-v0.2","","""event"",""trial"",""time""
""fullscreenenter"",""1"",""3422""
","
","
","""event"",""trial"",""time""
""fullscreenenter"",""1"",""3422""
","
","","","-1","","","14","5599","2134","f","elianto","#3366ff99"," ","-1","0","0","[]","0","2","","","5599","129","8","1","win","go","0"
"pit-trial","248","1593403","0.0-134.0","battery-v0.2","","""event"",""trial"",""time""
""fullscreenenter"",""1"",""3422""
","
","
","""event"",""trial"",""time""
""fullscreenenter"",""1"",""3422""
","
","","","854.1000001430511","","","14","5599","2134","n","elianto","#3366ff99"," "," ","1","+10","[1704.4000000953674]","1","2","","","5599","130","9","1","win","go","0"
"pit-trial","249","1597285","0.0-135.0","battery-v0.2","","""event"",""trial"",""time""
""fullscreenenter"",""1"",""3422""
","
","
","""event"",""trial"",""time""
""fullscreenenter"",""1"",""3422""
","
","","","1027","","","14","5599","2134","b","elianto","#f73b6a7A"," "," ","1","0","[1877.2999999523163]","1","2","","","5599","131","6","3","lose","go","0"
"pit-trial","250","1602152","0.0-136.0","battery-v0.2","","""event"",""trial"",""time""
""fullscreenenter"",""1"",""3422""
","
","
","""event"",""trial"",""time""
""fullscreenenter"",""1"",""3422""
","
","","","-1","","","14","5599","2134","t","elianto","#f73b6a7A","-1","-1","1","0","[3045.2000000476837]","1","2","","","5599","132","7","4","lose","no-go","0"
"pit-trial","251","1606365","0.0-137.0","battery-v0.2","","""event"",""trial"",""time""
""fullscreenenter"",""1"",""3422""
","
","
","""event"",""trial"",""time""
""fullscreenenter"",""1"",""3422""
","
","","","1351.7000000476837","","","14","5599","2134","t","elianto","#f73b6a7A","-1"," ","0","-10","[2202.2000000476837]","1","2","","","5599","133","7","4","lose","no-go","0"
"pit-trial","252","1609952","0.0-138.0","battery-v0.2","","""event"",""trial"",""time""
""fullscreenenter"",""1"",""3422""
","
","
","""event"",""trial"",""time""
""fullscreenenter"",""1"",""3422""
","
","","","723.0999999046326","","","14","5599","2134","n","elianto","#3366ff99"," "," ","1","+10","[1575]","1","2","","","5599","134","9","1","win","go","0"
"pit-trial","253","1614822","0.0-139.0","battery-v0.2","","""event"",""trial"",""time""
""fullscreenenter"",""1"",""3422""
","
","
","""event"",""trial"",""time""
""fullscreenenter"",""1"",""3422""
","
","","","-1","","","14","5599","2134","f","elianto","#3366ff99"," ","-1","0","0","[]","0","2","","","5599","135","8","1","win","go","0"
"pit-trial","254","1619083","0.0-140.0","battery-v0.2","","""event"",""trial"",""time""
""fullscreenenter"",""1"",""3422""
","
","
","""event"",""trial"",""time""
""fullscreenenter"",""1"",""3422""
","
","","","1394.1000001430511","","","14","5599","2134","b","elianto","#f73b6a7A"," "," ","1","0","[2252.399999856949]","1","2","","","5599","136","6","3","lose","go","0"
"pit-trial","255","1622641","0.0-141.0","battery-v0.2","","""event"",""trial"",""time""
""fullscreenenter"",""1"",""3422""
","
","
","""event"",""trial"",""time""
""fullscreenenter"",""1"",""3422""
","
","","","688.7000000476837","","","14","5599","2134","b","elianto","#f73b6a7A"," "," ","1","0","[1542.9000000953674]","1","2","","","5599","137","6","3","lose","go","0"
"pit-trial","256","1626372","0.0-142.0","battery-v0.2","","""event"",""trial"",""time""
""fullscreenenter"",""1"",""3422""
","
","
","""event"",""trial"",""time""
""fullscreenenter"",""1"",""3422""
","
","","","869.7000000476837","","","14","5599","2134","f","elianto","#3366ff99"," "," ","1","0","[1724.1000001430511]","1","2","","","5599","138","8","1","win","go","1"
"pit-trial","257","1629951","0.0-143.0","battery-v0.2","","""event"",""trial"",""time""
""fullscreenenter"",""1"",""3422""
","
","
","""event"",""trial"",""time""
""fullscreenenter"",""1"",""3422""
","
","","","711.9000000953674","","","14","5599","2134","n","elianto","#3366ff99"," "," ","1","+10","[1565.5]","1","2","","","5599","139","9","1","win","go","0"
"pit-trial","258","1633774","0.0-144.0","battery-v0.2","","""event"",""trial"",""time""
""fullscreenenter"",""1"",""3422""
","
","
","""event"",""trial"",""time""
""fullscreenenter"",""1"",""3422""
","
","","","951.7000000476837","","","14","5599","2134","t","elianto","#f73b6a7A","-1"," ","0","-10","[1812]","1","2","","","5599","140","7","4","lose","no-go","0"
"pit-instructions","259","1770125","0.0-145.0","battery-v0.2","","""event"",""trial"",""time""
""fullscreenenter"",""1"",""3422""
","
","
","""event"",""trial"",""time""
""fullscreenenter"",""1"",""3422""
","
","","[{""page_index"":0,""viewing_time"":116509.40000009537},{""page_index"":1,""viewing_time"":19833.299999952316}]","136342.90000009537","","","","","","","","","","","","","","","","","","","","","","","",""
"pit-trial","260","1774139","0.0-146.0","battery-v0.2","","""event"",""trial"",""time""
""fullscreenenter"",""1"",""3422""
","
","
","""event"",""trial"",""time""
""fullscreenenter"",""1"",""3422""
","
","","","1150.2000000476837","","","14","5599","2134","w","elianto","#f73b6a7A"," "," ","1","-10","[2007]","1","3","","","5599","141","3","3","lose","go","1"
"pit-trial","261","1777809","0.0-147.0","battery-v0.2","","""event"",""trial"",""time""
""fullscreenenter"",""1"",""3422""
","
","
","""event"",""trial"",""time""
""fullscreenenter"",""1"",""3422""
","
","","","810.8999998569489","","","14","5599","2134","d","elianto","#3366ff99"," "," ","1","+10","[1663.4000000953674]","1","3","","","5599","142","1","1","win","go","0"
"pit-trial","262","1782675","0.0-148.0","battery-v0.2","","""event"",""trial"",""time""
""fullscreenenter"",""1"",""3422""
","
","
","""event"",""trial"",""time""
""fullscreenenter"",""1"",""3422""
","
","","","-1","","","14","5599","2134","e","elianto","#f73b6a7A","-1","-1","1","0","[]","0","3","","","5599","143","2","4","lose","no-go","0"
"pit-trial","263","1786826","0.0-149.0","battery-v0.2","","""event"",""trial"",""time""
""fullscreenenter"",""1"",""3422""
","
","
","""event"",""trial"",""time""
""fullscreenenter"",""1"",""3422""
","
","","","1286.5","","","14","5599","2134","j","elianto","#f73b6a7A","-1"," ","0","0","[2141.7999999523163]","1","3","","","5599","144","0","4","lose","no-go","1"
"pit-trial","264","1790665","0.0-150.0","battery-v0.2","","""event"",""trial"",""time""
""fullscreenenter"",""1"",""3422""
","
","
","""event"",""trial"",""time""
""fullscreenenter"",""1"",""3422""
","
","","","980.5999999046326","","","14","5599","2134","j","elianto","#f73b6a7A","-1"," ","0","0","[1832.6999998092651]","1","3","","","5599","145","0","4","lose","no-go","1"
"pit-trial","265","1795533","0.0-151.0","battery-v0.2","","""event"",""trial"",""time""
""fullscreenenter"",""1"",""3422""
","
","
","""event"",""trial"",""time""
""fullscreenenter"",""1"",""3422""
","
","","","-1","","","14","5599","2134","e","elianto","#f73b6a7A","-1","-1","1","0","[]","0","3","","","5599","146","2","4","lose","no-go","0"
"pit-trial","266","1800402","0.0-152.0","battery-v0.2","","""event"",""trial"",""time""
""fullscreenenter"",""1"",""3422""
","
","
","""event"",""trial"",""time""
""fullscreenenter"",""1"",""3422""
","
","","","-1","","","14","5599","2134","w","elianto","#f73b6a7A"," ","-1","0","-10","[]","0","3","","","5599","147","3","3","lose","go","0"
