"trial_type","trial_index","time_elapsed","internal_node_id","task_version","subject_id","interactions","blur_events","focus_events","fullscreenenter_events","fullscreenexit_events","success","view_history","rt","responses","num_errors","age","subject","participantId","rune","rune_set","hex","correct","choice","accuracy","outcome","keys","total_keys","block","practice","value","sub","trial","stimulus","robot","valence","action","sham"
"pavlovia","0","9","0.0-0.0","battery-v0.2","","""event"",""trial"",""time""
""fullscreenenter"",""1"",""1170""
","
","
","""event"",""trial"",""time""
""fullscreenenter"",""1"",""1170""
","
","","","","","","","","","","","","","","","","","","","","","","","","","","",""
"fullscreen","1","2149","0.0-1.0","battery-v0.2","","""event"",""trial"",""time""
""fullscreenenter"",""1"",""1170""
","
","
","""event"",""trial"",""time""
""fullscreenenter"",""1"",""1170""
","
","true","","","","","","","","","","","","","","","","","","","","","","","","","",""
"pit-instructions","2","6944","0.0-2.0-0.0","battery-v0.2","","""event"",""trial"",""time""
""fullscreenenter"",""1"",""1170""
","
","
","""event"",""trial"",""time""
""fullscreenenter"",""1"",""1170""
","
","","[{""page_index"":0,""viewing_time"":4791.200000017881}]","4791.4000000059605","","","","","","","","","","","","","","","","","","","","","","","",""
"pit-comprehension","3","10095","0.0-2.0-1.0-0.0","battery-v0.2","","""event"",""trial"",""time""
""fullscreenenter"",""1"",""1170""
","
","
","""event"",""trial"",""time""
""fullscreenenter"",""1"",""1170""
","
","","","3148.7999999821186","[""shark""]","0","20","15931","6205","","","","","","","","","","","","","","","","","","",""
"pit-instructions","4","11360","0.0-2.0-1.0-1.0","battery-v0.2","","""event"",""trial"",""time""
""fullscreenenter"",""1"",""1170""
","
","
","""event"",""trial"",""time""
""fullscreenenter"",""1"",""1170""
","
","","[{""page_index"":0,""viewing_time"":1250.4000000059605}]","1250.5999999940395","","","","","","","","","","","","","","","","","","","","","","","",""
"pit-comprehension","5","13361","0.0-2.0-2.0-0.0","battery-v0.2","","""event"",""trial"",""time""
""fullscreenenter"",""1"",""1170""
","
","
","""event"",""trial"",""time""
""fullscreenenter"",""1"",""1170""
","
","","","1999.0999999940395","[""tiger""]","0","20","15931","6205","","","","","","","","","","","","","","","","","","",""
"pit-instructions","6","13811","0.0-2.0-2.0-1.0","battery-v0.2","","""event"",""trial"",""time""
""fullscreenenter"",""1"",""1170""
","
","
","""event"",""trial"",""time""
""fullscreenenter"",""1"",""1170""
","
","","[{""page_index"":0,""viewing_time"":449.09999999403954}]","449.19999998807907","","","","","","","","","","","","","","","","","","","","","","","",""
"pit-instructions","7","98872","0.0-2.0-3.0","battery-v0.2","","""event"",""trial"",""time""
""fullscreenenter"",""1"",""1170""
","
","
","""event"",""trial"",""time""
""fullscreenenter"",""1"",""1170""
","
","","[{""page_index"":0,""viewing_time"":7164.0999999940395},{""page_index"":1,""viewing_time"":5135.100000023842},{""page_index"":2,""viewing_time"":6200.299999982119},{""page_index"":3,""viewing_time"":5165.700000017881},{""page_index"":4,""viewing_time"":5199.0999999940395},{""page_index"":5,""viewing_time"":5368.4000000059605},{""page_index"":6,""viewing_time"":5799.699999988079},{""page_index"":7,""viewing_time"":6051.199999988079},{""page_index"":8,""viewing_time"":6249.700000017881},{""page_index"":9,""viewing_time"":7533.5},{""page_index"":10,""viewing_time"":7030.9000000059605},{""page_index"":11,""viewing_time"":6868.899999976158},{""page_index"":12,""viewing_time"":6714.5},{""page_index"":13,""viewing_time"":4583.5}]","85064.90000000596","","","","","","","","","","","","","","","","","","","","","","","",""
"pit-trial","8","102223","0.0-2.0-4.0-0.0","battery-v0.2","","""event"",""trial"",""time""
""fullscreenenter"",""1"",""1170""
","
","
","""event"",""trial"",""time""
""fullscreenenter"",""1"",""1170""
","
","","","493.7999999821186","","","20","15931","6205","&#9784;","elianto","#FFFFF080"," "," ","1","&#10004","[1345]","1","0","0","","","","","","","",""
"pit-trial","9","105616","0.0-2.0-4.1-0.1","battery-v0.2","","""event"",""trial"",""time""
""fullscreenenter"",""1"",""1170""
","
","
","""event"",""trial"",""time""
""fullscreenenter"",""1"",""1170""
","
","","","534.0999999940395","","","20","15931","6205","&#9784;","elianto","#FFFFF080"," "," ","1","&#10004","[1385.5999999940395]","1","0","0","","","","","","","",""
"pit-trial","10","109131","0.0-2.0-4.2-0.2","battery-v0.2","","""event"",""trial"",""time""
""fullscreenenter"",""1"",""1170""
","
","
","""event"",""trial"",""time""
""fullscreenenter"",""1"",""1170""
","
","","","658.3000000119209","","","20","15931","6205","&#9784;","elianto","#FFFFF080"," "," ","1","&#10004","[1509.300000011921]","1","0","0","","","","","","","",""
"pit-trial","11","112537","0.0-2.0-4.3-0.3","battery-v0.2","","""event"",""trial"",""time""
""fullscreenenter"",""1"",""1170""
","
","
","""event"",""trial"",""time""
""fullscreenenter"",""1"",""1170""
","
","","","549.2999999821186","","","20","15931","6205","&#9784;","elianto","#FFFFF080"," "," ","1","&#10004","[1400.699999988079]","1","0","0","","","","","","","",""
"pit-trial","12","115949","0.0-2.0-4.4-0.4","battery-v0.2","","""event"",""trial"",""time""
""fullscreenenter"",""1"",""1170""
","
","
","""event"",""trial"",""time""
""fullscreenenter"",""1"",""1170""
","
","","","554.5","","","20","15931","6205","&#9784;","elianto","#FFFFF080"," "," ","1","&#10004","[1406.0999999940395]","1","0","0","","","","","","","",""
"pit-instructions","13","135075","0.0-2.0-5.0","battery-v0.2","","""event"",""trial"",""time""
""fullscreenenter"",""1"",""1170""
","
","
","""event"",""trial"",""time""
""fullscreenenter"",""1"",""1170""
","
","","[{""page_index"":0,""viewing_time"":4451.4000000059605},{""page_index"":1,""viewing_time"":5251.0999999940395},{""page_index"":2,""viewing_time"":4384},{""page_index"":3,""viewing_time"":5033.5999999940395}]","19121","","","","","","","","","","","","","","","","","","","","","","","",""
"pit-trial","14","139931","0.0-2.0-6.0-0.0","battery-v0.2","","""event"",""trial"",""time""
""fullscreenenter"",""1"",""1170""
","
","
","""event"",""trial"",""time""
""fullscreenenter"",""1"",""1170""
","
","","","-1","","","20","15931","6205","&#9854;","elianto","#FFFFF080","-1","-1","1","&#10004","[]","0","0","1","","","","","","","",""
"pit-trial","15","144790","0.0-2.0-6.1-0.1","battery-v0.2","","""event"",""trial"",""time""
""fullscreenenter"",""1"",""1170""
","
","
","""event"",""trial"",""time""
""fullscreenenter"",""1"",""1170""
","
","","","-1","","","20","15931","6205","&#9854;","elianto","#FFFFF080","-1","-1","1","&#10004","[]","0","0","1","","","","","","","",""
"pit-trial","16","149647","0.0-2.0-6.2-0.2","battery-v0.2","","""event"",""trial"",""time""
""fullscreenenter"",""1"",""1170""
","
","
","""event"",""trial"",""time""
""fullscreenenter"",""1"",""1170""
","
","","","-1","","","20","15931","6205","&#9854;","elianto","#FFFFF080","-1","-1","1","&#10004","[]","0","0","1","","","","","","","",""
"pit-trial","17","154505","0.0-2.0-6.3-0.3","battery-v0.2","","""event"",""trial"",""time""
""fullscreenenter"",""1"",""1170""
","
","
","""event"",""trial"",""time""
""fullscreenenter"",""1"",""1170""
","
","","","-1","","","20","15931","6205","&#9854;","elianto","#FFFFF080","-1","-1","1","&#10004","[]","0","0","1","","","","","","","",""
"pit-trial","18","159361","0.0-2.0-6.4-0.4","battery-v0.2","","""event"",""trial"",""time""
""fullscreenenter"",""1"",""1170""
","
","
","""event"",""trial"",""time""
""fullscreenenter"",""1"",""1170""
","
","","","-1","","","20","15931","6205","&#9854;","elianto","#FFFFF080","-1","-1","1","&#10004","[]","0","0","1","","","","","","","",""
"pit-instructions","19","266486","0.0-2.0-7.0","battery-v0.2","","""event"",""trial"",""time""
""fullscreenenter"",""1"",""1170""
","
","
","""event"",""trial"",""time""
""fullscreenenter"",""1"",""1170""
","
","","[{""page_index"":0,""viewing_time"":5120.799999982119},{""page_index"":1,""viewing_time"":6135.200000017881},{""page_index"":2,""viewing_time"":5099.0999999940395},{""page_index"":3,""viewing_time"":5016.699999988079},{""page_index"":4,""viewing_time"":5435},{""page_index"":5,""viewing_time"":5572.5},{""page_index"":6,""viewing_time"":4609.700000017881},{""page_index"":7,""viewing_time"":7150.0999999940395},{""page_index"":8,""viewing_time"":6049.9000000059605},{""page_index"":9,""viewing_time"":5751.699999988079},{""page_index"":10,""viewing_time"":6233.5999999940395},{""page_index"":11,""viewing_time"":5598.5999999940395},{""page_index"":12,""viewing_time"":6070},{""page_index"":13,""viewing_time"":6613},{""page_index"":14,""viewing_time"":6700},{""page_index"":15,""viewing_time"":6088.100000023842},{""page_index"":16,""viewing_time"":7463},{""page_index"":17,""viewing_time"":6416.399999976158}]","107124.89999997616","","","","","","","","","","","","","","","","","","","","","","","",""
"pit-trial","20","270037","0.0-2.0-8.0-0.0","battery-v0.2","","""event"",""trial"",""time""
""fullscreenenter"",""1"",""1170""
","
","
","""event"",""trial"",""time""
""fullscreenenter"",""1"",""1170""
","
","","","694.7999999821186","","","20","15931","6205","&#9776;","elianto","#3366ff99"," "," ","1","+10","[1545.5]","1","0","1","","","","","","","",""
"pit-trial","21","273516","0.0-2.0-8.0-1.0","battery-v0.2","","""event"",""trial"",""time""
""fullscreenenter"",""1"",""1170""
","
","
","""event"",""trial"",""time""
""fullscreenenter"",""1"",""1170""
","
","","","625.0999999940395","","","20","15931","6205","&#9776;","elianto","#3366ff99"," "," ","1","+10","[1476.0999999940395]","1","0","1","","","","","","","",""
"pit-trial","22","277019","0.0-2.0-8.0-2.0","battery-v0.2","","""event"",""trial"",""time""
""fullscreenenter"",""1"",""1170""
","
","
","""event"",""trial"",""time""
""fullscreenenter"",""1"",""1170""
","
","","","646.3000000119209","","","20","15931","6205","&#9776;","elianto","#3366ff99"," "," ","1","+10","[1497.5999999940395]","1","0","1","","","","","","","",""
"pit-trial","23","280443","0.0-2.0-8.0-3.0","battery-v0.2","","""event"",""trial"",""time""
""fullscreenenter"",""1"",""1170""
","
","
","""event"",""trial"",""time""
""fullscreenenter"",""1"",""1170""
","
","","","567.2999999821186","","","20","15931","6205","&#9776;","elianto","#3366ff99"," "," ","1","0","[1418.4000000059605]","1","0","1","","","","","","","",""
"pit-trial","24","283841","0.0-2.0-8.0-4.0","battery-v0.2","","""event"",""trial"",""time""
""fullscreenenter"",""1"",""1170""
","
","
","""event"",""trial"",""time""
""fullscreenenter"",""1"",""1170""
","
","","","542.6000000238419","","","20","15931","6205","&#9776;","elianto","#3366ff99"," "," ","1","+10","[1393.699999988079]","1","0","1","","","","","","","",""
"pit-trial","25","287412","0.0-2.0-8.1-0.1","battery-v0.2","","""event"",""trial"",""time""
""fullscreenenter"",""1"",""1170""
","
","
","""event"",""trial"",""time""
""fullscreenenter"",""1"",""1170""
","
","","","715","","","20","15931","6205","&#9776;","elianto","#3366ff99"," "," ","1","+10","[1565]","1","0","1","","","","","","","",""
"pit-trial","26","290754","0.0-2.0-8.1-1.1","battery-v0.2","","""event"",""trial"",""time""
""fullscreenenter"",""1"",""1170""
","
","
","""event"",""trial"",""time""
""fullscreenenter"",""1"",""1170""
","
","","","485.90000000596046","","","20","15931","6205","&#9776;","elianto","#3366ff99"," "," ","1","+10","[1337.5]","1","0","1","","","","","","","",""
"pit-trial","27","294054","0.0-2.0-8.1-2.1","battery-v0.2","","""event"",""trial"",""time""
""fullscreenenter"",""1"",""1170""
","
","
","""event"",""trial"",""time""
""fullscreenenter"",""1"",""1170""
","
","","","444.30000001192093","","","20","15931","6205","&#9776;","elianto","#3366ff99"," "," ","1","+10","[1294.6000000238419]","1","0","1","","","","","","","",""
"pit-trial","28","297347","0.0-2.0-8.1-3.1","battery-v0.2","","""event"",""trial"",""time""
""fullscreenenter"",""1"",""1170""
","
","
","""event"",""trial"",""time""
""fullscreenenter"",""1"",""1170""
","
","","","438.40000000596046","","","20","15931","6205","&#9776;","elianto","#3366ff99"," "," ","1","0","[1289.800000011921]","1","0","1","","","","","","","",""
"pit-trial","29","300748","0.0-2.0-8.1-4.1","battery-v0.2","","""event"",""trial"",""time""
""fullscreenenter"",""1"",""1170""
","
","
","""event"",""trial"",""time""
""fullscreenenter"",""1"",""1170""
","
","","","545.2999999821186","","","20","15931","6205","&#9776;","elianto","#3366ff99"," "," ","1","+10","[1396.199999988079]","1","0","1","","","","","","","",""
"pit-trial","30","304100","0.0-2.0-8.2-0.2","battery-v0.2","","""event"",""trial"",""time""
""fullscreenenter"",""1"",""1170""
","
","
","""event"",""trial"",""time""
""fullscreenenter"",""1"",""1170""
","
","","","493.30000001192093","","","20","15931","6205","&#9776;","elianto","#3366ff99"," "," ","1","+10","[1345.1000000238419]","1","0","1","","","","","","","",""
"pit-trial","31","307391","0.0-2.0-8.2-1.2","battery-v0.2","","""event"",""trial"",""time""
""fullscreenenter"",""1"",""1170""
","
","
","""event"",""trial"",""time""
""fullscreenenter"",""1"",""1170""
","
","","","436.19999998807907","","","20","15931","6205","&#9776;","elianto","#3366ff99"," "," ","1","+10","[1287.3999999761581,2054.399999976158]","2","0","1","","","","","","","",""
"pit-trial","32","310584","0.0-2.0-8.2-2.2","battery-v0.2","","""event"",""trial"",""time""
""fullscreenenter"",""1"",""1170""
","
","
","""event"",""trial"",""time""
""fullscreenenter"",""1"",""1170""
","
","","","337.90000000596046","","","20","15931","6205","&#9776;","elianto","#3366ff99"," "," ","1","+10","[1189.199999988079,2383.300000011921]","2","0","1","","","","","","","",""
"pit-trial","33","313625","0.0-2.0-8.2-3.2","battery-v0.2","","""event"",""trial"",""time""
""fullscreenenter"",""1"",""1170""
","
","
","""event"",""trial"",""time""
""fullscreenenter"",""1"",""1170""
","
","","","178.2000000178814","","","20","15931","6205","&#9776;","elianto","#3366ff99"," "," ","1","0","[1029.300000011921]","1","0","1","","","","","","","",""
"pit-trial","34","316857","0.0-2.0-8.2-4.2","battery-v0.2","","""event"",""trial"",""time""
""fullscreenenter"",""1"",""1170""
","
","
","""event"",""trial"",""time""
""fullscreenenter"",""1"",""1170""
","
","","","377.5","","","20","15931","6205","&#9776;","elianto","#3366ff99"," "," ","1","+10","[508.30000001192093,1228.5999999940395]","2","0","1","","","","","","","",""
"call-function","35","316862","0.0-2.0-9.0","battery-v0.2","","""event"",""trial"",""time""
""fullscreenenter"",""1"",""1170""
","
","
","""event"",""trial"",""time""
""fullscreenenter"",""1"",""1170""
","
","","","","","","","","","","","","","","","","","","","","","","","","","","",""
"pit-instructions","36","352980","0.0-2.0-10.0","battery-v0.2","","""event"",""trial"",""time""
""fullscreenenter"",""1"",""1170""
","
","
","""event"",""trial"",""time""
""fullscreenenter"",""1"",""1170""
","
","","[{""page_index"":0,""viewing_time"":5435.199999988079},{""page_index"":1,""viewing_time"":6199.5},{""page_index"":2,""viewing_time"":9016.59999999404},{""page_index"":3,""viewing_time"":8284.700000017881},{""page_index"":4,""viewing_time"":7182.199999988079}]","36118.89999997616","","","","","","","","","","","","","","","","","","","","","","","",""
"pit-trial","37","357837","0.0-2.0-11.0-0.0","battery-v0.2","","""event"",""trial"",""time""
""fullscreenenter"",""1"",""1170""
","
","
","""event"",""trial"",""time""
""fullscreenenter"",""1"",""1170""
","
","","","-1","","","20","15931","6205","&#9761;","elianto","#3366ff99","-1","-1","1","+10","[]","0","0","2","","","","","","","",""
"pit-trial","38","362693","0.0-2.0-11.0-1.0","battery-v0.2","","""event"",""trial"",""time""
""fullscreenenter"",""1"",""1170""
","
","
","""event"",""trial"",""time""
""fullscreenenter"",""1"",""1170""
","
","","","-1","","","20","15931","6205","&#9761;","elianto","#3366ff99","-1","-1","1","+10","[]","0","0","2","","","","","","","",""
"pit-trial","39","367548","0.0-2.0-11.0-2.0","battery-v0.2","","""event"",""trial"",""time""
""fullscreenenter"",""1"",""1170""
","
","
","""event"",""trial"",""time""
""fullscreenenter"",""1"",""1170""
","
","","","-1","","","20","15931","6205","&#9761;","elianto","#3366ff99","-1","-1","1","+10","[]","0","0","2","","","","","","","",""
"pit-trial","40","372404","0.0-2.0-11.0-3.0","battery-v0.2","","""event"",""trial"",""time""
""fullscreenenter"",""1"",""1170""
","
","
","""event"",""trial"",""time""
""fullscreenenter"",""1"",""1170""
","
","","","-1","","","20","15931","6205","&#9761;","elianto","#3366ff99","-1","-1","1","0","[]","0","0","2","","","","","","","",""
"pit-trial","41","377262","0.0-2.0-11.0-4.0","battery-v0.2","","""event"",""trial"",""time""
""fullscreenenter"",""1"",""1170""
","
","
","""event"",""trial"",""time""
""fullscreenenter"",""1"",""1170""
","
","","","-1","","","20","15931","6205","&#9761;","elianto","#3366ff99","-1","-1","1","+10","[]","0","0","2","","","","","","","",""
"pit-trial","42","382121","0.0-2.0-11.1-0.1","battery-v0.2","","""event"",""trial"",""time""
""fullscreenenter"",""1"",""1170""
","
","
","""event"",""trial"",""time""
""fullscreenenter"",""1"",""1170""
","
","","","-1","","","20","15931","6205","&#9761;","elianto","#3366ff99","-1","-1","1","+10","[]","0","0","2","","","","","","","",""
"pit-trial","43","386977","0.0-2.0-11.1-1.1","battery-v0.2","","""event"",""trial"",""time""
""fullscreenenter"",""1"",""1170""
","
","
","""event"",""trial"",""time""
""fullscreenenter"",""1"",""1170""
","
","","","-1","","","20","15931","6205","&#9761;","elianto","#3366ff99","-1","-1","1","+10","[]","0","0","2","","","","","","","",""
"pit-trial","44","391834","0.0-2.0-11.1-2.1","battery-v0.2","","""event"",""trial"",""time""
""fullscreenenter"",""1"",""1170""
","
","
","""event"",""trial"",""time""
""fullscreenenter"",""1"",""1170""
","
","","","-1","","","20","15931","6205","&#9761;","elianto","#3366ff99","-1","-1","1","+10","[]","0","0","2","","","","","","","",""
"pit-trial","45","396693","0.0-2.0-11.1-3.1","battery-v0.2","","""event"",""trial"",""time""
""fullscreenenter"",""1"",""1170""
","
","
","""event"",""trial"",""time""
""fullscreenenter"",""1"",""1170""
","
","","","-1","","","20","15931","6205","&#9761;","elianto","#3366ff99","-1","-1","1","0","[]","0","0","2","","","","","","","",""
"pit-trial","46","401549","0.0-2.0-11.1-4.1","battery-v0.2","","""event"",""trial"",""time""
""fullscreenenter"",""1"",""1170""
","
","
","""event"",""trial"",""time""
""fullscreenenter"",""1"",""1170""
","
","","","-1","","","20","15931","6205","&#9761;","elianto","#3366ff99","-1","-1","1","+10","[]","0","0","2","","","","","","","",""
"pit-trial","47","406407","0.0-2.0-11.2-0.2","battery-v0.2","","""event"",""trial"",""time""
""fullscreenenter"",""1"",""1170""
","
","
","""event"",""trial"",""time""
""fullscreenenter"",""1"",""1170""
","
","","","-1","","","20","15931","6205","&#9761;","elianto","#3366ff99","-1","-1","1","+10","[]","0","0","2","","","","","","","",""
"pit-trial","48","411264","0.0-2.0-11.2-1.2","battery-v0.2","","""event"",""trial"",""time""
""fullscreenenter"",""1"",""1170""
","
","
","""event"",""trial"",""time""
""fullscreenenter"",""1"",""1170""
","
","","","-1","","","20","15931","6205","&#9761;","elianto","#3366ff99","-1","-1","1","+10","[]","0","0","2","","","","","","","",""
"pit-trial","49","416120","0.0-2.0-11.2-2.2","battery-v0.2","","""event"",""trial"",""time""
""fullscreenenter"",""1"",""1170""
","
","
","""event"",""trial"",""time""
""fullscreenenter"",""1"",""1170""
","
","","","-1","","","20","15931","6205","&#9761;","elianto","#3366ff99","-1","-1","1","+10","[]","0","0","2","","","","","","","",""
"pit-trial","50","420975","0.0-2.0-11.2-3.2","battery-v0.2","","""event"",""trial"",""time""
""fullscreenenter"",""1"",""1170""
","
","
","""event"",""trial"",""time""
""fullscreenenter"",""1"",""1170""
","
","","","-1","","","20","15931","6205","&#9761;","elianto","#3366ff99","-1","-1","1","0","[]","0","0","2","","","","","","","",""
"pit-trial","51","425831","0.0-2.0-11.2-4.2","battery-v0.2","","""event"",""trial"",""time""
""fullscreenenter"",""1"",""1170""
","
","
","""event"",""trial"",""time""
""fullscreenenter"",""1"",""1170""
","
","","","-1","","","20","15931","6205","&#9761;","elianto","#3366ff99","-1","-1","1","+10","[]","0","0","2","","","","","","","",""
"pit-trial","52","430698","0.0-2.0-11.3-0.3","battery-v0.2","","""event"",""trial"",""time""
""fullscreenenter"",""1"",""1170""
","
","
","""event"",""trial"",""time""
""fullscreenenter"",""1"",""1170""
","
","","","-1","","","20","15931","6205","&#9761;","elianto","#3366ff99","-1","-1","1","+10","[]","0","0","2","","","","","","","",""
"pit-trial","53","435555","0.0-2.0-11.3-1.3","battery-v0.2","","""event"",""trial"",""time""
""fullscreenenter"",""1"",""1170""
","
","
","""event"",""trial"",""time""
""fullscreenenter"",""1"",""1170""
","
","","","-1","","","20","15931","6205","&#9761;","elianto","#3366ff99","-1","-1","1","+10","[]","0","0","2","","","","","","","",""
"pit-trial","54","440412","0.0-2.0-11.3-2.3","battery-v0.2","","""event"",""trial"",""time""
""fullscreenenter"",""1"",""1170""
","
","
","""event"",""trial"",""time""
""fullscreenenter"",""1"",""1170""
","
","","","-1","","","20","15931","6205","&#9761;","elianto","#3366ff99","-1","-1","1","+10","[]","0","0","2","","","","","","","",""
"pit-trial","55","445267","0.0-2.0-11.3-3.3","battery-v0.2","","""event"",""trial"",""time""
""fullscreenenter"",""1"",""1170""
","
","
","""event"",""trial"",""time""
""fullscreenenter"",""1"",""1170""
","
","","","-1","","","20","15931","6205","&#9761;","elianto","#3366ff99","-1","-1","1","0","[]","0","0","2","","","","","","","",""
"pit-trial","56","450123","0.0-2.0-11.3-4.3","battery-v0.2","","""event"",""trial"",""time""
""fullscreenenter"",""1"",""1170""
","
","
","""event"",""trial"",""time""
""fullscreenenter"",""1"",""1170""
","
","","","-1","","","20","15931","6205","&#9761;","elianto","#3366ff99","-1","-1","1","+10","[]","0","0","2","","","","","","","",""
"call-function","57","450127","0.0-2.0-12.0","battery-v0.2","","""event"",""trial"",""time""
""fullscreenenter"",""1"",""1170""
","
","
","""event"",""trial"",""time""
""fullscreenenter"",""1"",""1170""
","
","","","","","","","","","","","","","","","","","","","","","","","","","","",""
"pit-instructions","58","480177","0.0-2.0-13.0","battery-v0.2","","""event"",""trial"",""time""
""fullscreenenter"",""1"",""1170""
","
","
","""event"",""trial"",""time""
""fullscreenenter"",""1"",""1170""
","
","","[{""page_index"":0,""viewing_time"":4717.300000011921},{""page_index"":1,""viewing_time"":6881.299999982119},{""page_index"":2,""viewing_time"":3233.7000000178814},{""page_index"":3,""viewing_time"":10149.59999999404},{""page_index"":4,""viewing_time"":5068.299999982119}]","30050.90000000596","","","","","","","","","","","","","","","","","","","","","","","",""
"pit-trial","59","483547","0.0-2.0-14.0-0.0","battery-v0.2","","""event"",""trial"",""time""
""fullscreenenter"",""1"",""1170""
","
","
","""event"",""trial"",""time""
""fullscreenenter"",""1"",""1170""
","
","","","514.5999999940395","","","20","15931","6205","&#9826;","elianto","#f73b6a7A","-1"," ","0","-10","[1364.8999999761581]","1","0","3","","","","","","","",""
"pit-trial","60","488410","0.0-2.0-14.0-1.0","battery-v0.2","","""event"",""trial"",""time""
""fullscreenenter"",""1"",""1170""
","
","
","""event"",""trial"",""time""
""fullscreenenter"",""1"",""1170""
","
","","","-1","","","20","15931","6205","&#9826;","elianto","#f73b6a7A","-1","-1","1","0","[]","0","0","3","","","","","","","",""
"pit-trial","61","493267","0.0-2.0-14.0-2.0","battery-v0.2","","""event"",""trial"",""time""
""fullscreenenter"",""1"",""1170""
","
","
","""event"",""trial"",""time""
""fullscreenenter"",""1"",""1170""
","
","","","-1","","","20","15931","6205","&#9826;","elianto","#f73b6a7A","-1","-1","1","0","[]","0","0","3","","","","","","","",""
"pit-trial","62","498123","0.0-2.0-14.0-3.0","battery-v0.2","","""event"",""trial"",""time""
""fullscreenenter"",""1"",""1170""
","
","
","""event"",""trial"",""time""
""fullscreenenter"",""1"",""1170""
","
","","","-1","","","20","15931","6205","&#9826;","elianto","#f73b6a7A","-1","-1","1","-10","[3669.199999988079]","1","0","3","","","","","","","",""
"pit-trial","63","501505","0.0-2.0-14.0-4.0","battery-v0.2","","""event"",""trial"",""time""
""fullscreenenter"",""1"",""1170""
","
","
","""event"",""trial"",""time""
""fullscreenenter"",""1"",""1170""
","
","","","524.8999999761581","","","20","15931","6205","&#9826;","elianto","#f73b6a7A","-1"," ","0","-10","[1376.7999999821186]","1","0","3","","","","","","","",""
"pit-trial","64","506364","0.0-2.0-14.1-0.1","battery-v0.2","","""event"",""trial"",""time""
""fullscreenenter"",""1"",""1170""
","
","
","""event"",""trial"",""time""
""fullscreenenter"",""1"",""1170""
","
","","","-1","","","20","15931","6205","&#9826;","elianto","#f73b6a7A","-1","-1","1","0","[]","0","0","3","","","","","","","",""
"pit-trial","65","511220","0.0-2.0-14.1-1.1","battery-v0.2","","""event"",""trial"",""time""
""fullscreenenter"",""1"",""1170""
","
","
","""event"",""trial"",""time""
""fullscreenenter"",""1"",""1170""
","
","","","-1","","","20","15931","6205","&#9826;","elianto","#f73b6a7A","-1","-1","1","0","[]","0","0","3","","","","","","","",""
"pit-trial","66","516077","0.0-2.0-14.1-2.1","battery-v0.2","","""event"",""trial"",""time""
""fullscreenenter"",""1"",""1170""
","
","
","""event"",""trial"",""time""
""fullscreenenter"",""1"",""1170""
","
","","","-1","","","20","15931","6205","&#9826;","elianto","#f73b6a7A","-1","-1","1","0","[]","0","0","3","","","","","","","",""
"pit-trial","67","520933","0.0-2.0-14.1-3.1","battery-v0.2","","""event"",""trial"",""time""
""fullscreenenter"",""1"",""1170""
","
","
","""event"",""trial"",""time""
""fullscreenenter"",""1"",""1170""
","
","","","-1","","","20","15931","6205","&#9826;","elianto","#f73b6a7A","-1","-1","1","-10","[]","0","0","3","","","","","","","",""
"pit-trial","68","525789","0.0-2.0-14.1-4.1","battery-v0.2","","""event"",""trial"",""time""
""fullscreenenter"",""1"",""1170""
","
","
","""event"",""trial"",""time""
""fullscreenenter"",""1"",""1170""
","
","","","-1","","","20","15931","6205","&#9826;","elianto","#f73b6a7A","-1","-1","1","0","[]","0","0","3","","","","","","","",""
"pit-trial","69","530647","0.0-2.0-14.2-0.2","battery-v0.2","","""event"",""trial"",""time""
""fullscreenenter"",""1"",""1170""
","
","
","""event"",""trial"",""time""
""fullscreenenter"",""1"",""1170""
","
","","","-1","","","20","15931","6205","&#9826;","elianto","#f73b6a7A","-1","-1","1","0","[]","0","0","3","","","","","","","",""
"pit-trial","70","535503","0.0-2.0-14.2-1.2","battery-v0.2","","""event"",""trial"",""time""
""fullscreenenter"",""1"",""1170""
","
","
","""event"",""trial"",""time""
""fullscreenenter"",""1"",""1170""
","
","","","-1","","","20","15931","6205","&#9826;","elianto","#f73b6a7A","-1","-1","1","0","[]","0","0","3","","","","","","","",""
"pit-trial","71","540359","0.0-2.0-14.2-2.2","battery-v0.2","","""event"",""trial"",""time""
""fullscreenenter"",""1"",""1170""
","
","
","""event"",""trial"",""time""
""fullscreenenter"",""1"",""1170""
","
","","","-1","","","20","15931","6205","&#9826;","elianto","#f73b6a7A","-1","-1","1","0","[]","0","0","3","","","","","","","",""
"pit-trial","72","545215","0.0-2.0-14.2-3.2","battery-v0.2","","""event"",""trial"",""time""
""fullscreenenter"",""1"",""1170""
","
","
","""event"",""trial"",""time""
""fullscreenenter"",""1"",""1170""
","
","","","-1","","","20","15931","6205","&#9826;","elianto","#f73b6a7A","-1","-1","1","-10","[]","0","0","3","","","","","","","",""
"pit-trial","73","550073","0.0-2.0-14.2-4.2","battery-v0.2","","""event"",""trial"",""time""
""fullscreenenter"",""1"",""1170""
","
","
","""event"",""trial"",""time""
""fullscreenenter"",""1"",""1170""
","
","","","-1","","","20","15931","6205","&#9826;","elianto","#f73b6a7A","-1","-1","1","0","[]","0","0","3","","","","","","","",""
"pit-trial","74","554933","0.0-2.0-14.3-0.3","battery-v0.2","","""event"",""trial"",""time""
""fullscreenenter"",""1"",""1170""
","
","
","""event"",""trial"",""time""
""fullscreenenter"",""1"",""1170""
","
","","","-1","","","20","15931","6205","&#9826;","elianto","#f73b6a7A","-1","-1","1","0","[]","0","0","3","","","","","","","",""
"pit-trial","75","559789","0.0-2.0-14.3-1.3","battery-v0.2","","""event"",""trial"",""time""
""fullscreenenter"",""1"",""1170""
","
","
","""event"",""trial"",""time""
""fullscreenenter"",""1"",""1170""
","
","","","-1","","","20","15931","6205","&#9826;","elianto","#f73b6a7A","-1","-1","1","0","[]","0","0","3","","","","","","","",""
"pit-trial","76","564646","0.0-2.0-14.3-2.3","battery-v0.2","","""event"",""trial"",""time""
""fullscreenenter"",""1"",""1170""
","
","
","""event"",""trial"",""time""
""fullscreenenter"",""1"",""1170""
","
","","","-1","","","20","15931","6205","&#9826;","elianto","#f73b6a7A","-1","-1","1","0","[]","0","0","3","","","","","","","",""
"pit-trial","77","569501","0.0-2.0-14.3-3.3","battery-v0.2","","""event"",""trial"",""time""
""fullscreenenter"",""1"",""1170""
","
","
","""event"",""trial"",""time""
""fullscreenenter"",""1"",""1170""
","
","","","-1","","","20","15931","6205","&#9826;","elianto","#f73b6a7A","-1","-1","1","-10","[]","0","0","3","","","","","","","",""
"pit-trial","78","574358","0.0-2.0-14.3-4.3","battery-v0.2","","""event"",""trial"",""time""
""fullscreenenter"",""1"",""1170""
","
","
","""event"",""trial"",""time""
""fullscreenenter"",""1"",""1170""
","
","","","-1","","","20","15931","6205","&#9826;","elianto","#f73b6a7A","-1","-1","1","0","[]","0","0","3","","","","","","","",""
"call-function","79","574363","0.0-2.0-15.0","battery-v0.2","","""event"",""trial"",""time""
""fullscreenenter"",""1"",""1170""
","
","
","""event"",""trial"",""time""
""fullscreenenter"",""1"",""1170""
","
","","","","","","","","","","","","","","","","","","","","","","","","","","",""
"pit-instructions","80","598221","0.0-2.0-16.0","battery-v0.2","","""event"",""trial"",""time""
""fullscreenenter"",""1"",""1170""
","
","
","""event"",""trial"",""time""
""fullscreenenter"",""1"",""1170""
","
","","[{""page_index"":0,""viewing_time"":6006.0999999940395},{""page_index"":1,""viewing_time"":9333.800000011921},{""page_index"":2,""viewing_time"":4467.5999999940395},{""page_index"":3,""viewing_time"":4050.0999999940395}]","23858.19999998808","","","","","","","","","","","","","","","","","","","","","","","",""
"pit-trial","81","601666","0.0-2.0-17.0-0.0","battery-v0.2","","""event"",""trial"",""time""
""fullscreenenter"",""1"",""1170""
","
","
","""event"",""trial"",""time""
""fullscreenenter"",""1"",""1170""
","
","","","589.4000000059605","","","20","15931","6205","&#9789;","elianto","#f73b6a7A"," "," ","1","0","[1440.9000000059605]","1","0","4","","","","","","","",""
"pit-trial","82","604998","0.0-2.0-17.0-1.0","battery-v0.2","","""event"",""trial"",""time""
""fullscreenenter"",""1"",""1170""
","
","
","""event"",""trial"",""time""
""fullscreenenter"",""1"",""1170""
","
","","","476.10000002384186","","","20","15931","6205","&#9789;","elianto","#f73b6a7A"," "," ","1","0","[1327.0999999940395]","1","0","4","","","","","","","",""
"pit-trial","83","608311","0.0-2.0-17.0-2.0","battery-v0.2","","""event"",""trial"",""time""
""fullscreenenter"",""1"",""1170""
","
","
","""event"",""trial"",""time""
""fullscreenenter"",""1"",""1170""
","
","","","456.59999999403954","","","20","15931","6205","&#9789;","elianto","#f73b6a7A"," "," ","1","0","[1307.5999999940395]","1","0","4","","","","","","","",""
"pit-trial","84","611736","0.0-2.0-17.0-3.0","battery-v0.2","","""event"",""trial"",""time""
""fullscreenenter"",""1"",""1170""
","
","
","""event"",""trial"",""time""
""fullscreenenter"",""1"",""1170""
","
","","","569.2999999821186","","","20","15931","6205","&#9789;","elianto","#f73b6a7A"," "," ","1","-10","[1420.5]","1","0","4","","","","","","","",""
"pit-trial","85","614887","0.0-2.0-17.0-4.0","battery-v0.2","","""event"",""trial"",""time""
""fullscreenenter"",""1"",""1170""
","
","
","""event"",""trial"",""time""
""fullscreenenter"",""1"",""1170""
","
","","","293.80000001192093","","","20","15931","6205","&#9789;","elianto","#f73b6a7A"," "," ","1","0","[1145.5]","1","0","4","","","","","","","",""
"pit-trial","86","618211","0.0-2.0-17.1-0.1","battery-v0.2","","""event"",""trial"",""time""
""fullscreenenter"",""1"",""1170""
","
","
","""event"",""trial"",""time""
""fullscreenenter"",""1"",""1170""
","
","","","465.69999998807907","","","20","15931","6205","&#9789;","elianto","#f73b6a7A"," "," ","1","0","[1317]","1","0","4","","","","","","","",""
"pit-trial","87","621444","0.0-2.0-17.1-1.1","battery-v0.2","","""event"",""trial"",""time""
""fullscreenenter"",""1"",""1170""
","
","
","""event"",""trial"",""time""
""fullscreenenter"",""1"",""1170""
","
","","","377.09999999403954","","","20","15931","6205","&#9789;","elianto","#f73b6a7A"," "," ","1","0","[1228.0999999940395]","1","0","4","","","","","","","",""
"pit-trial","88","625013","0.0-2.0-17.1-2.1","battery-v0.2","","""event"",""trial"",""time""
""fullscreenenter"",""1"",""1170""
","
","
","""event"",""trial"",""time""
""fullscreenenter"",""1"",""1170""
","
","","","713.7999999821186","","","20","15931","6205","&#9789;","elianto","#f73b6a7A"," "," ","1","0","[1564.199999988079]","1","0","4","","","","","","","",""
"pit-trial","89","628298","0.0-2.0-17.1-3.1","battery-v0.2","","""event"",""trial"",""time""
""fullscreenenter"",""1"",""1170""
","
","
","""event"",""trial"",""time""
""fullscreenenter"",""1"",""1170""
","
","","","430.59999999403954","","","20","15931","6205","&#9789;","elianto","#f73b6a7A"," "," ","1","-10","[1281.800000011921]","1","0","4","","","","","","","",""
"pit-trial","90","632262","0.0-2.0-17.1-4.1","battery-v0.2","","""event"",""trial"",""time""
""fullscreenenter"",""1"",""1170""
","
","
","""event"",""trial"",""time""
""fullscreenenter"",""1"",""1170""
","
","","","1107.800000011921","","","20","15931","6205","&#9789;","elianto","#f73b6a7A"," "," ","1","0","[1959]","1","0","4","","","","","","","",""
"pit-trial","91","635547","0.0-2.0-17.2-0.2","battery-v0.2","","""event"",""trial"",""time""
""fullscreenenter"",""1"",""1170""
","
","
","""event"",""trial"",""time""
""fullscreenenter"",""1"",""1170""
","
","","","427.40000000596046","","","20","15931","6205","&#9789;","elianto","#f73b6a7A"," "," ","1","0","[1279.5]","1","0","4","","","","","","","",""
"pit-trial","92","638662","0.0-2.0-17.2-1.2","battery-v0.2","","""event"",""trial"",""time""
""fullscreenenter"",""1"",""1170""
","
","
","""event"",""trial"",""time""
""fullscreenenter"",""1"",""1170""
","
","","","259.09999999403954","","","20","15931","6205","&#9789;","elianto","#f73b6a7A"," "," ","1","0","[1110.3999999761581]","1","0","4","","","","","","","",""
"pit-trial","93","641643","0.0-2.0-17.2-2.2","battery-v0.2","","""event"",""trial"",""time""
""fullscreenenter"",""1"",""1170""
","
","
","""event"",""trial"",""time""
""fullscreenenter"",""1"",""1170""
","
","","","125.5","","","20","15931","6205","&#9789;","elianto","#f73b6a7A"," "," ","1","0","[529.2000000178814,977]","2","0","4","","","","","","","",""
"pit-trial","94","644895","0.0-2.0-17.2-3.2","battery-v0.2","","""event"",""trial"",""time""
""fullscreenenter"",""1"",""1170""
","
","
","""event"",""trial"",""time""
""fullscreenenter"",""1"",""1170""
","
","","","395.5","","","20","15931","6205","&#9789;","elianto","#f73b6a7A"," "," ","1","-10","[1246.5999999940395]","1","0","4","","","","","","","",""
"pit-trial","95","648299","0.0-2.0-17.2-4.2","battery-v0.2","","""event"",""trial"",""time""
""fullscreenenter"",""1"",""1170""
","
","
","""event"",""trial"",""time""
""fullscreenenter"",""1"",""1170""
","
","","","548.6999999880791","","","20","15931","6205","&#9789;","elianto","#f73b6a7A"," "," ","1","0","[1399.800000011921]","1","0","4","","","","","","","",""
"pit-trial","96","651679","0.0-2.0-17.3-0.3","battery-v0.2","","""event"",""trial"",""time""
""fullscreenenter"",""1"",""1170""
","
","
","""event"",""trial"",""time""
""fullscreenenter"",""1"",""1170""
","
","","","522.4000000059605","","","20","15931","6205","&#9789;","elianto","#f73b6a7A"," "," ","1","0","[1373.2999999821186,2120.9000000059605]","2","0","4","","","","","","","",""
"pit-trial","97","655078","0.0-2.0-17.3-1.3","battery-v0.2","","""event"",""trial"",""time""
""fullscreenenter"",""1"",""1170""
","
","
","""event"",""trial"",""time""
""fullscreenenter"",""1"",""1170""
","
","","","543.8000000119209","","","20","15931","6205","&#9789;","elianto","#f73b6a7A"," "," ","1","0","[1395,1957.6000000238419]","2","0","4","","","","","","","",""
"pit-trial","98","658415","0.0-2.0-17.3-2.3","battery-v0.2","","""event"",""trial"",""time""
""fullscreenenter"",""1"",""1170""
","
","
","""event"",""trial"",""time""
""fullscreenenter"",""1"",""1170""
","
","","","481.80000001192093","","","20","15931","6205","&#9789;","elianto","#f73b6a7A"," "," ","1","0","[392,1332.199999988079,2102,2912]","4","0","4","","","","","","","",""
"pit-trial","99","662396","0.0-2.0-17.3-3.3","battery-v0.2","","""event"",""trial"",""time""
""fullscreenenter"",""1"",""1170""
","
","
","""event"",""trial"",""time""
""fullscreenenter"",""1"",""1170""
","
","","","1116.9000000059605","","","20","15931","6205","&#9789;","elianto","#f73b6a7A"," "," ","1","-10","[1967.9000000059605,3870.7000000178814]","2","0","4","","","","","","","",""
"pit-trial","100","665848","0.0-2.0-17.3-4.3","battery-v0.2","","""event"",""trial"",""time""
""fullscreenenter"",""1"",""1170""
","
","
","""event"",""trial"",""time""
""fullscreenenter"",""1"",""1170""
","
","","","595.9000000059605","","","20","15931","6205","&#9789;","elianto","#f73b6a7A"," "," ","1","0","[1447]","1","0","4","","","","","","","",""
"call-function","101","665853","0.0-2.0-18.0","battery-v0.2","","""event"",""trial"",""time""
""fullscreenenter"",""1"",""1170""
","
","
","""event"",""trial"",""time""
""fullscreenenter"",""1"",""1170""
","
","","","","","","","","","","","","","","","","","","","","","","","","","","",""
"pit-instructions","102","727249","0.0-2.0-19.0","battery-v0.2","","""event"",""trial"",""time""
""fullscreenenter"",""1"",""1170""
","
","
","""event"",""trial"",""time""
""fullscreenenter"",""1"",""1170""
","
","","[{""page_index"":0,""viewing_time"":6648.299999982119},{""page_index"":1,""viewing_time"":6565.5},{""page_index"":2,""viewing_time"":8617.800000011921},{""page_index"":3,""viewing_time"":7132.9000000059605},{""page_index"":4,""viewing_time"":6332},{""page_index"":5,""viewing_time"":8666},{""page_index"":6,""viewing_time"":7968.0999999940395},{""page_index"":7,""viewing_time"":5833.799999982119},{""page_index"":8,""viewing_time"":3633.600000023842}]","61398.5","","","","","","","","","","","","","","","","","","","","","","","",""
"pit-comprehension","103","731273","0.0-2.0-20.0-0.0","battery-v0.2","","""event"",""trial"",""time""
""fullscreenenter"",""1"",""1170""
","
","
","""event"",""trial"",""time""
""fullscreenenter"",""1"",""1170""
","
","","","4019.2000000178814","[""SPACE""]","0","20","15931","6205","","","","","","","","","","","","","","","","","","",""
"pit-instructions","104","734214","0.0-2.0-20.0-1.0","battery-v0.2","","""event"",""trial"",""time""
""fullscreenenter"",""1"",""1170""
","
","
","""event"",""trial"",""time""
""fullscreenenter"",""1"",""1170""
","
","","[{""page_index"":0,""viewing_time"":2914.2000000178814}]","2914.5999999940395","","","","","","","","","","","","","","","","","","","","","","","",""
"pit-comprehension","105","739683","0.0-2.0-21.0-0.0","battery-v0.2","","""event"",""trial"",""time""
""fullscreenenter"",""1"",""1170""
","
","
","""event"",""trial"",""time""
""fullscreenenter"",""1"",""1170""
","
","","","5465.0999999940395","[""10""]","0","20","15931","6205","","","","","","","","","","","","","","","","","","",""
"pit-instructions","106","740847","0.0-2.0-21.0-1.0","battery-v0.2","","""event"",""trial"",""time""
""fullscreenenter"",""1"",""1170""
","
","
","""event"",""trial"",""time""
""fullscreenenter"",""1"",""1170""
","
","","[{""page_index"":0,""viewing_time"":1144}]","1144.199999988079","","","","","","","","","","","","","","","","","","","","","","","",""
"pit-comprehension","107","746934","0.0-2.0-22.0-0.0","battery-v0.2","","""event"",""trial"",""time""
""fullscreenenter"",""1"",""1170""
","
","
","""event"",""trial"",""time""
""fullscreenenter"",""1"",""1170""
","
","","","6084.699999988079","[""-10""]","1","20","15931","6205","","","","","","","","","","","","","","","","","","",""
"pit-instructions","108","751131","0.0-2.0-22.0-1.0","battery-v0.2","","""event"",""trial"",""time""
""fullscreenenter"",""1"",""1170""
","
","
","""event"",""trial"",""time""
""fullscreenenter"",""1"",""1170""
","
","","[{""page_index"":0,""viewing_time"":4176.4000000059605}]","4176.9000000059605","","","","","","","","","","","","","","","","","","","","","","","",""
"pit-instructions","109","752196","0.0-2.0-22.0-2.0-0.0","battery-v0.2","","""event"",""trial"",""time""
""fullscreenenter"",""1"",""1170""
","
","
","""event"",""trial"",""time""
""fullscreenenter"",""1"",""1170""
","
","","[{""page_index"":0,""viewing_time"":1062.3999999761581}]","1062.5999999940395","","","","","","","","","","","","","","","","","","","","","","","",""
"pit-comprehension","110","758381","0.0-2.0-22.1-0.1","battery-v0.2","","""event"",""trial"",""time""
""fullscreenenter"",""1"",""1170""
","
","
","""event"",""trial"",""time""
""fullscreenenter"",""1"",""1170""
","
","","","6183.799999982119","[""0""]","0","20","15931","6205","","","","","","","","","","","","","","","","","","",""
"pit-instructions","111","759996","0.0-2.0-22.1-1.1","battery-v0.2","","""event"",""trial"",""time""
""fullscreenenter"",""1"",""1170""
","
","
","""event"",""trial"",""time""
""fullscreenenter"",""1"",""1170""
","
","","[{""page_index"":0,""viewing_time"":1594.5}]","1594.800000011921","","","","","","","","","","","","","","","","","","","","","","","",""
"pit-comprehension","112","768312","0.0-2.0-23.0-0.0","battery-v0.2","","""event"",""trial"",""time""
""fullscreenenter"",""1"",""1170""
","
","
","""event"",""trial"",""time""
""fullscreenenter"",""1"",""1170""
","
","","","8314.699999988079","[""True""]","0","20","15931","6205","","","","","","","","","","","","","","","","","","",""
"pit-instructions","113","769748","0.0-2.0-23.0-1.0","battery-v0.2","","""event"",""trial"",""time""
""fullscreenenter"",""1"",""1170""
","
","
","""event"",""trial"",""time""
""fullscreenenter"",""1"",""1170""
","
","","[{""page_index"":0,""viewing_time"":1417.199999988079}]","1417.8999999761581","","","","","","","","","","","","","","","","","","","","","","","",""
"pit-comprehension","114","777115","0.0-2.0-24.0-0.0","battery-v0.2","","""event"",""trial"",""time""
""fullscreenenter"",""1"",""1170""
","
","
","""event"",""trial"",""time""
""fullscreenenter"",""1"",""1170""
","
","","","7362.299999982119","[""True""]","0","20","15931","6205","","","","","","","","","","","","","","","","","","",""
"pit-instructions","115","778881","0.0-2.0-24.0-1.0","battery-v0.2","","""event"",""trial"",""time""
""fullscreenenter"",""1"",""1170""
","
","
","""event"",""trial"",""time""
""fullscreenenter"",""1"",""1170""
","
","","[{""page_index"":0,""viewing_time"":1742.0999999940395}]","1742.5999999940395","","","","","","","","","","","","","","","","","","","","","","","",""
"pit-comprehension","116","785511","0.0-2.0-25.0-0.0","battery-v0.2","","""event"",""trial"",""time""
""fullscreenenter"",""1"",""1170""
","
","
","""event"",""trial"",""time""
""fullscreenenter"",""1"",""1170""
","
","","","6626.199999988079","[""True""]","0","20","15931","6205","","","","","","","","","","","","","","","","","","",""
"pit-instructions","117","787584","0.0-2.0-25.0-1.0","battery-v0.2","","""event"",""trial"",""time""
""fullscreenenter"",""1"",""1170""
","
","
","""event"",""trial"",""time""
""fullscreenenter"",""1"",""1170""
","
","","[{""page_index"":0,""viewing_time"":2056.5999999940395}]","2057","","","","","","","","","","","","","","","","","","","","","","","",""
"pit-comprehension","118","791964","0.0-2.0-26.0-0.0","battery-v0.2","","""event"",""trial"",""time""
""fullscreenenter"",""1"",""1170""
","
","
","""event"",""trial"",""time""
""fullscreenenter"",""1"",""1170""
","
","","","4376.899999976158","[""False""]","0","20","15931","6205","","","","","","","","","","","","","","","","","","",""
"pit-instructions","119","793563","0.0-2.0-26.0-1.0","battery-v0.2","","""event"",""trial"",""time""
""fullscreenenter"",""1"",""1170""
","
","
","""event"",""trial"",""time""
""fullscreenenter"",""1"",""1170""
","
","","[{""page_index"":0,""viewing_time"":1575.800000011921}]","1576.300000011921","","","","","","","","","","","","","","","","","","","","","","","",""
"pit-instructions","120","809428","0.0-3.0","battery-v0.2","","""event"",""trial"",""time""
""fullscreenenter"",""1"",""1170""
","
","
","""event"",""trial"",""time""
""fullscreenenter"",""1"",""1170""
","
","","[{""page_index"":0,""viewing_time"":3913.5},{""page_index"":1,""viewing_time"":5217.799999982119},{""page_index"":2,""viewing_time"":6731.4000000059605}]","15863.199999988079","","","","","","","","","","","","","","","","","","","","","","","",""
"pit-trial","121","813240","0.0-4.0","battery-v0.2","","""event"",""trial"",""time""
""fullscreenenter"",""1"",""1170""
","
","
","""event"",""trial"",""time""
""fullscreenenter"",""1"",""1170""
","
","","","953.5","","","20","15931","6205","&#9728;","elianto","#f73b6a7A","-1"," ","0","-10","[1804.4000000059605]","1","1","","","15931","1","0","4","lose","no-go","0"
"pit-trial","122","816901","0.0-5.0","battery-v0.2","","""event"",""trial"",""time""
""fullscreenenter"",""1"",""1170""
","
","
","""event"",""trial"",""time""
""fullscreenenter"",""1"",""1170""
","
","","","804.3000000119209","","","20","15931","6205","&#9752;","elianto","#f73b6a7A"," "," ","1","0","[1655.699999988079]","1","1","","","15931","2","3","3","lose","go","0"
"pit-trial","123","820618","0.0-6.0","battery-v0.2","","""event"",""trial"",""time""
""fullscreenenter"",""1"",""1170""
","
","
","""event"",""trial"",""time""
""fullscreenenter"",""1"",""1170""
","
","","","859.9000000059605","","","20","15931","6205","&#9733;","elianto","#3366ff99","-1"," ","0","0","[1711]","1","1","","","15931","3","2","2","win","no-go","0"
"pit-trial","124","824904","0.0-7.0","battery-v0.2","","""event"",""trial"",""time""
""fullscreenenter"",""1"",""1170""
","
","
","""event"",""trial"",""time""
""fullscreenenter"",""1"",""1170""
","
","","","1430.7000000178814","","","20","15931","6205","&#9730;","elianto","#3366ff99"," "," ","1","+10","[2281.300000011921]","1","1","","","15931","4","1","1","win","go","0"
"pit-trial","125","828970","0.0-8.0","battery-v0.2","","""event"",""trial"",""time""
""fullscreenenter"",""1"",""1170""
","
","
","""event"",""trial"",""time""
""fullscreenenter"",""1"",""1170""
","
","","","1209.800000011921","","","20","15931","6205","&#9728;","elianto","#f73b6a7A","-1"," ","0","-10","[2060.5]","1","1","","","15931","5","0","4","lose","no-go","0"
"pit-trial","126","832668","0.0-9.0","battery-v0.2","","""event"",""trial"",""time""
""fullscreenenter"",""1"",""1170""
","
","
","""event"",""trial"",""time""
""fullscreenenter"",""1"",""1170""
","
","","","843","","","20","15931","6205","&#9730;","elianto","#3366ff99"," "," ","1","+10","[1693]","1","1","","","15931","6","1","1","win","go","0"
"pit-trial","127","836770","0.0-10.0","battery-v0.2","","""event"",""trial"",""time""
""fullscreenenter"",""1"",""1170""
","
","
","""event"",""trial"",""time""
""fullscreenenter"",""1"",""1170""
","
","","","1245.300000011921","","","20","15931","6205","&#9752;","elianto","#f73b6a7A"," "," ","1","0","[2097.0999999940395]","1","1","","","15931","7","3","3","lose","go","0"
"pit-trial","128","840739","0.0-11.0","battery-v0.2","","""event"",""trial"",""time""
""fullscreenenter"",""1"",""1170""
","
","
","""event"",""trial"",""time""
""fullscreenenter"",""1"",""1170""
","
","","","1112.9000000059605","","","20","15931","6205","&#9733;","elianto","#3366ff99","-1"," ","0","+10","[1964.300000011921]","1","1","","","15931","8","2","2","win","no-go","1"
"pit-trial","129","844799","0.0-12.0","battery-v0.2","","""event"",""trial"",""time""
""fullscreenenter"",""1"",""1170""
","
","
","""event"",""trial"",""time""
""fullscreenenter"",""1"",""1170""
","
","","","1204.0999999940395","","","20","15931","6205","&#9752;","elianto","#f73b6a7A"," "," ","1","0","[2055.2000000178814]","1","1","","","15931","9","3","3","lose","go","0"
"pit-trial","130","849657","0.0-13.0","battery-v0.2","","""event"",""trial"",""time""
""fullscreenenter"",""1"",""1170""
","
","
","""event"",""trial"",""time""
""fullscreenenter"",""1"",""1170""
","
","","","-1","","","20","15931","6205","&#9728;","elianto","#f73b6a7A","-1","-1","1","-10","[]","0","1","","","15931","10","0","4","lose","no-go","1"
"pit-trial","131","853099","0.0-14.0","battery-v0.2","","""event"",""trial"",""time""
""fullscreenenter"",""1"",""1170""
","
","
","""event"",""trial"",""time""
""fullscreenenter"",""1"",""1170""
","
","","","585.5","","","20","15931","6205","&#9733;","elianto","#3366ff99","-1"," ","0","0","[1435.7999999821186]","1","1","","","15931","11","2","2","win","no-go","0"
"pit-trial","132","856492","0.0-15.0","battery-v0.2","","""event"",""trial"",""time""
""fullscreenenter"",""1"",""1170""
","
","
","""event"",""trial"",""time""
""fullscreenenter"",""1"",""1170""
","
","","","537.9000000059605","","","20","15931","6205","&#9730;","elianto","#3366ff99"," "," ","1","+10","[1389]","1","1","","","15931","12","1","1","win","go","0"
"pit-trial","133","860520","0.0-16.0","battery-v0.2","","""event"",""trial"",""time""
""fullscreenenter"",""1"",""1170""
","
","
","""event"",""trial"",""time""
""fullscreenenter"",""1"",""1170""
","
","","","1171.199999988079","","","20","15931","6205","&#9752;","elianto","#f73b6a7A"," "," ","1","0","[2023]","1","1","","","15931","13","3","3","lose","go","0"
"pit-trial","134","864106","0.0-17.0","battery-v0.2","","""event"",""trial"",""time""
""fullscreenenter"",""1"",""1170""
","
","
","""event"",""trial"",""time""
""fullscreenenter"",""1"",""1170""
","
","","","732.1000000238419","","","20","15931","6205","&#9728;","elianto","#f73b6a7A","-1"," ","0","0","[1582.1000000238419]","1","1","","","15931","14","0","4","lose","no-go","1"
"pit-trial","135","867821","0.0-18.0","battery-v0.2","","""event"",""trial"",""time""
""fullscreenenter"",""1"",""1170""
","
","
","""event"",""trial"",""time""
""fullscreenenter"",""1"",""1170""
","
","","","857.5","","","20","15931","6205","&#9730;","elianto","#3366ff99"," "," ","1","+10","[1709]","1","1","","","15931","15","1","1","win","go","0"
"pit-trial","136","872677","0.0-19.0","battery-v0.2","","""event"",""trial"",""time""
""fullscreenenter"",""1"",""1170""
","
","
","""event"",""trial"",""time""
""fullscreenenter"",""1"",""1170""
","
","","","-1","","","20","15931","6205","&#9733;","elianto","#3366ff99","-1","-1","1","+10","[]","0","1","","","15931","16","2","2","win","no-go","0"
"pit-trial","137","876185","0.0-20.0","battery-v0.2","","""event"",""trial"",""time""
""fullscreenenter"",""1"",""1170""
","
","
","""event"",""trial"",""time""
""fullscreenenter"",""1"",""1170""
","
","","","652.1999999880791","","","20","15931","6205","&#9728;","elianto","#f73b6a7A","-1"," ","0","0","[1503.699999988079]","1","1","","","15931","17","0","4","lose","no-go","1"
"pit-trial","138","879721","0.0-21.0","battery-v0.2","","""event"",""trial"",""time""
""fullscreenenter"",""1"",""1170""
","
","
","""event"",""trial"",""time""
""fullscreenenter"",""1"",""1170""
","
","","","681.3000000119209","","","20","15931","6205","&#9730;","elianto","#3366ff99"," "," ","1","+10","[1532]","1","1","","","15931","18","1","1","win","go","0"
"pit-trial","139","884577","0.0-22.0","battery-v0.2","","""event"",""trial"",""time""
""fullscreenenter"",""1"",""1170""
","
","
","""event"",""trial"",""time""
""fullscreenenter"",""1"",""1170""
","
","","","-1","","","20","15931","6205","&#9733;","elianto","#3366ff99","-1","-1","1","+10","[]","0","1","","","15931","19","2","2","win","no-go","0"
"pit-trial","140","889434","0.0-23.0","battery-v0.2","","""event"",""trial"",""time""
""fullscreenenter"",""1"",""1170""
","
","
","""event"",""trial"",""time""
""fullscreenenter"",""1"",""1170""
","
","","","-1","","","20","15931","6205","&#9752;","elianto","#f73b6a7A"," ","-1","0","-10","[]","0","1","","","15931","20","3","3","lose","go","0"
"pit-instructions","141","900975","0.0-24.0","battery-v0.2","","""event"",""trial"",""time""
""fullscreenenter"",""1"",""1170""
","
","
","""event"",""trial"",""time""
""fullscreenenter"",""1"",""1170""
","
","","[{""page_index"":0,""viewing_time"":5405.5999999940395},{""page_index"":1,""viewing_time"":6132.9000000059605}]","11539","","","","","","","","","","","","","","","","","","","","","","","",""
"pit-trial","142","904656","0.0-25.0","battery-v0.2","","""event"",""trial"",""time""
""fullscreenenter"",""1"",""1170""
","
","
","""event"",""trial"",""time""
""fullscreenenter"",""1"",""1170""
","
","","","824.2000000178814","","","20","15931","6205","n","elianto","#f73b6a7A"," "," ","1","0","[1676.2000000178814]","1","2","","","15931","21","0","3","lose","go","0"
"pit-trial","143","908361","0.0-26.0","battery-v0.2","","""event"",""trial"",""time""
""fullscreenenter"",""1"",""1170""
","
","
","""event"",""trial"",""time""
""fullscreenenter"",""1"",""1170""
","
","","","845.8000000119209","","","20","15931","6205","f","elianto","#3366ff99","-1"," ","0","0","[1697.800000011921]","1","2","","","15931","22","1","2","win","no-go","0"
"pit-trial","144","911983","0.0-27.0","battery-v0.2","","""event"",""trial"",""time""
""fullscreenenter"",""1"",""1170""
","
","
","""event"",""trial"",""time""
""fullscreenenter"",""1"",""1170""
","
","","","763.6999999880791","","","20","15931","6205","b","elianto","#f73b6a7A","-1"," ","0","0","[1615.300000011921]","1","2","","","15931","23","3","4","lose","no-go","1"
"pit-trial","145","915925","0.0-28.0","battery-v0.2","","""event"",""trial"",""time""
""fullscreenenter"",""1"",""1170""
","
","
","""event"",""trial"",""time""
""fullscreenenter"",""1"",""1170""
","
","","","1087.7000000178814","","","20","15931","6205","t","elianto","#f73b6a7A"," "," ","1","-10","[1938.7000000178814]","1","2","","","15931","24","2","3","lose","go","1"
"pit-trial","146","920781","0.0-29.0","battery-v0.2","","""event"",""trial"",""time""
""fullscreenenter"",""1"",""1170""
","
","
","""event"",""trial"",""time""
""fullscreenenter"",""1"",""1170""
","
","","","-1","","","20","15931","6205","t","elianto","#f73b6a7A"," ","-1","0","-10","[]","0","2","","","15931","25","2","3","lose","go","0"
"pit-trial","147","925021","0.0-30.0","battery-v0.2","","""event"",""trial"",""time""
""fullscreenenter"",""1"",""1170""
","
","
","""event"",""trial"",""time""
""fullscreenenter"",""1"",""1170""
","
","","","1383.2000000178814","","","20","15931","6205","n","elianto","#f73b6a7A"," "," ","1","0","[2235]","1","2","","","15931","26","0","3","lose","go","0"
"pit-trial","148","929631","0.0-31.0","battery-v0.2","","""event"",""trial"",""time""
""fullscreenenter"",""1"",""1170""
","
","
","""event"",""trial"",""time""
""fullscreenenter"",""1"",""1170""
","
","","","1755.5","","","20","15931","6205","b","elianto","#f73b6a7A","-1"," ","0","-10","[2606.199999988079]","1","2","","","15931","27","3","4","lose","no-go","0"
"pit-trial","149","933123","0.0-32.0","battery-v0.2","","""event"",""trial"",""time""
""fullscreenenter"",""1"",""1170""
","
","
","""event"",""trial"",""time""
""fullscreenenter"",""1"",""1170""
","
","","","635.4000000059605","","","20","15931","6205","f","elianto","#3366ff99","-1"," ","0","+10","[1487]","1","2","","","15931","28","1","2","win","no-go","1"
"pit-trial","150","937980","0.0-33.0","battery-v0.2","","""event"",""trial"",""time""
""fullscreenenter"",""1"",""1170""
","
","
","""event"",""trial"",""time""
""fullscreenenter"",""1"",""1170""
","
","","","-1","","","20","15931","6205","n","elianto","#f73b6a7A"," ","-1","0","-10","[]","0","2","","","15931","29","0","3","lose","go","0"
"pit-trial","151","942837","0.0-34.0","battery-v0.2","","""event"",""trial"",""time""
""fullscreenenter"",""1"",""1170""
","
","
","""event"",""trial"",""time""
""fullscreenenter"",""1"",""1170""
","
","","","-1","","","20","15931","6205","t","elianto","#f73b6a7A"," ","-1","0","-10","[3720.4000000059605]","1","2","","","15931","30","2","3","lose","go","0"
"pit-trial","152","946549","0.0-35.0","battery-v0.2","","""event"",""trial"",""time""
""fullscreenenter"",""1"",""1170""
","
","
","""event"",""trial"",""time""
""fullscreenenter"",""1"",""1170""
","
","","","854.1999999880791","","","20","15931","6205","b","elianto","#f73b6a7A","-1"," ","0","-10","[1706]","1","2","","","15931","31","3","4","lose","no-go","0"
"pit-trial","153","950064","0.0-36.0","battery-v0.2","","""event"",""trial"",""time""
""fullscreenenter"",""1"",""1170""
","
","
","""event"",""trial"",""time""
""fullscreenenter"",""1"",""1170""
","
","","","659.5999999940395","","","20","15931","6205","f","elianto","#3366ff99","-1"," ","0","0","[1510.2999999821186]","1","2","","","15931","32","1","2","win","no-go","0"
"pit-trial","154","954920","0.0-37.0","battery-v0.2","","""event"",""trial"",""time""
""fullscreenenter"",""1"",""1170""
","
","
","""event"",""trial"",""time""
""fullscreenenter"",""1"",""1170""
","
","","","-1","","","20","15931","6205","b","elianto","#f73b6a7A","-1","-1","1","-10","[]","0","2","","","15931","33","3","4","lose","no-go","1"
"pit-trial","155","958943","0.0-38.0","battery-v0.2","","""event"",""trial"",""time""
""fullscreenenter"",""1"",""1170""
","
","
","""event"",""trial"",""time""
""fullscreenenter"",""1"",""1170""
","
","","","1161.9000000059605","","","20","15931","6205","n","elianto","#f73b6a7A"," "," ","1","0","[2013.4000000059605]","1","2","","","15931","34","0","3","lose","go","0"
"pit-trial","156","962920","0.0-39.0","battery-v0.2","","""event"",""trial"",""time""
""fullscreenenter"",""1"",""1170""
","
","
","""event"",""trial"",""time""
""fullscreenenter"",""1"",""1170""
","
","","","1119.199999988079","","","20","15931","6205","f","elianto","#3366ff99","-1"," ","0","0","[1971.199999988079]","1","2","","","15931","35","1","2","win","no-go","0"
"pit-trial","157","966826","0.0-40.0","battery-v0.2","","""event"",""trial"",""time""
""fullscreenenter"",""1"",""1170""
","
","
","""event"",""trial"",""time""
""fullscreenenter"",""1"",""1170""
","
","","","1050.3999999761581","","","20","15931","6205","t","elianto","#f73b6a7A"," "," ","1","-10","[1901.0999999940395]","1","2","","","15931","36","2","3","lose","go","1"
"pit-trial","158","970615","0.0-41.0","battery-v0.2","","""event"",""trial"",""time""
""fullscreenenter"",""1"",""1170""
","
","
","""event"",""trial"",""time""
""fullscreenenter"",""1"",""1170""
","
","","","931.8000000119209","","","20","15931","6205","b","elianto","#f73b6a7A","-1"," ","0","-10","[1783.5999999940395]","1","2","","","15931","37","3","4","lose","no-go","0"
"pit-trial","159","975471","0.0-42.0","battery-v0.2","","""event"",""trial"",""time""
""fullscreenenter"",""1"",""1170""
","
","
","""event"",""trial"",""time""
""fullscreenenter"",""1"",""1170""
","
","","","-1","","","20","15931","6205","t","elianto","#f73b6a7A"," ","-1","0","-10","[]","0","2","","","15931","38","2","3","lose","go","0"
"pit-trial","160","980327","0.0-43.0","battery-v0.2","","""event"",""trial"",""time""
""fullscreenenter"",""1"",""1170""
","
","
","""event"",""trial"",""time""
""fullscreenenter"",""1"",""1170""
","
","","","-1","","","20","15931","6205","f","elianto","#3366ff99","-1","-1","1","+10","[]","0","2","","","15931","39","1","2","win","no-go","0"
"pit-trial","161","984454","0.0-44.0","battery-v0.2","","""event"",""trial"",""time""
""fullscreenenter"",""1"",""1170""
","
","
","""event"",""trial"",""time""
""fullscreenenter"",""1"",""1170""
","
","","","1271.4000000059605","","","20","15931","6205","n","elianto","#f73b6a7A"," "," ","1","0","[2121.7000000178814]","1","2","","","15931","40","0","3","lose","go","0"
"pit-trial","162","988014","0.0-45.0","battery-v0.2","","""event"",""trial"",""time""
""fullscreenenter"",""1"",""1170""
","
","
","""event"",""trial"",""time""
""fullscreenenter"",""1"",""1170""
","
","","","703.3000000119209","","","20","15931","6205","t","elianto","#f73b6a7A"," "," ","1","0","[1554.8999999761581]","1","2","","","15931","41","2","3","lose","go","0"
"pit-trial","163","992870","0.0-46.0","battery-v0.2","","""event"",""trial"",""time""
""fullscreenenter"",""1"",""1170""
","
","
","""event"",""trial"",""time""
""fullscreenenter"",""1"",""1170""
","
","","","-1","","","20","15931","6205","f","elianto","#3366ff99","-1","-1","1","+10","[]","0","2","","","15931","42","1","2","win","no-go","0"
"pit-trial","164","996354","0.0-47.0","battery-v0.2","","""event"",""trial"",""time""
""fullscreenenter"",""1"",""1170""
","
","
","""event"",""trial"",""time""
""fullscreenenter"",""1"",""1170""
","
","","","627.1999999880791","","","20","15931","6205","n","elianto","#f73b6a7A"," "," ","1","0","[1478.7999999821186]","1","2","","","15931","43","0","3","lose","go","0"
"pit-trial","165","1000096","0.0-48.0","battery-v0.2","","""event"",""trial"",""time""
""fullscreenenter"",""1"",""1170""
","
","
","""event"",""trial"",""time""
""fullscreenenter"",""1"",""1170""
","
","","","884.7999999821186","","","20","15931","6205","b","elianto","#f73b6a7A","-1"," ","0","0","[1736.0999999940395]","1","2","","","15931","44","3","4","lose","no-go","1"
"pit-trial","166","1003808","0.0-49.0","battery-v0.2","","""event"",""trial"",""time""
""fullscreenenter"",""1"",""1170""
","
","
","""event"",""trial"",""time""
""fullscreenenter"",""1"",""1170""
","
","","","856.6999999880791","","","20","15931","6205","n","elianto","#f73b6a7A"," "," ","1","-10","[1708.4000000059605]","1","2","","","15931","45","0","3","lose","go","1"
"pit-trial","167","1008665","0.0-50.0","battery-v0.2","","""event"",""trial"",""time""
""fullscreenenter"",""1"",""1170""
","
","
","""event"",""trial"",""time""
""fullscreenenter"",""1"",""1170""
","
","","","-1","","","20","15931","6205","f","elianto","#3366ff99","-1","-1","1","+10","[]","0","2","","","15931","46","1","2","win","no-go","0"
"pit-trial","168","1012768","0.0-51.0","battery-v0.2","","""event"",""trial"",""time""
""fullscreenenter"",""1"",""1170""
","
","
","""event"",""trial"",""time""
""fullscreenenter"",""1"",""1170""
","
","","","1246.5999999940395","","","20","15931","6205","t","elianto","#f73b6a7A"," "," ","1","0","[2098.199999988079]","1","2","","","15931","47","2","3","lose","go","0"
"pit-trial","169","1016695","0.0-52.0","battery-v0.2","","""event"",""trial"",""time""
""fullscreenenter"",""1"",""1170""
","
","
","""event"",""trial"",""time""
""fullscreenenter"",""1"",""1170""
","
","","","1071.7000000178814","","","20","15931","6205","b","elianto","#f73b6a7A","-1"," ","0","-10","[1922.2000000178814]","1","2","","","15931","48","3","4","lose","no-go","0"
"pit-trial","170","1020676","0.0-53.0","battery-v0.2","","""event"",""trial"",""time""
""fullscreenenter"",""1"",""1170""
","
","
","""event"",""trial"",""time""
""fullscreenenter"",""1"",""1170""
","
","","","1124.1000000238419","","","20","15931","6205","b","elianto","#f73b6a7A","-1"," ","0","-10","[1975.800000011921]","1","2","","","15931","49","3","4","lose","no-go","0"
"pit-trial","171","1025533","0.0-54.0","battery-v0.2","","""event"",""trial"",""time""
""fullscreenenter"",""1"",""1170""
","
","
","""event"",""trial"",""time""
""fullscreenenter"",""1"",""1170""
","
","","","-1","","","20","15931","6205","f","elianto","#3366ff99","-1","-1","1","+10","[]","0","2","","","15931","50","1","2","win","no-go","0"
"pit-trial","172","1029232","0.0-55.0","battery-v0.2","","""event"",""trial"",""time""
""fullscreenenter"",""1"",""1170""
","
","
","""event"",""trial"",""time""
""fullscreenenter"",""1"",""1170""
","
","","","834.0999999940395","","","20","15931","6205","t","elianto","#f73b6a7A"," "," ","1","-10","[1685.4000000059605]","1","2","","","15931","51","2","3","lose","go","1"
"pit-trial","173","1033178","0.0-56.0","battery-v0.2","","""event"",""trial"",""time""
""fullscreenenter"",""1"",""1170""
","
","
","""event"",""trial"",""time""
""fullscreenenter"",""1"",""1170""
","
","","","1088.6000000238419","","","20","15931","6205","n","elianto","#f73b6a7A"," "," ","1","0","[1939.6000000238419]","1","2","","","15931","52","0","3","lose","go","0"
"pit-trial","174","1038035","0.0-57.0","battery-v0.2","","""event"",""trial"",""time""
""fullscreenenter"",""1"",""1170""
","
","
","""event"",""trial"",""time""
""fullscreenenter"",""1"",""1170""
","
","","","-1","","","20","15931","6205","t","elianto","#f73b6a7A"," ","-1","0","-10","[]","0","2","","","15931","53","2","3","lose","go","0"
"pit-trial","175","1041618","0.0-58.0","battery-v0.2","","""event"",""trial"",""time""
""fullscreenenter"",""1"",""1170""
","
","
","""event"",""trial"",""time""
""fullscreenenter"",""1"",""1170""
","
","","","727.2000000178814","","","20","15931","6205","b","elianto","#f73b6a7A","-1"," ","0","0","[1578.0999999940395]","1","2","","","15931","54","3","4","lose","no-go","1"
"pit-trial","176","1046475","0.0-59.0","battery-v0.2","","""event"",""trial"",""time""
""fullscreenenter"",""1"",""1170""
","
","
","""event"",""trial"",""time""
""fullscreenenter"",""1"",""1170""
","
","","","-1","","","20","15931","6205","n","elianto","#f73b6a7A"," ","-1","0","-10","[3039.300000011921]","1","2","","","15931","55","0","3","lose","go","0"
"pit-trial","177","1051331","0.0-60.0","battery-v0.2","","""event"",""trial"",""time""
""fullscreenenter"",""1"",""1170""
","
","
","""event"",""trial"",""time""
""fullscreenenter"",""1"",""1170""
","
","","","-1","","","20","15931","6205","f","elianto","#3366ff99","-1","-1","1","+10","[]","0","2","","","15931","56","1","2","win","no-go","0"
"pit-trial","178","1055097","0.0-61.0","battery-v0.2","","""event"",""trial"",""time""
""fullscreenenter"",""1"",""1170""
","
","
","""event"",""trial"",""time""
""fullscreenenter"",""1"",""1170""
","
","","","910.5","","","20","15931","6205","t","elianto","#f73b6a7A"," "," ","1","0","[1760.699999988079]","1","2","","","15931","57","2","3","lose","go","0"
"pit-trial","179","1059365","0.0-62.0","battery-v0.2","","""event"",""trial"",""time""
""fullscreenenter"",""1"",""1170""
","
","
","""event"",""trial"",""time""
""fullscreenenter"",""1"",""1170""
","
","","","1412.4000000059605","","","20","15931","6205","c","elianto","#3366ff99"," "," ","1","+10","[2263.2999999821186]","1","2","","","15931","58","4","1","win","go","0"
"pit-trial","180","1064222","0.0-63.0","battery-v0.2","","""event"",""trial"",""time""
""fullscreenenter"",""1"",""1170""
","
","
","""event"",""trial"",""time""
""fullscreenenter"",""1"",""1170""
","
","","","-1","","","20","15931","6205","b","elianto","#f73b6a7A","-1","-1","1","0","[2986.7000000178814]","1","2","","","15931","59","3","4","lose","no-go","0"
"pit-trial","181","1067926","0.0-64.0","battery-v0.2","","""event"",""trial"",""time""
""fullscreenenter"",""1"",""1170""
","
","
","""event"",""trial"",""time""
""fullscreenenter"",""1"",""1170""
","
","","","846.5999999940395","","","20","15931","6205","n","elianto","#f73b6a7A"," "," ","1","0","[1698.699999988079]","1","2","","","15931","60","0","3","lose","go","0"
"pit-trial","182","1071519","0.0-65.0","battery-v0.2","","""event"",""trial"",""time""
""fullscreenenter"",""1"",""1170""
","
","
","""event"",""trial"",""time""
""fullscreenenter"",""1"",""1170""
","
","","","738.5","","","20","15931","6205","c","elianto","#3366ff99"," "," ","1","+10","[1589.9000000059605]","1","2","","","15931","61","4","1","win","go","0"
"pit-trial","183","1075637","0.0-66.0","battery-v0.2","","""event"",""trial"",""time""
""fullscreenenter"",""1"",""1170""
","
","
","""event"",""trial"",""time""
""fullscreenenter"",""1"",""1170""
","
","","","1262.300000011921","","","20","15931","6205","t","elianto","#f73b6a7A"," "," ","1","0","[2113.4000000059605]","1","2","","","15931","62","2","3","lose","go","0"
"pit-trial","184","1080492","0.0-67.0","battery-v0.2","","""event"",""trial"",""time""
""fullscreenenter"",""1"",""1170""
","
","
","""event"",""trial"",""time""
""fullscreenenter"",""1"",""1170""
","
","","","-1","","","20","15931","6205","f","elianto","#3366ff99","-1","-1","1","+10","[]","0","2","","","15931","63","1","2","win","no-go","0"
"pit-trial","185","1084300","0.0-68.0","battery-v0.2","","""event"",""trial"",""time""
""fullscreenenter"",""1"",""1170""
","
","
","""event"",""trial"",""time""
""fullscreenenter"",""1"",""1170""
","
","","","953.7000000178814","","","20","15931","6205","b","elianto","#f73b6a7A","-1"," ","0","-10","[1804.300000011921]","1","2","","","15931","64","3","4","lose","no-go","0"
"pit-trial","186","1088249","0.0-69.0","battery-v0.2","","""event"",""trial"",""time""
""fullscreenenter"",""1"",""1170""
","
","
","""event"",""trial"",""time""
""fullscreenenter"",""1"",""1170""
","
","","","1090.199999988079","","","20","15931","6205","c","elianto","#3366ff99"," "," ","1","+10","[1941.5]","1","2","","","15931","65","4","1","win","go","0"
"pit-trial","187","1092205","0.0-70.0","battery-v0.2","","""event"",""trial"",""time""
""fullscreenenter"",""1"",""1170""
","
","
","""event"",""trial"",""time""
""fullscreenenter"",""1"",""1170""
","
","","","1091.5999999940395","","","20","15931","6205","b","elianto","#f73b6a7A","-1"," ","0","-10","[1943.0999999940395]","1","2","","","15931","66","3","4","lose","no-go","0"
"pit-trial","188","1096131","0.0-71.0","battery-v0.2","","""event"",""trial"",""time""
""fullscreenenter"",""1"",""1170""
","
","
","""event"",""trial"",""time""
""fullscreenenter"",""1"",""1170""
","
","","","1070.5","","","20","15931","6205","z","elianto","#3366ff99","-1"," ","0","0","[1921.6000000238419]","1","2","","","15931","67","5","2","win","no-go","0"
"pit-trial","189","1100988","0.0-72.0","battery-v0.2","","""event"",""trial"",""time""
""fullscreenenter"",""1"",""1170""
","
","
","""event"",""trial"",""time""
""fullscreenenter"",""1"",""1170""
","
","","","-1","","","20","15931","6205","f","elianto","#3366ff99","-1","-1","1","+10","[]","0","2","","","15931","68","1","2","win","no-go","0"
"pit-trial","190","1104626","0.0-73.0","battery-v0.2","","""event"",""trial"",""time""
""fullscreenenter"",""1"",""1170""
","
","
","""event"",""trial"",""time""
""fullscreenenter"",""1"",""1170""
","
","","","782.3000000119209","","","20","15931","6205","c","elianto","#3366ff99"," "," ","1","+10","[1632.8999999761581]","1","2","","","15931","69","4","1","win","go","0"
"pit-trial","191","1109483","0.0-74.0","battery-v0.2","","""event"",""trial"",""time""
""fullscreenenter"",""1"",""1170""
","
","
","""event"",""trial"",""time""
""fullscreenenter"",""1"",""1170""
","
","","","-1","","","20","15931","6205","f","elianto","#3366ff99","-1","-1","1","+10","[]","0","2","","","15931","70","1","2","win","no-go","0"
"pit-trial","192","1114339","0.0-75.0","battery-v0.2","","""event"",""trial"",""time""
""fullscreenenter"",""1"",""1170""
","
","
","""event"",""trial"",""time""
""fullscreenenter"",""1"",""1170""
","
","","","-1","","","20","15931","6205","z","elianto","#3366ff99","-1","-1","1","0","[]","0","2","","","15931","71","5","2","win","no-go","1"
"pit-trial","193","1118213","0.0-76.0","battery-v0.2","","""event"",""trial"",""time""
""fullscreenenter"",""1"",""1170""
","
","
","""event"",""trial"",""time""
""fullscreenenter"",""1"",""1170""
","
","","","1016.7000000178814","","","20","15931","6205","t","elianto","#f73b6a7A"," "," ","1","0","[1867.800000011921]","1","2","","","15931","72","2","3","lose","go","0"
"pit-trial","194","1123071","0.0-77.0","battery-v0.2","","""event"",""trial"",""time""
""fullscreenenter"",""1"",""1170""
","
","
","""event"",""trial"",""time""
""fullscreenenter"",""1"",""1170""
","
","","","-1","","","20","15931","6205","f","elianto","#3366ff99","-1","-1","1","0","[]","0","2","","","15931","73","1","2","win","no-go","1"
"pit-trial","195","1126689","0.0-78.0","battery-v0.2","","""event"",""trial"",""time""
""fullscreenenter"",""1"",""1170""
","
","
","""event"",""trial"",""time""
""fullscreenenter"",""1"",""1170""
","
","","","762.6999999880791","","","20","15931","6205","c","elianto","#3366ff99"," "," ","1","0","[1612.7999999821186]","1","2","","","15931","74","4","1","win","go","1"
"pit-trial","196","1131544","0.0-79.0","battery-v0.2","","""event"",""trial"",""time""
""fullscreenenter"",""1"",""1170""
","
","
","""event"",""trial"",""time""
""fullscreenenter"",""1"",""1170""
","
","","","-1","","","20","15931","6205","z","elianto","#3366ff99","-1","-1","1","+10","[]","0","2","","","15931","75","5","2","win","no-go","0"
"pit-trial","197","1135611","0.0-80.0","battery-v0.2","","""event"",""trial"",""time""
""fullscreenenter"",""1"",""1170""
","
","
","""event"",""trial"",""time""
""fullscreenenter"",""1"",""1170""
","
","","","1211.5","","","20","15931","6205","b","elianto","#f73b6a7A","-1"," ","0","-10","[2062.300000011921]","1","2","","","15931","76","3","4","lose","no-go","0"
"pit-trial","198","1140468","0.0-81.0","battery-v0.2","","""event"",""trial"",""time""
""fullscreenenter"",""1"",""1170""
","
","
","""event"",""trial"",""time""
""fullscreenenter"",""1"",""1170""
","
","","","-1","","","20","15931","6205","z","elianto","#3366ff99","-1","-1","1","0","[]","0","2","","","15931","77","5","2","win","no-go","1"
"pit-trial","199","1144009","0.0-82.0","battery-v0.2","","""event"",""trial"",""time""
""fullscreenenter"",""1"",""1170""
","
","
","""event"",""trial"",""time""
""fullscreenenter"",""1"",""1170""
","
","","","684.3000000119209","","","20","15931","6205","c","elianto","#3366ff99"," "," ","1","+10","[1535.800000011921]","1","2","","","15931","78","4","1","win","go","0"
"pit-trial","200","1148059","0.0-83.0","battery-v0.2","","""event"",""trial"",""time""
""fullscreenenter"",""1"",""1170""
","
","
","""event"",""trial"",""time""
""fullscreenenter"",""1"",""1170""
","
","","","1192.9000000059605","","","20","15931","6205","c","elianto","#3366ff99"," "," ","1","+10","[2044.7000000178814]","1","2","","","15931","79","4","1","win","go","0"
"pit-trial","201","1152915","0.0-84.0","battery-v0.2","","""event"",""trial"",""time""
""fullscreenenter"",""1"",""1170""
","
","
","""event"",""trial"",""time""
""fullscreenenter"",""1"",""1170""
","
","","","-1","","","20","15931","6205","b","elianto","#f73b6a7A","-1","-1","1","-10","[]","0","2","","","15931","80","3","4","lose","no-go","1"
"pit-trial","202","1156503","0.0-85.0","battery-v0.2","","""event"",""trial"",""time""
""fullscreenenter"",""1"",""1170""
","
","
","""event"",""trial"",""time""
""fullscreenenter"",""1"",""1170""
","
","","","731.5","","","20","15931","6205","y","elianto","#f73b6a7A","-1"," ","0","-10","[1583.0999999940395]","1","2","","","15931","81","7","4","lose","no-go","0"
"pit-trial","203","1161360","0.0-86.0","battery-v0.2","","""event"",""trial"",""time""
""fullscreenenter"",""1"",""1170""
","
","
","""event"",""trial"",""time""
""fullscreenenter"",""1"",""1170""
","
","","","-1","","","20","15931","6205","z","elianto","#3366ff99","-1","-1","1","+10","[]","0","2","","","15931","82","5","2","win","no-go","0"
"pit-trial","204","1165096","0.0-87.0","battery-v0.2","","""event"",""trial"",""time""
""fullscreenenter"",""1"",""1170""
","
","
","""event"",""trial"",""time""
""fullscreenenter"",""1"",""1170""
","
","","","880.5","","","20","15931","6205","c","elianto","#3366ff99"," "," ","1","0","[1730.9000000059605]","1","2","","","15931","83","4","1","win","go","1"
"pit-trial","205","1168836","0.0-88.0","battery-v0.2","","""event"",""trial"",""time""
""fullscreenenter"",""1"",""1170""
","
","
","""event"",""trial"",""time""
""fullscreenenter"",""1"",""1170""
","
","","","884.7999999821186","","","20","15931","6205","b","elianto","#f73b6a7A","-1"," ","0","-10","[1735.699999988079]","1","2","","","15931","84","3","4","lose","no-go","0"
"pit-trial","206","1173693","0.0-89.0","battery-v0.2","","""event"",""trial"",""time""
""fullscreenenter"",""1"",""1170""
","
","
","""event"",""trial"",""time""
""fullscreenenter"",""1"",""1170""
","
","","","-1","","","20","15931","6205","y","elianto","#f73b6a7A","-1","-1","1","0","[]","0","2","","","15931","85","7","4","lose","no-go","0"
"pit-trial","207","1178550","0.0-90.0","battery-v0.2","","""event"",""trial"",""time""
""fullscreenenter"",""1"",""1170""
","
","
","""event"",""trial"",""time""
""fullscreenenter"",""1"",""1170""
","
","","","-1","","","20","15931","6205","h","elianto","#f73b6a7A"," ","-1","0","-10","[2871.9000000059605]","1","2","","","15931","86","6","3","lose","go","0"
"pit-trial","208","1182370","0.0-91.0","battery-v0.2","","""event"",""trial"",""time""
""fullscreenenter"",""1"",""1170""
","
","
","""event"",""trial"",""time""
""fullscreenenter"",""1"",""1170""
","
","","","963.9000000059605","","","20","15931","6205","c","elianto","#3366ff99"," "," ","1","+10","[1815.1000000238419]","1","2","","","15931","87","4","1","win","go","0"
"pit-trial","209","1187227","0.0-92.0","battery-v0.2","","""event"",""trial"",""time""
""fullscreenenter"",""1"",""1170""
","
","
","""event"",""trial"",""time""
""fullscreenenter"",""1"",""1170""
","
","","","-1","","","20","15931","6205","z","elianto","#3366ff99","-1","-1","1","+10","[]","0","2","","","15931","88","5","2","win","no-go","0"
"pit-trial","210","1192017","0.0-93.0","battery-v0.2","","""event"",""trial"",""time""
""fullscreenenter"",""1"",""1170""
","
","
","""event"",""trial"",""time""
""fullscreenenter"",""1"",""1170""
","
","","","1933.699999988079","","","20","15931","6205","y","elianto","#f73b6a7A","-1"," ","0","-10","[2785.5]","1","2","","","15931","89","7","4","lose","no-go","0"
"pit-trial","211","1196874","0.0-94.0","battery-v0.2","","""event"",""trial"",""time""
""fullscreenenter"",""1"",""1170""
","
","
","""event"",""trial"",""time""
""fullscreenenter"",""1"",""1170""
","
","","","-1","","","20","15931","6205","z","elianto","#3366ff99","-1","-1","1","0","[]","0","2","","","15931","90","5","2","win","no-go","1"
"pit-trial","212","1200730","0.0-95.0","battery-v0.2","","""event"",""trial"",""time""
""fullscreenenter"",""1"",""1170""
","
","
","""event"",""trial"",""time""
""fullscreenenter"",""1"",""1170""
","
","","","998.5999999940395","","","20","15931","6205","c","elianto","#3366ff99"," "," ","1","+10","[1850.5]","1","2","","","15931","91","4","1","win","go","0"
"pit-trial","213","1205586","0.0-96.0","battery-v0.2","","""event"",""trial"",""time""
""fullscreenenter"",""1"",""1170""
","
","
","""event"",""trial"",""time""
""fullscreenenter"",""1"",""1170""
","
","","","-1","","","20","15931","6205","h","elianto","#f73b6a7A"," ","-1","0","-10","[]","0","2","","","15931","92","6","3","lose","go","0"
"pit-trial","214","1209239","0.0-97.0","battery-v0.2","","""event"",""trial"",""time""
""fullscreenenter"",""1"",""1170""
","
","
","""event"",""trial"",""time""
""fullscreenenter"",""1"",""1170""
","
","","","794.0999999940395","","","20","15931","6205","h","elianto","#f73b6a7A"," "," ","1","0","[1645.4000000059605]","1","2","","","15931","93","6","3","lose","go","0"
"pit-trial","215","1213707","0.0-98.0","battery-v0.2","","""event"",""trial"",""time""
""fullscreenenter"",""1"",""1170""
","
","
","""event"",""trial"",""time""
""fullscreenenter"",""1"",""1170""
","
","","","1609.9000000059605","","","20","15931","6205","r","elianto","#3366ff99"," "," ","1","+10","[2460.9000000059605]","1","2","","","15931","94","8","1","win","go","0"
"pit-trial","216","1218564","0.0-99.0","battery-v0.2","","""event"",""trial"",""time""
""fullscreenenter"",""1"",""1170""
","
","
","""event"",""trial"",""time""
""fullscreenenter"",""1"",""1170""
","
","","","-1","","","20","15931","6205","z","elianto","#3366ff99","-1","-1","1","0","[]","0","2","","","15931","95","5","2","win","no-go","1"
"pit-trial","217","1223420","0.0-100.0","battery-v0.2","","""event"",""trial"",""time""
""fullscreenenter"",""1"",""1170""
","
","
","""event"",""trial"",""time""
""fullscreenenter"",""1"",""1170""
","
","","","-1","","","20","15931","6205","y","elianto","#f73b6a7A","-1","-1","1","0","[]","0","2","","","15931","96","7","4","lose","no-go","0"
"pit-trial","218","1227627","0.0-101.0","battery-v0.2","","""event"",""trial"",""time""
""fullscreenenter"",""1"",""1170""
","
","
","""event"",""trial"",""time""
""fullscreenenter"",""1"",""1170""
","
","","","1351.1000000238419","","","20","15931","6205","h","elianto","#f73b6a7A"," "," ","1","-10","[2203]","1","2","","","15931","97","6","3","lose","go","1"
"pit-trial","219","1232484","0.0-102.0","battery-v0.2","","""event"",""trial"",""time""
""fullscreenenter"",""1"",""1170""
","
","
","""event"",""trial"",""time""
""fullscreenenter"",""1"",""1170""
","
","","","-1","","","20","15931","6205","r","elianto","#3366ff99"," ","-1","0","0","[]","0","2","","","15931","98","8","1","win","go","0"
"pit-trial","220","1236715","0.0-103.0","battery-v0.2","","""event"",""trial"",""time""
""fullscreenenter"",""1"",""1170""
","
","
","""event"",""trial"",""time""
""fullscreenenter"",""1"",""1170""
","
","","","1375.300000011921","","","20","15931","6205","y","elianto","#f73b6a7A","-1"," ","0","-10","[2226.300000011921]","1","2","","","15931","99","7","4","lose","no-go","0"
"pit-trial","221","1241572","0.0-104.0","battery-v0.2","","""event"",""trial"",""time""
""fullscreenenter"",""1"",""1170""
","
","
","""event"",""trial"",""time""
""fullscreenenter"",""1"",""1170""
","
","","","-1","","","20","15931","6205","z","elianto","#3366ff99","-1","-1","1","+10","[]","0","2","","","15931","100","5","2","win","no-go","0"
"pit-trial","222","1245340","0.0-105.0","battery-v0.2","","""event"",""trial"",""time""
""fullscreenenter"",""1"",""1170""
","
","
","""event"",""trial"",""time""
""fullscreenenter"",""1"",""1170""
","
","","","911.5999999940395","","","20","15931","6205","m","elianto","#3366ff99"," "," ","1","+10","[1763.0999999940395]","1","2","","","15931","101","9","1","win","go","0"
"pit-trial","223","1250196","0.0-106.0","battery-v0.2","","""event"",""trial"",""time""
""fullscreenenter"",""1"",""1170""
","
","
","""event"",""trial"",""time""
""fullscreenenter"",""1"",""1170""
","
","","","-1","","","20","15931","6205","r","elianto","#3366ff99"," ","-1","0","0","[]","0","2","","","15931","102","8","1","win","go","0"
"pit-trial","224","1254122","0.0-107.0","battery-v0.2","","""event"",""trial"",""time""
""fullscreenenter"",""1"",""1170""
","
","
","""event"",""trial"",""time""
""fullscreenenter"",""1"",""1170""
","
","","","1070","","","20","15931","6205","y","elianto","#f73b6a7A","-1"," ","0","0","[1920.5]","1","2","","","15931","103","7","4","lose","no-go","1"
"pit-trial","225","1258978","0.0-108.0","battery-v0.2","","""event"",""trial"",""time""
""fullscreenenter"",""1"",""1170""
","
","
","""event"",""trial"",""time""
""fullscreenenter"",""1"",""1170""
","
","","","-1","","","20","15931","6205","z","elianto","#3366ff99","-1","-1","1","+10","[]","0","2","","","15931","104","5","2","win","no-go","0"
"pit-trial","226","1263834","0.0-109.0","battery-v0.2","","""event"",""trial"",""time""
""fullscreenenter"",""1"",""1170""
","
","
","""event"",""trial"",""time""
""fullscreenenter"",""1"",""1170""
","
","","","-1","","","20","15931","6205","c","elianto","#3366ff99"," ","-1","0","0","[]","0","2","","","15931","105","4","1","win","go","0"
"pit-trial","227","1268694","0.0-110.0","battery-v0.2","","""event"",""trial"",""time""
""fullscreenenter"",""1"",""1170""
","
","
","""event"",""trial"",""time""
""fullscreenenter"",""1"",""1170""
","
","","","-1","","","20","15931","6205","r","elianto","#3366ff99"," ","-1","0","0","[]","0","2","","","15931","106","8","1","win","go","0"
"pit-trial","228","1273553","0.0-111.0","battery-v0.2","","""event"",""trial"",""time""
""fullscreenenter"",""1"",""1170""
","
","
","""event"",""trial"",""time""
""fullscreenenter"",""1"",""1170""
","
","","","-1","","","20","15931","6205","h","elianto","#f73b6a7A"," ","-1","0","-10","[]","0","2","","","15931","107","6","3","lose","go","0"
"pit-trial","229","1277274","0.0-112.0","battery-v0.2","","""event"",""trial"",""time""
""fullscreenenter"",""1"",""1170""
","
","
","""event"",""trial"",""time""
""fullscreenenter"",""1"",""1170""
","
","","","865.3999999761581","","","20","15931","6205","m","elianto","#3366ff99"," "," ","1","+10","[1716.5]","1","2","","","15931","108","9","1","win","go","0"
"pit-trial","230","1280932","0.0-113.0","battery-v0.2","","""event"",""trial"",""time""
""fullscreenenter"",""1"",""1170""
","
","
","""event"",""trial"",""time""
""fullscreenenter"",""1"",""1170""
","
","","","803","","","20","15931","6205","r","elianto","#3366ff99"," "," ","1","0","[1653.699999988079]","1","2","","","15931","109","8","1","win","go","1"
"pit-trial","231","1284621","0.0-114.0","battery-v0.2","","""event"",""trial"",""time""
""fullscreenenter"",""1"",""1170""
","
","
","""event"",""trial"",""time""
""fullscreenenter"",""1"",""1170""
","
","","","831.7000000178814","","","20","15931","6205","h","elianto","#f73b6a7A"," "," ","1","0","[1683]","1","2","","","15931","110","6","3","lose","go","0"
"pit-trial","232","1288581","0.0-115.0","battery-v0.2","","""event"",""trial"",""time""
""fullscreenenter"",""1"",""1170""
","
","
","""event"",""trial"",""time""
""fullscreenenter"",""1"",""1170""
","
","","","1103.699999988079","","","20","15931","6205","z","elianto","#3366ff99","-1"," ","0","0","[1954.7999999821186]","1","2","","","15931","111","5","2","win","no-go","0"
"pit-trial","233","1292262","0.0-116.0","battery-v0.2","","""event"",""trial"",""time""
""fullscreenenter"",""1"",""1170""
","
","
","""event"",""trial"",""time""
""fullscreenenter"",""1"",""1170""
","
","","","826.7000000178814","","","20","15931","6205","m","elianto","#3366ff99"," "," ","1","+10","[1677.2000000178814]","1","2","","","15931","112","9","1","win","go","0"
"pit-trial","234","1296365","0.0-117.0","battery-v0.2","","""event"",""trial"",""time""
""fullscreenenter"",""1"",""1170""
","
","
","""event"",""trial"",""time""
""fullscreenenter"",""1"",""1170""
","
","","","1249.300000011921","","","20","15931","6205","z","elianto","#3366ff99","-1"," ","0","0","[2100.300000011921]","1","2","","","15931","113","5","2","win","no-go","0"
"pit-trial","235","1300000","0.0-118.0","battery-v0.2","","""event"",""trial"",""time""
""fullscreenenter"",""1"",""1170""
","
","
","""event"",""trial"",""time""
""fullscreenenter"",""1"",""1170""
","
","","","780.3999999761581","","","20","15931","6205","m","elianto","#3366ff99"," "," ","1","+10","[1631.5]","1","2","","","15931","114","9","1","win","go","0"
"pit-trial","236","1303914","0.0-119.0","battery-v0.2","","""event"",""trial"",""time""
""fullscreenenter"",""1"",""1170""
","
","
","""event"",""trial"",""time""
""fullscreenenter"",""1"",""1170""
","
","","","1057.199999988079","","","20","15931","6205","r","elianto","#3366ff99"," "," ","1","+10","[1908.800000011921]","1","2","","","15931","115","8","1","win","go","0"
"pit-trial","237","1307594","0.0-120.0","battery-v0.2","","""event"",""trial"",""time""
""fullscreenenter"",""1"",""1170""
","
","
","""event"",""trial"",""time""
""fullscreenenter"",""1"",""1170""
","
","","","823.3999999761581","","","20","15931","6205","h","elianto","#f73b6a7A"," "," ","1","0","[1674.0999999940395]","1","2","","","15931","116","6","3","lose","go","0"
"pit-trial","238","1311127","0.0-121.0","battery-v0.2","","""event"",""trial"",""time""
""fullscreenenter"",""1"",""1170""
","
","
","""event"",""trial"",""time""
""fullscreenenter"",""1"",""1170""
","
","","","677.0999999940395","","","20","15931","6205","z","elianto","#3366ff99","-1"," ","0","0","[1528]","1","2","","","15931","117","5","2","win","no-go","0"
"pit-trial","239","1314623","0.0-122.0","battery-v0.2","","""event"",""trial"",""time""
""fullscreenenter"",""1"",""1170""
","
","
","""event"",""trial"",""time""
""fullscreenenter"",""1"",""1170""
","
","","","639","","","20","15931","6205","m","elianto","#3366ff99"," "," ","1","+10","[1490]","1","2","","","15931","118","9","1","win","go","0"
"pit-trial","240","1318383","0.0-123.0","battery-v0.2","","""event"",""trial"",""time""
""fullscreenenter"",""1"",""1170""
","
","
","""event"",""trial"",""time""
""fullscreenenter"",""1"",""1170""
","
","","","903.4000000059605","","","20","15931","6205","r","elianto","#3366ff99"," "," ","1","+10","[1754.7000000178814]","1","2","","","15931","119","8","1","win","go","0"
"pit-trial","241","1321915","0.0-124.0","battery-v0.2","","""event"",""trial"",""time""
""fullscreenenter"",""1"",""1170""
","
","
","""event"",""trial"",""time""
""fullscreenenter"",""1"",""1170""
","
","","","674.8000000119209","","","20","15931","6205","h","elianto","#f73b6a7A"," "," ","1","0","[1526.699999988079]","1","2","","","15931","120","6","3","lose","go","0"
"pit-trial","242","1325575","0.0-125.0","battery-v0.2","","""event"",""trial"",""time""
""fullscreenenter"",""1"",""1170""
","
","
","""event"",""trial"",""time""
""fullscreenenter"",""1"",""1170""
","
","","","804.7999999821186","","","20","15931","6205","h","elianto","#f73b6a7A"," "," ","1","-10","[1655.2999999821186]","1","2","","","15931","121","6","3","lose","go","1"
"pit-trial","243","1329324","0.0-126.0","battery-v0.2","","""event"",""trial"",""time""
""fullscreenenter"",""1"",""1170""
","
","
","""event"",""trial"",""time""
""fullscreenenter"",""1"",""1170""
","
","","","891.1999999880791","","","20","15931","6205","m","elianto","#3366ff99"," "," ","1","+10","[1743.199999988079]","1","2","","","15931","122","9","1","win","go","0"
"pit-trial","244","1333357","0.0-127.0","battery-v0.2","","""event"",""trial"",""time""
""fullscreenenter"",""1"",""1170""
","
","
","""event"",""trial"",""time""
""fullscreenenter"",""1"",""1170""
","
","","","1175.2999999821186","","","20","15931","6205","y","elianto","#f73b6a7A","-1"," ","0","-10","[2026.800000011921]","1","2","","","15931","123","7","4","lose","no-go","0"
"pit-trial","245","1337024","0.0-128.0","battery-v0.2","","""event"",""trial"",""time""
""fullscreenenter"",""1"",""1170""
","
","
","""event"",""trial"",""time""
""fullscreenenter"",""1"",""1170""
","
","","","811.9000000059605","","","20","15931","6205","r","elianto","#3366ff99"," "," ","1","+10","[1663.199999988079]","1","2","","","15931","124","8","1","win","go","0"
"pit-trial","246","1341880","0.0-129.0","battery-v0.2","","""event"",""trial"",""time""
""fullscreenenter"",""1"",""1170""
","
","
","""event"",""trial"",""time""
""fullscreenenter"",""1"",""1170""
","
","","","-1","","","20","15931","6205","y","elianto","#f73b6a7A","-1","-1","1","0","[]","0","2","","","15931","125","7","4","lose","no-go","0"
"pit-trial","247","1345737","0.0-130.0","battery-v0.2","","""event"",""trial"",""time""
""fullscreenenter"",""1"",""1170""
","
","
","""event"",""trial"",""time""
""fullscreenenter"",""1"",""1170""
","
","","","1000.6999999880791","","","20","15931","6205","h","elianto","#f73b6a7A"," "," ","1","-10","[1852.5]","1","2","","","15931","126","6","3","lose","go","1"
"pit-trial","248","1349300","0.0-131.0","battery-v0.2","","""event"",""trial"",""time""
""fullscreenenter"",""1"",""1170""
","
","
","""event"",""trial"",""time""
""fullscreenenter"",""1"",""1170""
","
","","","706.5","","","20","15931","6205","m","elianto","#3366ff99"," "," ","1","+10","[1558.199999988079]","1","2","","","15931","127","9","1","win","go","0"
"pit-trial","249","1353127","0.0-132.0","battery-v0.2","","""event"",""trial"",""time""
""fullscreenenter"",""1"",""1170""
","
","
","""event"",""trial"",""time""
""fullscreenenter"",""1"",""1170""
","
","","","971.0999999940395","","","20","15931","6205","r","elianto","#3366ff99"," "," ","1","+10","[1822.4000000059605]","1","2","","","15931","128","8","1","win","go","0"
"pit-trial","250","1357138","0.0-133.0","battery-v0.2","","""event"",""trial"",""time""
""fullscreenenter"",""1"",""1170""
","
","
","""event"",""trial"",""time""
""fullscreenenter"",""1"",""1170""
","
","","","1154.0999999940395","","","20","15931","6205","y","elianto","#f73b6a7A","-1"," ","0","-10","[2006.199999988079]","1","2","","","15931","129","7","4","lose","no-go","0"
"pit-trial","251","1360795","0.0-134.0","battery-v0.2","","""event"",""trial"",""time""
""fullscreenenter"",""1"",""1170""
","
","
","""event"",""trial"",""time""
""fullscreenenter"",""1"",""1170""
","
","","","793.2000000178814","","","20","15931","6205","h","elianto","#f73b6a7A"," "," ","1","0","[1644.0999999940395]","1","2","","","15931","130","6","3","lose","go","0"
"pit-trial","252","1364409","0.0-135.0","battery-v0.2","","""event"",""trial"",""time""
""fullscreenenter"",""1"",""1170""
","
","
","""event"",""trial"",""time""
""fullscreenenter"",""1"",""1170""
","
","","","756.9000000059605","","","20","15931","6205","r","elianto","#3366ff99"," "," ","1","+10","[1608.9000000059605]","1","2","","","15931","131","8","1","win","go","0"
"pit-trial","253","1367921","0.0-136.0","battery-v0.2","","""event"",""trial"",""time""
""fullscreenenter"",""1"",""1170""
","
","
","""event"",""trial"",""time""
""fullscreenenter"",""1"",""1170""
","
","","","655.6999999880791","","","20","15931","6205","m","elianto","#3366ff99"," "," ","1","+10","[1506.699999988079]","1","2","","","15931","132","9","1","win","go","0"
"pit-trial","254","1371342","0.0-137.0","battery-v0.2","","""event"",""trial"",""time""
""fullscreenenter"",""1"",""1170""
","
","
","""event"",""trial"",""time""
""fullscreenenter"",""1"",""1170""
","
","","","564.5999999940395","","","20","15931","6205","m","elianto","#3366ff99"," "," ","1","+10","[1416.0999999940395]","1","2","","","15931","133","9","1","win","go","0"
"pit-trial","255","1375013","0.0-138.0","battery-v0.2","","""event"",""trial"",""time""
""fullscreenenter"",""1"",""1170""
","
","
","""event"",""trial"",""time""
""fullscreenenter"",""1"",""1170""
","
","","","813.8000000119209","","","20","15931","6205","h","elianto","#f73b6a7A"," "," ","1","0","[1664.800000011921]","1","2","","","15931","134","6","3","lose","go","0"
"pit-trial","256","1378628","0.0-139.0","battery-v0.2","","""event"",""trial"",""time""
""fullscreenenter"",""1"",""1170""
","
","
","""event"",""trial"",""time""
""fullscreenenter"",""1"",""1170""
","
","","","757.3000000119209","","","20","15931","6205","y","elianto","#f73b6a7A","-1"," ","0","-10","[1608.300000011921]","1","2","","","15931","135","7","4","lose","no-go","0"
"pit-trial","257","1382150","0.0-140.0","battery-v0.2","","""event"",""trial"",""time""
""fullscreenenter"",""1"",""1170""
","
","
","""event"",""trial"",""time""
""fullscreenenter"",""1"",""1170""
","
","","","665.4000000059605","","","20","15931","6205","r","elianto","#3366ff99"," "," ","1","+10","[1516.5]","1","2","","","15931","136","8","1","win","go","0"
"pit-trial","258","1385642","0.0-141.0","battery-v0.2","","""event"",""trial"",""time""
""fullscreenenter"",""1"",""1170""
","
","
","""event"",""trial"",""time""
""fullscreenenter"",""1"",""1170""
","
","","","635.3000000119209","","","20","15931","6205","r","elianto","#3366ff99"," "," ","1","+10","[1486.5]","1","2","","","15931","137","8","1","win","go","0"
"pit-trial","259","1389156","0.0-142.0","battery-v0.2","","""event"",""trial"",""time""
""fullscreenenter"",""1"",""1170""
","
","
","""event"",""trial"",""time""
""fullscreenenter"",""1"",""1170""
","
","","","648","","","20","15931","6205","m","elianto","#3366ff99"," "," ","1","+10","[1499.7999999821186]","1","2","","","15931","138","9","1","win","go","0"
"pit-trial","260","1394014","0.0-143.0","battery-v0.2","","""event"",""trial"",""time""
""fullscreenenter"",""1"",""1170""
","
","
","""event"",""trial"",""time""
""fullscreenenter"",""1"",""1170""
","
","","","-1","","","20","15931","6205","y","elianto","#f73b6a7A","-1","-1","1","-10","[]","0","2","","","15931","139","7","4","lose","no-go","1"
"pit-trial","261","1397884","0.0-144.0","battery-v0.2","","""event"",""trial"",""time""
""fullscreenenter"",""1"",""1170""
","
","
","""event"",""trial"",""time""
""fullscreenenter"",""1"",""1170""
","
","","","1012.7999999821186","","","20","15931","6205","h","elianto","#f73b6a7A"," "," ","1","0","[1864.199999988079]","1","2","","","15931","140","6","3","lose","go","0"
"pit-instructions","262","1411190","0.0-145.0","battery-v0.2","","""event"",""trial"",""time""
""fullscreenenter"",""1"",""1170""
","
","
","""event"",""trial"",""time""
""fullscreenenter"",""1"",""1170""
","
","","[{""page_index"":0,""viewing_time"":5133.399999976158},{""page_index"":1,""viewing_time"":8168.600000023842}]","13302.699999988079","","","","","","","","","","","","","","","","","","","","","","","",""
"pit-trial","263","1414847","0.0-146.0","battery-v0.2","","""event"",""trial"",""time""
""fullscreenenter"",""1"",""1170""
","
","
","""event"",""trial"",""time""
""fullscreenenter"",""1"",""1170""
","
","","","799","","","20","15931","6205","e","elianto","#f73b6a7A","-1"," ","0","0","[1649.9000000059605]","1","3","","","15931","141","2","4","lose","no-go","1"
"pit-trial","264","1418526","0.0-147.0","battery-v0.2","","""event"",""trial"",""time""
""fullscreenenter"",""1"",""1170""
","
","
","""event"",""trial"",""time""
""fullscreenenter"",""1"",""1170""
","
","","","824.0999999940395","","","20","15931","6205","w","elianto","#f73b6a7A"," "," ","1","0","[1674.9000000059605]","1","3","","","15931","142","3","3","lose","go","0"
