"trial_type","trial_index","time_elapsed","internal_node_id","task_version","subject_id","interactions","blur_events","focus_events","fullscreenenter_events","fullscreenexit_events","success","view_history","rt","responses","num_errors","age","subject","participantId","rune","rune_set","hex","correct","choice","accuracy","outcome","keys","total_keys","block","practice","value","sub","trial","stimulus","robot","valence","action","sham"
"pavlovia","0","7","0.0-0.0","battery-v0.2","","""event"",""trial"",""time""
""fullscreenenter"",""1"",""3837""
","
","
","""event"",""trial"",""time""
""fullscreenenter"",""1"",""3837""
","
","","","","","","","","","","","","","","","","","","","","","","","","","","",""
"fullscreen","1","4820","0.0-1.0","battery-v0.2","","""event"",""trial"",""time""
""fullscreenenter"",""1"",""3837""
","
","
","""event"",""trial"",""time""
""fullscreenenter"",""1"",""3837""
","
","true","","","","","","","","","","","","","","","","","","","","","","","","","",""
"pit-instructions","2","24134","0.0-2.0-0.0","battery-v0.2","","""event"",""trial"",""time""
""fullscreenenter"",""1"",""3837""
","
","
","""event"",""trial"",""time""
""fullscreenenter"",""1"",""3837""
","
","","[{""page_index"":0,""viewing_time"":19310.80000114441}]","19311","","","","","","","","","","","","","","","","","","","","","","","",""
"pit-comprehension","3","29820","0.0-2.0-1.0-0.0","battery-v0.2","","""event"",""trial"",""time""
""fullscreenenter"",""1"",""3837""
","
","
","""event"",""trial"",""time""
""fullscreenenter"",""1"",""3837""
","
","","","5682.800001144409","[""shark""]","0","11","10109","2433","","","","","","","","","","","","","","","","","","",""
"pit-instructions","4","31796","0.0-2.0-1.0-1.0","battery-v0.2","","""event"",""trial"",""time""
""fullscreenenter"",""1"",""3837""
","
","
","""event"",""trial"",""time""
""fullscreenenter"",""1"",""3837""
","
","","[{""page_index"":0,""viewing_time"":1963.3000011444092}]","1963.6000003814697","","","","","","","","","","","","","","","","","","","","","","","",""
"pit-comprehension","5","36409","0.0-2.0-2.0-0.0","battery-v0.2","","""event"",""trial"",""time""
""fullscreenenter"",""1"",""3837""
","
","
","""event"",""trial"",""time""
""fullscreenenter"",""1"",""3837""
","
","","","4611.300001144409","[""tiger""]","0","11","10109","2433","","","","","","","","","","","","","","","","","","",""
"pit-instructions","6","38272","0.0-2.0-2.0-1.0","battery-v0.2","","""event"",""trial"",""time""
""fullscreenenter"",""1"",""3837""
","
","
","""event"",""trial"",""time""
""fullscreenenter"",""1"",""3837""
","
","","[{""page_index"":0,""viewing_time"":1860.3000011444092}]","1860.900001525879","","","","","","","","","","","","","","","","","","","","","","","",""
"pit-instructions","7","141467","0.0-2.0-3.0","battery-v0.2","","""event"",""trial"",""time""
""fullscreenenter"",""1"",""3837""
","
","
","""event"",""trial"",""time""
""fullscreenenter"",""1"",""3837""
","
","","[{""page_index"":0,""viewing_time"":9887.5},{""page_index"":1,""viewing_time"":6879.5},{""page_index"":2,""viewing_time"":6962.299999237061},{""page_index"":3,""viewing_time"":9009.80000114441},{""page_index"":4,""viewing_time"":6154.5},{""page_index"":5,""viewing_time"":6665},{""page_index"":6,""viewing_time"":7510.299999237061},{""page_index"":7,""viewing_time"":7023.700000762939},{""page_index"":8,""viewing_time"":6102.799999237061},{""page_index"":9,""viewing_time"":8935.39999961853},{""page_index"":10,""viewing_time"":8146.800001144409},{""page_index"":11,""viewing_time"":7674.5},{""page_index"":12,""viewing_time"":6491.299999237061},{""page_index"":13,""viewing_time"":5747.700000762939}]","103191.70000076294","","","","","","","","","","","","","","","","","","","","","","","",""
"pit-trial","8","145064","0.0-2.0-4.0-0.0","battery-v0.2","","""event"",""trial"",""time""
""fullscreenenter"",""1"",""3837""
","
","
","""event"",""trial"",""time""
""fullscreenenter"",""1"",""3837""
","
","","","737.1000003814697","","","11","10109","2433","&#9784;","elianto","#FFFFF080"," "," ","1","&#10004","[1588]","1","0","0","","","","","","","",""
"pit-trial","9","148714","0.0-2.0-4.1-0.1","battery-v0.2","","""event"",""trial"",""time""
""fullscreenenter"",""1"",""3837""
","
","
","""event"",""trial"",""time""
""fullscreenenter"",""1"",""3837""
","
","","","789.7000007629395","","","11","10109","2433","&#9784;","elianto","#FFFFF080"," "," ","1","&#10004","[1640.2000007629395]","1","0","0","","","","","","","",""
"pit-trial","10","152622","0.0-2.0-4.2-0.2","battery-v0.2","","""event"",""trial"",""time""
""fullscreenenter"",""1"",""3837""
","
","
","""event"",""trial"",""time""
""fullscreenenter"",""1"",""3837""
","
","","","1051.6000003814697","","","11","10109","2433","&#9784;","elianto","#FFFFF080"," "," ","1","&#10004","[1902.8999996185303]","1","0","0","","","","","","","",""
"pit-trial","11","156274","0.0-2.0-4.3-0.3","battery-v0.2","","""event"",""trial"",""time""
""fullscreenenter"",""1"",""3837""
","
","
","""event"",""trial"",""time""
""fullscreenenter"",""1"",""3837""
","
","","","787.3999996185303","","","11","10109","2433","&#9784;","elianto","#FFFFF080"," "," ","1","&#10004","[1638.8000011444092]","1","0","0","","","","","","","",""
"pit-trial","12","159975","0.0-2.0-4.4-0.4","battery-v0.2","","""event"",""trial"",""time""
""fullscreenenter"",""1"",""3837""
","
","
","""event"",""trial"",""time""
""fullscreenenter"",""1"",""3837""
","
","","","833.2000007629395","","","11","10109","2433","&#9784;","elianto","#FFFFF080"," "," ","1","&#10004","[1695.6000003814697]","1","0","0","","","","","","","",""
"pit-instructions","13","182362","0.0-2.0-5.0","battery-v0.2","","""event"",""trial"",""time""
""fullscreenenter"",""1"",""3837""
","
","
","""event"",""trial"",""time""
""fullscreenenter"",""1"",""3837""
","
","","[{""page_index"":0,""viewing_time"":5383.700000762939},{""page_index"":1,""viewing_time"":6129.5},{""page_index"":2,""viewing_time"":5475},{""page_index"":3,""viewing_time"":5395.39999961853}]","22384.20000076294","","","","","","","","","","","","","","","","","","","","","","","",""
"pit-trial","14","187238","0.0-2.0-6.0-0.0","battery-v0.2","","""event"",""trial"",""time""
""fullscreenenter"",""1"",""3837""
","
","
","""event"",""trial"",""time""
""fullscreenenter"",""1"",""3837""
","
","","","-1","","","11","10109","2433","&#9854;","elianto","#FFFFF080","-1","-1","1","&#10004","[]","0","0","1","","","","","","","",""
"pit-trial","15","192107","0.0-2.0-6.1-0.1","battery-v0.2","","""event"",""trial"",""time""
""fullscreenenter"",""1"",""3837""
","
","
","""event"",""trial"",""time""
""fullscreenenter"",""1"",""3837""
","
","","","-1","","","11","10109","2433","&#9854;","elianto","#FFFFF080","-1","-1","1","&#10004","[]","0","0","1","","","","","","","",""
"pit-trial","16","196974","0.0-2.0-6.2-0.2","battery-v0.2","","""event"",""trial"",""time""
""fullscreenenter"",""1"",""3837""
","
","
","""event"",""trial"",""time""
""fullscreenenter"",""1"",""3837""
","
","","","-1","","","11","10109","2433","&#9854;","elianto","#FFFFF080","-1","-1","1","&#10004","[]","0","0","1","","","","","","","",""
"pit-trial","17","201850","0.0-2.0-6.3-0.3","battery-v0.2","","""event"",""trial"",""time""
""fullscreenenter"",""1"",""3837""
","
","
","""event"",""trial"",""time""
""fullscreenenter"",""1"",""3837""
","
","","","-1","","","11","10109","2433","&#9854;","elianto","#FFFFF080","-1","-1","1","&#10004","[]","0","0","1","","","","","","","",""
"pit-trial","18","206724","0.0-2.0-6.4-0.4","battery-v0.2","","""event"",""trial"",""time""
""fullscreenenter"",""1"",""3837""
","
","
","""event"",""trial"",""time""
""fullscreenenter"",""1"",""3837""
","
","","","-1","","","11","10109","2433","&#9854;","elianto","#FFFFF080","-1","-1","1","&#10004","[]","0","0","1","","","","","","","",""
"pit-instructions","19","341491","0.0-2.0-7.0","battery-v0.2","","""event"",""trial"",""time""
""fullscreenenter"",""1"",""3837""
","
","
","""event"",""trial"",""time""
""fullscreenenter"",""1"",""3837""
","
","","[{""page_index"":0,""viewing_time"":6137.10000038147},{""page_index"":1,""viewing_time"":7697.89999961853},{""page_index"":2,""viewing_time"":6267.700000762939},{""page_index"":3,""viewing_time"":7860.699998855591},{""page_index"":4,""viewing_time"":6607.300001144409},{""page_index"":5,""viewing_time"":8280.19999885559},{""page_index"":6,""viewing_time"":5387.39999961853},{""page_index"":7,""viewing_time"":8194.60000038147},{""page_index"":8,""viewing_time"":7124.800001144409},{""page_index"":9,""viewing_time"":6525.89999961853},{""page_index"":10,""viewing_time"":8996.39999961853},{""page_index"":11,""viewing_time"":5427.39999961853},{""page_index"":12,""viewing_time"":8043.60000038147},{""page_index"":13,""viewing_time"":7501.299999237061},{""page_index"":14,""viewing_time"":7883},{""page_index"":15,""viewing_time"":11060.60000038147},{""page_index"":16,""viewing_time"":8380.30000114441},{""page_index"":17,""viewing_time"":7387.199998855591}]","134764.10000038147","","","","","","","","","","","","","","","","","","","","","","","",""
"pit-trial","20","345517","0.0-2.0-8.0-0.0","battery-v0.2","","""event"",""trial"",""time""
""fullscreenenter"",""1"",""3837""
","
","
","""event"",""trial"",""time""
""fullscreenenter"",""1"",""3837""
","
","","","1169.3999996185303","","","11","10109","2433","&#9776;","elianto","#3366ff99"," "," ","1","+10","[2019.7000007629395]","1","0","1","","","","","","","",""
"pit-trial","21","349043","0.0-2.0-8.0-1.0","battery-v0.2","","""event"",""trial"",""time""
""fullscreenenter"",""1"",""3837""
","
","
","""event"",""trial"",""time""
""fullscreenenter"",""1"",""3837""
","
","","","667.2999992370605","","","11","10109","2433","&#9776;","elianto","#3366ff99"," "," ","1","+10","[1521.5]","1","0","1","","","","","","","",""
"pit-trial","22","352555","0.0-2.0-8.0-2.0","battery-v0.2","","""event"",""trial"",""time""
""fullscreenenter"",""1"",""3837""
","
","
","""event"",""trial"",""time""
""fullscreenenter"",""1"",""3837""
","
","","","640","","","11","10109","2433","&#9776;","elianto","#3366ff99"," "," ","1","+10","[1499.7000007629395]","1","0","1","","","","","","","",""
"pit-trial","23","356481","0.0-2.0-8.0-3.0","battery-v0.2","","""event"",""trial"",""time""
""fullscreenenter"",""1"",""3837""
","
","
","""event"",""trial"",""time""
""fullscreenenter"",""1"",""3837""
","
","","","1058.1000003814697","","","11","10109","2433","&#9776;","elianto","#3366ff99"," "," ","1","0","[1918.7999992370605]","1","0","1","","","","","","","",""
"pit-trial","24","361346","0.0-2.0-8.0-4.0","battery-v0.2","","""event"",""trial"",""time""
""fullscreenenter"",""1"",""3837""
","
","
","""event"",""trial"",""time""
""fullscreenenter"",""1"",""3837""
","
","","","-1","","","11","10109","2433","&#9776;","elianto","#3366ff99"," ","-1","0","0","[]","0","0","1","","","","","","","",""
"pit-trial","25","364718","0.0-2.0-8.1-0.1","battery-v0.2","","""event"",""trial"",""time""
""fullscreenenter"",""1"",""3837""
","
","
","""event"",""trial"",""time""
""fullscreenenter"",""1"",""3837""
","
","","","498","","","11","10109","2433","&#9776;","elianto","#3366ff99"," "," ","1","+10","[1359.7000007629395]","1","0","1","","","","","","","",""
"pit-trial","26","368157","0.0-2.0-8.1-1.1","battery-v0.2","","""event"",""trial"",""time""
""fullscreenenter"",""1"",""3837""
","
","
","""event"",""trial"",""time""
""fullscreenenter"",""1"",""3837""
","
","","","570.7000007629395","","","11","10109","2433","&#9776;","elianto","#3366ff99"," "," ","1","+10","[1426.2000007629395]","1","0","1","","","","","","","",""
"pit-trial","27","371552","0.0-2.0-8.1-2.1","battery-v0.2","","""event"",""trial"",""time""
""fullscreenenter"",""1"",""3837""
","
","
","""event"",""trial"",""time""
""fullscreenenter"",""1"",""3837""
","
","","","531.6000003814697","","","11","10109","2433","&#9776;","elianto","#3366ff99"," "," ","1","+10","[1392.6999988555908]","1","0","1","","","","","","","",""
"pit-trial","28","375109","0.0-2.0-8.1-3.1","battery-v0.2","","""event"",""trial"",""time""
""fullscreenenter"",""1"",""3837""
","
","
","""event"",""trial"",""time""
""fullscreenenter"",""1"",""3837""
","
","","","703.7000007629395","","","11","10109","2433","&#9776;","elianto","#3366ff99"," "," ","1","0","[1553.8999996185303]","1","0","1","","","","","","","",""
"pit-trial","29","378384","0.0-2.0-8.1-4.1","battery-v0.2","","""event"",""trial"",""time""
""fullscreenenter"",""1"",""3837""
","
","
","""event"",""trial"",""time""
""fullscreenenter"",""1"",""3837""
","
","","","421.70000076293945","","","11","10109","2433","&#9776;","elianto","#3366ff99"," "," ","1","+10","[1272.2000007629395]","1","0","1","","","","","","","",""
"pit-trial","30","382220","0.0-2.0-8.2-0.2","battery-v0.2","","""event"",""trial"",""time""
""fullscreenenter"",""1"",""3837""
","
","
","""event"",""trial"",""time""
""fullscreenenter"",""1"",""3837""
","
","","","980.5","","","11","10109","2433","&#9776;","elianto","#3366ff99"," "," ","1","+10","[1831.1999988555908]","1","0","1","","","","","","","",""
"pit-trial","31","386361","0.0-2.0-8.2-1.2","battery-v0.2","","""event"",""trial"",""time""
""fullscreenenter"",""1"",""3837""
","
","
","""event"",""trial"",""time""
""fullscreenenter"",""1"",""3837""
","
","","","1288.8000011444092","","","11","10109","2433","&#9776;","elianto","#3366ff99"," "," ","1","+10","[2139.7999992370605]","1","0","1","","","","","","","",""
"pit-trial","32","390124","0.0-2.0-8.2-2.2","battery-v0.2","","""event"",""trial"",""time""
""fullscreenenter"",""1"",""3837""
","
","
","""event"",""trial"",""time""
""fullscreenenter"",""1"",""3837""
","
","","","910.5","","","11","10109","2433","&#9776;","elianto","#3366ff99"," "," ","1","+10","[1760.6000003814697]","1","0","1","","","","","","","",""
"pit-trial","33","393112","0.0-2.0-8.2-3.2","battery-v0.2","","""event"",""trial"",""time""
""fullscreenenter"",""1"",""3837""
","
","
","""event"",""trial"",""time""
""fullscreenenter"",""1"",""3837""
","
","","","135.39999961853027","","","11","10109","2433","&#9776;","elianto","#3366ff99"," "," ","1","0","[985.8999996185303]","1","0","1","","","","","","","",""
"pit-trial","34","397224","0.0-2.0-8.2-4.2","battery-v0.2","","""event"",""trial"",""time""
""fullscreenenter"",""1"",""3837""
","
","
","""event"",""trial"",""time""
""fullscreenenter"",""1"",""3837""
","
","","","1259.900001525879","","","11","10109","2433","&#9776;","elianto","#3366ff99"," "," ","1","+10","[2110]","1","0","1","","","","","","","",""
"call-function","35","397227","0.0-2.0-9.0","battery-v0.2","","""event"",""trial"",""time""
""fullscreenenter"",""1"",""3837""
","
","
","""event"",""trial"",""time""
""fullscreenenter"",""1"",""3837""
","
","","","","","","","","","","","","","","","","","","","","","","","","","","",""
"pit-instructions","36","439890","0.0-2.0-10.0","battery-v0.2","","""event"",""trial"",""time""
""fullscreenenter"",""1"",""3837""
","
","
","""event"",""trial"",""time""
""fullscreenenter"",""1"",""3837""
","
","","[{""page_index"":0,""viewing_time"":6474.89999961853},{""page_index"":1,""viewing_time"":8259.30000114441},{""page_index"":2,""viewing_time"":9609.599998474121},{""page_index"":3,""viewing_time"":10557.30000114441},{""page_index"":4,""viewing_time"":7760.60000038147}]","42662.29999923706","","","","","","","","","","","","","","","","","","","","","","","",""
"pit-trial","37","443711","0.0-2.0-11.0-0.0","battery-v0.2","","""event"",""trial"",""time""
""fullscreenenter"",""1"",""3837""
","
","
","""event"",""trial"",""time""
""fullscreenenter"",""1"",""3837""
","
","","","957.1999988555908","","","11","10109","2433","&#9761;","elianto","#3366ff99","-1"," ","0","0","[1808.6000003814697]","1","0","2","","","","","","","",""
"pit-trial","38","446985","0.0-2.0-11.0-1.0","battery-v0.2","","""event"",""trial"",""time""
""fullscreenenter"",""1"",""3837""
","
","
","""event"",""trial"",""time""
""fullscreenenter"",""1"",""3837""
","
","","","402.5","","","11","10109","2433","&#9761;","elianto","#3366ff99","-1"," ","0","0","[1260.7999992370605]","1","0","2","","","","","","","",""
"pit-trial","39","451849","0.0-2.0-11.0-2.0","battery-v0.2","","""event"",""trial"",""time""
""fullscreenenter"",""1"",""3837""
","
","
","""event"",""trial"",""time""
""fullscreenenter"",""1"",""3837""
","
","","","-1","","","11","10109","2433","&#9761;","elianto","#3366ff99","-1","-1","1","+10","[]","0","0","2","","","","","","","",""
"pit-trial","40","456723","0.0-2.0-11.0-3.0","battery-v0.2","","""event"",""trial"",""time""
""fullscreenenter"",""1"",""3837""
","
","
","""event"",""trial"",""time""
""fullscreenenter"",""1"",""3837""
","
","","","-1","","","11","10109","2433","&#9761;","elianto","#3366ff99","-1","-1","1","0","[]","0","0","2","","","","","","","",""
"pit-trial","41","460907","0.0-2.0-11.0-4.0","battery-v0.2","","""event"",""trial"",""time""
""fullscreenenter"",""1"",""3837""
","
","
","""event"",""trial"",""time""
""fullscreenenter"",""1"",""3837""
","
","","","1326.5","","","11","10109","2433","&#9761;","elianto","#3366ff99","-1"," ","0","0","[2177.7999992370605]","1","0","2","","","","","","","",""
"pit-trial","42","465771","0.0-2.0-11.1-0.1","battery-v0.2","","""event"",""trial"",""time""
""fullscreenenter"",""1"",""3837""
","
","
","""event"",""trial"",""time""
""fullscreenenter"",""1"",""3837""
","
","","","-1","","","11","10109","2433","&#9761;","elianto","#3366ff99","-1","-1","1","+10","[]","0","0","2","","","","","","","",""
"pit-trial","43","470636","0.0-2.0-11.1-1.1","battery-v0.2","","""event"",""trial"",""time""
""fullscreenenter"",""1"",""3837""
","
","
","""event"",""trial"",""time""
""fullscreenenter"",""1"",""3837""
","
","","","-1","","","11","10109","2433","&#9761;","elianto","#3366ff99","-1","-1","1","+10","[]","0","0","2","","","","","","","",""
"pit-trial","44","475489","0.0-2.0-11.1-2.1","battery-v0.2","","""event"",""trial"",""time""
""fullscreenenter"",""1"",""3837""
","
","
","""event"",""trial"",""time""
""fullscreenenter"",""1"",""3837""
","
","","","-1","","","11","10109","2433","&#9761;","elianto","#3366ff99","-1","-1","1","+10","[]","0","0","2","","","","","","","",""
"pit-trial","45","480344","0.0-2.0-11.1-3.1","battery-v0.2","","""event"",""trial"",""time""
""fullscreenenter"",""1"",""3837""
","
","
","""event"",""trial"",""time""
""fullscreenenter"",""1"",""3837""
","
","","","-1","","","11","10109","2433","&#9761;","elianto","#3366ff99","-1","-1","1","0","[]","0","0","2","","","","","","","",""
"pit-trial","46","485197","0.0-2.0-11.1-4.1","battery-v0.2","","""event"",""trial"",""time""
""fullscreenenter"",""1"",""3837""
","
","
","""event"",""trial"",""time""
""fullscreenenter"",""1"",""3837""
","
","","","-1","","","11","10109","2433","&#9761;","elianto","#3366ff99","-1","-1","1","+10","[]","0","0","2","","","","","","","",""
"pit-trial","47","490050","0.0-2.0-11.2-0.2","battery-v0.2","","""event"",""trial"",""time""
""fullscreenenter"",""1"",""3837""
","
","
","""event"",""trial"",""time""
""fullscreenenter"",""1"",""3837""
","
","","","-1","","","11","10109","2433","&#9761;","elianto","#3366ff99","-1","-1","1","+10","[]","0","0","2","","","","","","","",""
"pit-trial","48","494903","0.0-2.0-11.2-1.2","battery-v0.2","","""event"",""trial"",""time""
""fullscreenenter"",""1"",""3837""
","
","
","""event"",""trial"",""time""
""fullscreenenter"",""1"",""3837""
","
","","","-1","","","11","10109","2433","&#9761;","elianto","#3366ff99","-1","-1","1","+10","[]","0","0","2","","","","","","","",""
"pit-trial","49","499757","0.0-2.0-11.2-2.2","battery-v0.2","","""event"",""trial"",""time""
""fullscreenenter"",""1"",""3837""
","
","
","""event"",""trial"",""time""
""fullscreenenter"",""1"",""3837""
","
","","","-1","","","11","10109","2433","&#9761;","elianto","#3366ff99","-1","-1","1","+10","[]","0","0","2","","","","","","","",""
"pit-trial","50","504610","0.0-2.0-11.2-3.2","battery-v0.2","","""event"",""trial"",""time""
""fullscreenenter"",""1"",""3837""
","
","
","""event"",""trial"",""time""
""fullscreenenter"",""1"",""3837""
","
","","","-1","","","11","10109","2433","&#9761;","elianto","#3366ff99","-1","-1","1","0","[]","0","0","2","","","","","","","",""
"pit-trial","51","509463","0.0-2.0-11.2-4.2","battery-v0.2","","""event"",""trial"",""time""
""fullscreenenter"",""1"",""3837""
","
","
","""event"",""trial"",""time""
""fullscreenenter"",""1"",""3837""
","
","","","-1","","","11","10109","2433","&#9761;","elianto","#3366ff99","-1","-1","1","+10","[]","0","0","2","","","","","","","",""
"pit-trial","52","514316","0.0-2.0-11.3-0.3","battery-v0.2","","""event"",""trial"",""time""
""fullscreenenter"",""1"",""3837""
","
","
","""event"",""trial"",""time""
""fullscreenenter"",""1"",""3837""
","
","","","-1","","","11","10109","2433","&#9761;","elianto","#3366ff99","-1","-1","1","+10","[]","0","0","2","","","","","","","",""
"pit-trial","53","519169","0.0-2.0-11.3-1.3","battery-v0.2","","""event"",""trial"",""time""
""fullscreenenter"",""1"",""3837""
","
","
","""event"",""trial"",""time""
""fullscreenenter"",""1"",""3837""
","
","","","-1","","","11","10109","2433","&#9761;","elianto","#3366ff99","-1","-1","1","+10","[]","0","0","2","","","","","","","",""
"pit-trial","54","524023","0.0-2.0-11.3-2.3","battery-v0.2","","""event"",""trial"",""time""
""fullscreenenter"",""1"",""3837""
","
","
","""event"",""trial"",""time""
""fullscreenenter"",""1"",""3837""
","
","","","-1","","","11","10109","2433","&#9761;","elianto","#3366ff99","-1","-1","1","+10","[]","0","0","2","","","","","","","",""
"pit-trial","55","528876","0.0-2.0-11.3-3.3","battery-v0.2","","""event"",""trial"",""time""
""fullscreenenter"",""1"",""3837""
","
","
","""event"",""trial"",""time""
""fullscreenenter"",""1"",""3837""
","
","","","-1","","","11","10109","2433","&#9761;","elianto","#3366ff99","-1","-1","1","0","[]","0","0","2","","","","","","","",""
"pit-trial","56","533729","0.0-2.0-11.3-4.3","battery-v0.2","","""event"",""trial"",""time""
""fullscreenenter"",""1"",""3837""
","
","
","""event"",""trial"",""time""
""fullscreenenter"",""1"",""3837""
","
","","","-1","","","11","10109","2433","&#9761;","elianto","#3366ff99","-1","-1","1","+10","[]","0","0","2","","","","","","","",""
"call-function","57","533731","0.0-2.0-12.0","battery-v0.2","","""event"",""trial"",""time""
""fullscreenenter"",""1"",""3837""
","
","
","""event"",""trial"",""time""
""fullscreenenter"",""1"",""3837""
","
","","","","","","","","","","","","","","","","","","","","","","","","","","",""
"pit-instructions","58","571773","0.0-2.0-13.0","battery-v0.2","","""event"",""trial"",""time""
""fullscreenenter"",""1"",""3837""
","
","
","""event"",""trial"",""time""
""fullscreenenter"",""1"",""3837""
","
","","[{""page_index"":0,""viewing_time"":11350},{""page_index"":1,""viewing_time"":7126.39999961853},{""page_index"":2,""viewing_time"":3678.8999996185303},{""page_index"":3,""viewing_time"":10558.30000114441},{""page_index"":4,""viewing_time"":5327.199998855591}]","38041.29999923706","","","","","","","","","","","","","","","","","","","","","","","",""
"pit-trial","59","575199","0.0-2.0-14.0-0.0","battery-v0.2","","""event"",""trial"",""time""
""fullscreenenter"",""1"",""3837""
","
","
","""event"",""trial"",""time""
""fullscreenenter"",""1"",""3837""
","
","","","566.1999988555908","","","11","10109","2433","&#9826;","elianto","#f73b6a7A","-1"," ","0","-10","[1417.3000011444092]","1","0","3","","","","","","","",""
"pit-trial","60","580079","0.0-2.0-14.0-1.0","battery-v0.2","","""event"",""trial"",""time""
""fullscreenenter"",""1"",""3837""
","
","
","""event"",""trial"",""time""
""fullscreenenter"",""1"",""3837""
","
","","","-1","","","11","10109","2433","&#9826;","elianto","#f73b6a7A","-1","-1","1","0","[]","0","0","3","","","","","","","",""
"pit-trial","61","584957","0.0-2.0-14.0-2.0","battery-v0.2","","""event"",""trial"",""time""
""fullscreenenter"",""1"",""3837""
","
","
","""event"",""trial"",""time""
""fullscreenenter"",""1"",""3837""
","
","","","-1","","","11","10109","2433","&#9826;","elianto","#f73b6a7A","-1","-1","1","0","[]","0","0","3","","","","","","","",""
"pit-trial","62","589825","0.0-2.0-14.0-3.0","battery-v0.2","","""event"",""trial"",""time""
""fullscreenenter"",""1"",""3837""
","
","
","""event"",""trial"",""time""
""fullscreenenter"",""1"",""3837""
","
","","","-1","","","11","10109","2433","&#9826;","elianto","#f73b6a7A","-1","-1","1","-10","[]","0","0","3","","","","","","","",""
"pit-trial","63","594703","0.0-2.0-14.0-4.0","battery-v0.2","","""event"",""trial"",""time""
""fullscreenenter"",""1"",""3837""
","
","
","""event"",""trial"",""time""
""fullscreenenter"",""1"",""3837""
","
","","","-1","","","11","10109","2433","&#9826;","elianto","#f73b6a7A","-1","-1","1","0","[]","0","0","3","","","","","","","",""
"pit-trial","64","599567","0.0-2.0-14.1-0.1","battery-v0.2","","""event"",""trial"",""time""
""fullscreenenter"",""1"",""3837""
","
","
","""event"",""trial"",""time""
""fullscreenenter"",""1"",""3837""
","
","","","-1","","","11","10109","2433","&#9826;","elianto","#f73b6a7A","-1","-1","1","0","[]","0","0","3","","","","","","","",""
"pit-trial","65","604420","0.0-2.0-14.1-1.1","battery-v0.2","","""event"",""trial"",""time""
""fullscreenenter"",""1"",""3837""
","
","
","""event"",""trial"",""time""
""fullscreenenter"",""1"",""3837""
","
","","","-1","","","11","10109","2433","&#9826;","elianto","#f73b6a7A","-1","-1","1","0","[]","0","0","3","","","","","","","",""
"pit-trial","66","609274","0.0-2.0-14.1-2.1","battery-v0.2","","""event"",""trial"",""time""
""fullscreenenter"",""1"",""3837""
","
","
","""event"",""trial"",""time""
""fullscreenenter"",""1"",""3837""
","
","","","-1","","","11","10109","2433","&#9826;","elianto","#f73b6a7A","-1","-1","1","0","[]","0","0","3","","","","","","","",""
"pit-trial","67","614127","0.0-2.0-14.1-3.1","battery-v0.2","","""event"",""trial"",""time""
""fullscreenenter"",""1"",""3837""
","
","
","""event"",""trial"",""time""
""fullscreenenter"",""1"",""3837""
","
","","","-1","","","11","10109","2433","&#9826;","elianto","#f73b6a7A","-1","-1","1","-10","[]","0","0","3","","","","","","","",""
"pit-trial","68","618979","0.0-2.0-14.1-4.1","battery-v0.2","","""event"",""trial"",""time""
""fullscreenenter"",""1"",""3837""
","
","
","""event"",""trial"",""time""
""fullscreenenter"",""1"",""3837""
","
","","","-1","","","11","10109","2433","&#9826;","elianto","#f73b6a7A","-1","-1","1","0","[]","0","0","3","","","","","","","",""
"pit-trial","69","623834","0.0-2.0-14.2-0.2","battery-v0.2","","""event"",""trial"",""time""
""fullscreenenter"",""1"",""3837""
","
","
","""event"",""trial"",""time""
""fullscreenenter"",""1"",""3837""
","
","","","-1","","","11","10109","2433","&#9826;","elianto","#f73b6a7A","-1","-1","1","0","[]","0","0","3","","","","","","","",""
"pit-trial","70","628687","0.0-2.0-14.2-1.2","battery-v0.2","","""event"",""trial"",""time""
""fullscreenenter"",""1"",""3837""
","
","
","""event"",""trial"",""time""
""fullscreenenter"",""1"",""3837""
","
","","","-1","","","11","10109","2433","&#9826;","elianto","#f73b6a7A","-1","-1","1","0","[]","0","0","3","","","","","","","",""
"pit-trial","71","633540","0.0-2.0-14.2-2.2","battery-v0.2","","""event"",""trial"",""time""
""fullscreenenter"",""1"",""3837""
","
","
","""event"",""trial"",""time""
""fullscreenenter"",""1"",""3837""
","
","","","-1","","","11","10109","2433","&#9826;","elianto","#f73b6a7A","-1","-1","1","0","[]","0","0","3","","","","","","","",""
"pit-trial","72","638393","0.0-2.0-14.2-3.2","battery-v0.2","","""event"",""trial"",""time""
""fullscreenenter"",""1"",""3837""
","
","
","""event"",""trial"",""time""
""fullscreenenter"",""1"",""3837""
","
","","","-1","","","11","10109","2433","&#9826;","elianto","#f73b6a7A","-1","-1","1","-10","[]","0","0","3","","","","","","","",""
"pit-trial","73","642183","0.0-2.0-14.2-4.2","battery-v0.2","","""event"",""trial"",""time""
""fullscreenenter"",""1"",""3837""
","
","
","""event"",""trial"",""time""
""fullscreenenter"",""1"",""3837""
","
","","","937.3999996185303","","","11","10109","2433","&#9826;","elianto","#f73b6a7A","-1"," ","0","-10","[1787.6000003814697]","1","0","3","","","","","","","",""
"pit-trial","74","647036","0.0-2.0-14.3-0.3","battery-v0.2","","""event"",""trial"",""time""
""fullscreenenter"",""1"",""3837""
","
","
","""event"",""trial"",""time""
""fullscreenenter"",""1"",""3837""
","
","","","-1","","","11","10109","2433","&#9826;","elianto","#f73b6a7A","-1","-1","1","0","[]","0","0","3","","","","","","","",""
"pit-trial","75","651904","0.0-2.0-14.3-1.3","battery-v0.2","","""event"",""trial"",""time""
""fullscreenenter"",""1"",""3837""
","
","
","""event"",""trial"",""time""
""fullscreenenter"",""1"",""3837""
","
","","","-1","","","11","10109","2433","&#9826;","elianto","#f73b6a7A","-1","-1","1","0","[]","0","0","3","","","","","","","",""
"pit-trial","76","656758","0.0-2.0-14.3-2.3","battery-v0.2","","""event"",""trial"",""time""
""fullscreenenter"",""1"",""3837""
","
","
","""event"",""trial"",""time""
""fullscreenenter"",""1"",""3837""
","
","","","-1","","","11","10109","2433","&#9826;","elianto","#f73b6a7A","-1","-1","1","0","[]","0","0","3","","","","","","","",""
"pit-trial","77","661612","0.0-2.0-14.3-3.3","battery-v0.2","","""event"",""trial"",""time""
""fullscreenenter"",""1"",""3837""
","
","
","""event"",""trial"",""time""
""fullscreenenter"",""1"",""3837""
","
","","","-1","","","11","10109","2433","&#9826;","elianto","#f73b6a7A","-1","-1","1","-10","[]","0","0","3","","","","","","","",""
"pit-trial","78","666465","0.0-2.0-14.3-4.3","battery-v0.2","","""event"",""trial"",""time""
""fullscreenenter"",""1"",""3837""
","
","
","""event"",""trial"",""time""
""fullscreenenter"",""1"",""3837""
","
","","","-1","","","11","10109","2433","&#9826;","elianto","#f73b6a7A","-1","-1","1","0","[]","0","0","3","","","","","","","",""
"call-function","79","666467","0.0-2.0-15.0","battery-v0.2","","""event"",""trial"",""time""
""fullscreenenter"",""1"",""3837""
","
","
","""event"",""trial"",""time""
""fullscreenenter"",""1"",""3837""
","
","","","","","","","","","","","","","","","","","","","","","","","","","","",""
"pit-instructions","80","705448","0.0-2.0-16.0","battery-v0.2","","""event"",""trial"",""time""
""fullscreenenter"",""1"",""3837""
","
","
","""event"",""trial"",""time""
""fullscreenenter"",""1"",""3837""
","
","","[{""page_index"":0,""viewing_time"":10747},{""page_index"":1,""viewing_time"":14620.70000076294},{""page_index"":2,""viewing_time"":7329.39999961853},{""page_index"":3,""viewing_time"":6283}]","38980.80000114441","","","","","","","","","","","","","","","","","","","","","","","",""
"pit-trial","81","709093","0.0-2.0-17.0-0.0","battery-v0.2","","""event"",""trial"",""time""
""fullscreenenter"",""1"",""3837""
","
","
","""event"",""trial"",""time""
""fullscreenenter"",""1"",""3837""
","
","","","770.6000003814697","","","11","10109","2433","&#9789;","elianto","#f73b6a7A"," "," ","1","0","[1631.7999992370605]","1","0","4","","","","","","","",""
"pit-trial","82","712438","0.0-2.0-17.0-1.0","battery-v0.2","","""event"",""trial"",""time""
""fullscreenenter"",""1"",""3837""
","
","
","""event"",""trial"",""time""
""fullscreenenter"",""1"",""3837""
","
","","","480.6000003814697","","","11","10109","2433","&#9789;","elianto","#f73b6a7A"," "," ","1","0","[1333.5]","1","0","4","","","","","","","",""
"pit-trial","83","715782","0.0-2.0-17.0-2.0","battery-v0.2","","""event"",""trial"",""time""
""fullscreenenter"",""1"",""3837""
","
","
","""event"",""trial"",""time""
""fullscreenenter"",""1"",""3837""
","
","","","485.5","","","11","10109","2433","&#9789;","elianto","#f73b6a7A"," "," ","1","0","[1335.7999992370605]","1","0","4","","","","","","","",""
"pit-trial","84","719064","0.0-2.0-17.0-3.0","battery-v0.2","","""event"",""trial"",""time""
""fullscreenenter"",""1"",""3837""
","
","
","""event"",""trial"",""time""
""fullscreenenter"",""1"",""3837""
","
","","","412.8000011444092","","","11","10109","2433","&#9789;","elianto","#f73b6a7A"," "," ","1","-10","[1263.900001525879]","1","0","4","","","","","","","",""
"pit-trial","85","722076","0.0-2.0-17.0-4.0","battery-v0.2","","""event"",""trial"",""time""
""fullscreenenter"",""1"",""3837""
","
","
","""event"",""trial"",""time""
""fullscreenenter"",""1"",""3837""
","
","","","157.19999885559082","","","11","10109","2433","&#9789;","elianto","#f73b6a7A"," "," ","1","0","[1007.3999996185303]","1","0","4","","","","","","","",""
"pit-trial","86","725008","0.0-2.0-17.1-0.1","battery-v0.2","","""event"",""trial"",""time""
""fullscreenenter"",""1"",""3837""
","
","
","""event"",""trial"",""time""
""fullscreenenter"",""1"",""3837""
","
","","","72","","","11","10109","2433","&#9789;","elianto","#f73b6a7A"," "," ","1","0","[922.2000007629395]","1","0","4","","","","","","","",""
"pit-trial","87","728295","0.0-2.0-17.1-1.1","battery-v0.2","","""event"",""trial"",""time""
""fullscreenenter"",""1"",""3837""
","
","
","""event"",""trial"",""time""
""fullscreenenter"",""1"",""3837""
","
","","","430.4000015258789","","","11","10109","2433","&#9789;","elianto","#f73b6a7A"," "," ","1","0","[1280.7000007629395]","1","0","4","","","","","","","",""
"pit-trial","88","731588","0.0-2.0-17.1-2.1","battery-v0.2","","""event"",""trial"",""time""
""fullscreenenter"",""1"",""3837""
","
","
","""event"",""trial"",""time""
""fullscreenenter"",""1"",""3837""
","
","","","430.6000003814697","","","11","10109","2433","&#9789;","elianto","#f73b6a7A"," "," ","1","0","[1280.7999992370605]","1","0","4","","","","","","","",""
"pit-trial","89","735032","0.0-2.0-17.1-3.1","battery-v0.2","","""event"",""trial"",""time""
""fullscreenenter"",""1"",""3837""
","
","
","""event"",""trial"",""time""
""fullscreenenter"",""1"",""3837""
","
","","","578","","","11","10109","2433","&#9789;","elianto","#f73b6a7A"," "," ","1","-10","[1440.2000007629395]","1","0","4","","","","","","","",""
"pit-trial","90","738326","0.0-2.0-17.1-4.1","battery-v0.2","","""event"",""trial"",""time""
""fullscreenenter"",""1"",""3837""
","
","
","""event"",""trial"",""time""
""fullscreenenter"",""1"",""3837""
","
","","","440","","","11","10109","2433","&#9789;","elianto","#f73b6a7A"," "," ","1","0","[474.5,1291.599998474121]","2","0","4","","","","","","","",""
"pit-trial","91","741702","0.0-2.0-17.2-0.2","battery-v0.2","","""event"",""trial"",""time""
""fullscreenenter"",""1"",""3837""
","
","
","""event"",""trial"",""time""
""fullscreenenter"",""1"",""3837""
","
","","","521.1999988555908","","","11","10109","2433","&#9789;","elianto","#f73b6a7A"," "," ","1","0","[1372.099998474121]","1","0","4","","","","","","","",""
"pit-trial","92","745856","0.0-2.0-17.2-1.2","battery-v0.2","","""event"",""trial"",""time""
""fullscreenenter"",""1"",""3837""
","
","
","""event"",""trial"",""time""
""fullscreenenter"",""1"",""3837""
","
","","","1300.2999992370605","","","11","10109","2433","&#9789;","elianto","#f73b6a7A"," "," ","1","0","[2150.8999996185303]","1","0","4","","","","","","","",""
"pit-trial","93","749248","0.0-2.0-17.2-2.2","battery-v0.2","","""event"",""trial"",""time""
""fullscreenenter"",""1"",""3837""
","
","
","""event"",""trial"",""time""
""fullscreenenter"",""1"",""3837""
","
","","","539.8000011444092","","","11","10109","2433","&#9789;","elianto","#f73b6a7A"," "," ","1","0","[1390.2000007629395]","1","0","4","","","","","","","",""
"pit-trial","94","752800","0.0-2.0-17.2-3.2","battery-v0.2","","""event"",""trial"",""time""
""fullscreenenter"",""1"",""3837""
","
","
","""event"",""trial"",""time""
""fullscreenenter"",""1"",""3837""
","
","","","699","","","11","10109","2433","&#9789;","elianto","#f73b6a7A"," "," ","1","-10","[1550]","1","0","4","","","","","","","",""
"pit-trial","95","756709","0.0-2.0-17.2-4.2","battery-v0.2","","""event"",""trial"",""time""
""fullscreenenter"",""1"",""3837""
","
","
","""event"",""trial"",""time""
""fullscreenenter"",""1"",""3837""
","
","","","1054.6000003814697","","","11","10109","2433","&#9789;","elianto","#f73b6a7A"," "," ","1","0","[1906.6000003814697]","1","0","4","","","","","","","",""
"pit-trial","96","760018","0.0-2.0-17.3-0.3","battery-v0.2","","""event"",""trial"",""time""
""fullscreenenter"",""1"",""3837""
","
","
","""event"",""trial"",""time""
""fullscreenenter"",""1"",""3837""
","
","","","454.6000003814697","","","11","10109","2433","&#9789;","elianto","#f73b6a7A"," "," ","1","0","[1305.5]","1","0","4","","","","","","","",""
"pit-trial","97","764515","0.0-2.0-17.3-1.3","battery-v0.2","","""event"",""trial"",""time""
""fullscreenenter"",""1"",""3837""
","
","
","""event"",""trial"",""time""
""fullscreenenter"",""1"",""3837""
","
","","","1643.5","","","11","10109","2433","&#9789;","elianto","#f73b6a7A"," "," ","1","0","[2494.300001144409]","1","0","4","","","","","","","",""
"pit-trial","98","768883","0.0-2.0-17.3-2.3","battery-v0.2","","""event"",""trial"",""time""
""fullscreenenter"",""1"",""3837""
","
","
","""event"",""trial"",""time""
""fullscreenenter"",""1"",""3837""
","
","","","1514.7999992370605","","","11","10109","2433","&#9789;","elianto","#f73b6a7A"," "," ","1","0","[2365.8999996185303]","1","0","4","","","","","","","",""
"pit-trial","99","773456","0.0-2.0-17.3-3.3","battery-v0.2","","""event"",""trial"",""time""
""fullscreenenter"",""1"",""3837""
","
","
","""event"",""trial"",""time""
""fullscreenenter"",""1"",""3837""
","
","","","1720","","","11","10109","2433","&#9789;","elianto","#f73b6a7A"," "," ","1","-10","[2570.1000003814697]","1","0","4","","","","","","","",""
"pit-trial","100","777238","0.0-2.0-17.3-4.3","battery-v0.2","","""event"",""trial"",""time""
""fullscreenenter"",""1"",""3837""
","
","
","""event"",""trial"",""time""
""fullscreenenter"",""1"",""3837""
","
","","","929.1000003814697","","","11","10109","2433","&#9789;","elianto","#f73b6a7A"," "," ","1","0","[1779.3999996185303]","1","0","4","","","","","","","",""
"call-function","101","777240","0.0-2.0-18.0","battery-v0.2","","""event"",""trial"",""time""
""fullscreenenter"",""1"",""3837""
","
","
","""event"",""trial"",""time""
""fullscreenenter"",""1"",""3837""
","
","","","","","","","","","","","","","","","","","","","","","","","","","","",""
"pit-instructions","102","851464","0.0-2.0-19.0","battery-v0.2","","""event"",""trial"",""time""
""fullscreenenter"",""1"",""3837""
","
","
","""event"",""trial"",""time""
""fullscreenenter"",""1"",""3837""
","
","","[{""page_index"":0,""viewing_time"":8793.39999961853},{""page_index"":1,""viewing_time"":6977.60000038147},{""page_index"":2,""viewing_time"":13921.39999961853},{""page_index"":3,""viewing_time"":7343.10000038147},{""page_index"":4,""viewing_time"":9176},{""page_index"":5,""viewing_time"":9085.20000076294},{""page_index"":6,""viewing_time"":8400.5},{""page_index"":7,""viewing_time"":6477.599998474121},{""page_index"":8,""viewing_time"":4048.400001525879}]","74223.89999961853","","","","","","","","","","","","","","","","","","","","","","","",""
"pit-comprehension","103","857342","0.0-2.0-20.0-0.0","battery-v0.2","","""event"",""trial"",""time""
""fullscreenenter"",""1"",""3837""
","
","
","""event"",""trial"",""time""
""fullscreenenter"",""1"",""3837""
","
","","","5874","[""SPACE""]","0","11","10109","2433","","","","","","","","","","","","","","","","","","",""
"pit-instructions","104","861086","0.0-2.0-20.0-1.0","battery-v0.2","","""event"",""trial"",""time""
""fullscreenenter"",""1"",""3837""
","
","
","""event"",""trial"",""time""
""fullscreenenter"",""1"",""3837""
","
","","[{""page_index"":0,""viewing_time"":3717.5}]","3718.2000007629395","","","","","","","","","","","","","","","","","","","","","","","",""
"pit-comprehension","105","871449","0.0-2.0-21.0-0.0","battery-v0.2","","""event"",""trial"",""time""
""fullscreenenter"",""1"",""3837""
","
","
","""event"",""trial"",""time""
""fullscreenenter"",""1"",""3837""
","
","","","10358.30000114441","[""10""]","0","11","10109","2433","","","","","","","","","","","","","","","","","","",""
"pit-instructions","106","873392","0.0-2.0-21.0-1.0","battery-v0.2","","""event"",""trial"",""time""
""fullscreenenter"",""1"",""3837""
","
","
","""event"",""trial"",""time""
""fullscreenenter"",""1"",""3837""
","
","","[{""page_index"":0,""viewing_time"":1916.8999996185303}]","1917.3999996185303","","","","","","","","","","","","","","","","","","","","","","","",""
"pit-comprehension","107","888964","0.0-2.0-22.0-0.0","battery-v0.2","","""event"",""trial"",""time""
""fullscreenenter"",""1"",""3837""
","
","
","""event"",""trial"",""time""
""fullscreenenter"",""1"",""3837""
","
","","","15568.39999961853","[""0""]","0","11","10109","2433","","","","","","","","","","","","","","","","","","",""
"pit-instructions","108","891412","0.0-2.0-22.0-1.0","battery-v0.2","","""event"",""trial"",""time""
""fullscreenenter"",""1"",""3837""
","
","
","""event"",""trial"",""time""
""fullscreenenter"",""1"",""3837""
","
","","[{""page_index"":0,""viewing_time"":2421.199998855591}]","2421.699998855591","","","","","","","","","","","","","","","","","","","","","","","",""
"pit-comprehension","109","908928","0.0-2.0-23.0-0.0","battery-v0.2","","""event"",""trial"",""time""
""fullscreenenter"",""1"",""3837""
","
","
","""event"",""trial"",""time""
""fullscreenenter"",""1"",""3837""
","
","","","17512.70000076294","[""True""]","0","11","10109","2433","","","","","","","","","","","","","","","","","","",""
"pit-instructions","110","910594","0.0-2.0-23.0-1.0","battery-v0.2","","""event"",""trial"",""time""
""fullscreenenter"",""1"",""3837""
","
","
","""event"",""trial"",""time""
""fullscreenenter"",""1"",""3837""
","
","","[{""page_index"":0,""viewing_time"":1640.7999992370605}]","1641.2999992370605","","","","","","","","","","","","","","","","","","","","","","","",""
"pit-comprehension","111","922216","0.0-2.0-24.0-0.0","battery-v0.2","","""event"",""trial"",""time""
""fullscreenenter"",""1"",""3837""
","
","
","""event"",""trial"",""time""
""fullscreenenter"",""1"",""3837""
","
","","","11618.19999885559","[""True""]","0","11","10109","2433","","","","","","","","","","","","","","","","","","",""
"pit-instructions","112","923680","0.0-2.0-24.0-1.0","battery-v0.2","","""event"",""trial"",""time""
""fullscreenenter"",""1"",""3837""
","
","
","""event"",""trial"",""time""
""fullscreenenter"",""1"",""3837""
","
","","[{""page_index"":0,""viewing_time"":1440.6000003814697}]","1441","","","","","","","","","","","","","","","","","","","","","","","",""
"pit-comprehension","113","930134","0.0-2.0-25.0-0.0","battery-v0.2","","""event"",""trial"",""time""
""fullscreenenter"",""1"",""3837""
","
","
","""event"",""trial"",""time""
""fullscreenenter"",""1"",""3837""
","
","","","6450.5","[""True""]","0","11","10109","2433","","","","","","","","","","","","","","","","","","",""
"pit-instructions","114","931695","0.0-2.0-25.0-1.0","battery-v0.2","","""event"",""trial"",""time""
""fullscreenenter"",""1"",""3837""
","
","
","""event"",""trial"",""time""
""fullscreenenter"",""1"",""3837""
","
","","[{""page_index"":0,""viewing_time"":1534.5}]","1535.099998474121","","","","","","","","","","","","","","","","","","","","","","","",""
"pit-comprehension","115","938490","0.0-2.0-26.0-0.0","battery-v0.2","","""event"",""trial"",""time""
""fullscreenenter"",""1"",""3837""
","
","
","""event"",""trial"",""time""
""fullscreenenter"",""1"",""3837""
","
","","","6790.10000038147","[""False""]","0","11","10109","2433","","","","","","","","","","","","","","","","","","",""
"pit-instructions","116","940055","0.0-2.0-26.0-1.0","battery-v0.2","","""event"",""trial"",""time""
""fullscreenenter"",""1"",""3837""
","
","
","""event"",""trial"",""time""
""fullscreenenter"",""1"",""3837""
","
","","[{""page_index"":0,""viewing_time"":1542.1000003814697}]","1542.6000003814697","","","","","","","","","","","","","","","","","","","","","","","",""
"pit-instructions","117","960234","0.0-3.0","battery-v0.2","","""event"",""trial"",""time""
""fullscreenenter"",""1"",""3837""
","
","
","""event"",""trial"",""time""
""fullscreenenter"",""1"",""3837""
","
","","[{""page_index"":0,""viewing_time"":6338.89999961853},{""page_index"":1,""viewing_time"":6176},{""page_index"":2,""viewing_time"":7660.799999237061}]","20176.19999885559","","","","","","","","","","","","","","","","","","","","","","","",""
"pit-trial","118","964660","0.0-4.0","battery-v0.2","","""event"",""trial"",""time""
""fullscreenenter"",""1"",""3837""
","
","
","""event"",""trial"",""time""
""fullscreenenter"",""1"",""3837""
","
","","","1554.5","","","11","10109","2433","&#9730;","elianto","#3366ff99"," "," ","1","+10","[2405]","1","1","","","10109","1","1","1","win","go","0"
"pit-trial","119","968254","0.0-5.0","battery-v0.2","","""event"",""trial"",""time""
""fullscreenenter"",""1"",""3837""
","
","
","""event"",""trial"",""time""
""fullscreenenter"",""1"",""3837""
","
","","","727.5999984741211","","","11","10109","2433","&#9733;","elianto","#3366ff99","-1"," ","0","0","[52.900001525878906,1583]","2","1","","","10109","2","2","2","win","no-go","0"
"pit-trial","120","972342","0.0-6.0","battery-v0.2","","""event"",""trial"",""time""
""fullscreenenter"",""1"",""3837""
","
","
","""event"",""trial"",""time""
""fullscreenenter"",""1"",""3837""
","
","","","1227.6000003814697","","","11","10109","2433","&#9728;","elianto","#f73b6a7A","-1"," ","0","-10","[2085]","1","1","","","10109","3","0","4","lose","no-go","0"
"pit-trial","121","976128","0.0-7.0","battery-v0.2","","""event"",""trial"",""time""
""fullscreenenter"",""1"",""3837""
","
","
","""event"",""trial"",""time""
""fullscreenenter"",""1"",""3837""
","
","","","931.1999988555908","","","11","10109","2433","&#9752;","elianto","#f73b6a7A"," "," ","1","0","[1782.3000011444092]","1","1","","","10109","4","3","3","lose","go","0"
"pit-trial","122","980752","0.0-8.0","battery-v0.2","","""event"",""trial"",""time""
""fullscreenenter"",""1"",""3837""
","
","
","""event"",""trial"",""time""
""fullscreenenter"",""1"",""3837""
","
","","","1749.8999996185303","","","11","10109","2433","&#9733;","elianto","#3366ff99","-1"," ","0","+10","[2609.5]","1","1","","","10109","5","2","2","win","no-go","1"
"pit-trial","123","985622","0.0-9.0","battery-v0.2","","""event"",""trial"",""time""
""fullscreenenter"",""1"",""3837""
","
","
","""event"",""trial"",""time""
""fullscreenenter"",""1"",""3837""
","
","","","-1","","","11","10109","2433","&#9728;","elianto","#f73b6a7A","-1","-1","1","0","[]","0","1","","","10109","6","0","4","lose","no-go","0"
"pit-trial","124","989223","0.0-10.0","battery-v0.2","","""event"",""trial"",""time""
""fullscreenenter"",""1"",""3837""
","
","
","""event"",""trial"",""time""
""fullscreenenter"",""1"",""3837""
","
","","","735.6000003814697","","","11","10109","2433","&#9730;","elianto","#3366ff99"," "," ","1","+10","[1593]","1","1","","","10109","7","1","1","win","go","0"
"pit-trial","125","993198","0.0-11.0","battery-v0.2","","""event"",""trial"",""time""
""fullscreenenter"",""1"",""3837""
","
","
","""event"",""trial"",""time""
""fullscreenenter"",""1"",""3837""
","
","","","1121.1999988555908","","","11","10109","2433","&#9752;","elianto","#f73b6a7A"," "," ","1","-10","[1971.8999996185303]","1","1","","","10109","8","3","3","lose","go","1"
"pit-trial","126","998051","0.0-12.0","battery-v0.2","","""event"",""trial"",""time""
""fullscreenenter"",""1"",""3837""
","
","
","""event"",""trial"",""time""
""fullscreenenter"",""1"",""3837""
","
","","","-1","","","11","10109","2433","&#9752;","elianto","#f73b6a7A"," ","-1","0","-10","[]","0","1","","","10109","9","3","3","lose","go","0"
"pit-trial","127","1001507","0.0-13.0","battery-v0.2","","""event"",""trial"",""time""
""fullscreenenter"",""1"",""3837""
","
","
","""event"",""trial"",""time""
""fullscreenenter"",""1"",""3837""
","
","","","601.0999984741211","","","11","10109","2433","&#9728;","elianto","#f73b6a7A","-1"," ","0","-10","[1452.2000007629395]","1","1","","","10109","10","0","4","lose","no-go","0"
"pit-trial","128","1005402","0.0-14.0","battery-v0.2","","""event"",""trial"",""time""
""fullscreenenter"",""1"",""3837""
","
","
","""event"",""trial"",""time""
""fullscreenenter"",""1"",""3837""
","
","","","1040.6999988555908","","","11","10109","2433","&#9733;","elianto","#3366ff99","-1"," ","0","0","[1891.7999992370605]","1","1","","","10109","11","2","2","win","no-go","0"
"pit-trial","129","1010256","0.0-15.0","battery-v0.2","","""event"",""trial"",""time""
""fullscreenenter"",""1"",""3837""
","
","
","""event"",""trial"",""time""
""fullscreenenter"",""1"",""3837""
","
","","","-1","","","11","10109","2433","&#9730;","elianto","#3366ff99"," ","-1","0","0","[2938.1000003814697]","1","1","","","10109","12","1","1","win","go","0"
"pit-trial","130","1014012","0.0-16.0","battery-v0.2","","""event"",""trial"",""time""
""fullscreenenter"",""1"",""3837""
","
","
","""event"",""trial"",""time""
""fullscreenenter"",""1"",""3837""
","
","","","902.6000003814697","","","11","10109","2433","&#9730;","elianto","#3366ff99"," "," ","1","+10","[1753.7000007629395]","1","1","","","10109","13","1","1","win","go","0"
"pit-trial","131","1017385","0.0-17.0","battery-v0.2","","""event"",""trial"",""time""
""fullscreenenter"",""1"",""3837""
","
","
","""event"",""trial"",""time""
""fullscreenenter"",""1"",""3837""
","
","","","521","","","11","10109","2433","&#9728;","elianto","#f73b6a7A","-1"," ","0","0","[1371]","1","1","","","10109","14","0","4","lose","no-go","1"
"pit-trial","132","1020846","0.0-18.0","battery-v0.2","","""event"",""trial"",""time""
""fullscreenenter"",""1"",""3837""
","
","
","""event"",""trial"",""time""
""fullscreenenter"",""1"",""3837""
","
","","","607.1999988555908","","","11","10109","2433","&#9752;","elianto","#f73b6a7A"," "," ","1","0","[1458.599998474121]","1","1","","","10109","15","3","3","lose","go","0"
"pit-trial","133","1024297","0.0-19.0","battery-v0.2","","""event"",""trial"",""time""
""fullscreenenter"",""1"",""3837""
","
","
","""event"",""trial"",""time""
""fullscreenenter"",""1"",""3837""
","
","","","597.2000007629395","","","11","10109","2433","&#9733;","elianto","#3366ff99","-1"," ","0","0","[1448.2000007629395]","1","1","","","10109","16","2","2","win","no-go","0"
"pit-trial","134","1028202","0.0-20.0","battery-v0.2","","""event"",""trial"",""time""
""fullscreenenter"",""1"",""3837""
","
","
","""event"",""trial"",""time""
""fullscreenenter"",""1"",""3837""
","
","","","1051.8999996185303","","","11","10109","2433","&#9752;","elianto","#f73b6a7A"," "," ","1","0","[1902.7000007629395]","1","1","","","10109","17","3","3","lose","go","0"
"pit-trial","135","1032575","0.0-21.0","battery-v0.2","","""event"",""trial"",""time""
""fullscreenenter"",""1"",""3837""
","
","
","""event"",""trial"",""time""
""fullscreenenter"",""1"",""3837""
","
","","","1516.8999996185303","","","11","10109","2433","&#9730;","elianto","#3366ff99"," "," ","1","+10","[2369.2000007629395]","1","1","","","10109","18","1","1","win","go","0"
"pit-trial","136","1037428","0.0-22.0","battery-v0.2","","""event"",""trial"",""time""
""fullscreenenter"",""1"",""3837""
","
","
","""event"",""trial"",""time""
""fullscreenenter"",""1"",""3837""
","
","","","-1","","","11","10109","2433","&#9728;","elianto","#f73b6a7A","-1","-1","1","0","[]","0","1","","","10109","19","0","4","lose","no-go","0"
"pit-trial","137","1041028","0.0-23.0","battery-v0.2","","""event"",""trial"",""time""
""fullscreenenter"",""1"",""3837""
","
","
","""event"",""trial"",""time""
""fullscreenenter"",""1"",""3837""
","
","","","745.6999988555908","","","11","10109","2433","&#9733;","elianto","#3366ff99","-1"," ","0","0","[1596.099998474121]","1","1","","","10109","20","2","2","win","no-go","0"
"pit-instructions","138","1052772","0.0-24.0","battery-v0.2","","""event"",""trial"",""time""
""fullscreenenter"",""1"",""3837""
","
","
","""event"",""trial"",""time""
""fullscreenenter"",""1"",""3837""
","
","","[{""page_index"":0,""viewing_time"":5529.39999961853},{""page_index"":1,""viewing_time"":6212.5}]","11742.60000038147","","","","","","","","","","","","","","","","","","","","","","","",""
"pit-trial","139","1056296","0.0-25.0","battery-v0.2","","""event"",""trial"",""time""
""fullscreenenter"",""1"",""3837""
","
","
","""event"",""trial"",""time""
""fullscreenenter"",""1"",""3837""
","
","","","651.3999996185303","","","11","10109","2433","n","elianto","#f73b6a7A","-1"," ","0","-10","[1513.8999996185303]","1","2","","","10109","21","0","4","lose","no-go","0"
"pit-trial","140","1059958","0.0-26.0","battery-v0.2","","""event"",""trial"",""time""
""fullscreenenter"",""1"",""3837""
","
","
","""event"",""trial"",""time""
""fullscreenenter"",""1"",""3837""
","
","","","798","","","11","10109","2433","b","elianto","#f73b6a7A"," "," ","1","0","[1651]","1","2","","","10109","22","3","3","lose","go","0"
"pit-trial","141","1063482","0.0-27.0","battery-v0.2","","""event"",""trial"",""time""
""fullscreenenter"",""1"",""3837""
","
","
","""event"",""trial"",""time""
""fullscreenenter"",""1"",""3837""
","
","","","652.1000003814697","","","11","10109","2433","f","elianto","#3366ff99"," "," ","1","+10","[1508.7000007629395]","1","2","","","10109","23","1","1","win","go","0"
"pit-trial","142","1068356","0.0-28.0","battery-v0.2","","""event"",""trial"",""time""
""fullscreenenter"",""1"",""3837""
","
","
","""event"",""trial"",""time""
""fullscreenenter"",""1"",""3837""
","
","","","-1","","","11","10109","2433","t","elianto","#f73b6a7A","-1","-1","1","0","[]","0","2","","","10109","24","2","4","lose","no-go","0"
"pit-trial","143","1073224","0.0-29.0","battery-v0.2","","""event"",""trial"",""time""
""fullscreenenter"",""1"",""3837""
","
","
","""event"",""trial"",""time""
""fullscreenenter"",""1"",""3837""
","
","","","-1","","","11","10109","2433","t","elianto","#f73b6a7A","-1","-1","1","0","[]","0","2","","","10109","25","2","4","lose","no-go","0"
"pit-trial","144","1077068","0.0-30.0","battery-v0.2","","""event"",""trial"",""time""
""fullscreenenter"",""1"",""3837""
","
","
","""event"",""trial"",""time""
""fullscreenenter"",""1"",""3837""
","
","","","975.5","","","11","10109","2433","n","elianto","#f73b6a7A","-1"," ","0","-10","[1829.3999996185303]","1","2","","","10109","26","0","4","lose","no-go","0"
"pit-trial","145","1080748","0.0-31.0","battery-v0.2","","""event"",""trial"",""time""
""fullscreenenter"",""1"",""3837""
","
","
","""event"",""trial"",""time""
""fullscreenenter"",""1"",""3837""
","
","","","812.5","","","11","10109","2433","f","elianto","#3366ff99"," "," ","1","+10","[1663.1000003814697]","1","2","","","10109","27","1","1","win","go","0"
"pit-trial","146","1084217","0.0-32.0","battery-v0.2","","""event"",""trial"",""time""
""fullscreenenter"",""1"",""3837""
","
","
","""event"",""trial"",""time""
""fullscreenenter"",""1"",""3837""
","
","","","615.8000011444092","","","11","10109","2433","b","elianto","#f73b6a7A"," "," ","1","0","[1466.7000007629395]","1","2","","","10109","28","3","3","lose","go","0"
"pit-trial","147","1087766","0.0-33.0","battery-v0.2","","""event"",""trial"",""time""
""fullscreenenter"",""1"",""3837""
","
","
","""event"",""trial"",""time""
""fullscreenenter"",""1"",""3837""
","
","","","695","","","11","10109","2433","b","elianto","#f73b6a7A"," "," ","1","0","[1546]","1","2","","","10109","29","3","3","lose","go","0"
"pit-trial","148","1091357","0.0-34.0","battery-v0.2","","""event"",""trial"",""time""
""fullscreenenter"",""1"",""3837""
","
","
","""event"",""trial"",""time""
""fullscreenenter"",""1"",""3837""
","
","","","737.1000003814697","","","11","10109","2433","f","elianto","#3366ff99"," "," ","1","+10","[1587.8999996185303]","1","2","","","10109","30","1","1","win","go","0"
"pit-trial","149","1096209","0.0-35.0","battery-v0.2","","""event"",""trial"",""time""
""fullscreenenter"",""1"",""3837""
","
","
","""event"",""trial"",""time""
""fullscreenenter"",""1"",""3837""
","
","","","-1","","","11","10109","2433","t","elianto","#f73b6a7A","-1","-1","1","-10","[]","0","2","","","10109","31","2","4","lose","no-go","1"
"pit-trial","150","1100528","0.0-36.0","battery-v0.2","","""event"",""trial"",""time""
""fullscreenenter"",""1"",""3837""
","
","
","""event"",""trial"",""time""
""fullscreenenter"",""1"",""3837""
","
","","","1464.599998474121","","","11","10109","2433","n","elianto","#f73b6a7A","-1"," ","0","-10","[2314.900001525879]","1","2","","","10109","32","0","4","lose","no-go","0"
"pit-trial","151","1105381","0.0-37.0","battery-v0.2","","""event"",""trial"",""time""
""fullscreenenter"",""1"",""3837""
","
","
","""event"",""trial"",""time""
""fullscreenenter"",""1"",""3837""
","
","","","-1","","","11","10109","2433","t","elianto","#f73b6a7A","-1","-1","1","0","[]","0","2","","","10109","33","2","4","lose","no-go","0"
"pit-trial","152","1110234","0.0-38.0","battery-v0.2","","""event"",""trial"",""time""
""fullscreenenter"",""1"",""3837""
","
","
","""event"",""trial"",""time""
""fullscreenenter"",""1"",""3837""
","
","","","-1","","","11","10109","2433","n","elianto","#f73b6a7A","-1","-1","1","0","[]","0","2","","","10109","34","0","4","lose","no-go","0"
"pit-trial","153","1113831","0.0-39.0","battery-v0.2","","""event"",""trial"",""time""
""fullscreenenter"",""1"",""3837""
","
","
","""event"",""trial"",""time""
""fullscreenenter"",""1"",""3837""
","
","","","744.5","","","11","10109","2433","b","elianto","#f73b6a7A"," "," ","1","0","[1595]","1","2","","","10109","35","3","3","lose","go","0"
"pit-trial","154","1118162","0.0-40.0","battery-v0.2","","""event"",""trial"",""time""
""fullscreenenter"",""1"",""3837""
","
","
","""event"",""trial"",""time""
""fullscreenenter"",""1"",""3837""
","
","","","1478.1000003814697","","","11","10109","2433","f","elianto","#3366ff99"," "," ","1","+10","[2328.7000007629395]","1","2","","","10109","36","1","1","win","go","0"
"pit-trial","155","1121723","0.0-41.0","battery-v0.2","","""event"",""trial"",""time""
""fullscreenenter"",""1"",""3837""
","
","
","""event"",""trial"",""time""
""fullscreenenter"",""1"",""3837""
","
","","","707.3999996185303","","","11","10109","2433","b","elianto","#f73b6a7A"," "," ","1","0","[1557.5]","1","2","","","10109","37","3","3","lose","go","0"
"pit-trial","156","1126577","0.0-42.0","battery-v0.2","","""event"",""trial"",""time""
""fullscreenenter"",""1"",""3837""
","
","
","""event"",""trial"",""time""
""fullscreenenter"",""1"",""3837""
","
","","","-1","","","11","10109","2433","t","elianto","#f73b6a7A","-1","-1","1","0","[]","0","2","","","10109","38","2","4","lose","no-go","0"
"pit-trial","157","1131433","0.0-43.0","battery-v0.2","","""event"",""trial"",""time""
""fullscreenenter"",""1"",""3837""
","
","
","""event"",""trial"",""time""
""fullscreenenter"",""1"",""3837""
","
","","","-1","","","11","10109","2433","n","elianto","#f73b6a7A","-1","-1","1","0","[]","0","2","","","10109","39","0","4","lose","no-go","0"
"pit-trial","158","1135456","0.0-44.0","battery-v0.2","","""event"",""trial"",""time""
""fullscreenenter"",""1"",""3837""
","
","
","""event"",""trial"",""time""
""fullscreenenter"",""1"",""3837""
","
","","","1168.900001525879","","","11","10109","2433","f","elianto","#3366ff99"," "," ","1","0","[2020.7000007629395]","1","2","","","10109","40","1","1","win","go","1"
"pit-trial","159","1140309","0.0-45.0","battery-v0.2","","""event"",""trial"",""time""
""fullscreenenter"",""1"",""3837""
","
","
","""event"",""trial"",""time""
""fullscreenenter"",""1"",""3837""
","
","","","-1","","","11","10109","2433","t","elianto","#f73b6a7A","-1","-1","1","0","[]","0","2","","","10109","41","2","4","lose","no-go","0"
"pit-trial","160","1145163","0.0-46.0","battery-v0.2","","""event"",""trial"",""time""
""fullscreenenter"",""1"",""3837""
","
","
","""event"",""trial"",""time""
""fullscreenenter"",""1"",""3837""
","
","","","-1","","","11","10109","2433","n","elianto","#f73b6a7A","-1","-1","1","0","[]","0","2","","","10109","42","0","4","lose","no-go","0"
"pit-trial","161","1148893","0.0-47.0","battery-v0.2","","""event"",""trial"",""time""
""fullscreenenter"",""1"",""3837""
","
","
","""event"",""trial"",""time""
""fullscreenenter"",""1"",""3837""
","
","","","875.6000003814697","","","11","10109","2433","b","elianto","#f73b6a7A"," "," ","1","0","[1725.7999992370605]","1","2","","","10109","43","3","3","lose","go","0"
"pit-trial","162","1153182","0.0-48.0","battery-v0.2","","""event"",""trial"",""time""
""fullscreenenter"",""1"",""3837""
","
","
","""event"",""trial"",""time""
""fullscreenenter"",""1"",""3837""
","
","","","1435.3999996185303","","","11","10109","2433","f","elianto","#3366ff99"," "," ","1","+10","[2286.5]","1","2","","","10109","44","1","1","win","go","0"
"pit-trial","163","1156929","0.0-49.0","battery-v0.2","","""event"",""trial"",""time""
""fullscreenenter"",""1"",""3837""
","
","
","""event"",""trial"",""time""
""fullscreenenter"",""1"",""3837""
","
","","","893.7999992370605","","","11","10109","2433","c","elianto","#3366ff99","-1"," ","0","0","[1744.3999996185303]","1","2","","","10109","45","4","2","win","no-go","0"
"pit-trial","164","1161783","0.0-50.0","battery-v0.2","","""event"",""trial"",""time""
""fullscreenenter"",""1"",""3837""
","
","
","""event"",""trial"",""time""
""fullscreenenter"",""1"",""3837""
","
","","","-1","","","11","10109","2433","t","elianto","#f73b6a7A","-1","-1","1","0","[]","0","2","","","10109","46","2","4","lose","no-go","0"
"pit-trial","165","1166635","0.0-51.0","battery-v0.2","","""event"",""trial"",""time""
""fullscreenenter"",""1"",""3837""
","
","
","""event"",""trial"",""time""
""fullscreenenter"",""1"",""3837""
","
","","","-1","","","11","10109","2433","n","elianto","#f73b6a7A","-1","-1","1","0","[]","0","2","","","10109","47","0","4","lose","no-go","0"
"pit-trial","166","1170301","0.0-52.0","battery-v0.2","","""event"",""trial"",""time""
""fullscreenenter"",""1"",""3837""
","
","
","""event"",""trial"",""time""
""fullscreenenter"",""1"",""3837""
","
","","","812.8999996185303","","","11","10109","2433","b","elianto","#f73b6a7A"," "," ","1","0","[1663.3999996185303]","1","2","","","10109","48","3","3","lose","go","0"
"pit-trial","167","1174590","0.0-53.0","battery-v0.2","","""event"",""trial"",""time""
""fullscreenenter"",""1"",""3837""
","
","
","""event"",""trial"",""time""
""fullscreenenter"",""1"",""3837""
","
","","","1434.3000011444092","","","11","10109","2433","b","elianto","#f73b6a7A"," "," ","1","0","[2286.7000007629395]","1","2","","","10109","49","3","3","lose","go","0"
"pit-trial","168","1179444","0.0-54.0","battery-v0.2","","""event"",""trial"",""time""
""fullscreenenter"",""1"",""3837""
","
","
","""event"",""trial"",""time""
""fullscreenenter"",""1"",""3837""
","
","","","-1","","","11","10109","2433","n","elianto","#f73b6a7A","-1","-1","1","0","[]","0","2","","","10109","50","0","4","lose","no-go","0"
"pit-trial","169","1183166","0.0-55.0","battery-v0.2","","""event"",""trial"",""time""
""fullscreenenter"",""1"",""3837""
","
","
","""event"",""trial"",""time""
""fullscreenenter"",""1"",""3837""
","
","","","868.6000003814697","","","11","10109","2433","c","elianto","#3366ff99","-1"," ","0","0","[1720.6000003814697]","1","2","","","10109","51","4","2","win","no-go","0"
"pit-trial","170","1187676","0.0-56.0","battery-v0.2","","""event"",""trial"",""time""
""fullscreenenter"",""1"",""3837""
","
","
","""event"",""trial"",""time""
""fullscreenenter"",""1"",""3837""
","
","","","1656.5","","","11","10109","2433","f","elianto","#3366ff99"," "," ","1","+10","[2506.8999996185303]","1","2","","","10109","52","1","1","win","go","0"
"pit-trial","171","1191224","0.0-57.0","battery-v0.2","","""event"",""trial"",""time""
""fullscreenenter"",""1"",""3837""
","
","
","""event"",""trial"",""time""
""fullscreenenter"",""1"",""3837""
","
","","","694.6000003814697","","","11","10109","2433","n","elianto","#f73b6a7A","-1"," ","0","-10","[1545]","1","2","","","10109","53","0","4","lose","no-go","0"
"pit-trial","172","1194877","0.0-58.0","battery-v0.2","","""event"",""trial"",""time""
""fullscreenenter"",""1"",""3837""
","
","
","""event"",""trial"",""time""
""fullscreenenter"",""1"",""3837""
","
","","","800.5","","","11","10109","2433","f","elianto","#3366ff99"," "," ","1","+10","[1650.8999996185303]","1","2","","","10109","54","1","1","win","go","0"
"pit-trial","173","1198881","0.0-59.0","battery-v0.2","","""event"",""trial"",""time""
""fullscreenenter"",""1"",""3837""
","
","
","""event"",""trial"",""time""
""fullscreenenter"",""1"",""3837""
","
","","","1150.5","","","11","10109","2433","c","elianto","#3366ff99","-1"," ","0","0","[2001.3999996185303]","1","2","","","10109","55","4","2","win","no-go","0"
"pit-trial","174","1203734","0.0-60.0","battery-v0.2","","""event"",""trial"",""time""
""fullscreenenter"",""1"",""3837""
","
","
","""event"",""trial"",""time""
""fullscreenenter"",""1"",""3837""
","
","","","-1","","","11","10109","2433","t","elianto","#f73b6a7A","-1","-1","1","0","[]","0","2","","","10109","56","2","4","lose","no-go","0"
"pit-trial","175","1208587","0.0-61.0","battery-v0.2","","""event"",""trial"",""time""
""fullscreenenter"",""1"",""3837""
","
","
","""event"",""trial"",""time""
""fullscreenenter"",""1"",""3837""
","
","","","-1","","","11","10109","2433","c","elianto","#3366ff99","-1","-1","1","0","[]","0","2","","","10109","57","4","2","win","no-go","1"
"pit-trial","176","1213163","0.0-62.0","battery-v0.2","","""event"",""trial"",""time""
""fullscreenenter"",""1"",""3837""
","
","
","""event"",""trial"",""time""
""fullscreenenter"",""1"",""3837""
","
","","","1722.8000011444092","","","11","10109","2433","b","elianto","#f73b6a7A"," "," ","1","0","[2573.1000003814697]","1","2","","","10109","58","3","3","lose","go","0"
"pit-trial","177","1217522","0.0-63.0","battery-v0.2","","""event"",""trial"",""time""
""fullscreenenter"",""1"",""3837""
","
","
","""event"",""trial"",""time""
""fullscreenenter"",""1"",""3837""
","
","","","1506","","","11","10109","2433","f","elianto","#3366ff99"," "," ","1","+10","[2356.6000003814697]","1","2","","","10109","59","1","1","win","go","0"
"pit-trial","178","1222375","0.0-64.0","battery-v0.2","","""event"",""trial"",""time""
""fullscreenenter"",""1"",""3837""
","
","
","""event"",""trial"",""time""
""fullscreenenter"",""1"",""3837""
","
","","","-1","","","11","10109","2433","n","elianto","#f73b6a7A","-1","-1","1","-10","[]","0","2","","","10109","60","0","4","lose","no-go","1"
"pit-trial","179","1227228","0.0-65.0","battery-v0.2","","""event"",""trial"",""time""
""fullscreenenter"",""1"",""3837""
","
","
","""event"",""trial"",""time""
""fullscreenenter"",""1"",""3837""
","
","","","-1","","","11","10109","2433","t","elianto","#f73b6a7A","-1","-1","1","0","[]","0","2","","","10109","61","2","4","lose","no-go","0"
"pit-trial","180","1231091","0.0-66.0","battery-v0.2","","""event"",""trial"",""time""
""fullscreenenter"",""1"",""3837""
","
","
","""event"",""trial"",""time""
""fullscreenenter"",""1"",""3837""
","
","","","1009.9000015258789","","","11","10109","2433","f","elianto","#3366ff99"," "," ","1","+10","[1860.7000007629395]","1","2","","","10109","62","1","1","win","go","0"
"pit-trial","181","1235584","0.0-67.0","battery-v0.2","","""event"",""trial"",""time""
""fullscreenenter"",""1"",""3837""
","
","
","""event"",""trial"",""time""
""fullscreenenter"",""1"",""3837""
","
","","","1638.5","","","11","10109","2433","b","elianto","#f73b6a7A"," "," ","1","-10","[2489.2999992370605]","1","2","","","10109","63","3","3","lose","go","1"
"pit-trial","182","1240438","0.0-68.0","battery-v0.2","","""event"",""trial"",""time""
""fullscreenenter"",""1"",""3837""
","
","
","""event"",""trial"",""time""
""fullscreenenter"",""1"",""3837""
","
","","","-1","","","11","10109","2433","c","elianto","#3366ff99","-1","-1","1","0","[]","0","2","","","10109","64","4","2","win","no-go","1"
"pit-trial","183","1245291","0.0-69.0","battery-v0.2","","""event"",""trial"",""time""
""fullscreenenter"",""1"",""3837""
","
","
","""event"",""trial"",""time""
""fullscreenenter"",""1"",""3837""
","
","","","-1","","","11","10109","2433","t","elianto","#f73b6a7A","-1","-1","1","0","[]","0","2","","","10109","65","2","4","lose","no-go","0"
"pit-trial","184","1249500","0.0-70.0","battery-v0.2","","""event"",""trial"",""time""
""fullscreenenter"",""1"",""3837""
","
","
","""event"",""trial"",""time""
""fullscreenenter"",""1"",""3837""
","
","","","1355.6000003814697","","","11","10109","2433","b","elianto","#f73b6a7A"," "," ","1","0","[2206.8999996185303]","1","2","","","10109","66","3","3","lose","go","0"
"pit-trial","185","1254354","0.0-71.0","battery-v0.2","","""event"",""trial"",""time""
""fullscreenenter"",""1"",""3837""
","
","
","""event"",""trial"",""time""
""fullscreenenter"",""1"",""3837""
","
","","","-1","","","11","10109","2433","c","elianto","#3366ff99","-1","-1","1","0","[2878]","1","2","","","10109","67","4","2","win","no-go","1"
"pit-trial","186","1259207","0.0-72.0","battery-v0.2","","""event"",""trial"",""time""
""fullscreenenter"",""1"",""3837""
","
","
","""event"",""trial"",""time""
""fullscreenenter"",""1"",""3837""
","
","","","-1","","","11","10109","2433","f","elianto","#3366ff99"," ","-1","0","+10","[4255]","1","2","","","10109","68","1","1","win","go","1"
"pit-trial","187","1263742","0.0-73.0","battery-v0.2","","""event"",""trial"",""time""
""fullscreenenter"",""1"",""3837""
","
","
","""event"",""trial"",""time""
""fullscreenenter"",""1"",""3837""
","
","","","1680.6000003814697","","","11","10109","2433","z","elianto","#3366ff99"," "," ","1","+10","[2532.5]","1","2","","","10109","69","5","1","win","go","0"
"pit-trial","188","1268595","0.0-74.0","battery-v0.2","","""event"",""trial"",""time""
""fullscreenenter"",""1"",""3837""
","
","
","""event"",""trial"",""time""
""fullscreenenter"",""1"",""3837""
","
","","","-1","","","11","10109","2433","f","elianto","#3366ff99"," ","-1","0","0","[]","0","2","","","10109","70","1","1","win","go","0"
"pit-trial","189","1272257","0.0-75.0","battery-v0.2","","""event"",""trial"",""time""
""fullscreenenter"",""1"",""3837""
","
","
","""event"",""trial"",""time""
""fullscreenenter"",""1"",""3837""
","
","","","808.7000007629395","","","11","10109","2433","c","elianto","#3366ff99","-1"," ","0","0","[1659.3000011444092]","1","2","","","10109","71","4","2","win","no-go","0"
"pit-trial","190","1276202","0.0-76.0","battery-v0.2","","""event"",""trial"",""time""
""fullscreenenter"",""1"",""3837""
","
","
","""event"",""trial"",""time""
""fullscreenenter"",""1"",""3837""
","
","","","1091.7999992370605","","","11","10109","2433","b","elianto","#f73b6a7A"," "," ","1","0","[1942.3999996185303]","1","2","","","10109","72","3","3","lose","go","0"
"pit-trial","191","1279965","0.0-77.0","battery-v0.2","","""event"",""trial"",""time""
""fullscreenenter"",""1"",""3837""
","
","
","""event"",""trial"",""time""
""fullscreenenter"",""1"",""3837""
","
","","","909.8999996185303","","","11","10109","2433","z","elianto","#3366ff99"," "," ","1","0","[1761.2000007629395]","1","2","","","10109","73","5","1","win","go","1"
"pit-trial","192","1284819","0.0-78.0","battery-v0.2","","""event"",""trial"",""time""
""fullscreenenter"",""1"",""3837""
","
","
","""event"",""trial"",""time""
""fullscreenenter"",""1"",""3837""
","
","","","-1","","","11","10109","2433","b","elianto","#f73b6a7A"," ","-1","0","-10","[]","0","2","","","10109","74","3","3","lose","go","0"
"pit-trial","193","1288382","0.0-79.0","battery-v0.2","","""event"",""trial"",""time""
""fullscreenenter"",""1"",""3837""
","
","
","""event"",""trial"",""time""
""fullscreenenter"",""1"",""3837""
","
","","","709.2999992370605","","","11","10109","2433","c","elianto","#3366ff99","-1"," ","0","0","[1560.5]","1","2","","","10109","75","4","2","win","no-go","0"
"pit-trial","194","1292090","0.0-80.0","battery-v0.2","","""event"",""trial"",""time""
""fullscreenenter"",""1"",""3837""
","
","
","""event"",""trial"",""time""
""fullscreenenter"",""1"",""3837""
","
","","","854.5999984741211","","","11","10109","2433","f","elianto","#3366ff99"," "," ","1","0","[1705.5]","1","2","","","10109","76","1","1","win","go","1"
"pit-trial","195","1295844","0.0-81.0","battery-v0.2","","""event"",""trial"",""time""
""fullscreenenter"",""1"",""3837""
","
","
","""event"",""trial"",""time""
""fullscreenenter"",""1"",""3837""
","
","","","899.6999988555908","","","11","10109","2433","b","elianto","#f73b6a7A"," "," ","1","0","[1750.8999996185303]","1","2","","","10109","77","3","3","lose","go","0"
"pit-trial","196","1299582","0.0-82.0","battery-v0.2","","""event"",""trial"",""time""
""fullscreenenter"",""1"",""3837""
","
","
","""event"",""trial"",""time""
""fullscreenenter"",""1"",""3837""
","
","","","884.8999996185303","","","11","10109","2433","c","elianto","#3366ff99","-1"," ","0","0","[1735.1999988555908]","1","2","","","10109","78","4","2","win","no-go","0"
"pit-trial","197","1304436","0.0-83.0","battery-v0.2","","""event"",""trial"",""time""
""fullscreenenter"",""1"",""3837""
","
","
","""event"",""trial"",""time""
""fullscreenenter"",""1"",""3837""
","
","","","-1","","","11","10109","2433","h","elianto","#f73b6a7A","-1","-1","1","0","[]","0","2","","","10109","79","6","4","lose","no-go","0"
"pit-trial","198","1307994","0.0-84.0","battery-v0.2","","""event"",""trial"",""time""
""fullscreenenter"",""1"",""3837""
","
","
","""event"",""trial"",""time""
""fullscreenenter"",""1"",""3837""
","
","","","704","","","11","10109","2433","z","elianto","#3366ff99"," "," ","1","+10","[1554.5]","1","2","","","10109","80","5","1","win","go","0"
"pit-trial","199","1312156","0.0-85.0","battery-v0.2","","""event"",""trial"",""time""
""fullscreenenter"",""1"",""3837""
","
","
","""event"",""trial"",""time""
""fullscreenenter"",""1"",""3837""
","
","","","1308.2000007629395","","","11","10109","2433","c","elianto","#3366ff99","-1"," ","0","0","[2159.300001144409]","1","2","","","10109","81","4","2","win","no-go","0"
"pit-trial","200","1316112","0.0-86.0","battery-v0.2","","""event"",""trial"",""time""
""fullscreenenter"",""1"",""3837""
","
","
","""event"",""trial"",""time""
""fullscreenenter"",""1"",""3837""
","
","","","1103.2000007629395","","","11","10109","2433","z","elianto","#3366ff99"," "," ","1","+10","[1954]","1","2","","","10109","82","5","1","win","go","0"
"pit-trial","201","1320294","0.0-87.0","battery-v0.2","","""event"",""trial"",""time""
""fullscreenenter"",""1"",""3837""
","
","
","""event"",""trial"",""time""
""fullscreenenter"",""1"",""3837""
","
","","","1329","","","11","10109","2433","y","elianto","#f73b6a7A"," "," ","1","0","[2179.7000007629395]","1","2","","","10109","83","7","3","lose","go","0"
"pit-trial","202","1323937","0.0-88.0","battery-v0.2","","""event"",""trial"",""time""
""fullscreenenter"",""1"",""3837""
","
","
","""event"",""trial"",""time""
""fullscreenenter"",""1"",""3837""
","
","","","790.1000003814697","","","11","10109","2433","h","elianto","#f73b6a7A","-1"," ","0","0","[1640.5]","1","2","","","10109","84","6","4","lose","no-go","1"
"pit-trial","203","1328791","0.0-89.0","battery-v0.2","","""event"",""trial"",""time""
""fullscreenenter"",""1"",""3837""
","
","
","""event"",""trial"",""time""
""fullscreenenter"",""1"",""3837""
","
","","","-1","","","11","10109","2433","c","elianto","#3366ff99","-1","-1","1","0","[]","0","2","","","10109","85","4","2","win","no-go","1"
"pit-trial","204","1333645","0.0-90.0","battery-v0.2","","""event"",""trial"",""time""
""fullscreenenter"",""1"",""3837""
","
","
","""event"",""trial"",""time""
""fullscreenenter"",""1"",""3837""
","
","","","-1","","","11","10109","2433","h","elianto","#f73b6a7A","-1","-1","1","-10","[]","0","2","","","10109","86","6","4","lose","no-go","1"
"pit-trial","205","1337334","0.0-91.0","battery-v0.2","","""event"",""trial"",""time""
""fullscreenenter"",""1"",""3837""
","
","
","""event"",""trial"",""time""
""fullscreenenter"",""1"",""3837""
","
","","","834.5","","","11","10109","2433","y","elianto","#f73b6a7A"," "," ","1","0","[1684.7999992370605]","1","2","","","10109","87","7","3","lose","go","0"
"pit-trial","206","1341095","0.0-92.0","battery-v0.2","","""event"",""trial"",""time""
""fullscreenenter"",""1"",""3837""
","
","
","""event"",""trial"",""time""
""fullscreenenter"",""1"",""3837""
","
","","","907.9000015258789","","","11","10109","2433","z","elianto","#3366ff99"," "," ","1","0","[1758.3000011444092]","1","2","","","10109","88","5","1","win","go","1"
"pit-trial","207","1345515","0.0-93.0","battery-v0.2","","""event"",""trial"",""time""
""fullscreenenter"",""1"",""3837""
","
","
","""event"",""trial"",""time""
""fullscreenenter"",""1"",""3837""
","
","","","1567.2999992370605","","","11","10109","2433","c","elianto","#3366ff99","-1"," ","0","0","[2418.199998855591]","1","2","","","10109","89","4","2","win","no-go","0"
"pit-trial","208","1349735","0.0-94.0","battery-v0.2","","""event"",""trial"",""time""
""fullscreenenter"",""1"",""3837""
","
","
","""event"",""trial"",""time""
""fullscreenenter"",""1"",""3837""
","
","","","1367.1999988555908","","","11","10109","2433","z","elianto","#3366ff99"," "," ","1","+10","[2217.199998855591]","1","2","","","10109","90","5","1","win","go","0"
"pit-trial","209","1353724","0.0-95.0","battery-v0.2","","""event"",""trial"",""time""
""fullscreenenter"",""1"",""3837""
","
","
","""event"",""trial"",""time""
""fullscreenenter"",""1"",""3837""
","
","","","1135.7999992370605","","","11","10109","2433","y","elianto","#f73b6a7A"," "," ","1","-10","[1986.1999988555908]","1","2","","","10109","91","7","3","lose","go","1"
"pit-trial","210","1358577","0.0-96.0","battery-v0.2","","""event"",""trial"",""time""
""fullscreenenter"",""1"",""3837""
","
","
","""event"",""trial"",""time""
""fullscreenenter"",""1"",""3837""
","
","","","-1","","","11","10109","2433","h","elianto","#f73b6a7A","-1","-1","1","0","[]","0","2","","","10109","92","6","4","lose","no-go","0"
"pit-trial","211","1363430","0.0-97.0","battery-v0.2","","""event"",""trial"",""time""
""fullscreenenter"",""1"",""3837""
","
","
","""event"",""trial"",""time""
""fullscreenenter"",""1"",""3837""
","
","","","-1","","","11","10109","2433","h","elianto","#f73b6a7A","-1","-1","1","0","[]","0","2","","","10109","93","6","4","lose","no-go","0"
"pit-trial","212","1367525","0.0-98.0","battery-v0.2","","""event"",""trial"",""time""
""fullscreenenter"",""1"",""3837""
","
","
","""event"",""trial"",""time""
""fullscreenenter"",""1"",""3837""
","
","","","1242.1000003814697","","","11","10109","2433","r","elianto","#3366ff99","-1"," ","0","0","[2092.2000007629395]","1","2","","","10109","94","8","2","win","no-go","0"
"pit-trial","213","1372379","0.0-99.0","battery-v0.2","","""event"",""trial"",""time""
""fullscreenenter"",""1"",""3837""
","
","
","""event"",""trial"",""time""
""fullscreenenter"",""1"",""3837""
","
","","","-1","","","11","10109","2433","y","elianto","#f73b6a7A"," ","-1","0","-10","[]","0","2","","","10109","95","7","3","lose","go","0"
"pit-trial","214","1376299","0.0-100.0","battery-v0.2","","""event"",""trial"",""time""
""fullscreenenter"",""1"",""3837""
","
","
","""event"",""trial"",""time""
""fullscreenenter"",""1"",""3837""
","
","","","1065.8000011444092","","","11","10109","2433","z","elianto","#3366ff99"," "," ","1","+10","[1917.5]","1","2","","","10109","96","5","1","win","go","0"
"pit-trial","215","1379744","0.0-101.0","battery-v0.2","","""event"",""trial"",""time""
""fullscreenenter"",""1"",""3837""
","
","
","""event"",""trial"",""time""
""fullscreenenter"",""1"",""3837""
","
","","","591.6000003814697","","","11","10109","2433","z","elianto","#3366ff99"," "," ","1","+10","[1442.5]","1","2","","","10109","97","5","1","win","go","0"
"pit-trial","216","1384598","0.0-102.0","battery-v0.2","","""event"",""trial"",""time""
""fullscreenenter"",""1"",""3837""
","
","
","""event"",""trial"",""time""
""fullscreenenter"",""1"",""3837""
","
","","","-1","","","11","10109","2433","h","elianto","#f73b6a7A","-1","-1","1","0","[]","0","2","","","10109","98","6","4","lose","no-go","0"
"pit-trial","217","1388640","0.0-103.0","battery-v0.2","","""event"",""trial"",""time""
""fullscreenenter"",""1"",""3837""
","
","
","""event"",""trial"",""time""
""fullscreenenter"",""1"",""3837""
","
","","","1187.7000007629395","","","11","10109","2433","r","elianto","#3366ff99","-1"," ","0","0","[2039.3999996185303]","1","2","","","10109","99","8","2","win","no-go","0"
"pit-trial","218","1393494","0.0-104.0","battery-v0.2","","""event"",""trial"",""time""
""fullscreenenter"",""1"",""3837""
","
","
","""event"",""trial"",""time""
""fullscreenenter"",""1"",""3837""
","
","","","-1","","","11","10109","2433","y","elianto","#f73b6a7A"," ","-1","0","-10","[]","0","2","","","10109","100","7","3","lose","go","0"
"pit-trial","219","1397561","0.0-105.0","battery-v0.2","","""event"",""trial"",""time""
""fullscreenenter"",""1"",""3837""
","
","
","""event"",""trial"",""time""
""fullscreenenter"",""1"",""3837""
","
","","","1212.8000011444092","","","11","10109","2433","z","elianto","#3366ff99"," "," ","1","+10","[2063.800001144409]","1","2","","","10109","101","5","1","win","go","0"
"pit-trial","220","1402415","0.0-106.0","battery-v0.2","","""event"",""trial"",""time""
""fullscreenenter"",""1"",""3837""
","
","
","""event"",""trial"",""time""
""fullscreenenter"",""1"",""3837""
","
","","","-1","","","11","10109","2433","h","elianto","#f73b6a7A","-1","-1","1","0","[]","0","2","","","10109","102","6","4","lose","no-go","0"
"pit-trial","221","1405965","0.0-107.0","battery-v0.2","","""event"",""trial"",""time""
""fullscreenenter"",""1"",""3837""
","
","
","""event"",""trial"",""time""
""fullscreenenter"",""1"",""3837""
","
","","","697.8999996185303","","","11","10109","2433","r","elianto","#3366ff99","-1"," ","0","0","[1548.8999996185303]","1","2","","","10109","103","8","2","win","no-go","0"
"pit-trial","222","1410820","0.0-108.0","battery-v0.2","","""event"",""trial"",""time""
""fullscreenenter"",""1"",""3837""
","
","
","""event"",""trial"",""time""
""fullscreenenter"",""1"",""3837""
","
","","","-1","","","11","10109","2433","m","elianto","#3366ff99","-1","-1","1","+10","[]","0","2","","","10109","104","9","2","win","no-go","0"
"pit-trial","223","1415674","0.0-109.0","battery-v0.2","","""event"",""trial"",""time""
""fullscreenenter"",""1"",""3837""
","
","
","""event"",""trial"",""time""
""fullscreenenter"",""1"",""3837""
","
","","","-1","","","11","10109","2433","h","elianto","#f73b6a7A","-1","-1","1","-10","[]","0","2","","","10109","105","6","4","lose","no-go","1"
"pit-trial","224","1419306","0.0-110.0","battery-v0.2","","""event"",""trial"",""time""
""fullscreenenter"",""1"",""3837""
","
","
","""event"",""trial"",""time""
""fullscreenenter"",""1"",""3837""
","
","","","776.7000007629395","","","11","10109","2433","m","elianto","#3366ff99","-1"," ","0","0","[1628.6000003814697]","1","2","","","10109","106","9","2","win","no-go","0"
"pit-trial","225","1423385","0.0-111.0","battery-v0.2","","""event"",""trial"",""time""
""fullscreenenter"",""1"",""3837""
","
","
","""event"",""trial"",""time""
""fullscreenenter"",""1"",""3837""
","
","","","1226.7999992370605","","","11","10109","2433","z","elianto","#3366ff99"," "," ","1","+10","[2077.300001144409]","1","2","","","10109","107","5","1","win","go","0"
"pit-trial","226","1427507","0.0-112.0","battery-v0.2","","""event"",""trial"",""time""
""fullscreenenter"",""1"",""3837""
","
","
","""event"",""trial"",""time""
""fullscreenenter"",""1"",""3837""
","
","","","1268.599998474121","","","11","10109","2433","r","elianto","#3366ff99","-1"," ","0","+10","[2119.099998474121]","1","2","","","10109","108","8","2","win","no-go","1"
"pit-trial","227","1431372","0.0-113.0","battery-v0.2","","""event"",""trial"",""time""
""fullscreenenter"",""1"",""3837""
","
","
","""event"",""trial"",""time""
""fullscreenenter"",""1"",""3837""
","
","","","1011.6000003814697","","","11","10109","2433","r","elianto","#3366ff99","-1"," ","0","0","[1861.6000003814697]","1","2","","","10109","109","8","2","win","no-go","0"
"pit-trial","228","1436225","0.0-114.0","battery-v0.2","","""event"",""trial"",""time""
""fullscreenenter"",""1"",""3837""
","
","
","""event"",""trial"",""time""
""fullscreenenter"",""1"",""3837""
","
","","","-1","","","11","10109","2433","h","elianto","#f73b6a7A","-1","-1","1","0","[]","0","2","","","10109","110","6","4","lose","no-go","0"
"pit-trial","229","1440428","0.0-115.0","battery-v0.2","","""event"",""trial"",""time""
""fullscreenenter"",""1"",""3837""
","
","
","""event"",""trial"",""time""
""fullscreenenter"",""1"",""3837""
","
","","","1349.6000003814697","","","11","10109","2433","z","elianto","#3366ff99"," "," ","1","0","[2200.5]","1","2","","","10109","111","5","1","win","go","1"
"pit-trial","230","1444640","0.0-116.0","battery-v0.2","","""event"",""trial"",""time""
""fullscreenenter"",""1"",""3837""
","
","
","""event"",""trial"",""time""
""fullscreenenter"",""1"",""3837""
","
","","","1358.6000003814697","","","11","10109","2433","m","elianto","#3366ff99","-1"," ","0","0","[2209.2999992370605]","1","2","","","10109","112","9","2","win","no-go","0"
"pit-trial","231","1449494","0.0-117.0","battery-v0.2","","""event"",""trial"",""time""
""fullscreenenter"",""1"",""3837""
","
","
","""event"",""trial"",""time""
""fullscreenenter"",""1"",""3837""
","
","","","-1","","","11","10109","2433","m","elianto","#3366ff99","-1","-1","1","+10","[]","0","2","","","10109","113","9","2","win","no-go","0"
"pit-trial","232","1453853","0.0-118.0","battery-v0.2","","""event"",""trial"",""time""
""fullscreenenter"",""1"",""3837""
","
","
","""event"",""trial"",""time""
""fullscreenenter"",""1"",""3837""
","
","","","1506.6000003814697","","","11","10109","2433","z","elianto","#3366ff99"," "," ","1","+10","[2357]","1","2","","","10109","114","5","1","win","go","0"
"pit-trial","233","1458092","0.0-119.0","battery-v0.2","","""event"",""trial"",""time""
""fullscreenenter"",""1"",""3837""
","
","
","""event"",""trial"",""time""
""fullscreenenter"",""1"",""3837""
","
","","","1383.3000011444092","","","11","10109","2433","r","elianto","#3366ff99","-1"," ","0","+10","[2234.5]","1","2","","","10109","115","8","2","win","no-go","1"
"pit-trial","234","1461904","0.0-120.0","battery-v0.2","","""event"",""trial"",""time""
""fullscreenenter"",""1"",""3837""
","
","
","""event"",""trial"",""time""
""fullscreenenter"",""1"",""3837""
","
","","","958","","","11","10109","2433","y","elianto","#f73b6a7A"," "," ","1","0","[1808.5]","1","2","","","10109","116","7","3","lose","go","0"
"pit-trial","235","1466199","0.0-121.0","battery-v0.2","","""event"",""trial"",""time""
""fullscreenenter"",""1"",""3837""
","
","
","""event"",""trial"",""time""
""fullscreenenter"",""1"",""3837""
","
","","","1441.8000011444092","","","11","10109","2433","r","elianto","#3366ff99","-1"," ","0","+10","[2292.2000007629395]","1","2","","","10109","117","8","2","win","no-go","1"
"pit-trial","236","1470580","0.0-122.0","battery-v0.2","","""event"",""trial"",""time""
""fullscreenenter"",""1"",""3837""
","
","
","""event"",""trial"",""time""
""fullscreenenter"",""1"",""3837""
","
","","","1526.8999996185303","","","11","10109","2433","m","elianto","#3366ff99","-1"," ","0","0","[2378.1000003814697]","1","2","","","10109","118","9","2","win","no-go","0"
"pit-trial","237","1475436","0.0-123.0","battery-v0.2","","""event"",""trial"",""time""
""fullscreenenter"",""1"",""3837""
","
","
","""event"",""trial"",""time""
""fullscreenenter"",""1"",""3837""
","
","","","-1","","","11","10109","2433","h","elianto","#f73b6a7A","-1","-1","1","0","[3679.6000003814697]","1","2","","","10109","119","6","4","lose","no-go","0"
"pit-trial","238","1479900","0.0-124.0","battery-v0.2","","""event"",""trial"",""time""
""fullscreenenter"",""1"",""3837""
","
","
","""event"",""trial"",""time""
""fullscreenenter"",""1"",""3837""
","
","","","1610.8000011444092","","","11","10109","2433","z","elianto","#3366ff99"," "," ","1","+10","[2461.7000007629395]","1","2","","","10109","120","5","1","win","go","0"
"pit-trial","239","1484618","0.0-125.0","battery-v0.2","","""event"",""trial"",""time""
""fullscreenenter"",""1"",""3837""
","
","
","""event"",""trial"",""time""
""fullscreenenter"",""1"",""3837""
","
","","","1863.6999988555908","","","11","10109","2433","y","elianto","#f73b6a7A"," "," ","1","-10","[2715.3999996185303]","1","2","","","10109","121","7","3","lose","go","1"
"pit-trial","240","1488952","0.0-126.0","battery-v0.2","","""event"",""trial"",""time""
""fullscreenenter"",""1"",""3837""
","
","
","""event"",""trial"",""time""
""fullscreenenter"",""1"",""3837""
","
","","","1480","","","11","10109","2433","z","elianto","#3366ff99"," "," ","1","0","[2331]","1","2","","","10109","122","5","1","win","go","1"
"pit-trial","241","1493806","0.0-127.0","battery-v0.2","","""event"",""trial"",""time""
""fullscreenenter"",""1"",""3837""
","
","
","""event"",""trial"",""time""
""fullscreenenter"",""1"",""3837""
","
","","","-1","","","11","10109","2433","m","elianto","#3366ff99","-1","-1","1","+10","[]","0","2","","","10109","123","9","2","win","no-go","0"
"pit-trial","242","1498104","0.0-128.0","battery-v0.2","","""event"",""trial"",""time""
""fullscreenenter"",""1"",""3837""
","
","
","""event"",""trial"",""time""
""fullscreenenter"",""1"",""3837""
","
","","","1443.2000007629395","","","11","10109","2433","r","elianto","#3366ff99","-1"," ","0","0","[2294.1000003814697]","1","2","","","10109","124","8","2","win","no-go","0"
"pit-trial","243","1502041","0.0-129.0","battery-v0.2","","""event"",""trial"",""time""
""fullscreenenter"",""1"",""3837""
","
","
","""event"",""trial"",""time""
""fullscreenenter"",""1"",""3837""
","
","","","1082.8000011444092","","","11","10109","2433","h","elianto","#f73b6a7A","-1"," ","0","-10","[1933.7000007629395]","1","2","","","10109","125","6","4","lose","no-go","0"
"pit-trial","244","1506895","0.0-130.0","battery-v0.2","","""event"",""trial"",""time""
""fullscreenenter"",""1"",""3837""
","
","
","""event"",""trial"",""time""
""fullscreenenter"",""1"",""3837""
","
","","","-1","","","11","10109","2433","y","elianto","#f73b6a7A"," ","-1","0","0","[]","0","2","","","10109","126","7","3","lose","go","1"
"pit-trial","245","1511749","0.0-131.0","battery-v0.2","","""event"",""trial"",""time""
""fullscreenenter"",""1"",""3837""
","
","
","""event"",""trial"",""time""
""fullscreenenter"",""1"",""3837""
","
","","","-1","","","11","10109","2433","m","elianto","#3366ff99","-1","-1","1","+10","[2852.6000003814697]","1","2","","","10109","127","9","2","win","no-go","0"
"pit-trial","246","1516603","0.0-132.0","battery-v0.2","","""event"",""trial"",""time""
""fullscreenenter"",""1"",""3837""
","
","
","""event"",""trial"",""time""
""fullscreenenter"",""1"",""3837""
","
","","","-1","","","11","10109","2433","r","elianto","#3366ff99","-1","-1","1","+10","[3542.900001525879]","1","2","","","10109","128","8","2","win","no-go","0"
"pit-trial","247","1521090","0.0-133.0","battery-v0.2","","""event"",""trial"",""time""
""fullscreenenter"",""1"",""3837""
","
","
","""event"",""trial"",""time""
""fullscreenenter"",""1"",""3837""
","
","","","1631.400001525879","","","11","10109","2433","h","elianto","#f73b6a7A","-1"," ","0","-10","[2481.800001144409]","1","2","","","10109","129","6","4","lose","no-go","0"
"pit-trial","248","1524786","0.0-134.0","battery-v0.2","","""event"",""trial"",""time""
""fullscreenenter"",""1"",""3837""
","
","
","""event"",""trial"",""time""
""fullscreenenter"",""1"",""3837""
","
","","","843.3999996185303","","","11","10109","2433","m","elianto","#3366ff99","-1"," ","0","0","[1693.7000007629395]","1","2","","","10109","130","9","2","win","no-go","0"
"pit-trial","249","1528680","0.0-135.0","battery-v0.2","","""event"",""trial"",""time""
""fullscreenenter"",""1"",""3837""
","
","
","""event"",""trial"",""time""
""fullscreenenter"",""1"",""3837""
","
","","","1039.7999992370605","","","11","10109","2433","y","elianto","#f73b6a7A"," "," ","1","-10","[1890.1999988555908]","1","2","","","10109","131","7","3","lose","go","1"
"pit-trial","250","1533099","0.0-136.0","battery-v0.2","","""event"",""trial"",""time""
""fullscreenenter"",""1"",""3837""
","
","
","""event"",""trial"",""time""
""fullscreenenter"",""1"",""3837""
","
","","","1566.7000007629395","","","11","10109","2433","r","elianto","#3366ff99","-1"," ","0","+10","[2416.7000007629395]","1","2","","","10109","132","8","2","win","no-go","1"
"pit-trial","251","1537953","0.0-137.0","battery-v0.2","","""event"",""trial"",""time""
""fullscreenenter"",""1"",""3837""
","
","
","""event"",""trial"",""time""
""fullscreenenter"",""1"",""3837""
","
","","","-1","","","11","10109","2433","y","elianto","#f73b6a7A"," ","-1","0","-10","[]","0","2","","","10109","133","7","3","lose","go","0"
"pit-trial","252","1541802","0.0-138.0","battery-v0.2","","""event"",""trial"",""time""
""fullscreenenter"",""1"",""3837""
","
","
","""event"",""trial"",""time""
""fullscreenenter"",""1"",""3837""
","
","","","995.3000011444092","","","11","10109","2433","m","elianto","#3366ff99","-1"," ","0","0","[1845.7000007629395]","1","2","","","10109","134","9","2","win","no-go","0"
"pit-trial","253","1545994","0.0-139.0","battery-v0.2","","""event"",""trial"",""time""
""fullscreenenter"",""1"",""3837""
","
","
","""event"",""trial"",""time""
""fullscreenenter"",""1"",""3837""
","
","","","1339.3999996185303","","","11","10109","2433","r","elianto","#3366ff99","-1"," ","0","+10","[2190.2000007629395]","1","2","","","10109","135","8","2","win","no-go","1"
"pit-trial","254","1550846","0.0-140.0","battery-v0.2","","""event"",""trial"",""time""
""fullscreenenter"",""1"",""3837""
","
","
","""event"",""trial"",""time""
""fullscreenenter"",""1"",""3837""
","
","","","-1","","","11","10109","2433","h","elianto","#f73b6a7A","-1","-1","1","0","[2961.3999996185303]","1","2","","","10109","136","6","4","lose","no-go","0"
"pit-trial","255","1555248","0.0-141.0","battery-v0.2","","""event"",""trial"",""time""
""fullscreenenter"",""1"",""3837""
","
","
","""event"",""trial"",""time""
""fullscreenenter"",""1"",""3837""
","
","","","1548.6000003814697","","","11","10109","2433","y","elianto","#f73b6a7A"," "," ","1","0","[2399.5]","1","2","","","10109","137","7","3","lose","go","0"
"pit-trial","256","1560101","0.0-142.0","battery-v0.2","","""event"",""trial"",""time""
""fullscreenenter"",""1"",""3837""
","
","
","""event"",""trial"",""time""
""fullscreenenter"",""1"",""3837""
","
","","","-1","","","11","10109","2433","m","elianto","#3366ff99","-1","-1","1","+10","[3206.2000007629395]","1","2","","","10109","138","9","2","win","no-go","0"
"pit-trial","257","1564955","0.0-143.0","battery-v0.2","","""event"",""trial"",""time""
""fullscreenenter"",""1"",""3837""
","
","
","""event"",""trial"",""time""
""fullscreenenter"",""1"",""3837""
","
","","","-1","","","11","10109","2433","h","elianto","#f73b6a7A","-1","-1","1","0","[]","0","2","","","10109","139","6","4","lose","no-go","0"
"pit-trial","258","1569811","0.0-144.0","battery-v0.2","","""event"",""trial"",""time""
""fullscreenenter"",""1"",""3837""
","
","
","""event"",""trial"",""time""
""fullscreenenter"",""1"",""3837""
","
","","","-1","","","11","10109","2433","r","elianto","#3366ff99","-1","-1","1","+10","[]","0","2","","","10109","140","8","2","win","no-go","0"
"pit-instructions","259","1741018","0.0-145.0","battery-v0.2","","""event"",""trial"",""time""
""fullscreenenter"",""1"",""3837""
","
","
","""event"",""trial"",""time""
""fullscreenenter"",""1"",""3837""
","
","","[{""page_index"":0,""viewing_time"":159937.10000038147},{""page_index"":1,""viewing_time"":11268.19999885559}]","171206.10000038147","","","","","","","","","","","","","","","","","","","","","","","",""
"pit-trial","260","1744703","0.0-146.0","battery-v0.2","","""event"",""trial"",""time""
""fullscreenenter"",""1"",""3837""
","
","
","""event"",""trial"",""time""
""fullscreenenter"",""1"",""3837""
","
","","","822.7000007629395","","","11","10109","2433","u","elianto","#f73b6a7A"," "," ","1","0","[1673.3000011444092]","1","3","","","10109","141","0","3","lose","go","0"
"pit-trial","261","1748117","0.0-147.0","battery-v0.2","","""event"",""trial"",""time""
""fullscreenenter"",""1"",""3837""
","
","
","""event"",""trial"",""time""
""fullscreenenter"",""1"",""3837""
","
","","","545.6000003814697","","","11","10109","2433","a","elianto","#f73b6a7A"," "," ","1","0","[1408.8999996185303]","1","3","","","10109","142","2","3","lose","go","0"
"pit-trial","262","1751649","0.0-148.0","battery-v0.2","","""event"",""trial"",""time""
""fullscreenenter"",""1"",""3837""
","
","
","""event"",""trial"",""time""
""fullscreenenter"",""1"",""3837""
","
","","","674.2000007629395","","","11","10109","2433","l","elianto","#3366ff99","-1"," ","0","0","[1525.8000011444092]","1","3","","","10109","143","1","2","win","no-go","0"
"pit-trial","263","1755911","0.0-149.0","battery-v0.2","","""event"",""trial"",""time""
""fullscreenenter"",""1"",""3837""
","
","
","""event"",""trial"",""time""
""fullscreenenter"",""1"",""3837""
","
","","","1388.8999996185303","","","11","10109","2433","g","elianto","#f73b6a7A","-1"," ","0","-10","[2251.7000007629395]","1","3","","","10109","144","3","4","lose","no-go","0"
"pit-trial","264","1759773","0.0-150.0","battery-v0.2","","""event"",""trial"",""time""
""fullscreenenter"",""1"",""3837""
","
","
","""event"",""trial"",""time""
""fullscreenenter"",""1"",""3837""
","
","","","985.9000015258789","","","11","10109","2433","a","elianto","#f73b6a7A"," "," ","1","0","[1848.3000011444092]","1","3","","","10109","145","2","3","lose","go","0"
"pit-trial","265","1764641","0.0-151.0","battery-v0.2","","""event"",""trial"",""time""
""fullscreenenter"",""1"",""3837""
","
","
","""event"",""trial"",""time""
""fullscreenenter"",""1"",""3837""
","
