"trial_type","trial_index","time_elapsed","internal_node_id","task_version","subject_id","interactions","blur_events","focus_events","fullscreenenter_events","fullscreenexit_events","success","view_history","rt","responses","num_errors","age","subject","participantId","rune","rune_set","hex","correct","choice","accuracy","outcome","keys","total_keys","block","practice","value","sub","trial","stimulus","robot","valence","action","sham"
"pavlovia","0","7","0.0-0.0","battery-v0.2","","""event"",""trial"",""time""
""fullscreenenter"",""1"",""4725""
","
","
","""event"",""trial"",""time""
""fullscreenenter"",""1"",""4725""
","
","","","","","","","","","","","","","","","","","","","","","","","","","","",""
"fullscreen","1","5709","0.0-1.0","battery-v0.2","","""event"",""trial"",""time""
""fullscreenenter"",""1"",""4725""
","
","
","""event"",""trial"",""time""
""fullscreenenter"",""1"",""4725""
","
","true","","","","","","","","","","","","","","","","","","","","","","","","","",""
"pit-instructions","2","16924","0.0-2.0-0.0","battery-v0.2","","""event"",""trial"",""time""
""fullscreenenter"",""1"",""4725""
","
","
","""event"",""trial"",""time""
""fullscreenenter"",""1"",""4725""
","
","","[{""page_index"":0,""viewing_time"":11207.599999904633}]","11208.700000047684","","","","","","","","","","","","","","","","","","","","","","","",""
"pit-comprehension","3","19612","0.0-2.0-1.0-0.0","battery-v0.2","","""event"",""trial"",""time""
""fullscreenenter"",""1"",""4725""
","
","
","""event"",""trial"",""time""
""fullscreenenter"",""1"",""4725""
","
","","","2678.7999999523163","[""shark""]","0","17","4568","709","","","","","","","","","","","","","","","","","","",""
"pit-instructions","4","20671","0.0-2.0-1.0-1.0","battery-v0.2","","""event"",""trial"",""time""
""fullscreenenter"",""1"",""4725""
","
","
","""event"",""trial"",""time""
""fullscreenenter"",""1"",""4725""
","
","","[{""page_index"":0,""viewing_time"":1046.6000001430511}]","1047","","","","","","","","","","","","","","","","","","","","","","","",""
"pit-comprehension","5","23049","0.0-2.0-2.0-0.0","battery-v0.2","","""event"",""trial"",""time""
""fullscreenenter"",""1"",""4725""
","
","
","""event"",""trial"",""time""
""fullscreenenter"",""1"",""4725""
","
","","","2370.100000143051","[""tiger""]","0","17","4568","709","","","","","","","","","","","","","","","","","","",""
"pit-instructions","6","24135","0.0-2.0-2.0-1.0","battery-v0.2","","""event"",""trial"",""time""
""fullscreenenter"",""1"",""4725""
","
","
","""event"",""trial"",""time""
""fullscreenenter"",""1"",""4725""
","
","","[{""page_index"":0,""viewing_time"":1079.9000000953674}]","1080.2000000476837","","","","","","","","","","","","","","","","","","","","","","","",""
"pit-instructions","7","121512","0.0-2.0-3.0","battery-v0.2","","""event"",""trial"",""time""
""fullscreenenter"",""1"",""4725""
","
","
","""event"",""trial"",""time""
""fullscreenenter"",""1"",""4725""
","
","","[{""page_index"":0,""viewing_time"":10703.5},{""page_index"":1,""viewing_time"":6314},{""page_index"":2,""viewing_time"":7720.299999952316},{""page_index"":3,""viewing_time"":5079.5},{""page_index"":4,""viewing_time"":5298.700000047684},{""page_index"":5,""viewing_time"":6485.200000047684},{""page_index"":6,""viewing_time"":7407.5},{""page_index"":7,""viewing_time"":6269.700000047684},{""page_index"":8,""viewing_time"":6171.5},{""page_index"":9,""viewing_time"":7848.299999952316},{""page_index"":10,""viewing_time"":7493.400000095367},{""page_index"":11,""viewing_time"":9329.299999952316},{""page_index"":12,""viewing_time"":6527.899999856949},{""page_index"":13,""viewing_time"":4720}]","97369.20000004768","","","","","","","","","","","","","","","","","","","","","","","",""
"pit-trial","8","124927","0.0-2.0-4.0-0.0","battery-v0.2","","""event"",""trial"",""time""
""fullscreenenter"",""1"",""4725""
","
","
","""event"",""trial"",""time""
""fullscreenenter"",""1"",""4725""
","
","","","554.2999999523163","","","17","4568","709","&#9784;","elianto","#FFFFF080"," "," ","1","&#10004","[847.3000001907349,1408.1000001430511]","2","0","0","","","","","","","",""
"pit-trial","9","128501","0.0-2.0-4.1-0.1","battery-v0.2","","""event"",""trial"",""time""
""fullscreenenter"",""1"",""4725""
","
","
","""event"",""trial"",""time""
""fullscreenenter"",""1"",""4725""
","
","","","709.8999998569489","","","17","4568","709","&#9784;","elianto","#FFFFF080"," "," ","1","&#10004","[1566.7000000476837]","1","0","0","","","","","","","",""
"pit-trial","10","131736","0.0-2.0-4.2-0.2","battery-v0.2","","""event"",""trial"",""time""
""fullscreenenter"",""1"",""4725""
","
","
","""event"",""trial"",""time""
""fullscreenenter"",""1"",""4725""
","
","","","362","","","17","4568","709","&#9784;","elianto","#FFFFF080"," "," ","1","&#10004","[1221.6000001430511]","1","0","0","","","","","","","",""
"pit-trial","11","134940","0.0-2.0-4.3-0.3","battery-v0.2","","""event"",""trial"",""time""
""fullscreenenter"",""1"",""4725""
","
","
","""event"",""trial"",""time""
""fullscreenenter"",""1"",""4725""
","
","","","336.5","","","17","4568","709","&#9784;","elianto","#FFFFF080"," "," ","1","&#10004","[1191.3999998569489]","1","0","0","","","","","","","",""
"pit-trial","12","138360","0.0-2.0-4.4-0.4","battery-v0.2","","""event"",""trial"",""time""
""fullscreenenter"",""1"",""4725""
","
","
","""event"",""trial"",""time""
""fullscreenenter"",""1"",""4725""
","
","","","548.8999998569489","","","17","4568","709","&#9784;","elianto","#FFFFF080"," "," ","1","&#10004","[1398.9000000953674]","1","0","0","","","","","","","",""
"pit-instructions","13","159217","0.0-2.0-5.0","battery-v0.2","","""event"",""trial"",""time""
""fullscreenenter"",""1"",""4725""
","
","
","""event"",""trial"",""time""
""fullscreenenter"",""1"",""4725""
","
","","[{""page_index"":0,""viewing_time"":4717.100000143051},{""page_index"":1,""viewing_time"":5380.299999952316},{""page_index"":2,""viewing_time"":4864.200000047684},{""page_index"":3,""viewing_time"":5888.099999904633}]","20850.800000190735","","","","","","","","","","","","","","","","","","","","","","","",""
"pit-trial","14","164091","0.0-2.0-6.0-0.0","battery-v0.2","","""event"",""trial"",""time""
""fullscreenenter"",""1"",""4725""
","
","
","""event"",""trial"",""time""
""fullscreenenter"",""1"",""4725""
","
","","","-1","","","17","4568","709","&#9854;","elianto","#FFFFF080","-1","-1","1","&#10004","[]","0","0","1","","","","","","","",""
"pit-trial","15","168976","0.0-2.0-6.1-0.1","battery-v0.2","","""event"",""trial"",""time""
""fullscreenenter"",""1"",""4725""
","
","
","""event"",""trial"",""time""
""fullscreenenter"",""1"",""4725""
","
","","","-1","","","17","4568","709","&#9854;","elianto","#FFFFF080","-1","-1","1","&#10004","[]","0","0","1","","","","","","","",""
"pit-trial","16","173862","0.0-2.0-6.2-0.2","battery-v0.2","","""event"",""trial"",""time""
""fullscreenenter"",""1"",""4725""
","
","
","""event"",""trial"",""time""
""fullscreenenter"",""1"",""4725""
","
","","","-1","","","17","4568","709","&#9854;","elianto","#FFFFF080","-1","-1","1","&#10004","[]","0","0","1","","","","","","","",""
"pit-trial","17","178755","0.0-2.0-6.3-0.3","battery-v0.2","","""event"",""trial"",""time""
""fullscreenenter"",""1"",""4725""
","
","
","""event"",""trial"",""time""
""fullscreenenter"",""1"",""4725""
","
","","","-1","","","17","4568","709","&#9854;","elianto","#FFFFF080","-1","-1","1","&#10004","[]","0","0","1","","","","","","","",""
"pit-trial","18","183675","0.0-2.0-6.4-0.4","battery-v0.2","","""event"",""trial"",""time""
""fullscreenenter"",""1"",""4725""
","
","
","""event"",""trial"",""time""
""fullscreenenter"",""1"",""4725""
","
","","","-1","","","17","4568","709","&#9854;","elianto","#FFFFF080","-1","-1","1","&#10004","[]","0","0","1","","","","","","","",""
"pit-instructions","19","317087","0.0-2.0-7.0","battery-v0.2","","""event"",""trial"",""time""
""fullscreenenter"",""1"",""4725""
","
","
","""event"",""trial"",""time""
""fullscreenenter"",""1"",""4725""
","
","","[{""page_index"":0,""viewing_time"":5850.600000143051},{""page_index"":1,""viewing_time"":7439.899999856949},{""page_index"":2,""viewing_time"":7199.700000047684},{""page_index"":3,""viewing_time"":10264.099999904633},{""page_index"":4,""viewing_time"":6952.100000143051},{""page_index"":5,""viewing_time"":7207.099999904633},{""page_index"":6,""viewing_time"":8024.400000095367},{""page_index"":7,""viewing_time"":11041.899999856949},{""page_index"":8,""viewing_time"":6062.5},{""page_index"":9,""viewing_time"":7946.700000047684},{""page_index"":10,""viewing_time"":7589},{""page_index"":11,""viewing_time"":6931.400000095367},{""page_index"":12,""viewing_time"":6100.5},{""page_index"":13,""viewing_time"":6688.200000047684},{""page_index"":14,""viewing_time"":7298.899999856949},{""page_index"":15,""viewing_time"":6825},{""page_index"":16,""viewing_time"":7067.100000143051},{""page_index"":17,""viewing_time"":6912.5}]","133402.40000009537","","","","","","","","","","","","","","","","","","","","","","","",""
"pit-trial","20","320395","0.0-2.0-8.0-0.0","battery-v0.2","","""event"",""trial"",""time""
""fullscreenenter"",""1"",""4725""
","
","
","""event"",""trial"",""time""
""fullscreenenter"",""1"",""4725""
","
","","","446.40000009536743","","","17","4568","709","&#9776;","elianto","#3366ff99"," "," ","1","+10","[1299.8000001907349]","1","0","1","","","","","","","",""
"pit-trial","21","323794","0.0-2.0-8.0-1.0","battery-v0.2","","""event"",""trial"",""time""
""fullscreenenter"",""1"",""4725""
","
","
","""event"",""trial"",""time""
""fullscreenenter"",""1"",""4725""
","
","","","523.0999999046326","","","17","4568","709","&#9776;","elianto","#3366ff99"," "," ","1","+10","[1374.7999999523163]","1","0","1","","","","","","","",""
"pit-trial","22","327164","0.0-2.0-8.0-2.0","battery-v0.2","","""event"",""trial"",""time""
""fullscreenenter"",""1"",""4725""
","
","
","""event"",""trial"",""time""
""fullscreenenter"",""1"",""4725""
","
","","","507.40000009536743","","","17","4568","709","&#9776;","elianto","#3366ff99"," "," ","1","+10","[1359.9000000953674]","1","0","1","","","","","","","",""
"pit-trial","23","330404","0.0-2.0-8.0-3.0","battery-v0.2","","""event"",""trial"",""time""
""fullscreenenter"",""1"",""4725""
","
","
","""event"",""trial"",""time""
""fullscreenenter"",""1"",""4725""
","
","","","376.7999999523163","","","17","4568","709","&#9776;","elianto","#3366ff99"," "," ","1","0","[1227.0999999046326]","1","0","1","","","","","","","",""
"pit-trial","24","333795","0.0-2.0-8.0-4.0","battery-v0.2","","""event"",""trial"",""time""
""fullscreenenter"",""1"",""4725""
","
","
","""event"",""trial"",""time""
""fullscreenenter"",""1"",""4725""
","
","","","513.5","","","17","4568","709","&#9776;","elianto","#3366ff99"," "," ","1","+10","[1371.6999998092651]","1","0","1","","","","","","","",""
"pit-trial","25","337064","0.0-2.0-8.1-0.1","battery-v0.2","","""event"",""trial"",""time""
""fullscreenenter"",""1"",""4725""
","
","
","""event"",""trial"",""time""
""fullscreenenter"",""1"",""4725""
","
","","","397.7999999523163","","","17","4568","709","&#9776;","elianto","#3366ff99"," "," ","1","+10","[1248.3000001907349]","1","0","1","","","","","","","",""
"pit-trial","26","340516","0.0-2.0-8.1-1.1","battery-v0.2","","""event"",""trial"",""time""
""fullscreenenter"",""1"",""4725""
","
","
","""event"",""trial"",""time""
""fullscreenenter"",""1"",""4725""
","
","","","582.3000001907349","","","17","4568","709","&#9776;","elianto","#3366ff99"," "," ","1","+10","[1442.5]","1","0","1","","","","","","","",""
"pit-trial","27","343939","0.0-2.0-8.1-2.1","battery-v0.2","","""event"",""trial"",""time""
""fullscreenenter"",""1"",""4725""
","
","
","""event"",""trial"",""time""
""fullscreenenter"",""1"",""4725""
","
","","","553.7000000476837","","","17","4568","709","&#9776;","elianto","#3366ff99"," "," ","1","+10","[1414.2000000476837]","1","0","1","","","","","","","",""
"pit-trial","28","347324","0.0-2.0-8.1-3.1","battery-v0.2","","""event"",""trial"",""time""
""fullscreenenter"",""1"",""4725""
","
","
","""event"",""trial"",""time""
""fullscreenenter"",""1"",""4725""
","
","","","526.7000000476837","","","17","4568","709","&#9776;","elianto","#3366ff99"," "," ","1","0","[1378.7999999523163]","1","0","1","","","","","","","",""
"pit-trial","29","350424","0.0-2.0-8.1-4.1","battery-v0.2","","""event"",""trial"",""time""
""fullscreenenter"",""1"",""4725""
","
","
","""event"",""trial"",""time""
""fullscreenenter"",""1"",""4725""
","
","","","223.90000009536743","","","17","4568","709","&#9776;","elianto","#3366ff99"," "," ","1","+10","[1080.9000000953674,1257.1000001430511]","2","0","1","","","","","","","",""
"pit-trial","30","353475","0.0-2.0-8.2-0.2","battery-v0.2","","""event"",""trial"",""time""
""fullscreenenter"",""1"",""4725""
","
","
","""event"",""trial"",""time""
""fullscreenenter"",""1"",""4725""
","
","","","185.29999995231628","","","17","4568","709","&#9776;","elianto","#3366ff99"," "," ","1","+10","[1036.9000000953674]","1","0","1","","","","","","","",""
"pit-trial","31","356428","0.0-2.0-8.2-1.2","battery-v0.2","","""event"",""trial"",""time""
""fullscreenenter"",""1"",""4725""
","
","
","""event"",""trial"",""time""
""fullscreenenter"",""1"",""4725""
","
","","","80.69999980926514","","","17","4568","709","&#9776;","elianto","#3366ff99"," "," ","1","+10","[939.4000000953674]","1","0","1","","","","","","","",""
"pit-trial","32","359356","0.0-2.0-8.2-2.2","battery-v0.2","","""event"",""trial"",""time""
""fullscreenenter"",""1"",""4725""
","
","
","""event"",""trial"",""time""
""fullscreenenter"",""1"",""4725""
","
","","","54.80000019073486","","","17","4568","709","&#9776;","elianto","#3366ff99"," "," ","1","+10","[913]","1","0","1","","","","","","","",""
"pit-trial","33","362404","0.0-2.0-8.2-3.2","battery-v0.2","","""event"",""trial"",""time""
""fullscreenenter"",""1"",""4725""
","
","
","""event"",""trial"",""time""
""fullscreenenter"",""1"",""4725""
","
","","","170.60000014305115","","","17","4568","709","&#9776;","elianto","#3366ff99"," "," ","1","0","[1023.2999999523163]","1","0","1","","","","","","","",""
"pit-trial","34","365620","0.0-2.0-8.2-4.2","battery-v0.2","","""event"",""trial"",""time""
""fullscreenenter"",""1"",""4725""
","
","
","""event"",""trial"",""time""
""fullscreenenter"",""1"",""4725""
","
","","","352","","","17","4568","709","&#9776;","elianto","#3366ff99"," "," ","1","+10","[1202.7000000476837]","1","0","1","","","","","","","",""
"call-function","35","365626","0.0-2.0-9.0","battery-v0.2","","""event"",""trial"",""time""
""fullscreenenter"",""1"",""4725""
","
","
","""event"",""trial"",""time""
""fullscreenenter"",""1"",""4725""
","
","","","","","","","","","","","","","","","","","","","","","","","","","","",""
"pit-instructions","36","403953","0.0-2.0-10.0","battery-v0.2","","""event"",""trial"",""time""
""fullscreenenter"",""1"",""4725""
","
","
","""event"",""trial"",""time""
""fullscreenenter"",""1"",""4725""
","
","","[{""page_index"":0,""viewing_time"":5714.599999904633},{""page_index"":1,""viewing_time"":7012},{""page_index"":2,""viewing_time"":9285.900000095367},{""page_index"":3,""viewing_time"":8535},{""page_index"":4,""viewing_time"":7777.699999809265}]","38325.799999952316","","","","","","","","","","","","","","","","","","","","","","","",""
"pit-trial","37","407243","0.0-2.0-11.0-0.0","battery-v0.2","","""event"",""trial"",""time""
""fullscreenenter"",""1"",""4725""
","
","
","""event"",""trial"",""time""
""fullscreenenter"",""1"",""4725""
","
","","","423.59999990463257","","","17","4568","709","&#9761;","elianto","#3366ff99","-1"," ","0","0","[1275.8999998569489]","1","0","2","","","","","","","",""
"pit-trial","38","412126","0.0-2.0-11.0-1.0","battery-v0.2","","""event"",""trial"",""time""
""fullscreenenter"",""1"",""4725""
","
","
","""event"",""trial"",""time""
""fullscreenenter"",""1"",""4725""
","
","","","-1","","","17","4568","709","&#9761;","elianto","#3366ff99","-1","-1","1","+10","[]","0","0","2","","","","","","","",""
"pit-trial","39","417015","0.0-2.0-11.0-2.0","battery-v0.2","","""event"",""trial"",""time""
""fullscreenenter"",""1"",""4725""
","
","
","""event"",""trial"",""time""
""fullscreenenter"",""1"",""4725""
","
","","","-1","","","17","4568","709","&#9761;","elianto","#3366ff99","-1","-1","1","+10","[]","0","0","2","","","","","","","",""
"pit-trial","40","421933","0.0-2.0-11.0-3.0","battery-v0.2","","""event"",""trial"",""time""
""fullscreenenter"",""1"",""4725""
","
","
","""event"",""trial"",""time""
""fullscreenenter"",""1"",""4725""
","
","","","-1","","","17","4568","709","&#9761;","elianto","#3366ff99","-1","-1","1","0","[]","0","0","2","","","","","","","",""
"pit-trial","41","426852","0.0-2.0-11.0-4.0","battery-v0.2","","""event"",""trial"",""time""
""fullscreenenter"",""1"",""4725""
","
","
","""event"",""trial"",""time""
""fullscreenenter"",""1"",""4725""
","
","","","-1","","","17","4568","709","&#9761;","elianto","#3366ff99","-1","-1","1","+10","[]","0","0","2","","","","","","","",""
"pit-trial","42","431772","0.0-2.0-11.1-0.1","battery-v0.2","","""event"",""trial"",""time""
""fullscreenenter"",""1"",""4725""
","
","
","""event"",""trial"",""time""
""fullscreenenter"",""1"",""4725""
","
","","","-1","","","17","4568","709","&#9761;","elianto","#3366ff99","-1","-1","1","+10","[]","0","0","2","","","","","","","",""
"pit-trial","43","436695","0.0-2.0-11.1-1.1","battery-v0.2","","""event"",""trial"",""time""
""fullscreenenter"",""1"",""4725""
","
","
","""event"",""trial"",""time""
""fullscreenenter"",""1"",""4725""
","
","","","-1","","","17","4568","709","&#9761;","elianto","#3366ff99","-1","-1","1","+10","[]","0","0","2","","","","","","","",""
"pit-trial","44","441591","0.0-2.0-11.1-2.1","battery-v0.2","","""event"",""trial"",""time""
""fullscreenenter"",""1"",""4725""
","
","
","""event"",""trial"",""time""
""fullscreenenter"",""1"",""4725""
","
","","","-1","","","17","4568","709","&#9761;","elianto","#3366ff99","-1","-1","1","+10","[]","0","0","2","","","","","","","",""
"pit-trial","45","446510","0.0-2.0-11.1-3.1","battery-v0.2","","""event"",""trial"",""time""
""fullscreenenter"",""1"",""4725""
","
","
","""event"",""trial"",""time""
""fullscreenenter"",""1"",""4725""
","
","","","-1","","","17","4568","709","&#9761;","elianto","#3366ff99","-1","-1","1","0","[]","0","0","2","","","","","","","",""
"pit-trial","46","451430","0.0-2.0-11.1-4.1","battery-v0.2","","""event"",""trial"",""time""
""fullscreenenter"",""1"",""4725""
","
","
","""event"",""trial"",""time""
""fullscreenenter"",""1"",""4725""
","
","","","-1","","","17","4568","709","&#9761;","elianto","#3366ff99","-1","-1","1","+10","[]","0","0","2","","","","","","","",""
"pit-trial","47","456326","0.0-2.0-11.2-0.2","battery-v0.2","","""event"",""trial"",""time""
""fullscreenenter"",""1"",""4725""
","
","
","""event"",""trial"",""time""
""fullscreenenter"",""1"",""4725""
","
","","","-1","","","17","4568","709","&#9761;","elianto","#3366ff99","-1","-1","1","+10","[]","0","0","2","","","","","","","",""
"pit-trial","48","461196","0.0-2.0-11.2-1.2","battery-v0.2","","""event"",""trial"",""time""
""fullscreenenter"",""1"",""4725""
","
","
","""event"",""trial"",""time""
""fullscreenenter"",""1"",""4725""
","
","","","-1","","","17","4568","709","&#9761;","elianto","#3366ff99","-1","-1","1","+10","[]","0","0","2","","","","","","","",""
"pit-trial","49","466119","0.0-2.0-11.2-2.2","battery-v0.2","","""event"",""trial"",""time""
""fullscreenenter"",""1"",""4725""
","
","
","""event"",""trial"",""time""
""fullscreenenter"",""1"",""4725""
","
","","","-1","","","17","4568","709","&#9761;","elianto","#3366ff99","-1","-1","1","+10","[]","0","0","2","","","","","","","",""
"pit-trial","50","471014","0.0-2.0-11.2-3.2","battery-v0.2","","""event"",""trial"",""time""
""fullscreenenter"",""1"",""4725""
","
","
","""event"",""trial"",""time""
""fullscreenenter"",""1"",""4725""
","
","","","-1","","","17","4568","709","&#9761;","elianto","#3366ff99","-1","-1","1","0","[]","0","0","2","","","","","","","",""
"pit-trial","51","475884","0.0-2.0-11.2-4.2","battery-v0.2","","""event"",""trial"",""time""
""fullscreenenter"",""1"",""4725""
","
","
","""event"",""trial"",""time""
""fullscreenenter"",""1"",""4725""
","
","","","-1","","","17","4568","709","&#9761;","elianto","#3366ff99","-1","-1","1","+10","[]","0","0","2","","","","","","","",""
"pit-trial","52","480757","0.0-2.0-11.3-0.3","battery-v0.2","","""event"",""trial"",""time""
""fullscreenenter"",""1"",""4725""
","
","
","""event"",""trial"",""time""
""fullscreenenter"",""1"",""4725""
","
","","","-1","","","17","4568","709","&#9761;","elianto","#3366ff99","-1","-1","1","+10","[]","0","0","2","","","","","","","",""
"pit-trial","53","484463","0.0-2.0-11.3-1.3","battery-v0.2","","""event"",""trial"",""time""
""fullscreenenter"",""1"",""4725""
","
","
","""event"",""trial"",""time""
""fullscreenenter"",""1"",""4725""
","
","","","830.8999998569489","","","17","4568","709","&#9761;","elianto","#3366ff99","-1"," ","0","0","[1687.2999999523163]","1","0","2","","","","","","","",""
"pit-trial","54","487468","0.0-2.0-11.3-2.3","battery-v0.2","","""event"",""trial"",""time""
""fullscreenenter"",""1"",""4725""
","
","
","""event"",""trial"",""time""
""fullscreenenter"",""1"",""4725""
","
","","","142.70000004768372","","","17","4568","709","&#9761;","elianto","#3366ff99","-1"," ","0","0","[562.1000001430511,994.7999999523163,1223.7999999523163]","3","0","2","","","","","","","",""
"pit-trial","55","492341","0.0-2.0-11.3-3.3","battery-v0.2","","""event"",""trial"",""time""
""fullscreenenter"",""1"",""4725""
","
","
","""event"",""trial"",""time""
""fullscreenenter"",""1"",""4725""
","
","","","-1","","","17","4568","709","&#9761;","elianto","#3366ff99","-1","-1","1","0","[]","0","0","2","","","","","","","",""
"pit-trial","56","495733","0.0-2.0-11.3-4.3","battery-v0.2","","""event"",""trial"",""time""
""fullscreenenter"",""1"",""4725""
","
","
","""event"",""trial"",""time""
""fullscreenenter"",""1"",""4725""
","
","","","501.5","","","17","4568","709","&#9761;","elianto","#3366ff99","-1"," ","0","0","[1358.2000000476837]","1","0","2","","","","","","","",""
"call-function","57","495739","0.0-2.0-12.0","battery-v0.2","","""event"",""trial"",""time""
""fullscreenenter"",""1"",""4725""
","
","
","""event"",""trial"",""time""
""fullscreenenter"",""1"",""4725""
","
","","","","","","","","","","","","","","","","","","","","","","","","","","",""
"pit-instructions","58","529808","0.0-2.0-13.0","battery-v0.2","","""event"",""trial"",""time""
""fullscreenenter"",""1"",""4725""
","
","
","""event"",""trial"",""time""
""fullscreenenter"",""1"",""4725""
","
","","[{""page_index"":0,""viewing_time"":8339.799999952316},{""page_index"":1,""viewing_time"":7352.599999904633},{""page_index"":2,""viewing_time"":3079.7999999523163},{""page_index"":3,""viewing_time"":11179.5},{""page_index"":4,""viewing_time"":4116.200000047684}]","34069","","","","","","","","","","","","","","","","","","","","","","","",""
"pit-trial","59","533132","0.0-2.0-14.0-0.0","battery-v0.2","","""event"",""trial"",""time""
""fullscreenenter"",""1"",""4725""
","
","
","""event"",""trial"",""time""
""fullscreenenter"",""1"",""4725""
","
","","","443.90000009536743","","","17","4568","709","&#9826;","elianto","#f73b6a7A","-1"," ","0","-10","[1298.1999998092651]","1","0","3","","","","","","","",""
"pit-trial","60","536382","0.0-2.0-14.0-1.0","battery-v0.2","","""event"",""trial"",""time""
""fullscreenenter"",""1"",""4725""
","
","
","""event"",""trial"",""time""
""fullscreenenter"",""1"",""4725""
","
","","","333.40000009536743","","","17","4568","709","&#9826;","elianto","#f73b6a7A","-1"," ","0","-10","[1191.2999999523163]","1","0","3","","","","","","","",""
"pit-trial","61","541269","0.0-2.0-14.0-2.0","battery-v0.2","","""event"",""trial"",""time""
""fullscreenenter"",""1"",""4725""
","
","
","""event"",""trial"",""time""
""fullscreenenter"",""1"",""4725""
","
","","","-1","","","17","4568","709","&#9826;","elianto","#f73b6a7A","-1","-1","1","0","[]","0","0","3","","","","","","","",""
"pit-trial","62","546206","0.0-2.0-14.0-3.0","battery-v0.2","","""event"",""trial"",""time""
""fullscreenenter"",""1"",""4725""
","
","
","""event"",""trial"",""time""
""fullscreenenter"",""1"",""4725""
","
","","","-1","","","17","4568","709","&#9826;","elianto","#f73b6a7A","-1","-1","1","-10","[]","0","0","3","","","","","","","",""
"pit-trial","63","551086","0.0-2.0-14.0-4.0","battery-v0.2","","""event"",""trial"",""time""
""fullscreenenter"",""1"",""4725""
","
","
","""event"",""trial"",""time""
""fullscreenenter"",""1"",""4725""
","
","","","-1","","","17","4568","709","&#9826;","elianto","#f73b6a7A","-1","-1","1","0","[]","0","0","3","","","","","","","",""
"pit-trial","64","556028","0.0-2.0-14.1-0.1","battery-v0.2","","""event"",""trial"",""time""
""fullscreenenter"",""1"",""4725""
","
","
","""event"",""trial"",""time""
""fullscreenenter"",""1"",""4725""
","
","","","-1","","","17","4568","709","&#9826;","elianto","#f73b6a7A","-1","-1","1","0","[]","0","0","3","","","","","","","",""
"pit-trial","65","560933","0.0-2.0-14.1-1.1","battery-v0.2","","""event"",""trial"",""time""
""fullscreenenter"",""1"",""4725""
","
","
","""event"",""trial"",""time""
""fullscreenenter"",""1"",""4725""
","
","","","-1","","","17","4568","709","&#9826;","elianto","#f73b6a7A","-1","-1","1","0","[]","0","0","3","","","","","","","",""
"pit-trial","66","565804","0.0-2.0-14.1-2.1","battery-v0.2","","""event"",""trial"",""time""
""fullscreenenter"",""1"",""4725""
","
","
","""event"",""trial"",""time""
""fullscreenenter"",""1"",""4725""
","
","","","-1","","","17","4568","709","&#9826;","elianto","#f73b6a7A","-1","-1","1","0","[]","0","0","3","","","","","","","",""
"pit-trial","67","570677","0.0-2.0-14.1-3.1","battery-v0.2","","""event"",""trial"",""time""
""fullscreenenter"",""1"",""4725""
","
","
","""event"",""trial"",""time""
""fullscreenenter"",""1"",""4725""
","
","","","-1","","","17","4568","709","&#9826;","elianto","#f73b6a7A","-1","-1","1","-10","[]","0","0","3","","","","","","","",""
"pit-trial","68","575576","0.0-2.0-14.1-4.1","battery-v0.2","","""event"",""trial"",""time""
""fullscreenenter"",""1"",""4725""
","
","
","""event"",""trial"",""time""
""fullscreenenter"",""1"",""4725""
","
","","","-1","","","17","4568","709","&#9826;","elianto","#f73b6a7A","-1","-1","1","0","[]","0","0","3","","","","","","","",""
"pit-trial","69","580494","0.0-2.0-14.2-0.2","battery-v0.2","","""event"",""trial"",""time""
""fullscreenenter"",""1"",""4725""
","
","
","""event"",""trial"",""time""
""fullscreenenter"",""1"",""4725""
","
","","","-1","","","17","4568","709","&#9826;","elianto","#f73b6a7A","-1","-1","1","0","[]","0","0","3","","","","","","","",""
"pit-trial","70","585390","0.0-2.0-14.2-1.2","battery-v0.2","","""event"",""trial"",""time""
""fullscreenenter"",""1"",""4725""
","
","
","""event"",""trial"",""time""
""fullscreenenter"",""1"",""4725""
","
","","","-1","","","17","4568","709","&#9826;","elianto","#f73b6a7A","-1","-1","1","0","[]","0","0","3","","","","","","","",""
"pit-trial","71","590284","0.0-2.0-14.2-2.2","battery-v0.2","","""event"",""trial"",""time""
""fullscreenenter"",""1"",""4725""
","
","
","""event"",""trial"",""time""
""fullscreenenter"",""1"",""4725""
","
","","","-1","","","17","4568","709","&#9826;","elianto","#f73b6a7A","-1","-1","1","0","[]","0","0","3","","","","","","","",""
"pit-trial","72","595207","0.0-2.0-14.2-3.2","battery-v0.2","","""event"",""trial"",""time""
""fullscreenenter"",""1"",""4725""
","
","
","""event"",""trial"",""time""
""fullscreenenter"",""1"",""4725""
","
","","","-1","","","17","4568","709","&#9826;","elianto","#f73b6a7A","-1","-1","1","-10","[]","0","0","3","","","","","","","",""
"pit-trial","73","600125","0.0-2.0-14.2-4.2","battery-v0.2","","""event"",""trial"",""time""
""fullscreenenter"",""1"",""4725""
","
","
","""event"",""trial"",""time""
""fullscreenenter"",""1"",""4725""
","
","","","-1","","","17","4568","709","&#9826;","elianto","#f73b6a7A","-1","-1","1","0","[]","0","0","3","","","","","","","",""
"pit-trial","74","605020","0.0-2.0-14.3-0.3","battery-v0.2","","""event"",""trial"",""time""
""fullscreenenter"",""1"",""4725""
","
","
","""event"",""trial"",""time""
""fullscreenenter"",""1"",""4725""
","
","","","-1","","","17","4568","709","&#9826;","elianto","#f73b6a7A","-1","-1","1","0","[]","0","0","3","","","","","","","",""
"pit-trial","75","609883","0.0-2.0-14.3-1.3","battery-v0.2","","""event"",""trial"",""time""
""fullscreenenter"",""1"",""4725""
","
","
","""event"",""trial"",""time""
""fullscreenenter"",""1"",""4725""
","
","","","-1","","","17","4568","709","&#9826;","elianto","#f73b6a7A","-1","-1","1","0","[]","0","0","3","","","","","","","",""
"pit-trial","76","614757","0.0-2.0-14.3-2.3","battery-v0.2","","""event"",""trial"",""time""
""fullscreenenter"",""1"",""4725""
","
","
","""event"",""trial"",""time""
""fullscreenenter"",""1"",""4725""
","
","","","-1","","","17","4568","709","&#9826;","elianto","#f73b6a7A","-1","-1","1","0","[]","0","0","3","","","","","","","",""
"pit-trial","77","619677","0.0-2.0-14.3-3.3","battery-v0.2","","""event"",""trial"",""time""
""fullscreenenter"",""1"",""4725""
","
","
","""event"",""trial"",""time""
""fullscreenenter"",""1"",""4725""
","
","","","-1","","","17","4568","709","&#9826;","elianto","#f73b6a7A","-1","-1","1","-10","[]","0","0","3","","","","","","","",""
"pit-trial","78","624599","0.0-2.0-14.3-4.3","battery-v0.2","","""event"",""trial"",""time""
""fullscreenenter"",""1"",""4725""
","
","
","""event"",""trial"",""time""
""fullscreenenter"",""1"",""4725""
","
","","","-1","","","17","4568","709","&#9826;","elianto","#f73b6a7A","-1","-1","1","0","[4044.5999999046326]","1","0","3","","","","","","","",""
"call-function","79","624605","0.0-2.0-15.0","battery-v0.2","","""event"",""trial"",""time""
""fullscreenenter"",""1"",""4725""
","
","
","""event"",""trial"",""time""
""fullscreenenter"",""1"",""4725""
","
","","","","","","","","","","","","","","","","","","","","","","","","","","",""
"pit-instructions","80","649840","0.0-2.0-16.0","battery-v0.2","","""event"",""trial"",""time""
""fullscreenenter"",""1"",""4725""
","
","
","""event"",""trial"",""time""
""fullscreenenter"",""1"",""4725""
","
","","[{""page_index"":0,""viewing_time"":7185.5},{""page_index"":1,""viewing_time"":8471.599999904633},{""page_index"":2,""viewing_time"":4656},{""page_index"":3,""viewing_time"":4919.700000047684}]","25233.700000047684","","","","","","","","","","","","","","","","","","","","","","","",""
"pit-trial","81","653123","0.0-2.0-17.0-0.0","battery-v0.2","","""event"",""trial"",""time""
""fullscreenenter"",""1"",""4725""
","
","
","""event"",""trial"",""time""
""fullscreenenter"",""1"",""4725""
","
","","","411.7000000476837","","","17","4568","709","&#9789;","elianto","#f73b6a7A"," "," ","1","0","[1267.7000000476837]","1","0","4","","","","","","","",""
"pit-trial","82","656343","0.0-2.0-17.0-1.0","battery-v0.2","","""event"",""trial"",""time""
""fullscreenenter"",""1"",""4725""
","
","
","""event"",""trial"",""time""
""fullscreenenter"",""1"",""4725""
","
","","","343.59999990463257","","","17","4568","709","&#9789;","elianto","#f73b6a7A"," "," ","1","0","[1204.1999998092651]","1","0","4","","","","","","","",""
"pit-trial","83","659337","0.0-2.0-17.0-2.0","battery-v0.2","","""event"",""trial"",""time""
""fullscreenenter"",""1"",""4725""
","
","
","""event"",""trial"",""time""
""fullscreenenter"",""1"",""4725""
","
","","","111.10000014305115","","","17","4568","709","&#9789;","elianto","#f73b6a7A"," "," ","1","0","[966.5]","1","0","4","","","","","","","",""
"pit-trial","84","662410","0.0-2.0-17.0-3.0","battery-v0.2","","""event"",""trial"",""time""
""fullscreenenter"",""1"",""4725""
","
","
","""event"",""trial"",""time""
""fullscreenenter"",""1"",""4725""
","
","","","201.39999985694885","","","17","4568","709","&#9789;","elianto","#f73b6a7A"," "," ","1","-10","[1053.9000000953674]","1","0","4","","","","","","","",""
"pit-trial","85","665746","0.0-2.0-17.0-4.0","battery-v0.2","","""event"",""trial"",""time""
""fullscreenenter"",""1"",""4725""
","
","
","""event"",""trial"",""time""
""fullscreenenter"",""1"",""4725""
","
","","","458.2999999523163","","","17","4568","709","&#9789;","elianto","#f73b6a7A"," "," ","1","0","[1317]","1","0","4","","","","","","","",""
"pit-trial","86","668979","0.0-2.0-17.1-0.1","battery-v0.2","","""event"",""trial"",""time""
""fullscreenenter"",""1"",""4725""
","
","
","""event"",""trial"",""time""
""fullscreenenter"",""1"",""4725""
","
","","","357.2999999523163","","","17","4568","709","&#9789;","elianto","#f73b6a7A"," "," ","1","0","[1211.2000000476837]","1","0","4","","","","","","","",""
"pit-trial","87","672628","0.0-2.0-17.1-1.1","battery-v0.2","","""event"",""trial"",""time""
""fullscreenenter"",""1"",""4725""
","
","
","""event"",""trial"",""time""
""fullscreenenter"",""1"",""4725""
","
","","","775.7999999523163","","","17","4568","709","&#9789;","elianto","#f73b6a7A"," "," ","1","0","[1633.2000000476837]","1","0","4","","","","","","","",""
"pit-trial","88","676094","0.0-2.0-17.1-2.1","battery-v0.2","","""event"",""trial"",""time""
""fullscreenenter"",""1"",""4725""
","
","
","""event"",""trial"",""time""
""fullscreenenter"",""1"",""4725""
","
","","","594.5999999046326","","","17","4568","709","&#9789;","elianto","#f73b6a7A"," "," ","1","0","[1453.7000000476837]","1","0","4","","","","","","","",""
"pit-trial","89","679604","0.0-2.0-17.1-3.1","battery-v0.2","","""event"",""trial"",""time""
""fullscreenenter"",""1"",""4725""
","
","
","""event"",""trial"",""time""
""fullscreenenter"",""1"",""4725""
","
","","","638.1000001430511","","","17","4568","709","&#9789;","elianto","#f73b6a7A"," "," ","1","-10","[1497]","1","0","4","","","","","","","",""
"pit-trial","90","682858","0.0-2.0-17.1-4.1","battery-v0.2","","""event"",""trial"",""time""
""fullscreenenter"",""1"",""4725""
","
","
","""event"",""trial"",""time""
""fullscreenenter"",""1"",""4725""
","
","","","378.2999999523163","","","17","4568","709","&#9789;","elianto","#f73b6a7A"," "," ","1","0","[1231.5]","1","0","4","","","","","","","",""
"pit-trial","91","686180","0.0-2.0-17.2-0.2","battery-v0.2","","""event"",""trial"",""time""
""fullscreenenter"",""1"",""4725""
","
","
","""event"",""trial"",""time""
""fullscreenenter"",""1"",""4725""
","
","","","452.5","","","17","4568","709","&#9789;","elianto","#f73b6a7A"," "," ","1","0","[1308.4000000953674]","1","0","4","","","","","","","",""
"pit-trial","92","689691","0.0-2.0-17.2-1.2","battery-v0.2","","""event"",""trial"",""time""
""fullscreenenter"",""1"",""4725""
","
","
","""event"",""trial"",""time""
""fullscreenenter"",""1"",""4725""
","
","","","643.6999998092651","","","17","4568","709","&#9789;","elianto","#f73b6a7A"," "," ","1","0","[1498.5999999046326]","1","0","4","","","","","","","",""
"pit-trial","93","693066","0.0-2.0-17.2-2.2","battery-v0.2","","""event"",""trial"",""time""
""fullscreenenter"",""1"",""4725""
","
","
","""event"",""trial"",""time""
""fullscreenenter"",""1"",""4725""
","
","","","491.5","","","17","4568","709","&#9789;","elianto","#f73b6a7A"," "," ","1","0","[1347.2000000476837]","1","0","4","","","","","","","",""
"pit-trial","94","696436","0.0-2.0-17.2-3.2","battery-v0.2","","""event"",""trial"",""time""
""fullscreenenter"",""1"",""4725""
","
","
","""event"",""trial"",""time""
""fullscreenenter"",""1"",""4725""
","
","","","501.2000000476837","","","17","4568","709","&#9789;","elianto","#f73b6a7A"," "," ","1","-10","[1358.5]","1","0","4","","","","","","","",""
"pit-trial","95","700131","0.0-2.0-17.2-4.2","battery-v0.2","","""event"",""trial"",""time""
""fullscreenenter"",""1"",""4725""
","
","
","""event"",""trial"",""time""
""fullscreenenter"",""1"",""4725""
","
","","","828","","","17","4568","709","&#9789;","elianto","#f73b6a7A"," "," ","1","0","[1681.9000000953674]","1","0","4","","","","","","","",""
"pit-trial","96","704732","0.0-2.0-17.3-0.3","battery-v0.2","","""event"",""trial"",""time""
""fullscreenenter"",""1"",""4725""
","
","
","""event"",""trial"",""time""
""fullscreenenter"",""1"",""4725""
","
","","","1725.2999999523163","","","17","4568","709","&#9789;","elianto","#f73b6a7A"," "," ","1","0","[2581.5999999046326]","1","0","4","","","","","","","",""
"pit-trial","97","708043","0.0-2.0-17.3-1.3","battery-v0.2","","""event"",""trial"",""time""
""fullscreenenter"",""1"",""4725""
","
","
","""event"",""trial"",""time""
""fullscreenenter"",""1"",""4725""
","
","","","444.7999999523163","","","17","4568","709","&#9789;","elianto","#f73b6a7A"," "," ","1","0","[1300]","1","0","4","","","","","","","",""
"pit-trial","98","711684","0.0-2.0-17.3-2.3","battery-v0.2","","""event"",""trial"",""time""
""fullscreenenter"",""1"",""4725""
","
","
","""event"",""trial"",""time""
""fullscreenenter"",""1"",""4725""
","
","","","772.1000001430511","","","17","4568","709","&#9789;","elianto","#f73b6a7A"," "," ","1","0","[1628]","1","0","4","","","","","","","",""
"pit-trial","99","714947","0.0-2.0-17.3-3.3","battery-v0.2","","""event"",""trial"",""time""
""fullscreenenter"",""1"",""4725""
","
","
","""event"",""trial"",""time""
""fullscreenenter"",""1"",""4725""
","
","","","397.7000000476837","","","17","4568","709","&#9789;","elianto","#f73b6a7A"," "," ","1","-10","[1254.6000001430511]","1","0","4","","","","","","","",""
"pit-trial","100","718412","0.0-2.0-17.3-4.3","battery-v0.2","","""event"",""trial"",""time""
""fullscreenenter"",""1"",""4725""
","
","
","""event"",""trial"",""time""
""fullscreenenter"",""1"",""4725""
","
","","","597.5","","","17","4568","709","&#9789;","elianto","#f73b6a7A"," "," ","1","0","[1453.4000000953674]","1","0","4","","","","","","","",""
"call-function","101","718421","0.0-2.0-18.0","battery-v0.2","","""event"",""trial"",""time""
""fullscreenenter"",""1"",""4725""
","
","
","""event"",""trial"",""time""
""fullscreenenter"",""1"",""4725""
","
","","","","","","","","","","","","","","","","","","","","","","","","","","",""
"pit-instructions","102","796840","0.0-2.0-19.0","battery-v0.2","","""event"",""trial"",""time""
""fullscreenenter"",""1"",""4725""
","
","
","""event"",""trial"",""time""
""fullscreenenter"",""1"",""4725""
","
","","[{""page_index"":0,""viewing_time"":10787.100000143051},{""page_index"":1,""viewing_time"":6101.5},{""page_index"":2,""viewing_time"":14731.099999904633},{""page_index"":3,""viewing_time"":7221.099999904633},{""page_index"":4,""viewing_time"":9044.800000190735},{""page_index"":5,""viewing_time"":10659.599999904633},{""page_index"":6,""viewing_time"":9489.299999952316},{""page_index"":7,""viewing_time"":6358.5},{""page_index"":8,""viewing_time"":4024.2000000476837}]","78417.70000004768","","","","","","","","","","","","","","","","","","","","","","","",""
"pit-comprehension","103","801281","0.0-2.0-20.0-0.0","battery-v0.2","","""event"",""trial"",""time""
""fullscreenenter"",""1"",""4725""
","
","
","""event"",""trial"",""time""
""fullscreenenter"",""1"",""4725""
","
","","","4433","[""SPACE""]","0","17","4568","709","","","","","","","","","","","","","","","","","","",""
"pit-instructions","104","804063","0.0-2.0-20.0-1.0","battery-v0.2","","""event"",""trial"",""time""
""fullscreenenter"",""1"",""4725""
","
","
","""event"",""trial"",""time""
""fullscreenenter"",""1"",""4725""
","
","","[{""page_index"":0,""viewing_time"":2750.5999999046326}]","2751","","","","","","","","","","","","","","","","","","","","","","","",""
"pit-comprehension","105","808832","0.0-2.0-21.0-0.0","battery-v0.2","","""event"",""trial"",""time""
""fullscreenenter"",""1"",""4725""
","
","
","""event"",""trial"",""time""
""fullscreenenter"",""1"",""4725""
","
","","","4763.599999904633","[""10""]","0","17","4568","709","","","","","","","","","","","","","","","","","","",""
"pit-instructions","106","811230","0.0-2.0-21.0-1.0","battery-v0.2","","""event"",""trial"",""time""
""fullscreenenter"",""1"",""4725""
","
","
","""event"",""trial"",""time""
""fullscreenenter"",""1"",""4725""
","
","","[{""page_index"":0,""viewing_time"":2374.5999999046326}]","2374.7999999523163","","","","","","","","","","","","","","","","","","","","","","","",""
"pit-comprehension","107","817583","0.0-2.0-22.0-0.0","battery-v0.2","","""event"",""trial"",""time""
""fullscreenenter"",""1"",""4725""
","
","
","""event"",""trial"",""time""
""fullscreenenter"",""1"",""4725""
","
","","","6349.600000143051","[""-10""]","1","17","4568","709","","","","","","","","","","","","","","","","","","",""
"pit-instructions","108","823527","0.0-2.0-22.0-1.0","battery-v0.2","","""event"",""trial"",""time""
""fullscreenenter"",""1"",""4725""
","
","
","""event"",""trial"",""time""
""fullscreenenter"",""1"",""4725""
","
","","[{""page_index"":0,""viewing_time"":5920.600000143051}]","5921","","","","","","","","","","","","","","","","","","","","","","","",""
"pit-instructions","109","824353","0.0-2.0-22.0-2.0-0.0","battery-v0.2","","""event"",""trial"",""time""
""fullscreenenter"",""1"",""4725""
","
","
","""event"",""trial"",""time""
""fullscreenenter"",""1"",""4725""
","
","","[{""page_index"":0,""viewing_time"":820.1000001430511}]","820.6000001430511","","","","","","","","","","","","","","","","","","","","","","","",""
"pit-comprehension","110","830767","0.0-2.0-22.1-0.1","battery-v0.2","","""event"",""trial"",""time""
""fullscreenenter"",""1"",""4725""
","
","
","""event"",""trial"",""time""
""fullscreenenter"",""1"",""4725""
","
","","","6406.899999856949","[""0""]","0","17","4568","709","","","","","","","","","","","","","","","","","","",""
"pit-instructions","111","833336","0.0-2.0-22.1-1.1","battery-v0.2","","""event"",""trial"",""time""
""fullscreenenter"",""1"",""4725""
","
","
","""event"",""trial"",""time""
""fullscreenenter"",""1"",""4725""
","
","","[{""page_index"":0,""viewing_time"":2546.800000190735}]","2546.9000000953674","","","","","","","","","","","","","","","","","","","","","","","",""
"pit-comprehension","112","843223","0.0-2.0-23.0-0.0","battery-v0.2","","""event"",""trial"",""time""
""fullscreenenter"",""1"",""4725""
","
","
","""event"",""trial"",""time""
""fullscreenenter"",""1"",""4725""
","
","","","9884.400000095367","[""True""]","0","17","4568","709","","","","","","","","","","","","","","","","","","",""
"pit-instructions","113","844902","0.0-2.0-23.0-1.0","battery-v0.2","","""event"",""trial"",""time""
""fullscreenenter"",""1"",""4725""
","
","
","""event"",""trial"",""time""
""fullscreenenter"",""1"",""4725""
","
","","[{""page_index"":0,""viewing_time"":1655.0999999046326}]","1655.2000000476837","","","","","","","","","","","","","","","","","","","","","","","",""
"pit-comprehension","114","852246","0.0-2.0-24.0-0.0","battery-v0.2","","""event"",""trial"",""time""
""fullscreenenter"",""1"",""4725""
","
","
","""event"",""trial"",""time""
""fullscreenenter"",""1"",""4725""
","
","","","7341.200000047684","[""True""]","0","17","4568","709","","","","","","","","","","","","","","","","","","",""
"pit-instructions","115","853702","0.0-2.0-24.0-1.0","battery-v0.2","","""event"",""trial"",""time""
""fullscreenenter"",""1"",""4725""
","
","
","""event"",""trial"",""time""
""fullscreenenter"",""1"",""4725""
","
","","[{""page_index"":0,""viewing_time"":1432.2999999523163}]","1432.5999999046326","","","","","","","","","","","","","","","","","","","","","","","",""
"pit-comprehension","116","860094","0.0-2.0-25.0-0.0","battery-v0.2","","""event"",""trial"",""time""
""fullscreenenter"",""1"",""4725""
","
","
","""event"",""trial"",""time""
""fullscreenenter"",""1"",""4725""
","
","","","6388.5","[""True""]","0","17","4568","709","","","","","","","","","","","","","","","","","","",""
"pit-instructions","117","861526","0.0-2.0-25.0-1.0","battery-v0.2","","""event"",""trial"",""time""
""fullscreenenter"",""1"",""4725""
","
","
","""event"",""trial"",""time""
""fullscreenenter"",""1"",""4725""
","
","","[{""page_index"":0,""viewing_time"":1408.1999998092651}]","1408.3999998569489","","","","","","","","","","","","","","","","","","","","","","","",""
"pit-comprehension","118","867526","0.0-2.0-26.0-0.0","battery-v0.2","","""event"",""trial"",""time""
""fullscreenenter"",""1"",""4725""
","
","
","""event"",""trial"",""time""
""fullscreenenter"",""1"",""4725""
","
","","","5997","[""False""]","0","17","4568","709","","","","","","","","","","","","","","","","","","",""
"pit-instructions","119","868901","0.0-2.0-26.0-1.0","battery-v0.2","","""event"",""trial"",""time""
""fullscreenenter"",""1"",""4725""
","
","
","""event"",""trial"",""time""
""fullscreenenter"",""1"",""4725""
","
","","[{""page_index"":0,""viewing_time"":1351.7000000476837}]","1351.7999999523163","","","","","","","","","","","","","","","","","","","","","","","",""
"pit-instructions","120","885403","0.0-3.0","battery-v0.2","","""event"",""trial"",""time""
""fullscreenenter"",""1"",""4725""
","
","
","""event"",""trial"",""time""
""fullscreenenter"",""1"",""4725""
","
","","[{""page_index"":0,""viewing_time"":3397},{""page_index"":1,""viewing_time"":5957.799999952316},{""page_index"":2,""viewing_time"":7143}]","16498.5","","","","","","","","","","","","","","","","","","","","","","","",""
"pit-trial","121","888799","0.0-4.0","battery-v0.2","","""event"",""trial"",""time""
""fullscreenenter"",""1"",""4725""
","
","
","""event"",""trial"",""time""
""fullscreenenter"",""1"",""4725""
","
","","","514.8000001907349","","","17","4568","709","&#9733;","elianto","#3366ff99","-1"," ","0","+10","[1373.1000001430511]","1","1","","","4568","1","2","2","win","no-go","1"
"pit-trial","122","892284","0.0-5.0","battery-v0.2","","""event"",""trial"",""time""
""fullscreenenter"",""1"",""4725""
","
","
","""event"",""trial"",""time""
""fullscreenenter"",""1"",""4725""
","
","","","613.8999998569489","","","17","4568","709","&#9730;","elianto","#3366ff99"," "," ","1","+10","[1465.9000000953674]","1","1","","","4568","2","1","1","win","go","0"
"pit-trial","123","895903","0.0-6.0","battery-v0.2","","""event"",""trial"",""time""
""fullscreenenter"",""1"",""4725""
","
","
","""event"",""trial"",""time""
""fullscreenenter"",""1"",""4725""
","
","","","749.9000000953674","","","17","4568","709","&#9728;","elianto","#f73b6a7A","-1"," ","0","0","[1605.3000001907349]","1","1","","","4568","3","0","4","lose","no-go","1"
"pit-trial","124","899577","0.0-7.0","battery-v0.2","","""event"",""trial"",""time""
""fullscreenenter"",""1"",""4725""
","
","
","""event"",""trial"",""time""
""fullscreenenter"",""1"",""4725""
","
","","","787.4000000953674","","","17","4568","709","&#9752;","elianto","#f73b6a7A"," "," ","1","0","[1646.1999998092651]","1","1","","","4568","4","3","3","lose","go","0"
"pit-trial","125","903447","0.0-8.0","battery-v0.2","","""event"",""trial"",""time""
""fullscreenenter"",""1"",""4725""
","
","
","""event"",""trial"",""time""
""fullscreenenter"",""1"",""4725""
","
","","","999.5999999046326","","","17","4568","709","&#9752;","elianto","#f73b6a7A"," "," ","1","0","[1859.8000001907349]","1","1","","","4568","5","3","3","lose","go","0"
"pit-trial","126","906926","0.0-9.0","battery-v0.2","","""event"",""trial"",""time""
""fullscreenenter"",""1"",""4725""
","
","
","""event"",""trial"",""time""
""fullscreenenter"",""1"",""4725""
","
","","","603.2999999523163","","","17","4568","709","&#9730;","elianto","#3366ff99"," "," ","1","+10","[1456.8999998569489]","1","1","","","4568","6","1","1","win","go","0"
"pit-trial","127","910279","0.0-10.0","battery-v0.2","","""event"",""trial"",""time""
""fullscreenenter"",""1"",""4725""
","
","
","""event"",""trial"",""time""
""fullscreenenter"",""1"",""4725""
","
","","","483.2000000476837","","","17","4568","709","&#9733;","elianto","#3366ff99","-1"," ","0","0","[1340.2999999523163]","1","1","","","4568","7","2","2","win","no-go","0"
"pit-trial","128","914147","0.0-11.0","battery-v0.2","","""event"",""trial"",""time""
""fullscreenenter"",""1"",""4725""
","
","
","""event"",""trial"",""time""
""fullscreenenter"",""1"",""4725""
","
","","","993.2000000476837","","","17","4568","709","&#9728;","elianto","#f73b6a7A","-1"," ","0","-10","[1852.5]","1","1","","","4568","8","0","4","lose","no-go","0"
"pit-trial","129","919029","0.0-12.0","battery-v0.2","","""event"",""trial"",""time""
""fullscreenenter"",""1"",""4725""
","
","
","""event"",""trial"",""time""
""fullscreenenter"",""1"",""4725""
","
","","","-1","","","17","4568","709","&#9733;","elianto","#3366ff99","-1","-1","1","+10","[]","0","1","","","4568","9","2","2","win","no-go","0"
"pit-trial","130","922723","0.0-13.0","battery-v0.2","","""event"",""trial"",""time""
""fullscreenenter"",""1"",""4725""
","
","
","""event"",""trial"",""time""
""fullscreenenter"",""1"",""4725""
","
","","","816.5","","","17","4568","709","&#9728;","elianto","#f73b6a7A","-1"," ","0","-10","[1670.7000000476837]","1","1","","","4568","10","0","4","lose","no-go","0"
"pit-trial","131","926173","0.0-14.0","battery-v0.2","","""event"",""trial"",""time""
""fullscreenenter"",""1"",""4725""
","
","
","""event"",""trial"",""time""
""fullscreenenter"",""1"",""4725""
","
","","","576","","","17","4568","709","&#9752;","elianto","#f73b6a7A"," "," ","1","0","[1428.4000000953674]","1","1","","","4568","11","3","3","lose","go","0"
"pit-trial","132","929684","0.0-15.0","battery-v0.2","","""event"",""trial"",""time""
""fullscreenenter"",""1"",""4725""
","
","
","""event"",""trial"",""time""
""fullscreenenter"",""1"",""4725""
","
","","","640","","","17","4568","709","&#9730;","elianto","#3366ff99"," "," ","1","+10","[1495.8000001907349]","1","1","","","4568","12","1","1","win","go","0"
"pit-trial","133","934569","0.0-16.0","battery-v0.2","","""event"",""trial"",""time""
""fullscreenenter"",""1"",""4725""
","
","
","""event"",""trial"",""time""
""fullscreenenter"",""1"",""4725""
","
","","","-1","","","17","4568","709","&#9728;","elianto","#f73b6a7A","-1","-1","1","0","[]","0","1","","","4568","13","0","4","lose","no-go","0"
"pit-trial","134","938004","0.0-17.0","battery-v0.2","","""event"",""trial"",""time""
""fullscreenenter"",""1"",""4725""
","
","
","""event"",""trial"",""time""
""fullscreenenter"",""1"",""4725""
","
","","","569.3999998569489","","","17","4568","709","&#9752;","elianto","#f73b6a7A"," "," ","1","0","[1423.9000000953674]","1","1","","","4568","14","3","3","lose","go","0"
"pit-trial","135","942876","0.0-18.0","battery-v0.2","","""event"",""trial"",""time""
""fullscreenenter"",""1"",""4725""
","
","
","""event"",""trial"",""time""
""fullscreenenter"",""1"",""4725""
","
","","","-1","","","17","4568","709","&#9733;","elianto","#3366ff99","-1","-1","1","+10","[]","0","1","","","4568","15","2","2","win","no-go","0"
"pit-trial","136","946420","0.0-19.0","battery-v0.2","","""event"",""trial"",""time""
""fullscreenenter"",""1"",""4725""
","
","
","""event"",""trial"",""time""
""fullscreenenter"",""1"",""4725""
","
","","","675","","","17","4568","709","&#9730;","elianto","#3366ff99"," "," ","1","+10","[1534.2000000476837]","1","1","","","4568","16","1","1","win","go","0"
"pit-trial","137","951293","0.0-20.0","battery-v0.2","","""event"",""trial"",""time""
""fullscreenenter"",""1"",""4725""
","
","
","""event"",""trial"",""time""
""fullscreenenter"",""1"",""4725""
","
","","","-1","","","17","4568","709","&#9733;","elianto","#3366ff99","-1","-1","1","+10","[]","0","1","","","4568","17","2","2","win","no-go","0"
"pit-trial","138","956172","0.0-21.0","battery-v0.2","","""event"",""trial"",""time""
""fullscreenenter"",""1"",""4725""
","
","
","""event"",""trial"",""time""
""fullscreenenter"",""1"",""4725""
","
","","","-1","","","17","4568","709","&#9728;","elianto","#f73b6a7A","-1","-1","1","0","[]","0","1","","","4568","18","0","4","lose","no-go","0"
"pit-trial","139","959589","0.0-22.0","battery-v0.2","","""event"",""trial"",""time""
""fullscreenenter"",""1"",""4725""
","
","
","""event"",""trial"",""time""
""fullscreenenter"",""1"",""4725""
","
","","","548.2000000476837","","","17","4568","709","&#9730;","elianto","#3366ff99"," "," ","1","+10","[1403.9000000953674]","1","1","","","4568","19","1","1","win","go","0"
"pit-trial","140","963356","0.0-23.0","battery-v0.2","","""event"",""trial"",""time""
""fullscreenenter"",""1"",""4725""
","
","
","""event"",""trial"",""time""
""fullscreenenter"",""1"",""4725""
","
","","","898.8999998569489","","","17","4568","709","&#9752;","elianto","#f73b6a7A"," "," ","1","0","[1751.7999999523163]","1","1","","","4568","20","3","3","lose","go","0"
"pit-instructions","141","977176","0.0-24.0","battery-v0.2","","""event"",""trial"",""time""
""fullscreenenter"",""1"",""4725""
","
","
","""event"",""trial"",""time""
""fullscreenenter"",""1"",""4725""
","
","","[{""page_index"":0,""viewing_time"":5824.5},{""page_index"":1,""viewing_time"":7988.799999952316}]","13813.799999952316","","","","","","","","","","","","","","","","","","","","","","","",""
"pit-trial","142","980677","0.0-25.0","battery-v0.2","","""event"",""trial"",""time""
""fullscreenenter"",""1"",""4725""
","
","
","""event"",""trial"",""time""
""fullscreenenter"",""1"",""4725""
","
","","","625.5999999046326","","","17","4568","709","d","elianto","#3366ff99","-1"," ","0","0","[1478.6000001430511]","1","2","","","4568","21","1","2","win","no-go","0"
"pit-trial","143","984075","0.0-26.0","battery-v0.2","","""event"",""trial"",""time""
""fullscreenenter"",""1"",""4725""
","
","
","""event"",""trial"",""time""
""fullscreenenter"",""1"",""4725""
","
","","","519.0999999046326","","","17","4568","709","w","elianto","#f73b6a7A","-1"," ","0","0","[1371.5]","1","2","","","4568","22","3","4","lose","no-go","1"
"pit-trial","144","987671","0.0-27.0","battery-v0.2","","""event"",""trial"",""time""
""fullscreenenter"",""1"",""4725""
","
","
","""event"",""trial"",""time""
""fullscreenenter"",""1"",""4725""
","
","","","710.8000001907349","","","17","4568","709","j","elianto","#f73b6a7A"," "," ","1","0","[1569.0999999046326]","1","2","","","4568","23","0","3","lose","go","0"
"pit-trial","145","991360","0.0-28.0","battery-v0.2","","""event"",""trial"",""time""
""fullscreenenter"",""1"",""4725""
","
","
","""event"",""trial"",""time""
""fullscreenenter"",""1"",""4725""
","
","","","821.9000000953674","","","17","4568","709","e","elianto","#f73b6a7A"," "," ","1","0","[1681.6000001430511]","1","2","","","4568","24","2","3","lose","go","0"
"pit-trial","146","995407","0.0-29.0","battery-v0.2","","""event"",""trial"",""time""
""fullscreenenter"",""1"",""4725""
","
","
","""event"",""trial"",""time""
""fullscreenenter"",""1"",""4725""
","
","","","1170.8000001907349","","","17","4568","709","e","elianto","#f73b6a7A"," "," ","1","0","[2023.7000000476837]","1","2","","","4568","25","2","3","lose","go","0"
"pit-trial","147","1000286","0.0-30.0","battery-v0.2","","""event"",""trial"",""time""
""fullscreenenter"",""1"",""4725""
","
","
","""event"",""trial"",""time""
""fullscreenenter"",""1"",""4725""
","
","","","-1","","","17","4568","709","d","elianto","#3366ff99","-1","-1","1","+10","[]","0","2","","","4568","26","1","2","win","no-go","0"
"pit-trial","148","1004030","0.0-31.0","battery-v0.2","","""event"",""trial"",""time""
""fullscreenenter"",""1"",""4725""
","
","
","""event"",""trial"",""time""
""fullscreenenter"",""1"",""4725""
","
","","","871","","","17","4568","709","w","elianto","#f73b6a7A","-1"," ","0","-10","[1729.6999998092651]","1","2","","","4568","27","3","4","lose","no-go","0"
"pit-trial","149","1008116","0.0-32.0","battery-v0.2","","""event"",""trial"",""time""
""fullscreenenter"",""1"",""4725""
","
","
","""event"",""trial"",""time""
""fullscreenenter"",""1"",""4725""
","
","","","1217.4000000953674","","","17","4568","709","j","elianto","#f73b6a7A"," "," ","1","0","[2075.0999999046326]","1","2","","","4568","28","0","3","lose","go","0"
"pit-trial","150","1012988","0.0-33.0","battery-v0.2","","""event"",""trial"",""time""
""fullscreenenter"",""1"",""4725""
","
","
","""event"",""trial"",""time""
""fullscreenenter"",""1"",""4725""
","
","","","-1","","","17","4568","709","d","elianto","#3366ff99","-1","-1","1","+10","[]","0","2","","","4568","29","1","2","win","no-go","0"
"pit-trial","151","1016805","0.0-34.0","battery-v0.2","","""event"",""trial"",""time""
""fullscreenenter"",""1"",""4725""
","
","
","""event"",""trial"",""time""
""fullscreenenter"",""1"",""4725""
","
","","","947.5","","","17","4568","709","j","elianto","#f73b6a7A"," "," ","1","0","[1803.9000000953674]","1","2","","","4568","30","0","3","lose","go","0"
"pit-trial","152","1021683","0.0-35.0","battery-v0.2","","""event"",""trial"",""time""
""fullscreenenter"",""1"",""4725""
","
","
","""event"",""trial"",""time""
""fullscreenenter"",""1"",""4725""
","
","","","-1","","","17","4568","709","w","elianto","#f73b6a7A","-1","-1","1","0","[]","0","2","","","4568","31","3","4","lose","no-go","0"
"pit-trial","153","1025318","0.0-36.0","battery-v0.2","","""event"",""trial"",""time""
""fullscreenenter"",""1"",""4725""
","
","
","""event"",""trial"",""time""
""fullscreenenter"",""1"",""4725""
","
","","","753.2999999523163","","","17","4568","709","e","elianto","#f73b6a7A"," "," ","1","0","[1610.6000001430511]","1","2","","","4568","32","2","3","lose","go","0"
"pit-trial","154","1030197","0.0-37.0","battery-v0.2","","""event"",""trial"",""time""
""fullscreenenter"",""1"",""4725""
","
","
","""event"",""trial"",""time""
""fullscreenenter"",""1"",""4725""
","
","","","-1","","","17","4568","709","d","elianto","#3366ff99","-1","-1","1","+10","[]","0","2","","","4568","33","1","2","win","no-go","0"
"pit-trial","155","1034124","0.0-38.0","battery-v0.2","","""event"",""trial"",""time""
""fullscreenenter"",""1"",""4725""
","
","
","""event"",""trial"",""time""
""fullscreenenter"",""1"",""4725""
","
","","","1057.5","","","17","4568","709","e","elianto","#f73b6a7A"," "," ","1","0","[1914.2000000476837]","1","2","","","4568","34","2","3","lose","go","0"
"pit-trial","156","1038996","0.0-39.0","battery-v0.2","","""event"",""trial"",""time""
""fullscreenenter"",""1"",""4725""
","
","
","""event"",""trial"",""time""
""fullscreenenter"",""1"",""4725""
","
","","","-1","","","17","4568","709","w","elianto","#f73b6a7A","-1","-1","1","0","[]","0","2","","","4568","35","3","4","lose","no-go","0"
"pit-trial","157","1042620","0.0-40.0","battery-v0.2","","""event"",""trial"",""time""
""fullscreenenter"",""1"",""4725""
","
","
","""event"",""trial"",""time""
""fullscreenenter"",""1"",""4725""
","
","","","757.6000001430511","","","17","4568","709","j","elianto","#f73b6a7A"," "," ","1","0","[1615.3000001907349]","1","2","","","4568","36","0","3","lose","go","0"
"pit-trial","158","1046229","0.0-41.0","battery-v0.2","","""event"",""trial"",""time""
""fullscreenenter"",""1"",""4725""
","
","
","""event"",""trial"",""time""
""fullscreenenter"",""1"",""4725""
","
","","","741.2000000476837","","","17","4568","709","j","elianto","#f73b6a7A"," "," ","1","0","[1596.5]","1","2","","","4568","37","0","3","lose","go","0"
"pit-trial","159","1051109","0.0-42.0","battery-v0.2","","""event"",""trial"",""time""
""fullscreenenter"",""1"",""4725""
","
","
","""event"",""trial"",""time""
""fullscreenenter"",""1"",""4725""
","
","","","-1","","","17","4568","709","d","elianto","#3366ff99","-1","-1","1","0","[]","0","2","","","4568","38","1","2","win","no-go","1"
"pit-trial","160","1054931","0.0-43.0","battery-v0.2","","""event"",""trial"",""time""
""fullscreenenter"",""1"",""4725""
","
","
","""event"",""trial"",""time""
""fullscreenenter"",""1"",""4725""
","
","","","956.9000000953674","","","17","4568","709","e","elianto","#f73b6a7A"," "," ","1","0","[1810.7000000476837]","1","2","","","4568","39","2","3","lose","go","0"
"pit-trial","161","1059804","0.0-44.0","battery-v0.2","","""event"",""trial"",""time""
""fullscreenenter"",""1"",""4725""
","
","
","""event"",""trial"",""time""
""fullscreenenter"",""1"",""4725""
","
","","","-1","","","17","4568","709","w","elianto","#f73b6a7A","-1","-1","1","-10","[]","0","2","","","4568","40","3","4","lose","no-go","1"
"pit-trial","162","1063926","0.0-45.0","battery-v0.2","","""event"",""trial"",""time""
""fullscreenenter"",""1"",""4725""
","
","
","""event"",""trial"",""time""
""fullscreenenter"",""1"",""4725""
","
","","","1227.0999999046326","","","17","4568","709","e","elianto","#f73b6a7A"," "," ","1","0","[2083.7999999523163]","1","2","","","4568","41","2","3","lose","go","0"
"pit-trial","163","1068796","0.0-46.0","battery-v0.2","","""event"",""trial"",""time""
""fullscreenenter"",""1"",""4725""
","
","
","""event"",""trial"",""time""
""fullscreenenter"",""1"",""4725""
","
","","","-1","","","17","4568","709","d","elianto","#3366ff99","-1","-1","1","+10","[]","0","2","","","4568","42","1","2","win","no-go","0"
"pit-trial","164","1072392","0.0-47.0","battery-v0.2","","""event"",""trial"",""time""
""fullscreenenter"",""1"",""4725""
","
","
","""event"",""trial"",""time""
""fullscreenenter"",""1"",""4725""
","
","","","699.2000000476837","","","17","4568","709","j","elianto","#f73b6a7A"," "," ","1","-10","[1555.9000000953674]","1","2","","","4568","43","0","3","lose","go","1"
"pit-trial","165","1077312","0.0-48.0","battery-v0.2","","""event"",""trial"",""time""
""fullscreenenter"",""1"",""4725""
","
","
","""event"",""trial"",""time""
""fullscreenenter"",""1"",""4725""
","
","","","-1","","","17","4568","709","w","elianto","#f73b6a7A","-1","-1","1","0","[]","0","2","","","4568","44","3","4","lose","no-go","0"
"pit-trial","166","1081134","0.0-49.0","battery-v0.2","","""event"",""trial"",""time""
""fullscreenenter"",""1"",""4725""
","
","
","""event"",""trial"",""time""
""fullscreenenter"",""1"",""4725""
","
","","","931.5","","","17","4568","709","w","elianto","#f73b6a7A","-1"," ","0","-10","[1783.7000000476837]","1","2","","","4568","45","3","4","lose","no-go","0"
"pit-trial","167","1084765","0.0-50.0","battery-v0.2","","""event"",""trial"",""time""
""fullscreenenter"",""1"",""4725""
","
","
","""event"",""trial"",""time""
""fullscreenenter"",""1"",""4725""
","
","","","737.3000001907349","","","17","4568","709","j","elianto","#f73b6a7A"," "," ","1","0","[1589.8999998569489]","1","2","","","4568","46","0","3","lose","go","0"
"pit-trial","168","1088662","0.0-51.0","battery-v0.2","","""event"",""trial"",""time""
""fullscreenenter"",""1"",""4725""
","
","
","""event"",""trial"",""time""
""fullscreenenter"",""1"",""4725""
","
","","","1004.7000000476837","","","17","4568","709","e","elianto","#f73b6a7A"," "," ","1","0","[1859.6999998092651]","1","2","","","4568","47","2","3","lose","go","0"
"pit-trial","169","1093567","0.0-52.0","battery-v0.2","","""event"",""trial"",""time""
""fullscreenenter"",""1"",""4725""
","
","
","""event"",""trial"",""time""
""fullscreenenter"",""1"",""4725""
","
","","","-1","","","17","4568","709","d","elianto","#3366ff99","-1","-1","1","+10","[]","0","2","","","4568","48","1","2","win","no-go","0"
"pit-trial","170","1098486","0.0-53.0","battery-v0.2","","""event"",""trial"",""time""
""fullscreenenter"",""1"",""4725""
","
","
","""event"",""trial"",""time""
""fullscreenenter"",""1"",""4725""
","
","","","-1","","","17","4568","709","d","elianto","#3366ff99","-1","-1","1","+10","[]","0","2","","","4568","49","1","2","win","no-go","0"
"pit-trial","171","1102526","0.0-54.0","battery-v0.2","","""event"",""trial"",""time""
""fullscreenenter"",""1"",""4725""
","
","
","""event"",""trial"",""time""
""fullscreenenter"",""1"",""4725""
","
","","","1145.2000000476837","","","17","4568","709","e","elianto","#f73b6a7A"," "," ","1","0","[1998.5]","1","2","","","4568","50","2","3","lose","go","0"
"pit-trial","172","1107436","0.0-55.0","battery-v0.2","","""event"",""trial"",""time""
""fullscreenenter"",""1"",""4725""
","
","
","""event"",""trial"",""time""
""fullscreenenter"",""1"",""4725""
","
","","","-1","","","17","4568","709","w","elianto","#f73b6a7A","-1","-1","1","0","[]","0","2","","","4568","51","3","4","lose","no-go","0"
"pit-trial","173","1111060","0.0-56.0","battery-v0.2","","""event"",""trial"",""time""
""fullscreenenter"",""1"",""4725""
","
","
","""event"",""trial"",""time""
""fullscreenenter"",""1"",""4725""
","
","","","754.2000000476837","","","17","4568","709","j","elianto","#f73b6a7A"," "," ","1","0","[1611.2999999523163]","1","2","","","4568","52","0","3","lose","go","0"
"pit-trial","174","1115982","0.0-57.0","battery-v0.2","","""event"",""trial"",""time""
""fullscreenenter"",""1"",""4725""
","
","
","""event"",""trial"",""time""
""fullscreenenter"",""1"",""4725""
","
","","","-1","","","17","4568","709","w","elianto","#f73b6a7A","-1","-1","1","0","[]","0","2","","","4568","53","3","4","lose","no-go","0"
"pit-trial","175","1119972","0.0-58.0","battery-v0.2","","""event"",""trial"",""time""
""fullscreenenter"",""1"",""4725""
","
","
","""event"",""trial"",""time""
""fullscreenenter"",""1"",""4725""
","
","","","1127.3000001907349","","","17","4568","709","e","elianto","#f73b6a7A"," "," ","1","-10","[1977.3999998569489]","1","2","","","4568","54","2","3","lose","go","1"
"pit-trial","176","1123566","0.0-59.0","battery-v0.2","","""event"",""trial"",""time""
""fullscreenenter"",""1"",""4725""
","
","
","""event"",""trial"",""time""
""fullscreenenter"",""1"",""4725""
","
","","","699.4000000953674","","","17","4568","709","j","elianto","#f73b6a7A"," "," ","1","-10","[1555.9000000953674]","1","2","","","4568","55","0","3","lose","go","1"
"pit-trial","177","1128485","0.0-60.0","battery-v0.2","","""event"",""trial"",""time""
""fullscreenenter"",""1"",""4725""
","
","
","""event"",""trial"",""time""
""fullscreenenter"",""1"",""4725""
","
","","","-1","","","17","4568","709","d","elianto","#3366ff99","-1","-1","1","+10","[]","0","2","","","4568","56","1","2","win","no-go","0"
"pit-trial","178","1131942","0.0-61.0","battery-v0.2","","""event"",""trial"",""time""
""fullscreenenter"",""1"",""4725""
","
","
","""event"",""trial"",""time""
""fullscreenenter"",""1"",""4725""
","
","","","566.0999999046326","","","17","4568","709","j","elianto","#f73b6a7A"," "," ","1","-10","[1416.3999998569489]","1","2","","","4568","57","0","3","lose","go","1"
"pit-trial","179","1136868","0.0-62.0","battery-v0.2","","""event"",""trial"",""time""
""fullscreenenter"",""1"",""4725""
","
","
","""event"",""trial"",""time""
""fullscreenenter"",""1"",""4725""
","
","","","-1","","","17","4568","709","w","elianto","#f73b6a7A","-1","-1","1","0","[]","0","2","","","4568","58","3","4","lose","no-go","0"
"pit-trial","180","1140373","0.0-63.0","battery-v0.2","","""event"",""trial"",""time""
""fullscreenenter"",""1"",""4725""
","
","
","""event"",""trial"",""time""
""fullscreenenter"",""1"",""4725""
","
","","","618.4000000953674","","","17","4568","709","e","elianto","#f73b6a7A"," "," ","1","0","[1470.6000001430511]","1","2","","","4568","59","2","3","lose","go","0"
"pit-trial","181","1144468","0.0-64.0","battery-v0.2","","""event"",""trial"",""time""
""fullscreenenter"",""1"",""4725""
","
","
","""event"",""trial"",""time""
""fullscreenenter"",""1"",""4725""
","
","","","1231.0999999046326","","","17","4568","709","s","elianto","#3366ff99"," "," ","1","+10","[2083.2999999523163]","1","2","","","4568","60","4","1","win","go","0"
"pit-trial","182","1148356","0.0-65.0","battery-v0.2","","""event"",""trial"",""time""
""fullscreenenter"",""1"",""4725""
","
","
","""event"",""trial"",""time""
""fullscreenenter"",""1"",""4725""
","
","","","1013.7999999523163","","","17","4568","709","e","elianto","#f73b6a7A"," "," ","1","0","[1869.4000000953674]","1","2","","","4568","61","2","3","lose","go","0"
"pit-trial","183","1153254","0.0-66.0","battery-v0.2","","""event"",""trial"",""time""
""fullscreenenter"",""1"",""4725""
","
","
","""event"",""trial"",""time""
""fullscreenenter"",""1"",""4725""
","
","","","-1","","","17","4568","709","w","elianto","#f73b6a7A","-1","-1","1","0","[]","0","2","","","4568","62","3","4","lose","no-go","0"
"pit-trial","184","1157165","0.0-67.0","battery-v0.2","","""event"",""trial"",""time""
""fullscreenenter"",""1"",""4725""
","
","
","""event"",""trial"",""time""
""fullscreenenter"",""1"",""4725""
","
","","","1014.1000001430511","","","17","4568","709","s","elianto","#3366ff99"," "," ","1","+10","[1867.7999999523163]","1","2","","","4568","63","4","1","win","go","0"
"pit-trial","185","1162063","0.0-68.0","battery-v0.2","","""event"",""trial"",""time""
""fullscreenenter"",""1"",""4725""
","
","
","""event"",""trial"",""time""
""fullscreenenter"",""1"",""4725""
","
","","","-1","","","17","4568","709","d","elianto","#3366ff99","-1","-1","1","+10","[]","0","2","","","4568","64","1","2","win","no-go","0"
"pit-trial","186","1165779","0.0-69.0","battery-v0.2","","""event"",""trial"",""time""
""fullscreenenter"",""1"",""4725""
","
","
","""event"",""trial"",""time""
""fullscreenenter"",""1"",""4725""
","
","","","856.2999999523163","","","17","4568","709","p","elianto","#3366ff99","-1"," ","0","+10","[1707.6999998092651]","1","2","","","4568","65","5","2","win","no-go","1"
"pit-trial","187","1170677","0.0-70.0","battery-v0.2","","""event"",""trial"",""time""
""fullscreenenter"",""1"",""4725""
","
","
","""event"",""trial"",""time""
""fullscreenenter"",""1"",""4725""
","
","","","-1","","","17","4568","709","d","elianto","#3366ff99","-1","-1","1","+10","[]","0","2","","","4568","66","1","2","win","no-go","0"
"pit-trial","188","1174414","0.0-71.0","battery-v0.2","","""event"",""trial"",""time""
""fullscreenenter"",""1"",""4725""
","
","
","""event"",""trial"",""time""
""fullscreenenter"",""1"",""4725""
","
","","","844","","","17","4568","709","s","elianto","#3366ff99"," "," ","1","+10","[1696.2999999523163]","1","2","","","4568","67","4","1","win","go","0"
"pit-trial","189","1179334","0.0-72.0","battery-v0.2","","""event"",""trial"",""time""
""fullscreenenter"",""1"",""4725""
","
","
","""event"",""trial"",""time""
""fullscreenenter"",""1"",""4725""
","
","","","-1","","","17","4568","709","w","elianto","#f73b6a7A","-1","-1","1","0","[]","0","2","","","4568","68","3","4","lose","no-go","0"
"pit-trial","190","1183013","0.0-73.0","battery-v0.2","","""event"",""trial"",""time""
""fullscreenenter"",""1"",""4725""
","
","
","""event"",""trial"",""time""
""fullscreenenter"",""1"",""4725""
","
","","","788.5","","","17","4568","709","e","elianto","#f73b6a7A"," "," ","1","0","[1639]","1","2","","","4568","69","2","3","lose","go","0"
"pit-trial","191","1186668","0.0-74.0","battery-v0.2","","""event"",""trial"",""time""
""fullscreenenter"",""1"",""4725""
","
","
","""event"",""trial"",""time""
""fullscreenenter"",""1"",""4725""
","
","","","764.0999999046326","","","17","4568","709","p","elianto","#3366ff99","-1"," ","0","0","[1617]","1","2","","","4568","70","5","2","win","no-go","0"
"pit-trial","192","1191567","0.0-75.0","battery-v0.2","","""event"",""trial"",""time""
""fullscreenenter"",""1"",""4725""
","
","
","""event"",""trial"",""time""
""fullscreenenter"",""1"",""4725""
","
","","","-1","","","17","4568","709","d","elianto","#3366ff99","-1","-1","1","+10","[]","0","2","","","4568","71","1","2","win","no-go","0"
"pit-trial","193","1194972","0.0-76.0","battery-v0.2","","""event"",""trial"",""time""
""fullscreenenter"",""1"",""4725""
","
","
","""event"",""trial"",""time""
""fullscreenenter"",""1"",""4725""
","
","","","544.2999999523163","","","17","4568","709","s","elianto","#3366ff99"," "," ","1","+10","[1395.2000000476837]","1","2","","","4568","72","4","1","win","go","0"
"pit-trial","194","1199903","0.0-77.0","battery-v0.2","","""event"",""trial"",""time""
""fullscreenenter"",""1"",""4725""
","
","
","""event"",""trial"",""time""
""fullscreenenter"",""1"",""4725""
","
","","","-1","","","17","4568","709","w","elianto","#f73b6a7A","-1","-1","1","-10","[]","0","2","","","4568","73","3","4","lose","no-go","1"
"pit-trial","195","1203542","0.0-78.0","battery-v0.2","","""event"",""trial"",""time""
""fullscreenenter"",""1"",""4725""
","
","
","""event"",""trial"",""time""
""fullscreenenter"",""1"",""4725""
","
","","","745.7000000476837","","","17","4568","709","p","elianto","#3366ff99","-1"," ","0","0","[1598.7000000476837]","1","2","","","4568","74","5","2","win","no-go","0"
"pit-trial","196","1208412","0.0-79.0","battery-v0.2","","""event"",""trial"",""time""
""fullscreenenter"",""1"",""4725""
","
","
","""event"",""trial"",""time""
""fullscreenenter"",""1"",""4725""
","
","","","-1","","","17","4568","709","d","elianto","#3366ff99","-1","-1","1","+10","[]","0","2","","","4568","75","1","2","win","no-go","0"
"pit-trial","197","1212101","0.0-80.0","battery-v0.2","","""event"",""trial"",""time""
""fullscreenenter"",""1"",""4725""
","
","
","""event"",""trial"",""time""
""fullscreenenter"",""1"",""4725""
","
","","","818.4000000953674","","","17","4568","709","s","elianto","#3366ff99"," "," ","1","+10","[1675.1000001430511]","1","2","","","4568","76","4","1","win","go","0"
"pit-trial","198","1215742","0.0-81.0","battery-v0.2","","""event"",""trial"",""time""
""fullscreenenter"",""1"",""4725""
","
","
","""event"",""trial"",""time""
""fullscreenenter"",""1"",""4725""
","
","","","746","","","17","4568","709","s","elianto","#3366ff99"," "," ","1","+10","[1601.7000000476837]","1","2","","","4568","77","4","1","win","go","0"
"pit-trial","199","1220637","0.0-82.0","battery-v0.2","","""event"",""trial"",""time""
""fullscreenenter"",""1"",""4725""
","
","
","""event"",""trial"",""time""
""fullscreenenter"",""1"",""4725""
","
","","","-1","","","17","4568","709","p","elianto","#3366ff99","-1","-1","1","+10","[]","0","2","","","4568","78","5","2","win","no-go","0"
"pit-trial","200","1225542","0.0-83.0","battery-v0.2","","""event"",""trial"",""time""
""fullscreenenter"",""1"",""4725""
","
","
","""event"",""trial"",""time""
""fullscreenenter"",""1"",""4725""
","
","","","-1","","","17","4568","709","w","elianto","#f73b6a7A","-1","-1","1","-10","[]","0","2","","","4568","79","3","4","lose","no-go","1"
"pit-trial","201","1229334","0.0-84.0","battery-v0.2","","""event"",""trial"",""time""
""fullscreenenter"",""1"",""4725""
","
","
","""event"",""trial"",""time""
""fullscreenenter"",""1"",""4725""
","
","","","904.7000000476837","","","17","4568","709","s","elianto","#3366ff99"," "," ","1","0","[1757]","1","2","","","4568","80","4","1","win","go","1"
"pit-trial","202","1234204","0.0-85.0","battery-v0.2","","""event"",""trial"",""time""
""fullscreenenter"",""1"",""4725""
","
","
","""event"",""trial"",""time""
""fullscreenenter"",""1"",""4725""
","
","","","-1","","","17","4568","709","s","elianto","#3366ff99"," ","-1","0","0","[]","0","2","","","4568","81","4","1","win","go","0"
"pit-trial","203","1239126","0.0-86.0","battery-v0.2","","""event"",""trial"",""time""
""fullscreenenter"",""1"",""4725""
","
","
","""event"",""trial"",""time""
""fullscreenenter"",""1"",""4725""
","
","","","-1","","","17","4568","709","p","elianto","#3366ff99","-1","-1","1","+10","[]","0","2","","","4568","82","5","2","win","no-go","0"
"pit-trial","204","1244046","0.0-87.0","battery-v0.2","","""event"",""trial"",""time""
""fullscreenenter"",""1"",""4725""
","
","
","""event"",""trial"",""time""
""fullscreenenter"",""1"",""4725""
","
","","","-1","","","17","4568","709","w","elianto","#f73b6a7A","-1","-1","1","0","[]","0","2","","","4568","83","3","4","lose","no-go","0"
"pit-trial","205","1248448","0.0-88.0","battery-v0.2","","""event"",""trial"",""time""
""fullscreenenter"",""1"",""4725""
","
","
","""event"",""trial"",""time""
""fullscreenenter"",""1"",""4725""
","
","","","1507.2000000476837","","","17","4568","709","a","elianto","#f73b6a7A","-1"," ","0","-10","[2358.2999999523163]","1","2","","","4568","84","7","4","lose","no-go","0"
"pit-trial","206","1253339","0.0-89.0","battery-v0.2","","""event"",""trial"",""time""
""fullscreenenter"",""1"",""4725""
","
","
","""event"",""trial"",""time""
""fullscreenenter"",""1"",""4725""
","
","","","-1","","","17","4568","709","a","elianto","#f73b6a7A","-1","-1","1","0","[]","0","2","","","4568","85","7","4","lose","no-go","0"
"pit-trial","207","1257814","0.0-90.0","battery-v0.2","","""event"",""trial"",""time""
""fullscreenenter"",""1"",""4725""
","
","
","""event"",""trial"",""time""
""fullscreenenter"",""1"",""4725""
","
","","","1559.3999998569489","","","17","4568","709","s","elianto","#3366ff99"," "," ","1","+10","[2410.5999999046326]","1","2","","","4568","86","4","1","win","go","0"
"pit-trial","208","1262011","0.0-91.0","battery-v0.2","","""event"",""trial"",""time""
""fullscreenenter"",""1"",""4725""
","
","
","""event"",""trial"",""time""
""fullscreenenter"",""1"",""4725""
","
","","","1330.2000000476837","","","17","4568","709","g","elianto","#f73b6a7A"," "," ","1","0","[2183.0999999046326]","1","2","","","4568","87","6","3","lose","go","0"
"pit-trial","209","1266934","0.0-92.0","battery-v0.2","","""event"",""trial"",""time""
""fullscreenenter"",""1"",""4725""
","
","
","""event"",""trial"",""time""
""fullscreenenter"",""1"",""4725""
","
","","","-1","","","17","4568","709","p","elianto","#3366ff99","-1","-1","1","0","[]","0","2","","","4568","88","5","2","win","no-go","1"
"pit-trial","210","1271854","0.0-93.0","battery-v0.2","","""event"",""trial"",""time""
""fullscreenenter"",""1"",""4725""
","
","
","""event"",""trial"",""time""
""fullscreenenter"",""1"",""4725""
","
","","","-1","","","17","4568","709","p","elianto","#3366ff99","-1","-1","1","+10","[]","0","2","","","4568","89","5","2","win","no-go","0"
"pit-trial","211","1275516","0.0-94.0","battery-v0.2","","""event"",""trial"",""time""
""fullscreenenter"",""1"",""4725""
","
","
","""event"",""trial"",""time""
""fullscreenenter"",""1"",""4725""
","
","","","797.5999999046326","","","17","4568","709","s","elianto","#3366ff99"," "," ","1","0","[1648.0999999046326]","1","2","","","4568","90","4","1","win","go","1"
"pit-trial","212","1279603","0.0-95.0","battery-v0.2","","""event"",""trial"",""time""
""fullscreenenter"",""1"",""4725""
","
","
","""event"",""trial"",""time""
""fullscreenenter"",""1"",""4725""
","
","","","1217.0999999046326","","","17","4568","709","g","elianto","#f73b6a7A"," "," ","1","0","[2074]","1","2","","","4568","91","6","3","lose","go","0"
"pit-trial","213","1284134","0.0-96.0","battery-v0.2","","""event"",""trial"",""time""
""fullscreenenter"",""1"",""4725""
","
","
","""event"",""trial"",""time""
""fullscreenenter"",""1"",""4725""
","
","","","1607.7000000476837","","","17","4568","709","a","elianto","#f73b6a7A","-1"," ","0","0","[2464.7999999523163]","1","2","","","4568","92","7","4","lose","no-go","1"
"pit-trial","214","1288173","0.0-97.0","battery-v0.2","","""event"",""trial"",""time""
""fullscreenenter"",""1"",""4725""
","
","
","""event"",""trial"",""time""
""fullscreenenter"",""1"",""4725""
","
","","","1145.6000001430511","","","17","4568","709","g","elianto","#f73b6a7A"," "," ","1","0","[1999.1000001430511]","1","2","","","4568","93","6","3","lose","go","0"
"pit-trial","215","1291925","0.0-98.0","battery-v0.2","","""event"",""trial"",""time""
""fullscreenenter"",""1"",""4725""
","
","
","""event"",""trial"",""time""
""fullscreenenter"",""1"",""4725""
","
","","","860.4000000953674","","","17","4568","709","a","elianto","#f73b6a7A","-1"," ","0","-10","[1716.7000000476837]","1","2","","","4568","94","7","4","lose","no-go","0"
"pit-trial","216","1295795","0.0-99.0","battery-v0.2","","""event"",""trial"",""time""
""fullscreenenter"",""1"",""4725""
","
","
","""event"",""trial"",""time""
""fullscreenenter"",""1"",""4725""
","
","","","1010.2000000476837","","","17","4568","709","l","elianto","#3366ff99"," "," ","1","0","[1860.7999999523163]","1","2","","","4568","95","8","1","win","go","1"
"pit-trial","217","1300710","0.0-100.0","battery-v0.2","","""event"",""trial"",""time""
""fullscreenenter"",""1"",""4725""
","
","
","""event"",""trial"",""time""
""fullscreenenter"",""1"",""4725""
","
","","","-1","","","17","4568","709","p","elianto","#3366ff99","-1","-1","1","+10","[]","0","2","","","4568","96","5","2","win","no-go","0"
"pit-trial","218","1305630","0.0-101.0","battery-v0.2","","""event"",""trial"",""time""
""fullscreenenter"",""1"",""4725""
","
","
","""event"",""trial"",""time""
""fullscreenenter"",""1"",""4725""
","
","","","-1","","","17","4568","709","p","elianto","#3366ff99","-1","-1","1","+10","[]","0","2","","","4568","97","5","2","win","no-go","0"
"pit-trial","219","1309445","0.0-102.0","battery-v0.2","","""event"",""trial"",""time""
""fullscreenenter"",""1"",""4725""
","
","
","""event"",""trial"",""time""
""fullscreenenter"",""1"",""4725""
","
","","","923.7000000476837","","","17","4568","709","a","elianto","#f73b6a7A","-1"," ","0","-10","[1773.9000000953674]","1","2","","","4568","98","7","4","lose","no-go","0"
"pit-trial","220","1314348","0.0-103.0","battery-v0.2","","""event"",""trial"",""time""
""fullscreenenter"",""1"",""4725""
","
","
","""event"",""trial"",""time""
""fullscreenenter"",""1"",""4725""
","
","","","-1","","","17","4568","709","l","elianto","#3366ff99"," ","-1","0","0","[]","0","2","","","4568","99","8","1","win","go","0"
"pit-trial","221","1318409","0.0-104.0","battery-v0.2","","""event"",""trial"",""time""
""fullscreenenter"",""1"",""4725""
","
","
","""event"",""trial"",""time""
""fullscreenenter"",""1"",""4725""
","
","","","1137.5","","","17","4568","709","g","elianto","#f73b6a7A"," "," ","1","0","[1993.2000000476837]","1","2","","","4568","100","6","3","lose","go","0"
"pit-trial","222","1323326","0.0-105.0","battery-v0.2","","""event"",""trial"",""time""
""fullscreenenter"",""1"",""4725""
","
","
","""event"",""trial"",""time""
""fullscreenenter"",""1"",""4725""
","
","","","-1","","","17","4568","709","p","elianto","#3366ff99","-1","-1","1","+10","[]","0","2","","","4568","101","5","2","win","no-go","0"
"pit-trial","223","1327446","0.0-106.0","battery-v0.2","","""event"",""trial"",""time""
""fullscreenenter"",""1"",""4725""
","
","
","""event"",""trial"",""time""
""fullscreenenter"",""1"",""4725""
","
","","","1204.8000001907349","","","17","4568","709","l","elianto","#3366ff99"," "," ","1","+10","[2055.300000190735]","1","2","","","4568","102","8","1","win","go","0"
"pit-trial","224","1331438","0.0-107.0","battery-v0.2","","""event"",""trial"",""time""
""fullscreenenter"",""1"",""4725""
","
","
","""event"",""trial"",""time""
""fullscreenenter"",""1"",""4725""
","
","","","1101.5999999046326","","","17","4568","709","a","elianto","#f73b6a7A","-1"," ","0","0","[1954.1999998092651]","1","2","","","4568","103","7","4","lose","no-go","1"
"pit-trial","225","1335206","0.0-108.0","battery-v0.2","","""event"",""trial"",""time""
""fullscreenenter"",""1"",""4725""
","
","
","""event"",""trial"",""time""
""fullscreenenter"",""1"",""4725""
","
","","","895.1999998092651","","","17","4568","709","u","elianto","#3366ff99"," "," ","1","0","[1750.9000000953674]","1","2","","","4568","104","9","1","win","go","1"
"pit-trial","226","1339553","0.0-109.0","battery-v0.2","","""event"",""trial"",""time""
""fullscreenenter"",""1"",""4725""
","
","
","""event"",""trial"",""time""
""fullscreenenter"",""1"",""4725""
","
","","","1453.6000001430511","","","17","4568","709","g","elianto","#f73b6a7A"," "," ","1","0","[2309.5]","1","2","","","4568","105","6","3","lose","go","0"
"pit-trial","227","1343759","0.0-110.0","battery-v0.2","","""event"",""trial"",""time""
""fullscreenenter"",""1"",""4725""
","
","
","""event"",""trial"",""time""
""fullscreenenter"",""1"",""4725""
","
","","","1287.5","","","17","4568","709","s","elianto","#3366ff99"," "," ","1","+10","[2137.899999856949]","1","2","","","4568","106","4","1","win","go","0"
"pit-trial","228","1347423","0.0-111.0","battery-v0.2","","""event"",""trial"",""time""
""fullscreenenter"",""1"",""4725""
","
","
","""event"",""trial"",""time""
""fullscreenenter"",""1"",""4725""
","
","","","774.5999999046326","","","17","4568","709","l","elianto","#3366ff99"," "," ","1","0","[1625]","1","2","","","4568","107","8","1","win","go","1"
"pit-trial","229","1351007","0.0-112.0","battery-v0.2","","""event"",""trial"",""time""
""fullscreenenter"",""1"",""4725""
","
","
","""event"",""trial"",""time""
""fullscreenenter"",""1"",""4725""
","
","","","670.0999999046326","","","17","4568","709","u","elianto","#3366ff99"," "," ","1","+10","[1520.7999999523163]","1","2","","","4568","108","9","1","win","go","0"
"pit-trial","230","1354792","0.0-113.0","battery-v0.2","","""event"",""trial"",""time""
""fullscreenenter"",""1"",""4725""
","
","
","""event"",""trial"",""time""
""fullscreenenter"",""1"",""4725""
","
","","","890.6000001430511","","","17","4568","709","u","elianto","#3366ff99"," "," ","1","+10","[1743.2000000476837]","1","2","","","4568","109","9","1","win","go","0"
"pit-trial","231","1358854","0.0-114.0","battery-v0.2","","""event"",""trial"",""time""
""fullscreenenter"",""1"",""4725""
","
","
","""event"",""trial"",""time""
""fullscreenenter"",""1"",""4725""
","
","","","1170.8999998569489","","","17","4568","709","g","elianto","#f73b6a7A"," "," ","1","0","[2023.2999999523163]","1","2","","","4568","110","6","3","lose","go","0"
"pit-trial","232","1363774","0.0-115.0","battery-v0.2","","""event"",""trial"",""time""
""fullscreenenter"",""1"",""4725""
","
","
","""event"",""trial"",""time""
""fullscreenenter"",""1"",""4725""
","
","","","-1","","","17","4568","709","p","elianto","#3366ff99","-1","-1","1","+10","[]","0","2","","","4568","111","5","2","win","no-go","0"
"pit-trial","233","1367351","0.0-116.0","battery-v0.2","","""event"",""trial"",""time""
""fullscreenenter"",""1"",""4725""
","
","
","""event"",""trial"",""time""
""fullscreenenter"",""1"",""4725""
","
","","","663.8999998569489","","","17","4568","709","l","elianto","#3366ff99"," "," ","1","+10","[1517.0999999046326]","1","2","","","4568","112","8","1","win","go","0"
"pit-trial","234","1372247","0.0-117.0","battery-v0.2","","""event"",""trial"",""time""
""fullscreenenter"",""1"",""4725""
","
","
","""event"",""trial"",""time""
""fullscreenenter"",""1"",""4725""
","
","","","-1","","","17","4568","709","p","elianto","#3366ff99","-1","-1","1","0","[]","0","2","","","4568","113","5","2","win","no-go","1"
"pit-trial","235","1375886","0.0-118.0","battery-v0.2","","""event"",""trial"",""time""
""fullscreenenter"",""1"",""4725""
","
","
","""event"",""trial"",""time""
""fullscreenenter"",""1"",""4725""
","
","","","689.6000001430511","","","17","4568","709","u","elianto","#3366ff99"," "," ","1","+10","[1540.4000000953674]","1","2","","","4568","114","9","1","win","go","0"
"pit-trial","236","1379790","0.0-119.0","battery-v0.2","","""event"",""trial"",""time""
""fullscreenenter"",""1"",""4725""
","
","
","""event"",""trial"",""time""
""fullscreenenter"",""1"",""4725""
","
","","","989.5","","","17","4568","709","g","elianto","#f73b6a7A"," "," ","1","-10","[1840.9000000953674]","1","2","","","4568","115","6","3","lose","go","1"
"pit-trial","237","1383318","0.0-120.0","battery-v0.2","","""event"",""trial"",""time""
""fullscreenenter"",""1"",""4725""
","
","
","""event"",""trial"",""time""
""fullscreenenter"",""1"",""4725""
","
","","","617.5","","","17","4568","709","l","elianto","#3366ff99"," "," ","1","+10","[1467.8999998569489]","1","2","","","4568","116","8","1","win","go","0"
"pit-trial","238","1386820","0.0-121.0","battery-v0.2","","""event"",""trial"",""time""
""fullscreenenter"",""1"",""4725""
","
","
","""event"",""trial"",""time""
""fullscreenenter"",""1"",""4725""
","
","","","635.2999999523163","","","17","4568","709","g","elianto","#f73b6a7A"," "," ","1","0","[1489.2000000476837]","1","2","","","4568","117","6","3","lose","go","0"
"pit-trial","239","1390502","0.0-122.0","battery-v0.2","","""event"",""trial"",""time""
""fullscreenenter"",""1"",""4725""
","
","
","""event"",""trial"",""time""
""fullscreenenter"",""1"",""4725""
","
","","","785.5","","","17","4568","709","u","elianto","#3366ff99"," "," ","1","+10","[1642.5999999046326]","1","2","","","4568","118","9","1","win","go","0"
"pit-trial","240","1394149","0.0-123.0","battery-v0.2","","""event"",""trial"",""time""
""fullscreenenter"",""1"",""4725""
","
","
","""event"",""trial"",""time""
""fullscreenenter"",""1"",""4725""
","
","","","727.3000001907349","","","17","4568","709","l","elianto","#3366ff99"," "," ","1","0","[1580.5999999046326]","1","2","","","4568","119","8","1","win","go","1"
"pit-trial","241","1397883","0.0-124.0","battery-v0.2","","""event"",""trial"",""time""
""fullscreenenter"",""1"",""4725""
","
","
","""event"",""trial"",""time""
""fullscreenenter"",""1"",""4725""
","
","","","865","","","17","4568","709","p","elianto","#3366ff99","-1"," ","0","+10","[1716.3999998569489]","1","2","","","4568","120","5","2","win","no-go","1"
"pit-trial","242","1401566","0.0-125.0","battery-v0.2","","""event"",""trial"",""time""
""fullscreenenter"",""1"",""4725""
","
","
","""event"",""trial"",""time""
""fullscreenenter"",""1"",""4725""
","
","","","786.8000001907349","","","17","4568","709","u","elianto","#3366ff99"," "," ","1","0","[1644.1000001430511]","1","2","","","4568","121","9","1","win","go","1"
"pit-trial","243","1405213","0.0-126.0","battery-v0.2","","""event"",""trial"",""time""
""fullscreenenter"",""1"",""4725""
","
","
","""event"",""trial"",""time""
""fullscreenenter"",""1"",""4725""
","
","","","758","","","17","4568","709","a","elianto","#f73b6a7A","-1"," ","0","-10","[1609.5]","1","2","","","4568","122","7","4","lose","no-go","0"
"pit-trial","244","1408909","0.0-127.0","battery-v0.2","","""event"",""trial"",""time""
""fullscreenenter"",""1"",""4725""
","
","
","""event"",""trial"",""time""
""fullscreenenter"",""1"",""4725""
","
","","","804.5999999046326","","","17","4568","709","g","elianto","#f73b6a7A"," "," ","1","0","[1658]","1","2","","","4568","123","6","3","lose","go","0"
"pit-trial","245","1412509","0.0-128.0","battery-v0.2","","""event"",""trial"",""time""
""fullscreenenter"",""1"",""4725""
","
","
","""event"",""trial"",""time""
""fullscreenenter"",""1"",""4725""
","
","","","681","","","17","4568","709","l","elianto","#3366ff99"," "," ","1","+10","[1532.2000000476837]","1","2","","","4568","124","8","1","win","go","0"
"pit-trial","246","1416245","0.0-129.0","battery-v0.2","","""event"",""trial"",""time""
""fullscreenenter"",""1"",""4725""
","
","
","""event"",""trial"",""time""
""fullscreenenter"",""1"",""4725""
","
","","","842.2999999523163","","","17","4568","709","u","elianto","#3366ff99"," "," ","1","0","[1694.8999998569489]","1","2","","","4568","125","9","1","win","go","1"
"pit-trial","247","1420364","0.0-130.0","battery-v0.2","","""event"",""trial"",""time""
""fullscreenenter"",""1"",""4725""
","
","
","""event"",""trial"",""time""
""fullscreenenter"",""1"",""4725""
","
","","","1249.8000001907349","","","17","4568","709","l","elianto","#3366ff99"," "," ","1","+10","[2104]","1","2","","","4568","126","8","1","win","go","0"
"pit-trial","248","1424358","0.0-131.0","battery-v0.2","","""event"",""trial"",""time""
""fullscreenenter"",""1"",""4725""
","
","
","""event"",""trial"",""time""
""fullscreenenter"",""1"",""4725""
","
","","","1129.7000000476837","","","17","4568","709","g","elianto","#f73b6a7A"," "," ","1","0","[1983.9000000953674]","1","2","","","4568","127","6","3","lose","go","0"
"pit-trial","249","1429277","0.0-132.0","battery-v0.2","","""event"",""trial"",""time""
""fullscreenenter"",""1"",""4725""
","
","
","""event"",""trial"",""time""
""fullscreenenter"",""1"",""4725""
","
","","","-1","","","17","4568","709","a","elianto","#f73b6a7A","-1","-1","1","0","[]","0","2","","","4568","128","7","4","lose","no-go","0"
"pit-trial","250","1434171","0.0-133.0","battery-v0.2","","""event"",""trial"",""time""
""fullscreenenter"",""1"",""4725""
","
","
","""event"",""trial"",""time""
""fullscreenenter"",""1"",""4725""
","
","","","-1","","","17","4568","709","u","elianto","#3366ff99"," ","-1","0","0","[]","0","2","","","4568","129","9","1","win","go","0"
"pit-trial","251","1438221","0.0-134.0","battery-v0.2","","""event"",""trial"",""time""
""fullscreenenter"",""1"",""4725""
","
","
","""event"",""trial"",""time""
""fullscreenenter"",""1"",""4725""
","
","","","1157.9000000953674","","","17","4568","709","g","elianto","#f73b6a7A"," "," ","1","0","[2008.1000001430511]","1","2","","","4568","130","6","3","lose","go","0"
"pit-trial","252","1442038","0.0-135.0","battery-v0.2","","""event"",""trial"",""time""
""fullscreenenter"",""1"",""4725""
","
","
","""event"",""trial"",""time""
""fullscreenenter"",""1"",""4725""
","
","","","929.5","","","17","4568","709","l","elianto","#3366ff99"," "," ","1","+10","[1782.9000000953674]","1","2","","","4568","131","8","1","win","go","0"
"pit-trial","253","1445856","0.0-136.0","battery-v0.2","","""event"",""trial"",""time""
""fullscreenenter"",""1"",""4725""
","
","
","""event"",""trial"",""time""
""fullscreenenter"",""1"",""4725""
","
","","","922.7999999523163","","","17","4568","709","a","elianto","#f73b6a7A","-1"," ","0","-10","[1776.2000000476837]","1","2","","","4568","132","7","4","lose","no-go","0"
"pit-trial","254","1449510","0.0-137.0","battery-v0.2","","""event"",""trial"",""time""
""fullscreenenter"",""1"",""4725""
","
","
","""event"",""trial"",""time""
""fullscreenenter"",""1"",""4725""
","
","","","769.5","","","17","4568","709","l","elianto","#3366ff99"," "," ","1","+10","[1620.1000001430511]","1","2","","","4568","133","8","1","win","go","0"
"pit-trial","255","1454441","0.0-138.0","battery-v0.2","","""event"",""trial"",""time""
""fullscreenenter"",""1"",""4725""
","
","
","""event"",""trial"",""time""
""fullscreenenter"",""1"",""4725""
","
","","","-1","","","17","4568","709","a","elianto","#f73b6a7A","-1","-1","1","0","[]","0","2","","","4568","134","7","4","lose","no-go","0"
"pit-trial","256","1458588","0.0-139.0","battery-v0.2","","""event"",""trial"",""time""
""fullscreenenter"",""1"",""4725""
","
","
","""event"",""trial"",""time""
""fullscreenenter"",""1"",""4725""
","
","","","1255.3999998569489","","","17","4568","709","u","elianto","#3366ff99"," "," ","1","+10","[2105.0999999046326]","1","2","","","4568","135","9","1","win","go","0"
"pit-trial","257","1462232","0.0-140.0","battery-v0.2","","""event"",""trial"",""time""
""fullscreenenter"",""1"",""4725""
","
","
","""event"",""trial"",""time""
""fullscreenenter"",""1"",""4725""
","
","","","771.7999999523163","","","17","4568","709","g","elianto","#f73b6a7A"," "," ","1","0","[1627.2000000476837]","1","2","","","4568","136","6","3","lose","go","0"
"pit-trial","258","1467151","0.0-141.0","battery-v0.2","","""event"",""trial"",""time""
""fullscreenenter"",""1"",""4725""
","
","
","""event"",""trial"",""time""
""fullscreenenter"",""1"",""4725""
","
","","","-1","","","17","4568","709","a","elianto","#f73b6a7A","-1","-1","1","0","[]","0","2","","","4568","137","7","4","lose","no-go","0"
"pit-trial","259","1470766","0.0-142.0","battery-v0.2","","""event"",""trial"",""time""
""fullscreenenter"",""1"",""4725""
","
","
","""event"",""trial"",""time""
""fullscreenenter"",""1"",""4725""
","
","","","725.5","","","17","4568","709","l","elianto","#3366ff99"," "," ","1","+10","[1577.2999999523163]","1","2","","","4568","138","8","1","win","go","0"
"pit-trial","260","1474206","0.0-143.0","battery-v0.2","","""event"",""trial"",""time""
""fullscreenenter"",""1"",""4725""
","
","
","""event"",""trial"",""time""
""fullscreenenter"",""1"",""4725""
","
","","","546.2000000476837","","","17","4568","709","u","elianto","#3366ff99"," "," ","1","+10","[1397.7000000476837]","1","2","","","4568","139","9","1","win","go","0"
"pit-trial","261","1477998","0.0-144.0","battery-v0.2","","""event"",""trial"",""time""
""fullscreenenter"",""1"",""4725""
","
","
","""event"",""trial"",""time""
""fullscreenenter"",""1"",""4725""
","
","","","881.2000000476837","","","17","4568","709","g","elianto","#f73b6a7A"," "," ","1","0","[1731.7999999523163]","1","2","","","4568","140","6","3","lose","go","0"
"pit-instructions","262","1530554","0.0-145.0","battery-v0.2","","""event"",""trial"",""time""
""fullscreenenter"",""1"",""4725""
","
","
","""event"",""trial"",""time""
""fullscreenenter"",""1"",""4725""
","
","","[{""page_index"":0,""viewing_time"":44294.299999952316},{""page_index"":1,""viewing_time"":8253.900000095367}]","52549.299999952316","","","","","","","","","","","","","","","","","","","","","","","",""
"pit-trial","263","1534076","0.0-146.0","battery-v0.2","","""event"",""trial"",""time""
""fullscreenenter"",""1"",""4725""
","
","
","""event"",""trial"",""time""
""fullscreenenter"",""1"",""4725""
","
","","","639.8999998569489","","","17","4568","709","f","elianto","#3366ff99"," "," ","1","+10","[1496.5]","1","3","","","4568","141","1","1","win","go","0"
"pit-trial","264","1537850","0.0-147.0","battery-v0.2","","""event"",""trial"",""time""
""fullscreenenter"",""1"",""4725""
","
","
","""event"",""trial"",""time""
""fullscreenenter"",""1"",""4725""
","
","","","899","","","17","4568","709","n","elianto","#f73b6a7A","-1"," ","0","-10","[1748.9000000953674]","1","3","","","4568","142","0","4","lose","no-go","0"
"pit-trial","265","1542732","0.0-148.0","battery-v0.2","","""event"",""trial"",""time""
""fullscreenenter"",""1"",""4725""
","
","
","""event"",""trial"",""time""
""fullscreenenter"",""1"",""4725""
","
","","","-1","","","17","4568","709","t","elianto","#f73b6a7A","-1","-1","1","0","[]","0","3","","","4568","143","2","4","lose","no-go","0"
"pit-trial","266","1546495","0.0-149.0","battery-v0.2","","""event"",""trial"",""time""
""fullscreenenter"",""1"",""4725""
","
","
","""event"",""trial"",""time""
""fullscreenenter"",""1"",""4725""
","
","","","890.7000000476837","","","17","4568","709","b","elianto","#f73b6a7A"," "," ","1","-10","[1745.7000000476837]","1","3","","","4568","144","3","3","lose","go","1"
"pit-trial","267","1551415","0.0-150.0","battery-v0.2","","""event"",""trial"",""time""
