"trial_type","trial_index","time_elapsed","internal_node_id","task_version","subject_id","interactions","blur_events","focus_events","fullscreenenter_events","fullscreenexit_events","success","view_history","rt","responses","num_errors","age","subject","participantId","rune","rune_set","hex","correct","choice","accuracy","outcome","keys","total_keys","block","practice","value","sub","trial","stimulus","robot","valence","action","sham"
"pavlovia","0","6","0.0-0.0","battery-v0.2","","""event"",""trial"",""time""
""fullscreenenter"",""1"",""2313""
","
","
","""event"",""trial"",""time""
""fullscreenenter"",""1"",""2313""
","
","","","","","","","","","","","","","","","","","","","","","","","","","","",""
"fullscreen","1","3303","0.0-1.0","battery-v0.2","","""event"",""trial"",""time""
""fullscreenenter"",""1"",""2313""
","
","
","""event"",""trial"",""time""
""fullscreenenter"",""1"",""2313""
","
","true","","","","","","","","","","","","","","","","","","","","","","","","","",""
"pit-instructions","2","7398","0.0-2.0-0.0","battery-v0.2","","""event"",""trial"",""time""
""fullscreenenter"",""1"",""2313""
","
","
","""event"",""trial"",""time""
""fullscreenenter"",""1"",""2313""
","
","","[{""page_index"":0,""viewing_time"":4092.8000000715256}]","4093","","","","","","","","","","","","","","","","","","","","","","","",""
"pit-comprehension","3","10222","0.0-2.0-1.0-0.0","battery-v0.2","","""event"",""trial"",""time""
""fullscreenenter"",""1"",""2313""
","
","
","""event"",""trial"",""time""
""fullscreenenter"",""1"",""2313""
","
","","","2821.899999976158","[""shark""]","0","25","9853","4674","","","","","","","","","","","","","","","","","","",""
"pit-instructions","4","11661","0.0-2.0-1.0-1.0","battery-v0.2","","""event"",""trial"",""time""
""fullscreenenter"",""1"",""2313""
","
","
","""event"",""trial"",""time""
""fullscreenenter"",""1"",""2313""
","
","","[{""page_index"":0,""viewing_time"":1434.2000000476837}]","1434.3999999761581","","","","","","","","","","","","","","","","","","","","","","","",""
"pit-comprehension","5","13813","0.0-2.0-2.0-0.0","battery-v0.2","","""event"",""trial"",""time""
""fullscreenenter"",""1"",""2313""
","
","
","""event"",""trial"",""time""
""fullscreenenter"",""1"",""2313""
","
","","","2150.100000023842","[""tiger""]","0","25","9853","4674","","","","","","","","","","","","","","","","","","",""
"pit-instructions","6","14717","0.0-2.0-2.0-1.0","battery-v0.2","","""event"",""trial"",""time""
""fullscreenenter"",""1"",""2313""
","
","
","""event"",""trial"",""time""
""fullscreenenter"",""1"",""2313""
","
","","[{""page_index"":0,""viewing_time"":902.5}]","902.6000000238419","","","","","","","","","","","","","","","","","","","","","","","",""
"pit-instructions","7","121901","0.0-2.0-3.0","battery-v0.2","","""event"",""trial"",""time""
""fullscreenenter"",""1"",""2313""
","
","
","""event"",""trial"",""time""
""fullscreenenter"",""1"",""2313""
","
","","[{""page_index"":0,""viewing_time"":12278.700000047684},{""page_index"":1,""viewing_time"":6295.899999976158},{""page_index"":2,""viewing_time"":7479.700000047684},{""page_index"":3,""viewing_time"":5440.299999952316},{""page_index"":4,""viewing_time"":7552.899999976158},{""page_index"":5,""viewing_time"":8679},{""page_index"":6,""viewing_time"":6927.800000071526},{""page_index"":7,""viewing_time"":6752},{""page_index"":8,""viewing_time"":6639.899999976158},{""page_index"":9,""viewing_time"":11424.399999976158},{""page_index"":10,""viewing_time"":7096.200000047684},{""page_index"":11,""viewing_time"":9303.399999976158},{""page_index"":12,""viewing_time"":6600.899999976158},{""page_index"":13,""viewing_time"":4711.100000023842}]","107182.5","","","","","","","","","","","","","","","","","","","","","","","",""
"pit-trial","8","125365","0.0-2.0-4.0-0.0","battery-v0.2","","""event"",""trial"",""time""
""fullscreenenter"",""1"",""2313""
","
","
","""event"",""trial"",""time""
""fullscreenenter"",""1"",""2313""
","
","","","609.2000000476837","","","25","9853","4674","&#9784;","elianto","#FFFFF080"," "," ","1","&#10004","[1459.1999999284744]","1","0","0","","","","","","","",""
"pit-trial","9","128750","0.0-2.0-4.1-0.1","battery-v0.2","","""event"",""trial"",""time""
""fullscreenenter"",""1"",""2313""
","
","
","""event"",""trial"",""time""
""fullscreenenter"",""1"",""2313""
","
","","","516.3999999761581","","","25","9853","4674","&#9784;","elianto","#FFFFF080"," "," ","1","&#10004","[1366.7999999523163]","1","0","0","","","","","","","",""
"pit-trial","10","132099","0.0-2.0-4.2-0.2","battery-v0.2","","""event"",""trial"",""time""
""fullscreenenter"",""1"",""2313""
","
","
","""event"",""trial"",""time""
""fullscreenenter"",""1"",""2313""
","
","","","480.10000002384186","","","25","9853","4674","&#9784;","elianto","#FFFFF080"," "," ","1","&#10004","[1333.8999999761581]","1","0","0","","","","","","","",""
"pit-trial","11","135376","0.0-2.0-4.3-0.3","battery-v0.2","","""event"",""trial"",""time""
""fullscreenenter"",""1"",""2313""
","
","
","""event"",""trial"",""time""
""fullscreenenter"",""1"",""2313""
","
","","","409.60000002384186","","","25","9853","4674","&#9784;","elianto","#FFFFF080"," "," ","1","&#10004","[1259.8999999761581]","1","0","0","","","","","","","",""
"pit-trial","12","138612","0.0-2.0-4.4-0.4","battery-v0.2","","""event"",""trial"",""time""
""fullscreenenter"",""1"",""2313""
","
","
","""event"",""trial"",""time""
""fullscreenenter"",""1"",""2313""
","
","","","367.2999999523163","","","25","9853","4674","&#9784;","elianto","#FFFFF080"," "," ","1","&#10004","[1218]","1","0","0","","","","","","","",""
"pit-instructions","13","163447","0.0-2.0-5.0","battery-v0.2","","""event"",""trial"",""time""
""fullscreenenter"",""1"",""2313""
","
","
","""event"",""trial"",""time""
""fullscreenenter"",""1"",""2313""
","
","","[{""page_index"":0,""viewing_time"":7454.600000023842},{""page_index"":1,""viewing_time"":5757.5},{""page_index"":2,""viewing_time"":6208.199999928474},{""page_index"":3,""viewing_time"":5410}]","24830.5","","","","","","","","","","","","","","","","","","","","","","","",""
"pit-trial","14","168318","0.0-2.0-6.0-0.0","battery-v0.2","","""event"",""trial"",""time""
""fullscreenenter"",""1"",""2313""
","
","
","""event"",""trial"",""time""
""fullscreenenter"",""1"",""2313""
","
","","","-1","","","25","9853","4674","&#9854;","elianto","#FFFFF080","-1","-1","1","&#10004","[]","0","0","1","","","","","","","",""
"pit-trial","15","173193","0.0-2.0-6.1-0.1","battery-v0.2","","""event"",""trial"",""time""
""fullscreenenter"",""1"",""2313""
","
","
","""event"",""trial"",""time""
""fullscreenenter"",""1"",""2313""
","
","","","-1","","","25","9853","4674","&#9854;","elianto","#FFFFF080","-1","-1","1","&#10004","[]","0","0","1","","","","","","","",""
"pit-trial","16","178063","0.0-2.0-6.2-0.2","battery-v0.2","","""event"",""trial"",""time""
""fullscreenenter"",""1"",""2313""
","
","
","""event"",""trial"",""time""
""fullscreenenter"",""1"",""2313""
","
","","","-1","","","25","9853","4674","&#9854;","elianto","#FFFFF080","-1","-1","1","&#10004","[]","0","0","1","","","","","","","",""
"pit-trial","17","182923","0.0-2.0-6.3-0.3","battery-v0.2","","""event"",""trial"",""time""
""fullscreenenter"",""1"",""2313""
","
","
","""event"",""trial"",""time""
""fullscreenenter"",""1"",""2313""
","
","","","-1","","","25","9853","4674","&#9854;","elianto","#FFFFF080","-1","-1","1","&#10004","[]","0","0","1","","","","","","","",""
"pit-trial","18","187797","0.0-2.0-6.4-0.4","battery-v0.2","","""event"",""trial"",""time""
""fullscreenenter"",""1"",""2313""
","
","
","""event"",""trial"",""time""
""fullscreenenter"",""1"",""2313""
","
","","","-1","","","25","9853","4674","&#9854;","elianto","#FFFFF080","-1","-1","1","&#10004","[]","0","0","1","","","","","","","",""
"pit-instructions","19","319230","0.0-2.0-7.0","battery-v0.2","","""event"",""trial"",""time""
""fullscreenenter"",""1"",""2313""
","
","
","""event"",""trial"",""time""
""fullscreenenter"",""1"",""2313""
","
","","[{""page_index"":0,""viewing_time"":7902.899999976158},{""page_index"":1,""viewing_time"":8599.899999976158},{""page_index"":2,""viewing_time"":6665},{""page_index"":3,""viewing_time"":8742.5},{""page_index"":4,""viewing_time"":5576.300000071526},{""page_index"":5,""viewing_time"":7952},{""page_index"":6,""viewing_time"":6935.399999976158},{""page_index"":7,""viewing_time"":8129},{""page_index"":8,""viewing_time"":6567.700000047684},{""page_index"":9,""viewing_time"":7760.5},{""page_index"":10,""viewing_time"":9887.299999952316},{""page_index"":11,""viewing_time"":5232},{""page_index"":12,""viewing_time"":6703.700000047684},{""page_index"":13,""viewing_time"":6992.299999952316},{""page_index"":14,""viewing_time"":7849},{""page_index"":15,""viewing_time"":6206.600000023842},{""page_index"":16,""viewing_time"":6552.100000023842},{""page_index"":17,""viewing_time"":7177.199999928474}]","131431.60000002384","","","","","","","","","","","","","","","","","","","","","","","",""
"pit-trial","20","322665","0.0-2.0-8.0-0.0","battery-v0.2","","""event"",""trial"",""time""
""fullscreenenter"",""1"",""2313""
","
","
","""event"",""trial"",""time""
""fullscreenenter"",""1"",""2313""
","
","","","579.5999999046326","","","25","9853","4674","&#9776;","elianto","#3366ff99"," "," ","1","+10","[1431.0999999046326]","1","0","1","","","","","","","",""
"pit-trial","21","325951","0.0-2.0-8.0-1.0","battery-v0.2","","""event"",""trial"",""time""
""fullscreenenter"",""1"",""2313""
","
","
","""event"",""trial"",""time""
""fullscreenenter"",""1"",""2313""
","
","","","416.60000002384186","","","25","9853","4674","&#9776;","elianto","#3366ff99"," "," ","1","+10","[1268.5999999046326]","1","0","1","","","","","","","",""
"pit-trial","22","329186","0.0-2.0-8.0-2.0","battery-v0.2","","""event"",""trial"",""time""
""fullscreenenter"",""1"",""2313""
","
","
","""event"",""trial"",""time""
""fullscreenenter"",""1"",""2313""
","
","","","377.5","","","25","9853","4674","&#9776;","elianto","#3366ff99"," "," ","1","+10","[1230.6000000238419]","1","0","1","","","","","","","",""
"pit-trial","23","332386","0.0-2.0-8.0-3.0","battery-v0.2","","""event"",""trial"",""time""
""fullscreenenter"",""1"",""2313""
","
","
","""event"",""trial"",""time""
""fullscreenenter"",""1"",""2313""
","
","","","341.90000009536743","","","25","9853","4674","&#9776;","elianto","#3366ff99"," "," ","1","0","[1192.3000000715256]","1","0","1","","","","","","","",""
"pit-trial","24","335580","0.0-2.0-8.0-4.0","battery-v0.2","","""event"",""trial"",""time""
""fullscreenenter"",""1"",""2313""
","
","
","""event"",""trial"",""time""
""fullscreenenter"",""1"",""2313""
","
","","","329.7999999523163","","","25","9853","4674","&#9776;","elianto","#3366ff99"," "," ","1","+10","[1180.2999999523163]","1","0","1","","","","","","","",""
"pit-trial","25","338791","0.0-2.0-8.1-0.1","battery-v0.2","","""event"",""trial"",""time""
""fullscreenenter"",""1"",""2313""
","
","
","""event"",""trial"",""time""
""fullscreenenter"",""1"",""2313""
","
","","","352.2999999523163","","","25","9853","4674","&#9776;","elianto","#3366ff99"," "," ","1","+10","[1202.2999999523163]","1","0","1","","","","","","","",""
"pit-trial","26","341953","0.0-2.0-8.1-1.1","battery-v0.2","","""event"",""trial"",""time""
""fullscreenenter"",""1"",""2313""
","
","
","""event"",""trial"",""time""
""fullscreenenter"",""1"",""2313""
","
","","","300","","","25","9853","4674","&#9776;","elianto","#3366ff99"," "," ","1","+10","[1155.3999999761581,1748]","2","0","1","","","","","","","",""
"pit-trial","27","345534","0.0-2.0-8.1-2.1","battery-v0.2","","""event"",""trial"",""time""
""fullscreenenter"",""1"",""2313""
","
","
","""event"",""trial"",""time""
""fullscreenenter"",""1"",""2313""
","
","","","712.6000000238419","","","25","9853","4674","&#9776;","elianto","#3366ff99"," "," ","1","+10","[1565.7000000476837]","1","0","1","","","","","","","",""
"pit-trial","28","348734","0.0-2.0-8.1-3.1","battery-v0.2","","""event"",""trial"",""time""
""fullscreenenter"",""1"",""2313""
","
","
","""event"",""trial"",""time""
""fullscreenenter"",""1"",""2313""
","
","","","334.39999997615814","","","25","9853","4674","&#9776;","elianto","#3366ff99"," "," ","1","0","[1184.7000000476837]","1","0","1","","","","","","","",""
"pit-trial","29","351904","0.0-2.0-8.1-4.1","battery-v0.2","","""event"",""trial"",""time""
""fullscreenenter"",""1"",""2313""
","
","
","""event"",""trial"",""time""
""fullscreenenter"",""1"",""2313""
","
","","","316.6999999284744","","","25","9853","4674","&#9776;","elianto","#3366ff99"," "," ","1","+10","[1168.0999999046326]","1","0","1","","","","","","","",""
"pit-trial","30","355014","0.0-2.0-8.2-0.2","battery-v0.2","","""event"",""trial"",""time""
""fullscreenenter"",""1"",""2313""
","
","
","""event"",""trial"",""time""
""fullscreenenter"",""1"",""2313""
","
","","","256.60000002384186","","","25","9853","4674","&#9776;","elianto","#3366ff99"," "," ","1","+10","[1107]","1","0","1","","","","","","","",""
"pit-trial","31","358593","0.0-2.0-8.2-1.2","battery-v0.2","","""event"",""trial"",""time""
""fullscreenenter"",""1"",""2313""
","
","
","""event"",""trial"",""time""
""fullscreenenter"",""1"",""2313""
","
","","","725.3000000715256","","","25","9853","4674","&#9776;","elianto","#3366ff99"," "," ","1","+10","[1575.8999999761581]","1","0","1","","","","","","","",""
"pit-trial","32","361769","0.0-2.0-8.2-2.2","battery-v0.2","","""event"",""trial"",""time""
""fullscreenenter"",""1"",""2313""
","
","
","""event"",""trial"",""time""
""fullscreenenter"",""1"",""2313""
","
","","","322.39999997615814","","","25","9853","4674","&#9776;","elianto","#3366ff99"," "," ","1","+10","[1172.3999999761581]","1","0","1","","","","","","","",""
"pit-trial","33","364961","0.0-2.0-8.2-3.2","battery-v0.2","","""event"",""trial"",""time""
""fullscreenenter"",""1"",""2313""
","
","
","""event"",""trial"",""time""
""fullscreenenter"",""1"",""2313""
","
","","","339.60000002384186","","","25","9853","4674","&#9776;","elianto","#3366ff99"," "," ","1","0","[1190]","1","0","1","","","","","","","",""
"pit-trial","34","368176","0.0-2.0-8.2-4.2","battery-v0.2","","""event"",""trial"",""time""
""fullscreenenter"",""1"",""2313""
","
","
","""event"",""trial"",""time""
""fullscreenenter"",""1"",""2313""
","
","","","362","","","25","9853","4674","&#9776;","elianto","#3366ff99"," "," ","1","+10","[1212.3000000715256]","1","0","1","","","","","","","",""
"call-function","35","368179","0.0-2.0-9.0","battery-v0.2","","""event"",""trial"",""time""
""fullscreenenter"",""1"",""2313""
","
","
","""event"",""trial"",""time""
""fullscreenenter"",""1"",""2313""
","
","","","","","","","","","","","","","","","","","","","","","","","","","","",""
"pit-instructions","36","409581","0.0-2.0-10.0","battery-v0.2","","""event"",""trial"",""time""
""fullscreenenter"",""1"",""2313""
","
","
","""event"",""trial"",""time""
""fullscreenenter"",""1"",""2313""
","
","","[{""page_index"":0,""viewing_time"":8200.799999952316},{""page_index"":1,""viewing_time"":7552.399999976158},{""page_index"":2,""viewing_time"":9391.899999976158},{""page_index"":3,""viewing_time"":9000},{""page_index"":4,""viewing_time"":7256.600000023842}]","41401.89999997616","","","","","","","","","","","","","","","","","","","","","","","",""
"pit-trial","37","412893","0.0-2.0-11.0-0.0","battery-v0.2","","""event"",""trial"",""time""
""fullscreenenter"",""1"",""2313""
","
","
","""event"",""trial"",""time""
""fullscreenenter"",""1"",""2313""
","
","","","442.89999997615814","","","25","9853","4674","&#9761;","elianto","#3366ff99","-1"," ","0","0","[1295.2999999523163]","1","0","2","","","","","","","",""
"pit-trial","38","417770","0.0-2.0-11.0-1.0","battery-v0.2","","""event"",""trial"",""time""
""fullscreenenter"",""1"",""2313""
","
","
","""event"",""trial"",""time""
""fullscreenenter"",""1"",""2313""
","
","","","-1","","","25","9853","4674","&#9761;","elianto","#3366ff99","-1","-1","1","+10","[]","0","0","2","","","","","","","",""
"pit-trial","39","422632","0.0-2.0-11.0-2.0","battery-v0.2","","""event"",""trial"",""time""
""fullscreenenter"",""1"",""2313""
","
","
","""event"",""trial"",""time""
""fullscreenenter"",""1"",""2313""
","
","","","-1","","","25","9853","4674","&#9761;","elianto","#3366ff99","-1","-1","1","+10","[]","0","0","2","","","","","","","",""
"pit-trial","40","427489","0.0-2.0-11.0-3.0","battery-v0.2","","""event"",""trial"",""time""
""fullscreenenter"",""1"",""2313""
","
","
","""event"",""trial"",""time""
""fullscreenenter"",""1"",""2313""
","
","","","-1","","","25","9853","4674","&#9761;","elianto","#3366ff99","-1","-1","1","0","[]","0","0","2","","","","","","","",""
"pit-trial","41","432354","0.0-2.0-11.0-4.0","battery-v0.2","","""event"",""trial"",""time""
""fullscreenenter"",""1"",""2313""
","
","
","""event"",""trial"",""time""
""fullscreenenter"",""1"",""2313""
","
","","","-1","","","25","9853","4674","&#9761;","elianto","#3366ff99","-1","-1","1","+10","[]","0","0","2","","","","","","","",""
"pit-trial","42","437226","0.0-2.0-11.1-0.1","battery-v0.2","","""event"",""trial"",""time""
""fullscreenenter"",""1"",""2313""
","
","
","""event"",""trial"",""time""
""fullscreenenter"",""1"",""2313""
","
","","","-1","","","25","9853","4674","&#9761;","elianto","#3366ff99","-1","-1","1","+10","[]","0","0","2","","","","","","","",""
"pit-trial","43","442085","0.0-2.0-11.1-1.1","battery-v0.2","","""event"",""trial"",""time""
""fullscreenenter"",""1"",""2313""
","
","
","""event"",""trial"",""time""
""fullscreenenter"",""1"",""2313""
","
","","","-1","","","25","9853","4674","&#9761;","elianto","#3366ff99","-1","-1","1","+10","[]","0","0","2","","","","","","","",""
"pit-trial","44","446939","0.0-2.0-11.1-2.1","battery-v0.2","","""event"",""trial"",""time""
""fullscreenenter"",""1"",""2313""
","
","
","""event"",""trial"",""time""
""fullscreenenter"",""1"",""2313""
","
","","","-1","","","25","9853","4674","&#9761;","elianto","#3366ff99","-1","-1","1","+10","[]","0","0","2","","","","","","","",""
"pit-trial","45","451793","0.0-2.0-11.1-3.1","battery-v0.2","","""event"",""trial"",""time""
""fullscreenenter"",""1"",""2313""
","
","
","""event"",""trial"",""time""
""fullscreenenter"",""1"",""2313""
","
","","","-1","","","25","9853","4674","&#9761;","elianto","#3366ff99","-1","-1","1","0","[]","0","0","2","","","","","","","",""
"pit-trial","46","456646","0.0-2.0-11.1-4.1","battery-v0.2","","""event"",""trial"",""time""
""fullscreenenter"",""1"",""2313""
","
","
","""event"",""trial"",""time""
""fullscreenenter"",""1"",""2313""
","
","","","-1","","","25","9853","4674","&#9761;","elianto","#3366ff99","-1","-1","1","+10","[]","0","0","2","","","","","","","",""
"pit-trial","47","461499","0.0-2.0-11.2-0.2","battery-v0.2","","""event"",""trial"",""time""
""fullscreenenter"",""1"",""2313""
","
","
","""event"",""trial"",""time""
""fullscreenenter"",""1"",""2313""
","
","","","-1","","","25","9853","4674","&#9761;","elianto","#3366ff99","-1","-1","1","+10","[]","0","0","2","","","","","","","",""
"pit-trial","48","466354","0.0-2.0-11.2-1.2","battery-v0.2","","""event"",""trial"",""time""
""fullscreenenter"",""1"",""2313""
","
","
","""event"",""trial"",""time""
""fullscreenenter"",""1"",""2313""
","
","","","-1","","","25","9853","4674","&#9761;","elianto","#3366ff99","-1","-1","1","+10","[]","0","0","2","","","","","","","",""
"pit-trial","49","471209","0.0-2.0-11.2-2.2","battery-v0.2","","""event"",""trial"",""time""
""fullscreenenter"",""1"",""2313""
","
","
","""event"",""trial"",""time""
""fullscreenenter"",""1"",""2313""
","
","","","-1","","","25","9853","4674","&#9761;","elianto","#3366ff99","-1","-1","1","+10","[]","0","0","2","","","","","","","",""
"pit-trial","50","476061","0.0-2.0-11.2-3.2","battery-v0.2","","""event"",""trial"",""time""
""fullscreenenter"",""1"",""2313""
","
","
","""event"",""trial"",""time""
""fullscreenenter"",""1"",""2313""
","
","","","-1","","","25","9853","4674","&#9761;","elianto","#3366ff99","-1","-1","1","0","[]","0","0","2","","","","","","","",""
"pit-trial","51","480915","0.0-2.0-11.2-4.2","battery-v0.2","","""event"",""trial"",""time""
""fullscreenenter"",""1"",""2313""
","
","
","""event"",""trial"",""time""
""fullscreenenter"",""1"",""2313""
","
","","","-1","","","25","9853","4674","&#9761;","elianto","#3366ff99","-1","-1","1","+10","[]","0","0","2","","","","","","","",""
"pit-trial","52","485770","0.0-2.0-11.3-0.3","battery-v0.2","","""event"",""trial"",""time""
""fullscreenenter"",""1"",""2313""
","
","
","""event"",""trial"",""time""
""fullscreenenter"",""1"",""2313""
","
","","","-1","","","25","9853","4674","&#9761;","elianto","#3366ff99","-1","-1","1","+10","[]","0","0","2","","","","","","","",""
"pit-trial","53","490624","0.0-2.0-11.3-1.3","battery-v0.2","","""event"",""trial"",""time""
""fullscreenenter"",""1"",""2313""
","
","
","""event"",""trial"",""time""
""fullscreenenter"",""1"",""2313""
","
","","","-1","","","25","9853","4674","&#9761;","elianto","#3366ff99","-1","-1","1","+10","[]","0","0","2","","","","","","","",""
"pit-trial","54","494271","0.0-2.0-11.3-2.3","battery-v0.2","","""event"",""trial"",""time""
""fullscreenenter"",""1"",""2313""
","
","
","""event"",""trial"",""time""
""fullscreenenter"",""1"",""2313""
","
","","","793.2000000476837","","","25","9853","4674","&#9761;","elianto","#3366ff99","-1"," ","0","0","[1643.7000000476837]","1","0","2","","","","","","","",""
"pit-trial","55","497479","0.0-2.0-11.3-3.3","battery-v0.2","","""event"",""trial"",""time""
""fullscreenenter"",""1"",""2313""
","
","
","""event"",""trial"",""time""
""fullscreenenter"",""1"",""2313""
","
","","","355.2000000476837","","","25","9853","4674","&#9761;","elianto","#3366ff99","-1"," ","0","+10","[1205.8000000715256]","1","0","2","","","","","","","",""
"pit-trial","56","500671","0.0-2.0-11.3-4.3","battery-v0.2","","""event"",""trial"",""time""
""fullscreenenter"",""1"",""2313""
","
","
","""event"",""trial"",""time""
""fullscreenenter"",""1"",""2313""
","
","","","339.7999999523163","","","25","9853","4674","&#9761;","elianto","#3366ff99","-1"," ","0","0","[1190.8999999761581]","1","0","2","","","","","","","",""
"call-function","57","500674","0.0-2.0-12.0","battery-v0.2","","""event"",""trial"",""time""
""fullscreenenter"",""1"",""2313""
","
","
","""event"",""trial"",""time""
""fullscreenenter"",""1"",""2313""
","
","","","","","","","","","","","","","","","","","","","","","","","","","","",""
"pit-instructions","58","531780","0.0-2.0-13.0","battery-v0.2","","""event"",""trial"",""time""
""fullscreenenter"",""1"",""2313""
","
","
","""event"",""trial"",""time""
""fullscreenenter"",""1"",""2313""
","
","","[{""page_index"":0,""viewing_time"":5080.800000071526},{""page_index"":1,""viewing_time"":7168.799999952316},{""page_index"":2,""viewing_time"":4103.700000047684},{""page_index"":3,""viewing_time"":10160},{""page_index"":4,""viewing_time"":4591.799999952316}]","31105.399999976158","","","","","","","","","","","","","","","","","","","","","","","",""
"pit-trial","59","536399","0.0-2.0-14.0-0.0","battery-v0.2","","""event"",""trial"",""time""
""fullscreenenter"",""1"",""2313""
","
","
","""event"",""trial"",""time""
""fullscreenenter"",""1"",""2313""
","
","","","1753.9000000953674","","","25","9853","4674","&#9826;","elianto","#f73b6a7A","-1"," ","0","-10","[2609]","1","0","3","","","","","","","",""
"pit-trial","60","541274","0.0-2.0-14.0-1.0","battery-v0.2","","""event"",""trial"",""time""
""fullscreenenter"",""1"",""2313""
","
","
","""event"",""trial"",""time""
""fullscreenenter"",""1"",""2313""
","
","","","-1","","","25","9853","4674","&#9826;","elianto","#f73b6a7A","-1","-1","1","0","[]","0","0","3","","","","","","","",""
"pit-trial","61","546128","0.0-2.0-14.0-2.0","battery-v0.2","","""event"",""trial"",""time""
""fullscreenenter"",""1"",""2313""
","
","
","""event"",""trial"",""time""
""fullscreenenter"",""1"",""2313""
","
","","","-1","","","25","9853","4674","&#9826;","elianto","#f73b6a7A","-1","-1","1","0","[]","0","0","3","","","","","","","",""
"pit-trial","62","550997","0.0-2.0-14.0-3.0","battery-v0.2","","""event"",""trial"",""time""
""fullscreenenter"",""1"",""2313""
","
","
","""event"",""trial"",""time""
""fullscreenenter"",""1"",""2313""
","
","","","-1","","","25","9853","4674","&#9826;","elianto","#f73b6a7A","-1","-1","1","-10","[]","0","0","3","","","","","","","",""
"pit-trial","63","555854","0.0-2.0-14.0-4.0","battery-v0.2","","""event"",""trial"",""time""
""fullscreenenter"",""1"",""2313""
","
","
","""event"",""trial"",""time""
""fullscreenenter"",""1"",""2313""
","
","","","-1","","","25","9853","4674","&#9826;","elianto","#f73b6a7A","-1","-1","1","0","[]","0","0","3","","","","","","","",""
"pit-trial","64","560729","0.0-2.0-14.1-0.1","battery-v0.2","","""event"",""trial"",""time""
""fullscreenenter"",""1"",""2313""
","
","
","""event"",""trial"",""time""
""fullscreenenter"",""1"",""2313""
","
","","","-1","","","25","9853","4674","&#9826;","elianto","#f73b6a7A","-1","-1","1","0","[]","0","0","3","","","","","","","",""
"pit-trial","65","564193","0.0-2.0-14.1-1.1","battery-v0.2","","""event"",""trial"",""time""
""fullscreenenter"",""1"",""2313""
","
","
","""event"",""trial"",""time""
""fullscreenenter"",""1"",""2313""
","
","","","608.7999999523163","","","25","9853","4674","&#9826;","elianto","#f73b6a7A","-1"," ","0","-10","[1461.5]","1","0","3","","","","","","","",""
"pit-trial","66","569047","0.0-2.0-14.1-2.1","battery-v0.2","","""event"",""trial"",""time""
""fullscreenenter"",""1"",""2313""
","
","
","""event"",""trial"",""time""
""fullscreenenter"",""1"",""2313""
","
","","","-1","","","25","9853","4674","&#9826;","elianto","#f73b6a7A","-1","-1","1","0","[]","0","0","3","","","","","","","",""
"pit-trial","67","573902","0.0-2.0-14.1-3.1","battery-v0.2","","""event"",""trial"",""time""
""fullscreenenter"",""1"",""2313""
","
","
","""event"",""trial"",""time""
""fullscreenenter"",""1"",""2313""
","
","","","-1","","","25","9853","4674","&#9826;","elianto","#f73b6a7A","-1","-1","1","-10","[]","0","0","3","","","","","","","",""
"pit-trial","68","578755","0.0-2.0-14.1-4.1","battery-v0.2","","""event"",""trial"",""time""
""fullscreenenter"",""1"",""2313""
","
","
","""event"",""trial"",""time""
""fullscreenenter"",""1"",""2313""
","
","","","-1","","","25","9853","4674","&#9826;","elianto","#f73b6a7A","-1","-1","1","0","[]","0","0","3","","","","","","","",""
"pit-trial","69","583256","0.0-2.0-14.2-0.2","battery-v0.2","","""event"",""trial"",""time""
""fullscreenenter"",""1"",""2313""
","
","
","""event"",""trial"",""time""
""fullscreenenter"",""1"",""2313""
","
","","","1645.5999999046326","","","25","9853","4674","&#9826;","elianto","#f73b6a7A","-1"," ","0","-10","[2495.899999976158]","1","0","3","","","","","","","",""
"pit-trial","70","588111","0.0-2.0-14.2-1.2","battery-v0.2","","""event"",""trial"",""time""
""fullscreenenter"",""1"",""2313""
","
","
","""event"",""trial"",""time""
""fullscreenenter"",""1"",""2313""
","
","","","-1","","","25","9853","4674","&#9826;","elianto","#f73b6a7A","-1","-1","1","0","[]","0","0","3","","","","","","","",""
"pit-trial","71","592965","0.0-2.0-14.2-2.2","battery-v0.2","","""event"",""trial"",""time""
""fullscreenenter"",""1"",""2313""
","
","
","""event"",""trial"",""time""
""fullscreenenter"",""1"",""2313""
","
","","","-1","","","25","9853","4674","&#9826;","elianto","#f73b6a7A","-1","-1","1","0","[]","0","0","3","","","","","","","",""
"pit-trial","72","597817","0.0-2.0-14.2-3.2","battery-v0.2","","""event"",""trial"",""time""
""fullscreenenter"",""1"",""2313""
","
","
","""event"",""trial"",""time""
""fullscreenenter"",""1"",""2313""
","
","","","-1","","","25","9853","4674","&#9826;","elianto","#f73b6a7A","-1","-1","1","-10","[]","0","0","3","","","","","","","",""
"pit-trial","73","602669","0.0-2.0-14.2-4.2","battery-v0.2","","""event"",""trial"",""time""
""fullscreenenter"",""1"",""2313""
","
","
","""event"",""trial"",""time""
""fullscreenenter"",""1"",""2313""
","
","","","-1","","","25","9853","4674","&#9826;","elianto","#f73b6a7A","-1","-1","1","0","[]","0","0","3","","","","","","","",""
"pit-trial","74","607523","0.0-2.0-14.3-0.3","battery-v0.2","","""event"",""trial"",""time""
""fullscreenenter"",""1"",""2313""
","
","
","""event"",""trial"",""time""
""fullscreenenter"",""1"",""2313""
","
","","","-1","","","25","9853","4674","&#9826;","elianto","#f73b6a7A","-1","-1","1","0","[]","0","0","3","","","","","","","",""
"pit-trial","75","612377","0.0-2.0-14.3-1.3","battery-v0.2","","""event"",""trial"",""time""
""fullscreenenter"",""1"",""2313""
","
","
","""event"",""trial"",""time""
""fullscreenenter"",""1"",""2313""
","
","","","-1","","","25","9853","4674","&#9826;","elianto","#f73b6a7A","-1","-1","1","0","[]","0","0","3","","","","","","","",""
"pit-trial","76","617231","0.0-2.0-14.3-2.3","battery-v0.2","","""event"",""trial"",""time""
""fullscreenenter"",""1"",""2313""
","
","
","""event"",""trial"",""time""
""fullscreenenter"",""1"",""2313""
","
","","","-1","","","25","9853","4674","&#9826;","elianto","#f73b6a7A","-1","-1","1","0","[]","0","0","3","","","","","","","",""
"pit-trial","77","622085","0.0-2.0-14.3-3.3","battery-v0.2","","""event"",""trial"",""time""
""fullscreenenter"",""1"",""2313""
","
","
","""event"",""trial"",""time""
""fullscreenenter"",""1"",""2313""
","
","","","-1","","","25","9853","4674","&#9826;","elianto","#f73b6a7A","-1","-1","1","-10","[]","0","0","3","","","","","","","",""
"pit-trial","78","626939","0.0-2.0-14.3-4.3","battery-v0.2","","""event"",""trial"",""time""
""fullscreenenter"",""1"",""2313""
","
","
","""event"",""trial"",""time""
""fullscreenenter"",""1"",""2313""
","
","","","-1","","","25","9853","4674","&#9826;","elianto","#f73b6a7A","-1","-1","1","0","[]","0","0","3","","","","","","","",""
"call-function","79","626941","0.0-2.0-15.0","battery-v0.2","","""event"",""trial"",""time""
""fullscreenenter"",""1"",""2313""
","
","
","""event"",""trial"",""time""
""fullscreenenter"",""1"",""2313""
","
","","","","","","","","","","","","","","","","","","","","","","","","","","",""
"pit-instructions","80","651237","0.0-2.0-16.0","battery-v0.2","","""event"",""trial"",""time""
""fullscreenenter"",""1"",""2313""
","
","
","""event"",""trial"",""time""
""fullscreenenter"",""1"",""2313""
","
","","[{""page_index"":0,""viewing_time"":6390.200000047684},{""page_index"":1,""viewing_time"":8224.5},{""page_index"":2,""viewing_time"":4583.299999952316},{""page_index"":3,""viewing_time"":5096.200000047684}]","24294.400000095367","","","","","","","","","","","","","","","","","","","","","","","",""
"pit-trial","81","655005","0.0-2.0-17.0-0.0","battery-v0.2","","""event"",""trial"",""time""
""fullscreenenter"",""1"",""2313""
","
","
","""event"",""trial"",""time""
""fullscreenenter"",""1"",""2313""
","
","","","907.3999999761581","","","25","9853","4674","&#9789;","elianto","#f73b6a7A"," "," ","1","0","[1758.7000000476837]","1","0","4","","","","","","","",""
"pit-trial","82","658256","0.0-2.0-17.0-1.0","battery-v0.2","","""event"",""trial"",""time""
""fullscreenenter"",""1"",""2313""
","
","
","""event"",""trial"",""time""
""fullscreenenter"",""1"",""2313""
","
","","","393.40000009536743","","","25","9853","4674","&#9789;","elianto","#f73b6a7A"," "," ","1","0","[1247.9000000953674]","1","0","4","","","","","","","",""
"pit-trial","83","661321","0.0-2.0-17.0-2.0","battery-v0.2","","""event"",""trial"",""time""
""fullscreenenter"",""1"",""2313""
","
","
","""event"",""trial"",""time""
""fullscreenenter"",""1"",""2313""
","
","","","208.20000004768372","","","25","9853","4674","&#9789;","elianto","#f73b6a7A"," "," ","1","0","[1060.8999999761581]","1","0","4","","","","","","","",""
"pit-trial","84","664353","0.0-2.0-17.0-3.0","battery-v0.2","","""event"",""trial"",""time""
""fullscreenenter"",""1"",""2313""
","
","
","""event"",""trial"",""time""
""fullscreenenter"",""1"",""2313""
","
","","","167.39999997615814","","","25","9853","4674","&#9789;","elianto","#f73b6a7A"," "," ","1","-10","[1017.5999999046326]","1","0","4","","","","","","","",""
"pit-trial","85","667403","0.0-2.0-17.0-4.0","battery-v0.2","","""event"",""trial"",""time""
""fullscreenenter"",""1"",""2313""
","
","
","""event"",""trial"",""time""
""fullscreenenter"",""1"",""2313""
","
","","","181.5","","","25","9853","4674","&#9789;","elianto","#f73b6a7A"," "," ","1","0","[1033.7000000476837]","1","0","4","","","","","","","",""
"pit-trial","86","670396","0.0-2.0-17.1-0.1","battery-v0.2","","""event"",""trial"",""time""
""fullscreenenter"",""1"",""2313""
","
","
","""event"",""trial"",""time""
""fullscreenenter"",""1"",""2313""
","
","","","123.69999992847443","","","25","9853","4674","&#9789;","elianto","#f73b6a7A"," "," ","1","0","[975.6000000238419]","1","0","4","","","","","","","",""
"pit-trial","87","673432","0.0-2.0-17.1-1.1","battery-v0.2","","""event"",""trial"",""time""
""fullscreenenter"",""1"",""2313""
","
","
","""event"",""trial"",""time""
""fullscreenenter"",""1"",""2313""
","
","","","169.29999995231628","","","25","9853","4674","&#9789;","elianto","#f73b6a7A"," "," ","1","0","[1022.5999999046326]","1","0","4","","","","","","","",""
"pit-trial","88","676691","0.0-2.0-17.1-2.1","battery-v0.2","","""event"",""trial"",""time""
""fullscreenenter"",""1"",""2313""
","
","
","""event"",""trial"",""time""
""fullscreenenter"",""1"",""2313""
","
","","","401.39999997615814","","","25","9853","4674","&#9789;","elianto","#f73b6a7A"," "," ","1","0","[842.5,1252.7000000476837]","2","0","4","","","","","","","",""
"pit-trial","89","679756","0.0-2.0-17.1-3.1","battery-v0.2","","""event"",""trial"",""time""
""fullscreenenter"",""1"",""2313""
","
","
","""event"",""trial"",""time""
""fullscreenenter"",""1"",""2313""
","
","","","209.20000004768372","","","25","9853","4674","&#9789;","elianto","#f73b6a7A"," "," ","1","-10","[1059.8000000715256]","1","0","4","","","","","","","",""
"pit-trial","90","682912","0.0-2.0-17.1-4.1","battery-v0.2","","""event"",""trial"",""time""
""fullscreenenter"",""1"",""2313""
","
","
","""event"",""trial"",""time""
""fullscreenenter"",""1"",""2313""
","
","","","304.5","","","25","9853","4674","&#9789;","elianto","#f73b6a7A"," "," ","1","0","[1154.5]","1","0","4","","","","","","","",""
"pit-trial","91","686016","0.0-2.0-17.2-0.2","battery-v0.2","","""event"",""trial"",""time""
""fullscreenenter"",""1"",""2313""
","
","
","""event"",""trial"",""time""
""fullscreenenter"",""1"",""2313""
","
","","","250.80000007152557","","","25","9853","4674","&#9789;","elianto","#f73b6a7A"," "," ","1","0","[1101.8000000715256]","1","0","4","","","","","","","",""
"pit-trial","92","689119","0.0-2.0-17.2-1.2","battery-v0.2","","""event"",""trial"",""time""
""fullscreenenter"",""1"",""2313""
","
","
","""event"",""trial"",""time""
""fullscreenenter"",""1"",""2313""
","
","","","249.89999997615814","","","25","9853","4674","&#9789;","elianto","#f73b6a7A"," "," ","1","0","[1100.2999999523163]","1","0","4","","","","","","","",""
"pit-trial","93","692151","0.0-2.0-17.2-2.2","battery-v0.2","","""event"",""trial"",""time""
""fullscreenenter"",""1"",""2313""
","
","
","""event"",""trial"",""time""
""fullscreenenter"",""1"",""2313""
","
","","","178","","","25","9853","4674","&#9789;","elianto","#f73b6a7A"," "," ","1","0","[1029.6000000238419]","1","0","4","","","","","","","",""
"pit-trial","94","695215","0.0-2.0-17.2-3.2","battery-v0.2","","""event"",""trial"",""time""
""fullscreenenter"",""1"",""2313""
","
","
","""event"",""trial"",""time""
""fullscreenenter"",""1"",""2313""
","
","","","211.69999992847443","","","25","9853","4674","&#9789;","elianto","#f73b6a7A"," "," ","1","-10","[1062.5]","1","0","4","","","","","","","",""
"pit-trial","95","698306","0.0-2.0-17.2-4.2","battery-v0.2","","""event"",""trial"",""time""
""fullscreenenter"",""1"",""2313""
","
","
","""event"",""trial"",""time""
""fullscreenenter"",""1"",""2313""
","
","","","235.79999995231628","","","25","9853","4674","&#9789;","elianto","#f73b6a7A"," "," ","1","0","[1086.6000000238419]","1","0","4","","","","","","","",""
"pit-trial","96","701542","0.0-2.0-17.3-0.3","battery-v0.2","","""event"",""trial"",""time""
""fullscreenenter"",""1"",""2313""
","
","
","""event"",""trial"",""time""
""fullscreenenter"",""1"",""2313""
","
","","","384.2999999523163","","","25","9853","4674","&#9789;","elianto","#f73b6a7A"," "," ","1","0","[1234.3999999761581]","1","0","4","","","","","","","",""
"pit-trial","97","704998","0.0-2.0-17.3-1.3","battery-v0.2","","""event"",""trial"",""time""
""fullscreenenter"",""1"",""2313""
","
","
","""event"",""trial"",""time""
""fullscreenenter"",""1"",""2313""
","
","","","603.1000000238419","","","25","9853","4674","&#9789;","elianto","#f73b6a7A"," "," ","1","0","[1453.3999999761581]","1","0","4","","","","","","","",""
"pit-trial","98","708227","0.0-2.0-17.3-2.3","battery-v0.2","","""event"",""trial"",""time""
""fullscreenenter"",""1"",""2313""
","
","
","""event"",""trial"",""time""
""fullscreenenter"",""1"",""2313""
","
","","","375.2999999523163","","","25","9853","4674","&#9789;","elianto","#f73b6a7A"," "," ","1","0","[1226]","1","0","4","","","","","","","",""
"pit-trial","99","711345","0.0-2.0-17.3-3.3","battery-v0.2","","""event"",""trial"",""time""
""fullscreenenter"",""1"",""2313""
","
","
","""event"",""trial"",""time""
""fullscreenenter"",""1"",""2313""
","
","","","264.2999999523163","","","25","9853","4674","&#9789;","elianto","#f73b6a7A"," "," ","1","-10","[1115.0999999046326]","1","0","4","","","","","","","",""
"pit-trial","100","714393","0.0-2.0-17.3-4.3","battery-v0.2","","""event"",""trial"",""time""
""fullscreenenter"",""1"",""2313""
","
","
","""event"",""trial"",""time""
""fullscreenenter"",""1"",""2313""
","
","","","194.70000004768372","","","25","9853","4674","&#9789;","elianto","#f73b6a7A"," "," ","1","0","[1045.3000000715256]","1","0","4","","","","","","","",""
"call-function","101","714396","0.0-2.0-18.0","battery-v0.2","","""event"",""trial"",""time""
""fullscreenenter"",""1"",""2313""
","
","
","""event"",""trial"",""time""
""fullscreenenter"",""1"",""2313""
","
","","","","","","","","","","","","","","","","","","","","","","","","","","",""
"pit-instructions","102","782781","0.0-2.0-19.0","battery-v0.2","","""event"",""trial"",""time""
""fullscreenenter"",""1"",""2313""
","
","
","""event"",""trial"",""time""
""fullscreenenter"",""1"",""2313""
","
","","[{""page_index"":0,""viewing_time"":6471.700000047684},{""page_index"":1,""viewing_time"":5759.799999952316},{""page_index"":2,""viewing_time"":13920},{""page_index"":3,""viewing_time"":7280.100000023842},{""page_index"":4,""viewing_time"":8151.700000047684},{""page_index"":5,""viewing_time"":8375.5},{""page_index"":6,""viewing_time"":8112.399999976158},{""page_index"":7,""viewing_time"":5959.799999952316},{""page_index"":8,""viewing_time"":4352.300000071526}]","68383.5","","","","","","","","","","","","","","","","","","","","","","","",""
"pit-comprehension","103","787229","0.0-2.0-20.0-0.0","battery-v0.2","","""event"",""trial"",""time""
""fullscreenenter"",""1"",""2313""
","
","
","""event"",""trial"",""time""
""fullscreenenter"",""1"",""2313""
","
","","","4446.200000047684","[""SPACE""]","0","25","9853","4674","","","","","","","","","","","","","","","","","","",""
"pit-instructions","104","791781","0.0-2.0-20.0-1.0","battery-v0.2","","""event"",""trial"",""time""
""fullscreenenter"",""1"",""2313""
","
","
","""event"",""trial"",""time""
""fullscreenenter"",""1"",""2313""
","
","","[{""page_index"":0,""viewing_time"":4531.600000023842}]","4531.800000071526","","","","","","","","","","","","","","","","","","","","","","","",""
"pit-comprehension","105","797933","0.0-2.0-21.0-0.0","battery-v0.2","","""event"",""trial"",""time""
""fullscreenenter"",""1"",""2313""
","
","
","""event"",""trial"",""time""
""fullscreenenter"",""1"",""2313""
","
","","","6150.5","[""10""]","0","25","9853","4674","","","","","","","","","","","","","","","","","","",""
"pit-instructions","106","799036","0.0-2.0-21.0-1.0","battery-v0.2","","""event"",""trial"",""time""
""fullscreenenter"",""1"",""2313""
","
","
","""event"",""trial"",""time""
""fullscreenenter"",""1"",""2313""
","
","","[{""page_index"":0,""viewing_time"":1081.6999999284744}]","1081.7999999523163","","","","","","","","","","","","","","","","","","","","","","","",""
"pit-comprehension","107","805486","0.0-2.0-22.0-0.0","battery-v0.2","","""event"",""trial"",""time""
""fullscreenenter"",""1"",""2313""
","
","
","""event"",""trial"",""time""
""fullscreenenter"",""1"",""2313""
","
","","","6447.900000095367","[""0""]","0","25","9853","4674","","","","","","","","","","","","","","","","","","",""
"pit-instructions","108","806709","0.0-2.0-22.0-1.0","battery-v0.2","","""event"",""trial"",""time""
""fullscreenenter"",""1"",""2313""
","
","
","""event"",""trial"",""time""
""fullscreenenter"",""1"",""2313""
","
","","[{""page_index"":0,""viewing_time"":1203.1999999284744}]","1203.2999999523163","","","","","","","","","","","","","","","","","","","","","","","",""
"pit-comprehension","109","816014","0.0-2.0-23.0-0.0","battery-v0.2","","""event"",""trial"",""time""
""fullscreenenter"",""1"",""2313""
","
","
","""event"",""trial"",""time""
""fullscreenenter"",""1"",""2313""
","
","","","9303.800000071526","[""True""]","0","25","9853","4674","","","","","","","","","","","","","","","","","","",""
"pit-instructions","110","817540","0.0-2.0-23.0-1.0","battery-v0.2","","""event"",""trial"",""time""
""fullscreenenter"",""1"",""2313""
","
","
","""event"",""trial"",""time""
""fullscreenenter"",""1"",""2313""
","
","","[{""page_index"":0,""viewing_time"":1504}]","1504.1999999284744","","","","","","","","","","","","","","","","","","","","","","","",""
"pit-comprehension","111","824909","0.0-2.0-24.0-0.0","battery-v0.2","","""event"",""trial"",""time""
""fullscreenenter"",""1"",""2313""
","
","
","""event"",""trial"",""time""
""fullscreenenter"",""1"",""2313""
","
","","","7367","[""True""]","0","25","9853","4674","","","","","","","","","","","","","","","","","","",""
"pit-instructions","112","826332","0.0-2.0-24.0-1.0","battery-v0.2","","""event"",""trial"",""time""
""fullscreenenter"",""1"",""2313""
","
","
","""event"",""trial"",""time""
""fullscreenenter"",""1"",""2313""
","
","","[{""page_index"":0,""viewing_time"":1401.8000000715256}]","1401.9000000953674","","","","","","","","","","","","","","","","","","","","","","","",""
"pit-comprehension","113","832628","0.0-2.0-25.0-0.0","battery-v0.2","","""event"",""trial"",""time""
""fullscreenenter"",""1"",""2313""
","
","
","""event"",""trial"",""time""
""fullscreenenter"",""1"",""2313""
","
","","","6294.399999976158","[""True""]","0","25","9853","4674","","","","","","","","","","","","","","","","","","",""
"pit-instructions","114","836661","0.0-2.0-25.0-1.0","battery-v0.2","","""event"",""trial"",""time""
""fullscreenenter"",""1"",""2313""
","
","
","""event"",""trial"",""time""
""fullscreenenter"",""1"",""2313""
","
","","[{""page_index"":0,""viewing_time"":4010.2000000476837}]","4010.399999976158","","","","","","","","","","","","","","","","","","","","","","","",""
"pit-comprehension","115","841469","0.0-2.0-26.0-0.0","battery-v0.2","","""event"",""trial"",""time""
""fullscreenenter"",""1"",""2313""
","
","
","""event"",""trial"",""time""
""fullscreenenter"",""1"",""2313""
","
","","","4806","[""False""]","0","25","9853","4674","","","","","","","","","","","","","","","","","","",""
"pit-instructions","116","843196","0.0-2.0-26.0-1.0","battery-v0.2","","""event"",""trial"",""time""
""fullscreenenter"",""1"",""2313""
","
","
","""event"",""trial"",""time""
""fullscreenenter"",""1"",""2313""
","
","","[{""page_index"":0,""viewing_time"":1706.1000000238419}]","1706.3000000715256","","","","","","","","","","","","","","","","","","","","","","","",""
"pit-instructions","117","859020","0.0-3.0","battery-v0.2","","""event"",""trial"",""time""
""fullscreenenter"",""1"",""2313""
","
","
","""event"",""trial"",""time""
""fullscreenenter"",""1"",""2313""
","
","","[{""page_index"":0,""viewing_time"":3414.9000000953674},{""page_index"":1,""viewing_time"":5063.899999976158},{""page_index"":2,""viewing_time"":7344}]","15822.900000095367","","","","","","","","","","","","","","","","","","","","","","","",""
"pit-trial","118","862449","0.0-4.0","battery-v0.2","","""event"",""trial"",""time""
""fullscreenenter"",""1"",""2313""
","
","
","""event"",""trial"",""time""
""fullscreenenter"",""1"",""2313""
","
","","","558.6000000238419","","","25","9853","4674","&#9730;","elianto","#3366ff99"," "," ","1","+10","[1414.2000000476837]","1","1","","","9853","1","1","1","win","go","0"
"pit-trial","119","867320","0.0-5.0","battery-v0.2","","""event"",""trial"",""time""
""fullscreenenter"",""1"",""2313""
","
","
","""event"",""trial"",""time""
""fullscreenenter"",""1"",""2313""
","
","","","-1","","","25","9853","4674","&#9752;","elianto","#f73b6a7A"," ","-1","0","-10","[]","0","1","","","9853","2","3","3","lose","go","0"
"pit-trial","120","871073","0.0-6.0","battery-v0.2","","""event"",""trial"",""time""
""fullscreenenter"",""1"",""2313""
","
","
","""event"",""trial"",""time""
""fullscreenenter"",""1"",""2313""
","
","","","899.2999999523163","","","25","9853","4674","&#9733;","elianto","#3366ff99","-1"," ","0","+10","[1750]","1","1","","","9853","3","2","2","win","no-go","1"
"pit-trial","121","875948","0.0-7.0","battery-v0.2","","""event"",""trial"",""time""
""fullscreenenter"",""1"",""2313""
","
","
","""event"",""trial"",""time""
""fullscreenenter"",""1"",""2313""
","
","","","-1","","","25","9853","4674","&#9728;","elianto","#f73b6a7A","-1","-1","1","0","[]","0","1","","","9853","4","0","4","lose","no-go","0"
"pit-trial","122","880813","0.0-8.0","battery-v0.2","","""event"",""trial"",""time""
""fullscreenenter"",""1"",""2313""
","
","
","""event"",""trial"",""time""
""fullscreenenter"",""1"",""2313""
","
","","","-1","","","25","9853","4674","&#9728;","elianto","#f73b6a7A","-1","-1","1","0","[]","0","1","","","9853","5","0","4","lose","no-go","0"
"pit-trial","123","884122","0.0-9.0","battery-v0.2","","""event"",""trial"",""time""
""fullscreenenter"",""1"",""2313""
","
","
","""event"",""trial"",""time""
""fullscreenenter"",""1"",""2313""
","
","","","443.8000000715256","","","25","9853","4674","&#9730;","elianto","#3366ff99"," "," ","1","0","[1295.1000000238419]","1","1","","","9853","6","1","1","win","go","1"
"pit-trial","124","887987","0.0-10.0","battery-v0.2","","""event"",""trial"",""time""
""fullscreenenter"",""1"",""2313""
","
","
","""event"",""trial"",""time""
""fullscreenenter"",""1"",""2313""
","
","","","996.8000000715256","","","25","9853","4674","&#9752;","elianto","#f73b6a7A"," "," ","1","0","[1851.8000000715256]","1","1","","","9853","7","3","3","lose","go","0"
"pit-trial","125","891359","0.0-11.0","battery-v0.2","","""event"",""trial"",""time""
""fullscreenenter"",""1"",""2313""
","
","
","""event"",""trial"",""time""
""fullscreenenter"",""1"",""2313""
","
","","","517","","","25","9853","4674","&#9733;","elianto","#3366ff99","-1"," ","0","+10","[1368.8000000715256]","1","1","","","9853","8","2","2","win","no-go","1"
"pit-trial","126","894808","0.0-12.0","battery-v0.2","","""event"",""trial"",""time""
""fullscreenenter"",""1"",""2313""
","
","
","""event"",""trial"",""time""
""fullscreenenter"",""1"",""2313""
","
","","","596.5","","","25","9853","4674","&#9730;","elianto","#3366ff99"," "," ","1","0","[1446.5]","1","1","","","9853","9","1","1","win","go","1"
"pit-trial","127","899660","0.0-13.0","battery-v0.2","","""event"",""trial"",""time""
""fullscreenenter"",""1"",""2313""
","
","
","""event"",""trial"",""time""
""fullscreenenter"",""1"",""2313""
","
","","","-1","","","25","9853","4674","&#9728;","elianto","#f73b6a7A","-1","-1","1","0","[]","0","1","","","9853","10","0","4","lose","no-go","0"
"pit-trial","128","903134","0.0-14.0","battery-v0.2","","""event"",""trial"",""time""
""fullscreenenter"",""1"",""2313""
","
","
","""event"",""trial"",""time""
""fullscreenenter"",""1"",""2313""
","
","","","620.7000000476837","","","25","9853","4674","&#9733;","elianto","#3366ff99","-1"," ","0","0","[1471.1000000238419]","1","1","","","9853","11","2","2","win","no-go","0"
"pit-trial","129","907029","0.0-15.0","battery-v0.2","","""event"",""trial"",""time""
""fullscreenenter"",""1"",""2313""
","
","
","""event"",""trial"",""time""
""fullscreenenter"",""1"",""2313""
","
","","","1041.6999999284744","","","25","9853","4674","&#9752;","elianto","#f73b6a7A"," "," ","1","0","[1892.1000000238419]","1","1","","","9853","12","3","3","lose","go","0"
"pit-trial","130","911883","0.0-16.0","battery-v0.2","","""event"",""trial"",""time""
""fullscreenenter"",""1"",""2313""
","
","
","""event"",""trial"",""time""
""fullscreenenter"",""1"",""2313""
","
","","","-1","","","25","9853","4674","&#9728;","elianto","#f73b6a7A","-1","-1","1","-10","[]","0","1","","","9853","13","0","4","lose","no-go","1"
"pit-trial","131","915418","0.0-17.0","battery-v0.2","","""event"",""trial"",""time""
""fullscreenenter"",""1"",""2313""
","
","
","""event"",""trial"",""time""
""fullscreenenter"",""1"",""2313""
","
","","","679.6000000238419","","","25","9853","4674","&#9733;","elianto","#3366ff99","-1"," ","0","0","[1531]","1","1","","","9853","14","2","2","win","no-go","0"
"pit-trial","132","918849","0.0-18.0","battery-v0.2","","""event"",""trial"",""time""
""fullscreenenter"",""1"",""2313""
","
","
","""event"",""trial"",""time""
""fullscreenenter"",""1"",""2313""
","
","","","577.3000000715256","","","25","9853","4674","&#9730;","elianto","#3366ff99"," "," ","1","+10","[1429.1000000238419]","1","1","","","9853","15","1","1","win","go","0"
"pit-trial","133","922846","0.0-19.0","battery-v0.2","","""event"",""trial"",""time""
""fullscreenenter"",""1"",""2313""
","
","
","""event"",""trial"",""time""
""fullscreenenter"",""1"",""2313""
","
","","","1144","","","25","9853","4674","&#9752;","elianto","#f73b6a7A"," "," ","1","-10","[1994.3000000715256]","1","1","","","9853","16","3","3","lose","go","1"
"pit-trial","134","927700","0.0-20.0","battery-v0.2","","""event"",""trial"",""time""
""fullscreenenter"",""1"",""2313""
","
","
","""event"",""trial"",""time""
""fullscreenenter"",""1"",""2313""
","
","","","-1","","","25","9853","4674","&#9728;","elianto","#f73b6a7A","-1","-1","1","-10","[]","0","1","","","9853","17","0","4","lose","no-go","1"
"pit-trial","135","931842","0.0-21.0","battery-v0.2","","""event"",""trial"",""time""
""fullscreenenter"",""1"",""2313""
","
","
","""event"",""trial"",""time""
""fullscreenenter"",""1"",""2313""
","
","","","1288.3000000715256","","","25","9853","4674","&#9752;","elianto","#f73b6a7A"," "," ","1","0","[2138.8000000715256]","1","1","","","9853","18","3","3","lose","go","0"
"pit-trial","136","936696","0.0-22.0","battery-v0.2","","""event"",""trial"",""time""
""fullscreenenter"",""1"",""2313""
","
","
","""event"",""trial"",""time""
""fullscreenenter"",""1"",""2313""
","
","","","-1","","","25","9853","4674","&#9733;","elianto","#3366ff99","-1","-1","1","0","[]","0","1","","","9853","19","2","2","win","no-go","1"
"pit-trial","137","940062","0.0-23.0","battery-v0.2","","""event"",""trial"",""time""
""fullscreenenter"",""1"",""2313""
","
","
","""event"",""trial"",""time""
""fullscreenenter"",""1"",""2313""
","
","","","511.39999997615814","","","25","9853","4674","&#9730;","elianto","#3366ff99"," "," ","1","+10","[1362]","1","1","","","9853","20","1","1","win","go","0"
"pit-instructions","138","952764","0.0-24.0","battery-v0.2","","""event"",""trial"",""time""
""fullscreenenter"",""1"",""2313""
","
","
","""event"",""trial"",""time""
""fullscreenenter"",""1"",""2313""
","
","","[{""page_index"":0,""viewing_time"":5908.299999952316},{""page_index"":1,""viewing_time"":6792}]","12700.5","","","","","","","","","","","","","","","","","","","","","","","",""
"pit-trial","139","956443","0.0-25.0","battery-v0.2","","""event"",""trial"",""time""
""fullscreenenter"",""1"",""2313""
","
","
","""event"",""trial"",""time""
""fullscreenenter"",""1"",""2313""
","
","","","808.6999999284744","","","25","9853","4674","a","elianto","#f73b6a7A"," "," ","1","-10","[1662.8999999761581]","1","2","","","9853","21","2","3","lose","go","1"
"pit-trial","140","960237","0.0-26.0","battery-v0.2","","""event"",""trial"",""time""
""fullscreenenter"",""1"",""2313""
","
","
","""event"",""trial"",""time""
""fullscreenenter"",""1"",""2313""
","
","","","927.3999999761581","","","25","9853","4674","u","elianto","#f73b6a7A"," "," ","1","0","[1778.2999999523163]","1","2","","","9853","22","0","3","lose","go","0"
"pit-trial","141","965112","0.0-27.0","battery-v0.2","","""event"",""trial"",""time""
""fullscreenenter"",""1"",""2313""
","
","
","""event"",""trial"",""time""
""fullscreenenter"",""1"",""2313""
","
","","","-1","","","25","9853","4674","l","elianto","#3366ff99","-1","-1","1","+10","[]","0","2","","","9853","23","1","2","win","no-go","0"
"pit-trial","142","969248","0.0-28.0","battery-v0.2","","""event"",""trial"",""time""
""fullscreenenter"",""1"",""2313""
","
","
","""event"",""trial"",""time""
""fullscreenenter"",""1"",""2313""
","
","","","1268.8999999761581","","","25","9853","4674","g","elianto","#f73b6a7A","-1"," ","0","-10","[2121.7000000476837]","1","2","","","9853","24","3","4","lose","no-go","0"
"pit-trial","143","974107","0.0-29.0","battery-v0.2","","""event"",""trial"",""time""
""fullscreenenter"",""1"",""2313""
","
","
","""event"",""trial"",""time""
""fullscreenenter"",""1"",""2313""
","
","","","-1","","","25","9853","4674","u","elianto","#f73b6a7A"," ","-1","0","0","[2916.8000000715256]","1","2","","","9853","25","0","3","lose","go","1"
"pit-trial","144","978973","0.0-30.0","battery-v0.2","","""event"",""trial"",""time""
""fullscreenenter"",""1"",""2313""
","
","
","""event"",""trial"",""time""
""fullscreenenter"",""1"",""2313""
","
","","","-1","","","25","9853","4674","l","elianto","#3366ff99","-1","-1","1","+10","[]","0","2","","","9853","26","1","2","win","no-go","0"
"pit-trial","145","983048","0.0-31.0","battery-v0.2","","""event"",""trial"",""time""
""fullscreenenter"",""1"",""2313""
","
","
","""event"",""trial"",""time""
""fullscreenenter"",""1"",""2313""
","
","","","1220.5","","","25","9853","4674","g","elianto","#f73b6a7A","-1"," ","0","-10","[2072.399999976158]","1","2","","","9853","27","3","4","lose","no-go","0"
"pit-trial","146","987645","0.0-32.0","battery-v0.2","","""event"",""trial"",""time""
""fullscreenenter"",""1"",""2313""
","
","
","""event"",""trial"",""time""
""fullscreenenter"",""1"",""2313""
","
","","","1744.5","","","25","9853","4674","a","elianto","#f73b6a7A"," "," ","1","0","[2595.3000000715256]","1","2","","","9853","28","2","3","lose","go","0"
"pit-trial","147","991517","0.0-33.0","battery-v0.2","","""event"",""trial"",""time""
""fullscreenenter"",""1"",""2313""
","
","
","""event"",""trial"",""time""
""fullscreenenter"",""1"",""2313""
","
","","","1018.8000000715256","","","25","9853","4674","a","elianto","#f73b6a7A"," "," ","1","0","[1868.8999999761581]","1","2","","","9853","29","2","3","lose","go","0"
"pit-trial","148","996372","0.0-34.0","battery-v0.2","","""event"",""trial"",""time""
""fullscreenenter"",""1"",""2313""
","
","
","""event"",""trial"",""time""
""fullscreenenter"",""1"",""2313""
","
","","","-1","","","25","9853","4674","u","elianto","#f73b6a7A"," ","-1","0","-10","[]","0","2","","","9853","30","0","3","lose","go","0"
"pit-trial","149","999823","0.0-35.0","battery-v0.2","","""event"",""trial"",""time""
""fullscreenenter"",""1"",""2313""
","
","
","""event"",""trial"",""time""
""fullscreenenter"",""1"",""2313""
","
","","","598","","","25","9853","4674","l","elianto","#3366ff99","-1"," ","0","0","[1449]","1","2","","","9853","31","1","2","win","no-go","0"
"pit-trial","150","1004678","0.0-36.0","battery-v0.2","","""event"",""trial"",""time""
""fullscreenenter"",""1"",""2313""
","
","
","""event"",""trial"",""time""
""fullscreenenter"",""1"",""2313""
","
","","","-1","","","25","9853","4674","g","elianto","#f73b6a7A","-1","-1","1","-10","[]","0","2","","","9853","32","3","4","lose","no-go","1"
"pit-trial","151","1009532","0.0-37.0","battery-v0.2","","""event"",""trial"",""time""
""fullscreenenter"",""1"",""2313""
","
","
","""event"",""trial"",""time""
""fullscreenenter"",""1"",""2313""
","
","","","-1","","","25","9853","4674","l","elianto","#3366ff99","-1","-1","1","+10","[]","0","2","","","9853","33","1","2","win","no-go","0"
"pit-trial","152","1014385","0.0-38.0","battery-v0.2","","""event"",""trial"",""time""
""fullscreenenter"",""1"",""2313""
","
","
","""event"",""trial"",""time""
""fullscreenenter"",""1"",""2313""
","
","","","-1","","","25","9853","4674","a","elianto","#f73b6a7A"," ","-1","0","-10","[]","0","2","","","9853","34","2","3","lose","go","0"
"pit-trial","153","1018912","0.0-39.0","battery-v0.2","","""event"",""trial"",""time""
""fullscreenenter"",""1"",""2313""
","
","
","""event"",""trial"",""time""
""fullscreenenter"",""1"",""2313""
","
","","","1657.7999999523163","","","25","9853","4674","g","elianto","#f73b6a7A","-1"," ","0","-10","[2509.7999999523163]","1","2","","","9853","35","3","4","lose","no-go","0"
"pit-trial","154","1023551","0.0-40.0","battery-v0.2","","""event"",""trial"",""time""
""fullscreenenter"",""1"",""2313""
","
","
","""event"",""trial"",""time""
""fullscreenenter"",""1"",""2313""
","
","","","1785.6000000238419","","","25","9853","4674","u","elianto","#f73b6a7A"," "," ","1","0","[2636.2999999523163]","1","2","","","9853","36","0","3","lose","go","0"
"pit-trial","155","1028248","0.0-41.0","battery-v0.2","","""event"",""trial"",""time""
""fullscreenenter"",""1"",""2313""
","
","
","""event"",""trial"",""time""
""fullscreenenter"",""1"",""2313""
","
","","","1842.6000000238419","","","25","9853","4674","g","elianto","#f73b6a7A","-1"," ","0","0","[2693.3000000715256]","1","2","","","9853","37","3","4","lose","no-go","1"
"pit-trial","156","1033101","0.0-42.0","battery-v0.2","","""event"",""trial"",""time""
""fullscreenenter"",""1"",""2313""
","
","
","""event"",""trial"",""time""
""fullscreenenter"",""1"",""2313""
","
","","","-1","","","25","9853","4674","l","elianto","#3366ff99","-1","-1","1","+10","[]","0","2","","","9853","38","1","2","win","no-go","0"
"pit-trial","157","1037954","0.0-43.0","battery-v0.2","","""event"",""trial"",""time""
""fullscreenenter"",""1"",""2313""
","
","
","""event"",""trial"",""time""
""fullscreenenter"",""1"",""2313""
","
","","","-1","","","25","9853","4674","a","elianto","#f73b6a7A"," ","-1","0","-10","[]","0","2","","","9853","39","2","3","lose","go","0"
"pit-trial","158","1041895","0.0-44.0","battery-v0.2","","""event"",""trial"",""time""
""fullscreenenter"",""1"",""2313""
","
","
","""event"",""trial"",""time""
""fullscreenenter"",""1"",""2313""
","
","","","1087.2999999523163","","","25","9853","4674","u","elianto","#f73b6a7A"," "," ","1","0","[1937.3000000715256]","1","2","","","9853","40","0","3","lose","go","0"
"pit-trial","159","1045592","0.0-45.0","battery-v0.2","","""event"",""trial"",""time""
""fullscreenenter"",""1"",""2313""
","
","
","""event"",""trial"",""time""
""fullscreenenter"",""1"",""2313""
","
","","","843","","","25","9853","4674","a","elianto","#f73b6a7A"," "," ","1","0","[1694.8000000715256]","1","2","","","9853","41","2","3","lose","go","0"
"pit-trial","160","1050447","0.0-46.0","battery-v0.2","","""event"",""trial"",""time""
""fullscreenenter"",""1"",""2313""
","
","
","""event"",""trial"",""time""
""fullscreenenter"",""1"",""2313""
","
","","","-1","","","25","9853","4674","l","elianto","#3366ff99","-1","-1","1","+10","[]","0","2","","","9853","42","1","2","win","no-go","0"
"pit-trial","161","1054584","0.0-47.0","battery-v0.2","","""event"",""trial"",""time""
""fullscreenenter"",""1"",""2313""
","
","
","""event"",""trial"",""time""
""fullscreenenter"",""1"",""2313""
","
","","","1282.8000000715256","","","25","9853","4674","u","elianto","#f73b6a7A"," "," ","1","0","[2133.9000000953674]","1","2","","","9853","43","0","3","lose","go","0"
"pit-trial","162","1058422","0.0-48.0","battery-v0.2","","""event"",""trial"",""time""
""fullscreenenter"",""1"",""2313""
","
","
","""event"",""trial"",""time""
""fullscreenenter"",""1"",""2313""
","
","","","984.3000000715256","","","25","9853","4674","g","elianto","#f73b6a7A","-1"," ","0","-10","[1834.6000000238419]","1","2","","","9853","44","3","4","lose","no-go","0"
"pit-trial","163","1063279","0.0-49.0","battery-v0.2","","""event"",""trial"",""time""
""fullscreenenter"",""1"",""2313""
","
","
","""event"",""trial"",""time""
""fullscreenenter"",""1"",""2313""
","
","","","-1","","","25","9853","4674","l","elianto","#3366ff99","-1","-1","1","+10","[]","0","2","","","9853","45","1","2","win","no-go","0"
"pit-trial","164","1067128","0.0-50.0","battery-v0.2","","""event"",""trial"",""time""
""fullscreenenter"",""1"",""2313""
","
","
","""event"",""trial"",""time""
""fullscreenenter"",""1"",""2313""
","
","","","993.2000000476837","","","25","9853","4674","a","elianto","#f73b6a7A"," "," ","1","-10","[1845]","1","2","","","9853","46","2","3","lose","go","1"
"pit-trial","165","1071064","0.0-51.0","battery-v0.2","","""event"",""trial"",""time""
""fullscreenenter"",""1"",""2313""
","
","
","""event"",""trial"",""time""
""fullscreenenter"",""1"",""2313""
","
","","","1081.1000000238419","","","25","9853","4674","u","elianto","#f73b6a7A"," "," ","1","0","[1931.5]","1","2","","","9853","47","0","3","lose","go","0"
"pit-trial","166","1074904","0.0-52.0","battery-v0.2","","""event"",""trial"",""time""
""fullscreenenter"",""1"",""2313""
","
","
","""event"",""trial"",""time""
""fullscreenenter"",""1"",""2313""
","
","","","986.6000000238419","","","25","9853","4674","g","elianto","#f73b6a7A","-1"," ","0","0","[1837.6000000238419]","1","2","","","9853","48","3","4","lose","no-go","1"
"pit-trial","167","1079758","0.0-53.0","battery-v0.2","","""event"",""trial"",""time""
""fullscreenenter"",""1"",""2313""
","
","
","""event"",""trial"",""time""
""fullscreenenter"",""1"",""2313""
","
","","","-1","","","25","9853","4674","a","elianto","#f73b6a7A"," ","-1","0","-10","[]","0","2","","","9853","49","2","3","lose","go","0"
"pit-trial","168","1084611","0.0-54.0","battery-v0.2","","""event"",""trial"",""time""
""fullscreenenter"",""1"",""2313""
","
","
","""event"",""trial"",""time""
""fullscreenenter"",""1"",""2313""
","
","","","-1","","","25","9853","4674","l","elianto","#3366ff99","-1","-1","1","+10","[]","0","2","","","9853","50","1","2","win","no-go","0"
"pit-trial","169","1089446","0.0-55.0","battery-v0.2","","""event"",""trial"",""time""
""fullscreenenter"",""1"",""2313""
","
","
","""event"",""trial"",""time""
""fullscreenenter"",""1"",""2313""
","
","","","1982.5","","","25","9853","4674","u","elianto","#f73b6a7A"," "," ","1","0","[2832.5]","1","2","","","9853","51","0","3","lose","go","0"
"pit-trial","170","1093245","0.0-56.0","battery-v0.2","","""event"",""trial"",""time""
""fullscreenenter"",""1"",""2313""
","
","
","""event"",""trial"",""time""
""fullscreenenter"",""1"",""2313""
","
","","","946.8000000715256","","","25","9853","4674","g","elianto","#f73b6a7A","-1"," ","0","0","[1796.8999999761581]","1","2","","","9853","52","3","4","lose","no-go","1"
"pit-trial","171","1098099","0.0-57.0","battery-v0.2","","""event"",""trial"",""time""
""fullscreenenter"",""1"",""2313""
","
","
","""event"",""trial"",""time""
""fullscreenenter"",""1"",""2313""
","
","","","-1","","","25","9853","4674","l","elianto","#3366ff99","-1","-1","1","0","[]","0","2","","","9853","53","1","2","win","no-go","1"
"pit-trial","172","1102952","0.0-58.0","battery-v0.2","","""event"",""trial"",""time""
""fullscreenenter"",""1"",""2313""
","
","
","""event"",""trial"",""time""
""fullscreenenter"",""1"",""2313""
","
","","","-1","","","25","9853","4674","g","elianto","#f73b6a7A","-1","-1","1","0","[2875.600000023842]","1","2","","","9853","54","3","4","lose","no-go","0"
"pit-trial","173","1107804","0.0-59.0","battery-v0.2","","""event"",""trial"",""time""
""fullscreenenter"",""1"",""2313""
","
","
","""event"",""trial"",""time""
""fullscreenenter"",""1"",""2313""
","
","","","-1","","","25","9853","4674","a","elianto","#f73b6a7A"," ","-1","0","0","[]","0","2","","","9853","55","2","3","lose","go","1"
"pit-trial","174","1111318","0.0-60.0","battery-v0.2","","""event"",""trial"",""time""
""fullscreenenter"",""1"",""2313""
","
","
","""event"",""trial"",""time""
""fullscreenenter"",""1"",""2313""
","
","","","660.8000000715256","","","25","9853","4674","u","elianto","#f73b6a7A"," "," ","1","0","[1511.3000000715256]","1","2","","","9853","56","0","3","lose","go","0"
"pit-trial","175","1114888","0.0-61.0","battery-v0.2","","""event"",""trial"",""time""
""fullscreenenter"",""1"",""2313""
","
","
","""event"",""trial"",""time""
""fullscreenenter"",""1"",""2313""
","
","","","717.7999999523163","","","25","9853","4674","g","elianto","#f73b6a7A","-1"," ","0","-10","[1567.8999999761581]","1","2","","","9853","57","3","4","lose","no-go","0"
"pit-trial","176","1119742","0.0-62.0","battery-v0.2","","""event"",""trial"",""time""
""fullscreenenter"",""1"",""2313""
","
","
","""event"",""trial"",""time""
""fullscreenenter"",""1"",""2313""
","
","","","-1","","","25","9853","4674","a","elianto","#f73b6a7A"," ","-1","0","-10","[]","0","2","","","9853","58","2","3","lose","go","0"
"pit-trial","177","1123969","0.0-63.0","battery-v0.2","","""event"",""trial"",""time""
""fullscreenenter"",""1"",""2313""
","
","
","""event"",""trial"",""time""
""fullscreenenter"",""1"",""2313""
","
","","","1361.1000000238419","","","25","9853","4674","p","elianto","#3366ff99"," "," ","1","+10","[2211.5999999046326]","1","2","","","9853","59","4","1","win","go","0"
"pit-trial","178","1127911","0.0-64.0","battery-v0.2","","""event"",""trial"",""time""
""fullscreenenter"",""1"",""2313""
","
","
","""event"",""trial"",""time""
""fullscreenenter"",""1"",""2313""
","
","","","1087.2999999523163","","","25","9853","4674","u","elianto","#f73b6a7A"," "," ","1","0","[1938.5]","1","2","","","9853","60","0","3","lose","go","0"
"pit-trial","179","1131368","0.0-65.0","battery-v0.2","","""event"",""trial"",""time""
""fullscreenenter"",""1"",""2313""
","
","
","""event"",""trial"",""time""
""fullscreenenter"",""1"",""2313""
","
","","","604.7999999523163","","","25","9853","4674","p","elianto","#3366ff99"," "," ","1","+10","[1455.7999999523163]","1","2","","","9853","61","4","1","win","go","0"
"pit-trial","180","1136222","0.0-66.0","battery-v0.2","","""event"",""trial"",""time""
""fullscreenenter"",""1"",""2313""
","
","
","""event"",""trial"",""time""
""fullscreenenter"",""1"",""2313""
","
","","","-1","","","25","9853","4674","g","elianto","#f73b6a7A","-1","-1","1","-10","[]","0","2","","","9853","62","3","4","lose","no-go","1"
"pit-trial","181","1141074","0.0-67.0","battery-v0.2","","""event"",""trial"",""time""
""fullscreenenter"",""1"",""2313""
","
","
","""event"",""trial"",""time""
""fullscreenenter"",""1"",""2313""
","
","","","-1","","","25","9853","4674","a","elianto","#f73b6a7A"," ","-1","0","-10","[]","0","2","","","9853","63","2","3","lose","go","0"
"pit-trial","182","1145927","0.0-68.0","battery-v0.2","","""event"",""trial"",""time""
""fullscreenenter"",""1"",""2313""
","
","
","""event"",""trial"",""time""
""fullscreenenter"",""1"",""2313""
","
","","","-1","","","25","9853","4674","l","elianto","#3366ff99","-1","-1","1","0","[]","0","2","","","9853","64","1","2","win","no-go","1"
"pit-trial","183","1150781","0.0-69.0","battery-v0.2","","""event"",""trial"",""time""
""fullscreenenter"",""1"",""2313""
","
","
","""event"",""trial"",""time""
""fullscreenenter"",""1"",""2313""
","
","","","-1","","","25","9853","4674","l","elianto","#3366ff99","-1","-1","1","+10","[]","0","2","","","9853","65","1","2","win","no-go","0"
"pit-trial","184","1154358","0.0-70.0","battery-v0.2","","""event"",""trial"",""time""
""fullscreenenter"",""1"",""2313""
","
","
","""event"",""trial"",""time""
""fullscreenenter"",""1"",""2313""
","
","","","724.1000000238419","","","25","9853","4674","p","elianto","#3366ff99"," "," ","1","+10","[1575.7000000476837]","1","2","","","9853","66","4","1","win","go","0"
"pit-trial","185","1159211","0.0-71.0","battery-v0.2","","""event"",""trial"",""time""
""fullscreenenter"",""1"",""2313""
","
","
","""event"",""trial"",""time""
""fullscreenenter"",""1"",""2313""
","
","","","-1","","","25","9853","4674","s","elianto","#3366ff99","-1","-1","1","0","[]","0","2","","","9853","67","5","2","win","no-go","1"
"pit-trial","186","1164076","0.0-72.0","battery-v0.2","","""event"",""trial"",""time""
""fullscreenenter"",""1"",""2313""
","
","
","""event"",""trial"",""time""
""fullscreenenter"",""1"",""2313""
","
","","","-1","","","25","9853","4674","g","elianto","#f73b6a7A","-1","-1","1","0","[3088.2999999523163]","1","2","","","9853","68","3","4","lose","no-go","0"
"pit-trial","187","1167839","0.0-73.0","battery-v0.2","","""event"",""trial"",""time""
""fullscreenenter"",""1"",""2313""
","
","
","""event"",""trial"",""time""
""fullscreenenter"",""1"",""2313""
","
","","","907.7000000476837","","","25","9853","4674","p","elianto","#3366ff99"," "," ","1","+10","[1758.8999999761581]","1","2","","","9853","69","4","1","win","go","0"
"pit-trial","188","1172693","0.0-74.0","battery-v0.2","","""event"",""trial"",""time""
""fullscreenenter"",""1"",""2313""
","
","
","""event"",""trial"",""time""
""fullscreenenter"",""1"",""2313""
","
","","","-1","","","25","9853","4674","a","elianto","#f73b6a7A"," ","-1","0","-10","[]","0","2","","","9853","70","2","3","lose","go","0"
"pit-trial","189","1177546","0.0-75.0","battery-v0.2","","""event"",""trial"",""time""
""fullscreenenter"",""1"",""2313""
","
","
","""event"",""trial"",""time""
""fullscreenenter"",""1"",""2313""
","
","","","-1","","","25","9853","4674","l","elianto","#3366ff99","-1","-1","1","+10","[]","0","2","","","9853","71","1","2","win","no-go","0"
"pit-trial","190","1182400","0.0-76.0","battery-v0.2","","""event"",""trial"",""time""
""fullscreenenter"",""1"",""2313""
","
","
","""event"",""trial"",""time""
""fullscreenenter"",""1"",""2313""
","
","","","-1","","","25","9853","4674","s","elianto","#3366ff99","-1","-1","1","+10","[]","0","2","","","9853","72","5","2","win","no-go","0"
"pit-trial","191","1187254","0.0-77.0","battery-v0.2","","""event"",""trial"",""time""
""fullscreenenter"",""1"",""2313""
","
","
","""event"",""trial"",""time""
""fullscreenenter"",""1"",""2313""
","
","","","-1","","","25","9853","4674","s","elianto","#3366ff99","-1","-1","1","+10","[]","0","2","","","9853","73","5","2","win","no-go","0"
"pit-trial","192","1192108","0.0-78.0","battery-v0.2","","""event"",""trial"",""time""
""fullscreenenter"",""1"",""2313""
","
","
","""event"",""trial"",""time""
""fullscreenenter"",""1"",""2313""
","
","","","-1","","","25","9853","4674","l","elianto","#3366ff99","-1","-1","1","+10","[]","0","2","","","9853","74","1","2","win","no-go","0"
"pit-trial","193","1196519","0.0-79.0","battery-v0.2","","""event"",""trial"",""time""
""fullscreenenter"",""1"",""2313""
","
","
","""event"",""trial"",""time""
""fullscreenenter"",""1"",""2313""
","
","","","1557.0999999046326","","","25","9853","4674","p","elianto","#3366ff99"," "," ","1","0","[2407.5]","1","2","","","9853","75","4","1","win","go","1"
"pit-trial","194","1201234","0.0-80.0","battery-v0.2","","""event"",""trial"",""time""
""fullscreenenter"",""1"",""2313""
","
","
","""event"",""trial"",""time""
""fullscreenenter"",""1"",""2313""
","
","","","1858.5","","","25","9853","4674","g","elianto","#f73b6a7A","-1"," ","0","-10","[2710.600000023842]","1","2","","","9853","76","3","4","lose","no-go","0"
"pit-trial","195","1206088","0.0-81.0","battery-v0.2","","""event"",""trial"",""time""
""fullscreenenter"",""1"",""2313""
","
","
","""event"",""trial"",""time""
""fullscreenenter"",""1"",""2313""
","
","","","-1","","","25","9853","4674","g","elianto","#f73b6a7A","-1","-1","1","-10","[]","0","2","","","9853","77","3","4","lose","no-go","1"
"pit-trial","196","1209712","0.0-82.0","battery-v0.2","","""event"",""trial"",""time""
""fullscreenenter"",""1"",""2313""
","
","
","""event"",""trial"",""time""
""fullscreenenter"",""1"",""2313""
","
","","","770.9000000953674","","","25","9853","4674","p","elianto","#3366ff99"," "," ","1","+10","[1621.2000000476837]","1","2","","","9853","78","4","1","win","go","0"
"pit-trial","197","1213055","0.0-83.0","battery-v0.2","","""event"",""trial"",""time""
""fullscreenenter"",""1"",""2313""
","
","
","""event"",""trial"",""time""
""fullscreenenter"",""1"",""2313""
","
","","","488.89999997615814","","","25","9853","4674","p","elianto","#3366ff99"," "," ","1","+10","[1339.3999999761581]","1","2","","","9853","79","4","1","win","go","0"
"pit-trial","198","1217909","0.0-84.0","battery-v0.2","","""event"",""trial"",""time""
""fullscreenenter"",""1"",""2313""
","
","
","""event"",""trial"",""time""
""fullscreenenter"",""1"",""2313""
","
","","","-1","","","25","9853","4674","s","elianto","#3366ff99","-1","-1","1","+10","[]","0","2","","","9853","80","5","2","win","no-go","0"
"pit-trial","199","1222763","0.0-85.0","battery-v0.2","","""event"",""trial"",""time""
""fullscreenenter"",""1"",""2313""
","
","
","""event"",""trial"",""time""
""fullscreenenter"",""1"",""2313""
","
","","","-1","","","25","9853","4674","s","elianto","#3366ff99","-1","-1","1","+10","[]","0","2","","","9853","81","5","2","win","no-go","0"
"pit-trial","200","1226335","0.0-86.0","battery-v0.2","","""event"",""trial"",""time""
""fullscreenenter"",""1"",""2313""
","
","
","""event"",""trial"",""time""
""fullscreenenter"",""1"",""2313""
","
","","","717.5","","","25","9853","4674","p","elianto","#3366ff99"," "," ","1","+10","[1568.8999999761581]","1","2","","","9853","82","4","1","win","go","0"
"pit-trial","201","1230808","0.0-87.0","battery-v0.2","","""event"",""trial"",""time""
""fullscreenenter"",""1"",""2313""
","
","
","""event"",""trial"",""time""
""fullscreenenter"",""1"",""2313""
","
","","","1617.2000000476837","","","25","9853","4674","g","elianto","#f73b6a7A","-1"," ","0","0","[2468.8000000715256]","1","2","","","9853","83","3","4","lose","no-go","1"
"pit-trial","202","1235663","0.0-88.0","battery-v0.2","","""event"",""trial"",""time""
""fullscreenenter"",""1"",""2313""
","
","
","""event"",""trial"",""time""
""fullscreenenter"",""1"",""2313""
","
","","","-1","","","25","9853","4674","e","elianto","#f73b6a7A","-1","-1","1","0","[]","0","2","","","9853","84","7","4","lose","no-go","0"
"pit-trial","203","1239784","0.0-89.0","battery-v0.2","","""event"",""trial"",""time""
""fullscreenenter"",""1"",""2313""
","
","
","""event"",""trial"",""time""
""fullscreenenter"",""1"",""2313""
","
","","","1267.2000000476837","","","25","9853","4674","w","elianto","#f73b6a7A"," "," ","1","0","[2118.100000023842]","1","2","","","9853","85","6","3","lose","go","0"
"pit-trial","204","1243302","0.0-90.0","battery-v0.2","","""event"",""trial"",""time""
""fullscreenenter"",""1"",""2313""
","
","
","""event"",""trial"",""time""
""fullscreenenter"",""1"",""2313""
","
","","","664.6000000238419","","","25","9853","4674","p","elianto","#3366ff99"," "," ","1","0","[1516.1000000238419]","1","2","","","9853","86","4","1","win","go","1"
"pit-trial","205","1248154","0.0-91.0","battery-v0.2","","""event"",""trial"",""time""
""fullscreenenter"",""1"",""2313""
","
","
","""event"",""trial"",""time""
""fullscreenenter"",""1"",""2313""
","
","","","-1","","","25","9853","4674","e","elianto","#f73b6a7A","-1","-1","1","0","[]","0","2","","","9853","87","7","4","lose","no-go","0"
"pit-trial","206","1253009","0.0-92.0","battery-v0.2","","""event"",""trial"",""time""
""fullscreenenter"",""1"",""2313""
","
","
","""event"",""trial"",""time""
""fullscreenenter"",""1"",""2313""
","
","","","-1","","","25","9853","4674","s","elianto","#3366ff99","-1","-1","1","+10","[]","0","2","","","9853","88","5","2","win","no-go","0"
"pit-trial","207","1257865","0.0-93.0","battery-v0.2","","""event"",""trial"",""time""
""fullscreenenter"",""1"",""2313""
","
","
","""event"",""trial"",""time""
""fullscreenenter"",""1"",""2313""
","
","","","-1","","","25","9853","4674","e","elianto","#f73b6a7A","-1","-1","1","0","[]","0","2","","","9853","89","7","4","lose","no-go","0"
"pit-trial","208","1261308","0.0-94.0","battery-v0.2","","""event"",""trial"",""time""
""fullscreenenter"",""1"",""2313""
","
","
","""event"",""trial"",""time""
""fullscreenenter"",""1"",""2313""
","
","","","591.2999999523163","","","25","9853","4674","p","elianto","#3366ff99"," "," ","1","+10","[1441.3999999761581]","1","2","","","9853","90","4","1","win","go","0"
"pit-trial","209","1266162","0.0-95.0","battery-v0.2","","""event"",""trial"",""time""
""fullscreenenter"",""1"",""2313""
","
","
","""event"",""trial"",""time""
""fullscreenenter"",""1"",""2313""
","
","","","-1","","","25","9853","4674","s","elianto","#3366ff99","-1","-1","1","0","[]","0","2","","","9853","91","5","2","win","no-go","1"
"pit-trial","210","1270423","0.0-96.0","battery-v0.2","","""event"",""trial"",""time""
""fullscreenenter"",""1"",""2313""
","
","
","""event"",""trial"",""time""
""fullscreenenter"",""1"",""2313""
","
","","","1407.2000000476837","","","25","9853","4674","w","elianto","#f73b6a7A"," "," ","1","0","[2258.399999976158]","1","2","","","9853","92","6","3","lose","go","0"
"pit-trial","211","1273749","0.0-97.0","battery-v0.2","","""event"",""trial"",""time""
""fullscreenenter"",""1"",""2313""
","
","
","""event"",""trial"",""time""
""fullscreenenter"",""1"",""2313""
","
","","","472.40000009536743","","","25","9853","4674","w","elianto","#f73b6a7A"," "," ","1","0","[1322.5]","1","2","","","9853","93","6","3","lose","go","0"
"pit-trial","212","1278602","0.0-98.0","battery-v0.2","","""event"",""trial"",""time""
""fullscreenenter"",""1"",""2313""
","
","
","""event"",""trial"",""time""
""fullscreenenter"",""1"",""2313""
","
","","","-1","","","25","9853","4674","d","elianto","#3366ff99"," ","-1","0","0","[]","0","2","","","9853","94","8","1","win","go","0"
"pit-trial","213","1283456","0.0-99.0","battery-v0.2","","""event"",""trial"",""time""
""fullscreenenter"",""1"",""2313""
","
","
","""event"",""trial"",""time""
""fullscreenenter"",""1"",""2313""
","
","","","-1","","","25","9853","4674","s","elianto","#3366ff99","-1","-1","1","+10","[]","0","2","","","9853","95","5","2","win","no-go","0"
"pit-trial","214","1288309","0.0-100.0","battery-v0.2","","""event"",""trial"",""time""
""fullscreenenter"",""1"",""2313""
","
","
","""event"",""trial"",""time""
""fullscreenenter"",""1"",""2313""
","
","","","-1","","","25","9853","4674","e","elianto","#f73b6a7A","-1","-1","1","0","[]","0","2","","","9853","96","7","4","lose","no-go","0"
"pit-trial","215","1291630","0.0-101.0","battery-v0.2","","""event"",""trial"",""time""
""fullscreenenter"",""1"",""2313""
","
","
","""event"",""trial"",""time""
""fullscreenenter"",""1"",""2313""
","
","","","467.39999997615814","","","25","9853","4674","d","elianto","#3366ff99"," "," ","1","+10","[1318.1000000238419]","1","2","","","9853","97","8","1","win","go","0"
"pit-trial","216","1296484","0.0-102.0","battery-v0.2","","""event"",""trial"",""time""
""fullscreenenter"",""1"",""2313""
","
","
","""event"",""trial"",""time""
""fullscreenenter"",""1"",""2313""
","
","","","-1","","","25","9853","4674","w","elianto","#f73b6a7A"," ","-1","0","-10","[3349.5]","1","2","","","9853","98","6","3","lose","go","0"
"pit-trial","217","1301339","0.0-103.0","battery-v0.2","","""event"",""trial"",""time""
""fullscreenenter"",""1"",""2313""
","
","
","""event"",""trial"",""time""
""fullscreenenter"",""1"",""2313""
","
","","","-1","","","25","9853","4674","s","elianto","#3366ff99","-1","-1","1","0","[]","0","2","","","9853","99","5","2","win","no-go","1"
"pit-trial","218","1306192","0.0-104.0","battery-v0.2","","""event"",""trial"",""time""
""fullscreenenter"",""1"",""2313""
","
","
","""event"",""trial"",""time""
""fullscreenenter"",""1"",""2313""
","
","","","-1","","","25","9853","4674","e","elianto","#f73b6a7A","-1","-1","1","0","[]","0","2","","","9853","100","7","4","lose","no-go","0"
"pit-trial","219","1311047","0.0-105.0","battery-v0.2","","""event"",""trial"",""time""
""fullscreenenter"",""1"",""2313""
","
","
","""event"",""trial"",""time""
""fullscreenenter"",""1"",""2313""
","
","","","-1","","","25","9853","4674","e","elianto","#f73b6a7A","-1","-1","1","0","[]","0","2","","","9853","101","7","4","lose","no-go","0"
"pit-trial","220","1315901","0.0-106.0","battery-v0.2","","""event"",""trial"",""time""
""fullscreenenter"",""1"",""2313""
","
","
","""event"",""trial"",""time""
""fullscreenenter"",""1"",""2313""
","
","","","-1","","","25","9853","4674","s","elianto","#3366ff99","-1","-1","1","+10","[]","0","2","","","9853","102","5","2","win","no-go","0"
"pit-trial","221","1320583","0.0-107.0","battery-v0.2","","""event"",""trial"",""time""
""fullscreenenter"",""1"",""2313""
","
","
","""event"",""trial"",""time""
""fullscreenenter"",""1"",""2313""
","
","","","1827.8999999761581","","","25","9853","4674","d","elianto","#3366ff99"," "," ","1","+10","[2678.6999999284744]","1","2","","","9853","103","8","1","win","go","0"
"pit-trial","222","1325435","0.0-108.0","battery-v0.2","","""event"",""trial"",""time""
""fullscreenenter"",""1"",""2313""
","
","
","""event"",""trial"",""time""
""fullscreenenter"",""1"",""2313""
","
","","","-1","","","25","9853","4674","j","elianto","#3366ff99"," ","-1","0","0","[]","0","2","","","9853","104","9","1","win","go","0"
"pit-trial","223","1329392","0.0-109.0","battery-v0.2","","""event"",""trial"",""time""
""fullscreenenter"",""1"",""2313""
","
","
","""event"",""trial"",""time""
""fullscreenenter"",""1"",""2313""
","
","","","1102.2999999523163","","","25","9853","4674","d","elianto","#3366ff99"," "," ","1","0","[1954.0999999046326]","1","2","","","9853","105","8","1","win","go","1"
"pit-trial","224","1333479","0.0-110.0","battery-v0.2","","""event"",""trial"",""time""
""fullscreenenter"",""1"",""2313""
","
","
","""event"",""trial"",""time""
""fullscreenenter"",""1"",""2313""
","
","","","1232.7000000476837","","","25","9853","4674","w","elianto","#f73b6a7A"," "," ","1","0","[2084.1999999284744]","1","2","","","9853","106","6","3","lose","go","0"
"pit-trial","225","1337478","0.0-111.0","battery-v0.2","","""event"",""trial"",""time""
""fullscreenenter"",""1"",""2313""
","
","
","""event"",""trial"",""time""
""fullscreenenter"",""1"",""2313""
","
","","","1145.9000000953674","","","25","9853","4674","j","elianto","#3366ff99"," "," ","1","+10","[1996]","1","2","","","9853","107","9","1","win","go","0"
"pit-trial","226","1341928","0.0-112.0","battery-v0.2","","""event"",""trial"",""time""
""fullscreenenter"",""1"",""2313""
","
","
","""event"",""trial"",""time""
""fullscreenenter"",""1"",""2313""
","
","","","1596.5","","","25","9853","4674","p","elianto","#3366ff99"," "," ","1","+10","[2447]","1","2","","","9853","108","4","1","win","go","0"
"pit-trial","227","1345729","0.0-113.0","battery-v0.2","","""event"",""trial"",""time""
""fullscreenenter"",""1"",""2313""
","
","
","""event"",""trial"",""time""
""fullscreenenter"",""1"",""2313""
","
","","","947.7999999523163","","","25","9853","4674","j","elianto","#3366ff99"," "," ","1","+10","[1797.8999999761581]","1","2","","","9853","109","9","1","win","go","0"
"pit-trial","228","1350584","0.0-114.0","battery-v0.2","","""event"",""trial"",""time""
""fullscreenenter"",""1"",""2313""
","
","
","""event"",""trial"",""time""
""fullscreenenter"",""1"",""2313""
","
","","","-1","","","25","9853","4674","s","elianto","#3366ff99","-1","-1","1","+10","[]","0","2","","","9853","110","5","2","win","no-go","0"
"pit-trial","229","1354639","0.0-115.0","battery-v0.2","","""event"",""trial"",""time""
""fullscreenenter"",""1"",""2313""
","
","
","""event"",""trial"",""time""
""fullscreenenter"",""1"",""2313""
","
","","","1202.1000000238419","","","25","9853","4674","d","elianto","#3366ff99"," "," ","1","+10","[2053.100000023842]","1","2","","","9853","111","8","1","win","go","0"
"pit-trial","230","1358607","0.0-116.0","battery-v0.2","","""event"",""trial"",""time""
""fullscreenenter"",""1"",""2313""
","
","
","""event"",""trial"",""time""
""fullscreenenter"",""1"",""2313""
","
","","","1113.0999999046326","","","25","9853","4674","w","elianto","#f73b6a7A"," "," ","1","-10","[1964.5999999046326]","1","2","","","9853","112","6","3","lose","go","1"
"pit-trial","231","1362271","0.0-117.0","battery-v0.2","","""event"",""trial"",""time""
""fullscreenenter"",""1"",""2313""
","
","
","""event"",""trial"",""time""
""fullscreenenter"",""1"",""2313""
","
","","","811.3999999761581","","","25","9853","4674","j","elianto","#3366ff99"," "," ","1","+10","[1662.5]","1","2","","","9853","113","9","1","win","go","0"
"pit-trial","232","1366207","0.0-118.0","battery-v0.2","","""event"",""trial"",""time""
""fullscreenenter"",""1"",""2313""
","
","
","""event"",""trial"",""time""
""fullscreenenter"",""1"",""2313""
","
","","","1083.6999999284744","","","25","9853","4674","w","elianto","#f73b6a7A"," "," ","1","0","[1934.5]","1","2","","","9853","114","6","3","lose","go","0"
"pit-trial","233","1370094","0.0-119.0","battery-v0.2","","""event"",""trial"",""time""
""fullscreenenter"",""1"",""2313""
","
","
","""event"",""trial"",""time""
""fullscreenenter"",""1"",""2313""
","
","","","1034.2000000476837","","","25","9853","4674","d","elianto","#3366ff99"," "," ","1","+10","[1884.8999999761581]","1","2","","","9853","115","8","1","win","go","0"
"pit-trial","234","1374947","0.0-120.0","battery-v0.2","","""event"",""trial"",""time""
""fullscreenenter"",""1"",""2313""
","
","
","""event"",""trial"",""time""
""fullscreenenter"",""1"",""2313""
","
","","","-1","","","25","9853","4674","s","elianto","#3366ff99","-1","-1","1","+10","[]","0","2","","","9853","116","5","2","win","no-go","0"
"pit-trial","235","1378615","0.0-121.0","battery-v0.2","","""event"",""trial"",""time""
""fullscreenenter"",""1"",""2313""
","
","
","""event"",""trial"",""time""
""fullscreenenter"",""1"",""2313""
","
","","","813.8999999761581","","","25","9853","4674","d","elianto","#3366ff99"," "," ","1","+10","[1664.3000000715256]","1","2","","","9853","117","8","1","win","go","0"
"pit-trial","236","1382337","0.0-122.0","battery-v0.2","","""event"",""trial"",""time""
""fullscreenenter"",""1"",""2313""
","
","
","""event"",""trial"",""time""
""fullscreenenter"",""1"",""2313""
","
","","","868","","","25","9853","4674","j","elianto","#3366ff99"," "," ","1","+10","[1718.7000000476837]","1","2","","","9853","118","9","1","win","go","0"
"pit-trial","237","1387191","0.0-123.0","battery-v0.2","","""event"",""trial"",""time""
""fullscreenenter"",""1"",""2313""
","
","
","""event"",""trial"",""time""
""fullscreenenter"",""1"",""2313""
","
","","","-1","","","25","9853","4674","s","elianto","#3366ff99","-1","-1","1","0","[]","0","2","","","9853","119","5","2","win","no-go","1"
"pit-trial","238","1391006","0.0-124.0","battery-v0.2","","""event"",""trial"",""time""
""fullscreenenter"",""1"",""2313""
","
","
","""event"",""trial"",""time""
""fullscreenenter"",""1"",""2313""
","
","","","960.3000000715256","","","25","9853","4674","w","elianto","#f73b6a7A"," "," ","1","0","[1811.1000000238419]","1","2","","","9853","120","6","3","lose","go","0"
"pit-trial","239","1394520","0.0-125.0","battery-v0.2","","""event"",""trial"",""time""
""fullscreenenter"",""1"",""2313""
","
","
","""event"",""trial"",""time""
""fullscreenenter"",""1"",""2313""
","
","","","659.2000000476837","","","25","9853","4674","d","elianto","#3366ff99"," "," ","1","+10","[1511.1000000238419]","1","2","","","9853","121","8","1","win","go","0"
"pit-trial","240","1398191","0.0-126.0","battery-v0.2","","""event"",""trial"",""time""
""fullscreenenter"",""1"",""2313""
","
","
","""event"",""trial"",""time""
""fullscreenenter"",""1"",""2313""
","
","","","817.1000000238419","","","25","9853","4674","j","elianto","#3366ff99"," "," ","1","+10","[1668.6000000238419]","1","2","","","9853","122","9","1","win","go","0"
"pit-trial","241","1403045","0.0-127.0","battery-v0.2","","""event"",""trial"",""time""
""fullscreenenter"",""1"",""2313""
","
","
","""event"",""trial"",""time""
""fullscreenenter"",""1"",""2313""
","
","","","-1","","","25","9853","4674","e","elianto","#f73b6a7A","-1","-1","1","-10","[]","0","2","","","9853","123","7","4","lose","no-go","1"
"pit-trial","242","1406815","0.0-128.0","battery-v0.2","","""event"",""trial"",""time""
""fullscreenenter"",""1"",""2313""
","
","
","""event"",""trial"",""time""
""fullscreenenter"",""1"",""2313""
","
","","","915.6000000238419","","","25","9853","4674","w","elianto","#f73b6a7A"," "," ","1","0","[1766]","1","2","","","9853","124","6","3","lose","go","0"
"pit-trial","243","1410269","0.0-129.0","battery-v0.2","","""event"",""trial"",""time""
""fullscreenenter"",""1"",""2313""
","
","
","""event"",""trial"",""time""
""fullscreenenter"",""1"",""2313""
","
","","","600.8999999761581","","","25","9853","4674","d","elianto","#3366ff99"," "," ","1","+10","[1451.8999999761581]","1","2","","","9853","125","8","1","win","go","0"
"pit-trial","244","1413999","0.0-130.0","battery-v0.2","","""event"",""trial"",""time""
""fullscreenenter"",""1"",""2313""
","
","
","""event"",""trial"",""time""
""fullscreenenter"",""1"",""2313""
","
","","","876","","","25","9853","4674","w","elianto","#f73b6a7A"," "," ","1","0","[1726.1000000238419]","1","2","","","9853","126","6","3","lose","go","0"
"pit-trial","245","1417471","0.0-131.0","battery-v0.2","","""event"",""trial"",""time""
""fullscreenenter"",""1"",""2313""
","
","
","""event"",""trial"",""time""
""fullscreenenter"",""1"",""2313""
","
","","","618.6000000238419","","","25","9853","4674","j","elianto","#3366ff99"," "," ","1","+10","[1468.8999999761581]","1","2","","","9853","127","9","1","win","go","0"
"pit-trial","246","1421255","0.0-132.0","battery-v0.2","","""event"",""trial"",""time""
""fullscreenenter"",""1"",""2313""
","
","
","""event"",""trial"",""time""
""fullscreenenter"",""1"",""2313""
","
","","","931","","","25","9853","4674","e","elianto","#f73b6a7A","-1"," ","0","-10","[1781.1000000238419]","1","2","","","9853","128","7","4","lose","no-go","0"
"pit-trial","247","1424704","0.0-133.0","battery-v0.2","","""event"",""trial"",""time""
""fullscreenenter"",""1"",""2313""
","
","
","""event"",""trial"",""time""
""fullscreenenter"",""1"",""2313""
","
","","","595.5","","","25","9853","4674","j","elianto","#3366ff99"," "," ","1","+10","[1446.2000000476837]","1","2","","","9853","129","9","1","win","go","0"
"pit-trial","248","1428359","0.0-134.0","battery-v0.2","","""event"",""trial"",""time""
""fullscreenenter"",""1"",""2313""
","
","
","""event"",""trial"",""time""
""fullscreenenter"",""1"",""2313""
","
","","","801","","","25","9853","4674","d","elianto","#3366ff99"," "," ","1","+10","[1652.6000000238419]","1","2","","","9853","130","8","1","win","go","0"
"pit-trial","249","1431918","0.0-135.0","battery-v0.2","","""event"",""trial"",""time""
""fullscreenenter"",""1"",""2313""
","
","
","""event"",""trial"",""time""
""fullscreenenter"",""1"",""2313""
","
","","","704.6999999284744","","","25","9853","4674","e","elianto","#f73b6a7A","-1"," ","0","-10","[1555.1999999284744]","1","2","","","9853","131","7","4","lose","no-go","0"
"pit-trial","250","1435462","0.0-136.0","battery-v0.2","","""event"",""trial"",""time""
""fullscreenenter"",""1"",""2313""
","
","
","""event"",""trial"",""time""
""fullscreenenter"",""1"",""2313""
","
","","","690.8999999761581","","","25","9853","4674","w","elianto","#f73b6a7A"," "," ","1","0","[1541.5]","1","2","","","9853","132","6","3","lose","go","0"
"pit-trial","251","1438997","0.0-137.0","battery-v0.2","","""event"",""trial"",""time""
""fullscreenenter"",""1"",""2313""
","
","
","""event"",""trial"",""time""
""fullscreenenter"",""1"",""2313""
","
","","","669.3999999761581","","","25","9853","4674","j","elianto","#3366ff99"," "," ","1","+10","[1520.2999999523163]","1","2","","","9853","133","9","1","win","go","0"
"pit-trial","252","1442726","0.0-138.0","battery-v0.2","","""event"",""trial"",""time""
""fullscreenenter"",""1"",""2313""
","
","
","""event"",""trial"",""time""
""fullscreenenter"",""1"",""2313""
","
","","","874.6000000238419","","","25","9853","4674","e","elianto","#f73b6a7A","-1"," ","0","-10","[1726.2000000476837]","1","2","","","9853","134","7","4","lose","no-go","0"
"pit-trial","253","1446213","0.0-139.0","battery-v0.2","","""event"",""trial"",""time""
""fullscreenenter"",""1"",""2313""
","
","
","""event"",""trial"",""time""
""fullscreenenter"",""1"",""2313""
","
","","","633.1000000238419","","","25","9853","4674","w","elianto","#f73b6a7A"," "," ","1","0","[1484]","1","2","","","9853","135","6","3","lose","go","0"
"pit-trial","254","1449878","0.0-140.0","battery-v0.2","","""event"",""trial"",""time""
""fullscreenenter"",""1"",""2313""
","
","
","""event"",""trial"",""time""
""fullscreenenter"",""1"",""2313""
","
","","","811.6000000238419","","","25","9853","4674","d","elianto","#3366ff99"," "," ","1","+10","[1662.1999999284744]","1","2","","","9853","136","8","1","win","go","0"
"pit-trial","255","1454732","0.0-141.0","battery-v0.2","","""event"",""trial"",""time""
""fullscreenenter"",""1"",""2313""
","
","
","""event"",""trial"",""time""
""fullscreenenter"",""1"",""2313""
","
","","","-1","","","25","9853","4674","e","elianto","#f73b6a7A","-1","-1","1","0","[]","0","2","","","9853","137","7","4","lose","no-go","0"
"pit-trial","256","1458231","0.0-142.0","battery-v0.2","","""event"",""trial"",""time""
""fullscreenenter"",""1"",""2313""
","
","
","""event"",""trial"",""time""
""fullscreenenter"",""1"",""2313""
","
","","","643","","","25","9853","4674","j","elianto","#3366ff99"," "," ","1","0","[1494.1000000238419]","1","2","","","9853","138","9","1","win","go","1"
"pit-trial","257","1461704","0.0-143.0","battery-v0.2","","""event"",""trial"",""time""
""fullscreenenter"",""1"",""2313""
","
","
","""event"",""trial"",""time""
""fullscreenenter"",""1"",""2313""
","
","","","618.2000000476837","","","25","9853","4674","d","elianto","#3366ff99"," "," ","1","0","[1468.9000000953674]","1","2","","","9853","139","8","1","win","go","1"
"pit-trial","258","1465541","0.0-144.0","battery-v0.2","","""event"",""trial"",""time""
""fullscreenenter"",""1"",""2313""
","
","
","""event"",""trial"",""time""
""fullscreenenter"",""1"",""2313""
","
","","","983.7000000476837","","","25","9853","4674","w","elianto","#f73b6a7A"," "," ","1","0","[1834.3999999761581]","1","2","","","9853","140","6","3","lose","go","0"
"pit-instructions","259","1535309","0.0-145.0","battery-v0.2","","""event"",""trial"",""time""
""fullscreenenter"",""1"",""2313""
","
","
","""event"",""trial"",""time""
""fullscreenenter"",""1"",""2313""
","
","","[{""page_index"":0,""viewing_time"":53428},{""page_index"":1,""viewing_time"":16337.100000023842}]","69765.20000004768","","","","","","","","","","","","","","","","","","","","","","","",""
"pit-trial","260","1539058","0.0-146.0","battery-v0.2","","""event"",""trial"",""time""
""fullscreenenter"",""1"",""2313""
","
","
","""event"",""trial"",""time""
""fullscreenenter"",""1"",""2313""
","
","","","888","","","25","9853","4674","m","elianto","#f73b6a7A","-1"," ","0","-10","[1742.3999999761581]","1","3","","","9853","141","0","4","lose","no-go","0"
"pit-trial","261","1542793","0.0-147.0","battery-v0.2","","""event"",""trial"",""time""
""fullscreenenter"",""1"",""2313""
","
","
","""event"",""trial"",""time""
""fullscreenenter"",""1"",""2313""
","
","","","872.8999999761581","","","25","9853","4674","r","elianto","#3366ff99"," "," ","1","+10","[1726.2999999523163]","1","3","","","9853","142","1","1","win","go","0"
"pit-trial","262","1546646","0.0-148.0","battery-v0.2","","""event"",""trial"",""time""
""fullscreenenter"",""1"",""2313""
","
","
","""event"",""trial"",""time""
""fullscreenenter"",""1"",""2313""
","
","","","991.7999999523163","","","25","9853","4674","y","elianto","#f73b6a7A","-1"," ","0","0","[1841.7999999523163]","1","3","","","9853","143","2","4","lose","no-go","1"
"pit-trial","263","1551506","0.0-149.0","battery-v0.2","","""event"",""trial"",""time""
""fullscreenenter"",""1"",""2313""
","
","
","""event"",""trial"",""time""
""fullscreenenter"",""1"",""2313""
","
","","","-1","","","25","9853","4674","h","elianto","#f73b6a7A"," ","-1","0","-10","[]","0","3","","","9853","144","3","3","lose","go","0"
"pit-trial","264","1555360","0.0-150.0","battery-v0.2","","""event"",""trial"",""time""
""fullscreenenter"",""1"",""2313""
","
","
","""event"",""trial"",""time""
""fullscreenenter"",""1"",""2313""
","
","","","996.7999999523163","","","25","9853","4674","r","elianto","#3366ff99"," "," ","1","0","[1849.3000000715256]","1","3","","","9853","145","1","1","win","go","1"
"pit-trial","265","1559040","0.0-151.0","battery-v0.2","","""event"",""trial"",""time""
""fullscreenenter"",""1"",""2313""
","
","
","""event"",""trial"",""time""
""fullscreenenter"",""1"",""2313""
","
","","","814.3000000715256","","","25","9853","4674","y","elianto","#f73b6a7A","-1"," ","0","-10","[1666.7000000476837]","1","3","","","9853","146","2","4","lose","no-go","0"
"pit-trial","266","1563710","0.0-152.0","battery-v0.2","","""event"",""trial"",""time""
""fullscreenenter"",""1"",""2313""
","
","
","""event"",""trial"",""time""
""fullscreenenter"",""1"",""2313""
","
","","","1803.6999999284744","","","25","9853","4674","h","elianto","#f73b6a7A"," "," ","1","0","[2659.1999999284744]","1","3","","","9853","147","3","3","lose","go","0"
"pit-trial","267","1567710","0.0-153.0","battery-v0.2","","""event"",""trial"",""time""
""fullscreenenter"",""1"",""2313""
","
","
