"trial_type","trial_index","time_elapsed","internal_node_id","task_version","subject_id","interactions","blur_events","focus_events","fullscreenenter_events","fullscreenexit_events","success","view_history","rt","responses","num_errors","age","subject","participantId","rune","rune_set","hex","correct","choice","accuracy","outcome","keys","total_keys","block","practice","value","sub","trial","stimulus","robot","valence","action","sham"
"pavlovia","0","6","0.0-0.0","battery-v0.2","","""event"",""trial"",""time""
""fullscreenenter"",""1"",""1362""
","
","
","""event"",""trial"",""time""
""fullscreenenter"",""1"",""1362""
","
","","","","","","","","","","","","","","","","","","","","","","","","","","",""
"fullscreen","1","2349","0.0-1.0","battery-v0.2","","""event"",""trial"",""time""
""fullscreenenter"",""1"",""1362""
","
","
","""event"",""trial"",""time""
""fullscreenenter"",""1"",""1362""
","
","true","","","","","","","","","","","","","","","","","","","","","","","","","",""
"pit-instructions","2","9432","0.0-2.0-0.0","battery-v0.2","","""event"",""trial"",""time""
""fullscreenenter"",""1"",""1362""
","
","
","""event"",""trial"",""time""
""fullscreenenter"",""1"",""1362""
","
","","[{""page_index"":0,""viewing_time"":7079.699999988079}]","7080","","","","","","","","","","","","","","","","","","","","","","","",""
"pit-comprehension","3","11752","0.0-2.0-1.0-0.0","battery-v0.2","","""event"",""trial"",""time""
""fullscreenenter"",""1"",""1362""
","
","
","""event"",""trial"",""time""
""fullscreenenter"",""1"",""1362""
","
","","","2318.2000000029802","[""shark""]","0","16","20961","2695","","","","","","","","","","","","","","","","","","",""
"pit-instructions","4","12581","0.0-2.0-1.0-1.0","battery-v0.2","","""event"",""trial"",""time""
""fullscreenenter"",""1"",""1362""
","
","
","""event"",""trial"",""time""
""fullscreenenter"",""1"",""1362""
","
","","[{""page_index"":0,""viewing_time"":822.3000000119209}]","822.5","","","","","","","","","","","","","","","","","","","","","","","",""
"pit-comprehension","5","14569","0.0-2.0-2.0-0.0","battery-v0.2","","""event"",""trial"",""time""
""fullscreenenter"",""1"",""1362""
","
","
","""event"",""trial"",""time""
""fullscreenenter"",""1"",""1362""
","
","","","1986","[""tiger""]","0","16","20961","2695","","","","","","","","","","","","","","","","","","",""
"pit-instructions","6","15446","0.0-2.0-2.0-1.0","battery-v0.2","","""event"",""trial"",""time""
""fullscreenenter"",""1"",""1362""
","
","
","""event"",""trial"",""time""
""fullscreenenter"",""1"",""1362""
","
","","[{""page_index"":0,""viewing_time"":875.5}]","875.6000000089407","","","","","","","","","","","","","","","","","","","","","","","",""
"pit-instructions","7","108460","0.0-2.0-3.0","battery-v0.2","","""event"",""trial"",""time""
""fullscreenenter"",""1"",""1362""
","
","
","""event"",""trial"",""time""
""fullscreenenter"",""1"",""1362""
","
","","[{""page_index"":0,""viewing_time"":10837.70000000298},{""page_index"":1,""viewing_time"":6895.79999999702},{""page_index"":2,""viewing_time"":6186.5},{""page_index"":3,""viewing_time"":5178.5999999940395},{""page_index"":4,""viewing_time"":5096.100000008941},{""page_index"":5,""viewing_time"":5292.899999991059},{""page_index"":6,""viewing_time"":8312.60000000894},{""page_index"":7,""viewing_time"":6590.79999999702},{""page_index"":8,""viewing_time"":7046.70000000298},{""page_index"":9,""viewing_time"":5421.0999999940395},{""page_index"":10,""viewing_time"":7260.0999999940395},{""page_index"":11,""viewing_time"":6834.9000000059605},{""page_index"":12,""viewing_time"":6108.5},{""page_index"":13,""viewing_time"":5949.70000000298}]","93012.29999999702","","","","","","","","","","","","","","","","","","","","","","","",""
"pit-trial","8","111847","0.0-2.0-4.0-0.0","battery-v0.2","","""event"",""trial"",""time""
""fullscreenenter"",""1"",""1362""
","
","
","""event"",""trial"",""time""
""fullscreenenter"",""1"",""1362""
","
","","","519.4000000059605","","","16","20961","2695","&#9784;","elianto","#FFFFF080"," "," ","1","&#10004","[1369.5]","1","0","0","","","","","","","",""
"pit-trial","9","115170","0.0-2.0-4.1-0.1","battery-v0.2","","""event"",""trial"",""time""
""fullscreenenter"",""1"",""1362""
","
","
","""event"",""trial"",""time""
""fullscreenenter"",""1"",""1362""
","
","","","468.90000000596046","","","16","20961","2695","&#9784;","elianto","#FFFFF080"," "," ","1","&#10004","[1318.9000000059605]","1","0","0","","","","","","","",""
"pit-trial","10","118449","0.0-2.0-4.2-0.2","battery-v0.2","","""event"",""trial"",""time""
""fullscreenenter"",""1"",""1362""
","
","
","""event"",""trial"",""time""
""fullscreenenter"",""1"",""1362""
","
","","","420.90000000596046","","","16","20961","2695","&#9784;","elianto","#FFFFF080"," "," ","1","&#10004","[1273.5999999940395]","1","0","0","","","","","","","",""
"pit-trial","11","121883","0.0-2.0-4.3-0.3","battery-v0.2","","""event"",""trial"",""time""
""fullscreenenter"",""1"",""1362""
","
","
","""event"",""trial"",""time""
""fullscreenenter"",""1"",""1362""
","
","","","573.5","","","16","20961","2695","&#9784;","elianto","#FFFFF080"," "," ","1","&#10004","[1425.199999988079]","1","0","0","","","","","","","",""
"pit-trial","12","125292","0.0-2.0-4.4-0.4","battery-v0.2","","""event"",""trial"",""time""
""fullscreenenter"",""1"",""1362""
","
","
","""event"",""trial"",""time""
""fullscreenenter"",""1"",""1362""
","
","","","552.5","","","16","20961","2695","&#9784;","elianto","#FFFFF080"," "," ","1","&#10004","[1405.3999999910593]","1","0","0","","","","","","","",""
"pit-instructions","13","145730","0.0-2.0-5.0","battery-v0.2","","""event"",""trial"",""time""
""fullscreenenter"",""1"",""1362""
","
","
","""event"",""trial"",""time""
""fullscreenenter"",""1"",""1362""
","
","","[{""page_index"":0,""viewing_time"":4558.5},{""page_index"":1,""viewing_time"":6034.5},{""page_index"":2,""viewing_time"":4812},{""page_index"":3,""viewing_time"":5031.600000008941}]","20436.80000001192","","","","","","","","","","","","","","","","","","","","","","","",""
"pit-trial","14","150596","0.0-2.0-6.0-0.0","battery-v0.2","","""event"",""trial"",""time""
""fullscreenenter"",""1"",""1362""
","
","
","""event"",""trial"",""time""
""fullscreenenter"",""1"",""1362""
","
","","","-1","","","16","20961","2695","&#9854;","elianto","#FFFFF080","-1","-1","1","&#10004","[]","0","0","1","","","","","","","",""
"pit-trial","15","155460","0.0-2.0-6.1-0.1","battery-v0.2","","""event"",""trial"",""time""
""fullscreenenter"",""1"",""1362""
","
","
","""event"",""trial"",""time""
""fullscreenenter"",""1"",""1362""
","
","","","-1","","","16","20961","2695","&#9854;","elianto","#FFFFF080","-1","-1","1","&#10004","[]","0","0","1","","","","","","","",""
"pit-trial","16","160325","0.0-2.0-6.2-0.2","battery-v0.2","","""event"",""trial"",""time""
""fullscreenenter"",""1"",""1362""
","
","
","""event"",""trial"",""time""
""fullscreenenter"",""1"",""1362""
","
","","","-1","","","16","20961","2695","&#9854;","elianto","#FFFFF080","-1","-1","1","&#10004","[]","0","0","1","","","","","","","",""
"pit-trial","17","165179","0.0-2.0-6.3-0.3","battery-v0.2","","""event"",""trial"",""time""
""fullscreenenter"",""1"",""1362""
","
","
","""event"",""trial"",""time""
""fullscreenenter"",""1"",""1362""
","
","","","-1","","","16","20961","2695","&#9854;","elianto","#FFFFF080","-1","-1","1","&#10004","[]","0","0","1","","","","","","","",""
"pit-trial","18","170056","0.0-2.0-6.4-0.4","battery-v0.2","","""event"",""trial"",""time""
""fullscreenenter"",""1"",""1362""
","
","
","""event"",""trial"",""time""
""fullscreenenter"",""1"",""1362""
","
","","","-1","","","16","20961","2695","&#9854;","elianto","#FFFFF080","-1","-1","1","&#10004","[]","0","0","1","","","","","","","",""
"pit-instructions","19","305809","0.0-2.0-7.0","battery-v0.2","","""event"",""trial"",""time""
""fullscreenenter"",""1"",""1362""
","
","
","""event"",""trial"",""time""
""fullscreenenter"",""1"",""1362""
","
","","[{""page_index"":0,""viewing_time"":6030},{""page_index"":1,""viewing_time"":6560},{""page_index"":2,""viewing_time"":7318.5999999940395},{""page_index"":3,""viewing_time"":7321.9000000059605},{""page_index"":4,""viewing_time"":7077},{""page_index"":5,""viewing_time"":5793.5999999940395},{""page_index"":6,""viewing_time"":4631.5},{""page_index"":7,""viewing_time"":7818.79999999702},{""page_index"":8,""viewing_time"":6846.300000011921},{""page_index"":9,""viewing_time"":6416.899999991059},{""page_index"":10,""viewing_time"":6191.5},{""page_index"":11,""viewing_time"":6801.5},{""page_index"":12,""viewing_time"":7587},{""page_index"":13,""viewing_time"":7448.9000000059605},{""page_index"":14,""viewing_time"":8220},{""page_index"":15,""viewing_time"":9054.09999999404},{""page_index"":16,""viewing_time"":6781.79999999702},{""page_index"":17,""viewing_time"":17852.40000000596}]","135752","","","","","","","","","","","","","","","","","","","","","","","",""
"pit-trial","20","309433","0.0-2.0-8.0-0.0","battery-v0.2","","""event"",""trial"",""time""
""fullscreenenter"",""1"",""1362""
","
","
","""event"",""trial"",""time""
""fullscreenenter"",""1"",""1362""
","
","","","766","","","16","20961","2695","&#9776;","elianto","#3366ff99"," "," ","1","+10","[1616.0999999940395]","1","0","1","","","","","","","",""
"pit-trial","21","312918","0.0-2.0-8.0-1.0","battery-v0.2","","""event"",""trial"",""time""
""fullscreenenter"",""1"",""1362""
","
","
","""event"",""trial"",""time""
""fullscreenenter"",""1"",""1362""
","
","","","623.2999999970198","","","16","20961","2695","&#9776;","elianto","#3366ff99"," "," ","1","+10","[1477.2999999970198]","1","0","1","","","","","","","",""
"pit-trial","22","316458","0.0-2.0-8.0-2.0","battery-v0.2","","""event"",""trial"",""time""
""fullscreenenter"",""1"",""1362""
","
","
","""event"",""trial"",""time""
""fullscreenenter"",""1"",""1362""
","
","","","683.7000000029802","","","16","20961","2695","&#9776;","elianto","#3366ff99"," "," ","1","+10","[1537.7999999970198]","1","0","1","","","","","","","",""
"pit-trial","23","319815","0.0-2.0-8.0-3.0","battery-v0.2","","""event"",""trial"",""time""
""fullscreenenter"",""1"",""1362""
","
","
","""event"",""trial"",""time""
""fullscreenenter"",""1"",""1362""
","
","","","501.5","","","16","20961","2695","&#9776;","elianto","#3366ff99"," "," ","1","0","[1351.7000000029802]","1","0","1","","","","","","","",""
"pit-trial","24","323225","0.0-2.0-8.0-4.0","battery-v0.2","","""event"",""trial"",""time""
""fullscreenenter"",""1"",""1362""
","
","
","""event"",""trial"",""time""
""fullscreenenter"",""1"",""1362""
","
","","","541.2000000029802","","","16","20961","2695","&#9776;","elianto","#3366ff99"," "," ","1","+10","[1394]","1","0","1","","","","","","","",""
"pit-trial","25","326527","0.0-2.0-8.1-0.1","battery-v0.2","","""event"",""trial"",""time""
""fullscreenenter"",""1"",""1362""
","
","
","""event"",""trial"",""time""
""fullscreenenter"",""1"",""1362""
","
","","","446.5","","","16","20961","2695","&#9776;","elianto","#3366ff99"," "," ","1","+10","[1298.8999999910593]","1","0","1","","","","","","","",""
"pit-trial","26","329795","0.0-2.0-8.1-1.1","battery-v0.2","","""event"",""trial"",""time""
""fullscreenenter"",""1"",""1362""
","
","
","""event"",""trial"",""time""
""fullscreenenter"",""1"",""1362""
","
","","","414.19999998807907","","","16","20961","2695","&#9776;","elianto","#3366ff99"," "," ","1","+10","[1265.8999999910593]","1","0","1","","","","","","","",""
"pit-trial","27","333087","0.0-2.0-8.1-2.1","battery-v0.2","","""event"",""trial"",""time""
""fullscreenenter"",""1"",""1362""
","
","
","""event"",""trial"",""time""
""fullscreenenter"",""1"",""1362""
","
","","","439.6000000089407","","","16","20961","2695","&#9776;","elianto","#3366ff99"," "," ","1","+10","[1290]","1","0","1","","","","","","","",""
"pit-trial","28","336509","0.0-2.0-8.1-3.1","battery-v0.2","","""event"",""trial"",""time""
""fullscreenenter"",""1"",""1362""
","
","
","""event"",""trial"",""time""
""fullscreenenter"",""1"",""1362""
","
","","","570.8999999910593","","","16","20961","2695","&#9776;","elianto","#3366ff99"," "," ","1","0","[1421.0999999940395]","1","0","1","","","","","","","",""
"pit-trial","29","339748","0.0-2.0-8.1-4.1","battery-v0.2","","""event"",""trial"",""time""
""fullscreenenter"",""1"",""1362""
","
","
","""event"",""trial"",""time""
""fullscreenenter"",""1"",""1362""
","
","","","386.20000000298023","","","16","20961","2695","&#9776;","elianto","#3366ff99"," "," ","1","+10","[1236.2000000029802]","1","0","1","","","","","","","",""
"pit-trial","30","343078","0.0-2.0-8.2-0.2","battery-v0.2","","""event"",""trial"",""time""
""fullscreenenter"",""1"",""1362""
","
","
","""event"",""trial"",""time""
""fullscreenenter"",""1"",""1362""
","
","","","478.20000000298023","","","16","20961","2695","&#9776;","elianto","#3366ff99"," "," ","1","+10","[1328.1000000089407]","1","0","1","","","","","","","",""
"pit-trial","31","346440","0.0-2.0-8.2-1.2","battery-v0.2","","""event"",""trial"",""time""
""fullscreenenter"",""1"",""1362""
","
","
","""event"",""trial"",""time""
""fullscreenenter"",""1"",""1362""
","
","","","509.5","","","16","20961","2695","&#9776;","elianto","#3366ff99"," "," ","1","+10","[1359.6000000089407]","1","0","1","","","","","","","",""
"pit-trial","32","349684","0.0-2.0-8.2-2.2","battery-v0.2","","""event"",""trial"",""time""
""fullscreenenter"",""1"",""1362""
","
","
","""event"",""trial"",""time""
""fullscreenenter"",""1"",""1362""
","
","","","392.6000000089407","","","16","20961","2695","&#9776;","elianto","#3366ff99"," "," ","1","+10","[1242.800000011921]","1","0","1","","","","","","","",""
"pit-trial","33","352968","0.0-2.0-8.2-3.2","battery-v0.2","","""event"",""trial"",""time""
""fullscreenenter"",""1"",""1362""
","
","
","""event"",""trial"",""time""
""fullscreenenter"",""1"",""1362""
","
","","","431.29999999701977","","","16","20961","2695","&#9776;","elianto","#3366ff99"," "," ","1","0","[1281.7000000029802]","1","0","1","","","","","","","",""
"pit-trial","34","356190","0.0-2.0-8.2-4.2","battery-v0.2","","""event"",""trial"",""time""
""fullscreenenter"",""1"",""1362""
","
","
","""event"",""trial"",""time""
""fullscreenenter"",""1"",""1362""
","
","","","370.09999999403954","","","16","20961","2695","&#9776;","elianto","#3366ff99"," "," ","1","+10","[1220.7999999970198]","1","0","1","","","","","","","",""
"call-function","35","356191","0.0-2.0-9.0","battery-v0.2","","""event"",""trial"",""time""
""fullscreenenter"",""1"",""1362""
","
","
","""event"",""trial"",""time""
""fullscreenenter"",""1"",""1362""
","
","","","","","","","","","","","","","","","","","","","","","","","","","","",""
"pit-instructions","36","394216","0.0-2.0-10.0","battery-v0.2","","""event"",""trial"",""time""
""fullscreenenter"",""1"",""1362""
","
","
","""event"",""trial"",""time""
""fullscreenenter"",""1"",""1362""
","
","","[{""page_index"":0,""viewing_time"":6332.79999999702},{""page_index"":1,""viewing_time"":6419.20000000298},{""page_index"":2,""viewing_time"":9152.59999999404},{""page_index"":3,""viewing_time"":8913.90000000596},{""page_index"":4,""viewing_time"":7205.5}]","38024.29999999702","","","","","","","","","","","","","","","","","","","","","","","",""
"pit-trial","37","397521","0.0-2.0-11.0-0.0","battery-v0.2","","""event"",""trial"",""time""
""fullscreenenter"",""1"",""1362""
","
","
","""event"",""trial"",""time""
""fullscreenenter"",""1"",""1362""
","
","","","449","","","16","20961","2695","&#9761;","elianto","#3366ff99","-1"," ","0","0","[1302.5]","1","0","2","","","","","","","",""
"pit-trial","38","400611","0.0-2.0-11.0-1.0","battery-v0.2","","""event"",""trial"",""time""
""fullscreenenter"",""1"",""1362""
","
","
","""event"",""trial"",""time""
""fullscreenenter"",""1"",""1362""
","
","","","222.29999999701977","","","16","20961","2695","&#9761;","elianto","#3366ff99","-1"," ","0","0","[1073.2999999970198]","1","0","2","","","","","","","",""
"pit-trial","39","403646","0.0-2.0-11.0-2.0","battery-v0.2","","""event"",""trial"",""time""
""fullscreenenter"",""1"",""1362""
","
","
","""event"",""trial"",""time""
""fullscreenenter"",""1"",""1362""
","
","","","171.29999999701977","","","16","20961","2695","&#9761;","elianto","#3366ff99","-1"," ","0","0","[1027]","1","0","2","","","","","","","",""
"pit-trial","40","408514","0.0-2.0-11.0-3.0","battery-v0.2","","""event"",""trial"",""time""
""fullscreenenter"",""1"",""1362""
","
","
","""event"",""trial"",""time""
""fullscreenenter"",""1"",""1362""
","
","","","-1","","","16","20961","2695","&#9761;","elianto","#3366ff99","-1","-1","1","0","[]","0","0","2","","","","","","","",""
"pit-trial","41","413387","0.0-2.0-11.0-4.0","battery-v0.2","","""event"",""trial"",""time""
""fullscreenenter"",""1"",""1362""
","
","
","""event"",""trial"",""time""
""fullscreenenter"",""1"",""1362""
","
","","","-1","","","16","20961","2695","&#9761;","elianto","#3366ff99","-1","-1","1","+10","[]","0","0","2","","","","","","","",""
"pit-trial","42","417139","0.0-2.0-11.1-0.1","battery-v0.2","","""event"",""trial"",""time""
""fullscreenenter"",""1"",""1362""
","
","
","""event"",""trial"",""time""
""fullscreenenter"",""1"",""1362""
","
","","","884.7000000029802","","","16","20961","2695","&#9761;","elianto","#3366ff99","-1"," ","0","0","[1740.7000000029802]","1","0","2","","","","","","","",""
"pit-trial","43","420846","0.0-2.0-11.1-1.1","battery-v0.2","","""event"",""trial"",""time""
""fullscreenenter"",""1"",""1362""
","
","
","""event"",""trial"",""time""
""fullscreenenter"",""1"",""1362""
","
","","","835.9000000059605","","","16","20961","2695","&#9761;","elianto","#3366ff99","-1"," ","0","0","[1691.7000000029802]","1","0","2","","","","","","","",""
"pit-trial","44","424517","0.0-2.0-11.1-2.1","battery-v0.2","","""event"",""trial"",""time""
""fullscreenenter"",""1"",""1362""
","
","
","""event"",""trial"",""time""
""fullscreenenter"",""1"",""1362""
","
","","","818.2000000029802","","","16","20961","2695","&#9761;","elianto","#3366ff99","-1"," ","0","0","[1669,2457.2000000029802]","2","0","2","","","","","","","",""
"pit-trial","45","428190","0.0-2.0-11.1-3.1","battery-v0.2","","""event"",""trial"",""time""
""fullscreenenter"",""1"",""1362""
","
","
","""event"",""trial"",""time""
""fullscreenenter"",""1"",""1362""
","
","","","818.7000000029802","","","16","20961","2695","&#9761;","elianto","#3366ff99","-1"," ","0","+10","[1668.7999999970198,2610.7000000029802,2950.5999999940395,3616.3999999910593]","4","0","2","","","","","","","",""
"pit-trial","46","431201","0.0-2.0-11.1-4.1","battery-v0.2","","""event"",""trial"",""time""
""fullscreenenter"",""1"",""1362""
","
","
","""event"",""trial"",""time""
""fullscreenenter"",""1"",""1362""
","
","","","158","","","16","20961","2695","&#9761;","elianto","#3366ff99","-1"," ","0","0","[243.6000000089407,413.5,645.6000000089407,823.7000000029802,1008.4000000059605,1178.6000000089407,1998.2999999970198]","7","0","2","","","","","","","",""
"pit-trial","47","434647","0.0-2.0-11.2-0.2","battery-v0.2","","""event"",""trial"",""time""
""fullscreenenter"",""1"",""1362""
","
","
","""event"",""trial"",""time""
""fullscreenenter"",""1"",""1362""
","
","","","593","","","16","20961","2695","&#9761;","elianto","#3366ff99","-1"," ","0","0","[1443.5]","1","0","2","","","","","","","",""
"pit-trial","48","437939","0.0-2.0-11.2-1.2","battery-v0.2","","""event"",""trial"",""time""
""fullscreenenter"",""1"",""1362""
","
","
","""event"",""trial"",""time""
""fullscreenenter"",""1"",""1362""
","
","","","439.29999999701977","","","16","20961","2695","&#9761;","elianto","#3366ff99","-1"," ","0","0","[1289.8999999910593,1661.699999988079,2194,2488,2704,2920.8999999910593]","6","0","2","","","","","","","",""
"pit-trial","49","442777","0.0-2.0-11.2-2.2","battery-v0.2","","""event"",""trial"",""time""
""fullscreenenter"",""1"",""1362""
","
","
","""event"",""trial"",""time""
""fullscreenenter"",""1"",""1362""
","
","","","1984.699999988079","","","16","20961","2695","&#9761;","elianto","#3366ff99","-1"," ","0","0","[2835.5,3081.9000000059605,3344.7000000029802,3663,3924.300000011921,4728.100000008941]","6","0","2","","","","","","","",""
"pit-trial","50","445750","0.0-2.0-11.2-3.2","battery-v0.2","","""event"",""trial"",""time""
""fullscreenenter"",""1"",""1362""
","
","
","""event"",""trial"",""time""
""fullscreenenter"",""1"",""1362""
","
","","","120.79999999701977","","","16","20961","2695","&#9761;","elianto","#3366ff99","-1"," ","0","+10","[283.8999999910593,677.7999999970198,971.7999999970198,1234.5999999940395,1520.3999999910593,1712.7999999970198,2092.699999988079,2347,2633.5,2880.3999999910593]","10","0","2","","","","","","","",""
"pit-trial","51","448849","0.0-2.0-11.2-4.2","battery-v0.2","","""event"",""trial"",""time""
""fullscreenenter"",""1"",""1362""
","
","
","""event"",""trial"",""time""
""fullscreenenter"",""1"",""1362""
","
","","","247","","","16","20961","2695","&#9761;","elianto","#3366ff99","-1"," ","0","0","[85,424.6000000089407,1097.4000000059605,1553.300000011921]","4","0","2","","","","","","","",""
"pit-trial","52","452496","0.0-2.0-11.3-0.3","battery-v0.2","","""event"",""trial"",""time""
""fullscreenenter"",""1"",""1362""
","
","
","""event"",""trial"",""time""
""fullscreenenter"",""1"",""1362""
","
","","","793.7999999970198","","","16","20961","2695","&#9761;","elianto","#3366ff99","-1"," ","0","0","[1644]","1","0","2","","","","","","","",""
"pit-trial","53","456344","0.0-2.0-11.3-1.3","battery-v0.2","","""event"",""trial"",""time""
""fullscreenenter"",""1"",""1362""
","
","
","""event"",""trial"",""time""
""fullscreenenter"",""1"",""1362""
","
","","","997.0999999940395","","","16","20961","2695","&#9761;","elianto","#3366ff99","-1"," ","0","0","[1847.2999999970198]","1","0","2","","","","","","","",""
"pit-trial","54","459858","0.0-2.0-11.3-2.3","battery-v0.2","","""event"",""trial"",""time""
""fullscreenenter"",""1"",""1362""
","
","
","""event"",""trial"",""time""
""fullscreenenter"",""1"",""1362""
","
","","","662.2000000029802","","","16","20961","2695","&#9761;","elianto","#3366ff99","-1"," ","0","0","[1512.4000000059605,1853.7000000029802,2101.2999999970198]","3","0","2","","","","","","","",""
"pit-trial","55","463097","0.0-2.0-11.3-3.3","battery-v0.2","","""event"",""trial"",""time""
""fullscreenenter"",""1"",""1362""
","
","
","""event"",""trial"",""time""
""fullscreenenter"",""1"",""1362""
","
","","","386.5","","","16","20961","2695","&#9761;","elianto","#3366ff99","-1"," ","0","+10","[1236.9000000059605]","1","0","2","","","","","","","",""
"pit-trial","56","466188","0.0-2.0-11.3-4.3","battery-v0.2","","""event"",""trial"",""time""
""fullscreenenter"",""1"",""1362""
","
","
","""event"",""trial"",""time""
""fullscreenenter"",""1"",""1362""
","
","","","238.40000000596046","","","16","20961","2695","&#9761;","elianto","#3366ff99","-1"," ","0","0","[756.7999999970198,1088.7000000029802,1296.7999999970198]","3","0","2","","","","","","","",""
"call-function","57","466189","0.0-2.0-12.0","battery-v0.2","","""event"",""trial"",""time""
""fullscreenenter"",""1"",""1362""
","
","
","""event"",""trial"",""time""
""fullscreenenter"",""1"",""1362""
","
","","","","","","","","","","","","","","","","","","","","","","","","","","",""
"pit-instructions","58","499423","0.0-2.0-13.0","battery-v0.2","","""event"",""trial"",""time""
""fullscreenenter"",""1"",""1362""
","
","
","""event"",""trial"",""time""
""fullscreenenter"",""1"",""1362""
","
","","[{""page_index"":0,""viewing_time"":5470.0999999940395},{""page_index"":1,""viewing_time"":8130.600000008941},{""page_index"":2,""viewing_time"":4174.0999999940395},{""page_index"":3,""viewing_time"":10217.20000000298},{""page_index"":4,""viewing_time"":5241.79999999702}]","33233.90000000596","","","","","","","","","","","","","","","","","","","","","","","",""
"pit-trial","59","504278","0.0-2.0-14.0-0.0","battery-v0.2","","""event"",""trial"",""time""
""fullscreenenter"",""1"",""1362""
","
","
","""event"",""trial"",""time""
""fullscreenenter"",""1"",""1362""
","
","","","1989.5999999940395","","","16","20961","2695","&#9826;","elianto","#f73b6a7A","-1"," ","0","-10","[2840.7000000029802]","1","0","3","","","","","","","",""
"pit-trial","60","507604","0.0-2.0-14.0-1.0","battery-v0.2","","""event"",""trial"",""time""
""fullscreenenter"",""1"",""1362""
","
","
","""event"",""trial"",""time""
""fullscreenenter"",""1"",""1362""
","
","","","462.79999999701977","","","16","20961","2695","&#9826;","elianto","#f73b6a7A","-1"," ","0","-10","[1316.4000000059605]","1","0","3","","","","","","","",""
"pit-trial","61","512474","0.0-2.0-14.0-2.0","battery-v0.2","","""event"",""trial"",""time""
""fullscreenenter"",""1"",""1362""
","
","
","""event"",""trial"",""time""
""fullscreenenter"",""1"",""1362""
","
","","","-1","","","16","20961","2695","&#9826;","elianto","#f73b6a7A","-1","-1","1","0","[]","0","0","3","","","","","","","",""
"pit-trial","62","517334","0.0-2.0-14.0-3.0","battery-v0.2","","""event"",""trial"",""time""
""fullscreenenter"",""1"",""1362""
","
","
","""event"",""trial"",""time""
""fullscreenenter"",""1"",""1362""
","
","","","-1","","","16","20961","2695","&#9826;","elianto","#f73b6a7A","-1","-1","1","-10","[]","0","0","3","","","","","","","",""
"pit-trial","63","522199","0.0-2.0-14.0-4.0","battery-v0.2","","""event"",""trial"",""time""
""fullscreenenter"",""1"",""1362""
","
","
","""event"",""trial"",""time""
""fullscreenenter"",""1"",""1362""
","
","","","-1","","","16","20961","2695","&#9826;","elianto","#f73b6a7A","-1","-1","1","0","[]","0","0","3","","","","","","","",""
"pit-trial","64","527065","0.0-2.0-14.1-0.1","battery-v0.2","","""event"",""trial"",""time""
""fullscreenenter"",""1"",""1362""
","
","
","""event"",""trial"",""time""
""fullscreenenter"",""1"",""1362""
","
","","","-1","","","16","20961","2695","&#9826;","elianto","#f73b6a7A","-1","-1","1","0","[]","0","0","3","","","","","","","",""
"pit-trial","65","531919","0.0-2.0-14.1-1.1","battery-v0.2","","""event"",""trial"",""time""
""fullscreenenter"",""1"",""1362""
","
","
","""event"",""trial"",""time""
""fullscreenenter"",""1"",""1362""
","
","","","-1","","","16","20961","2695","&#9826;","elianto","#f73b6a7A","-1","-1","1","0","[]","0","0","3","","","","","","","",""
"pit-trial","66","536772","0.0-2.0-14.1-2.1","battery-v0.2","","""event"",""trial"",""time""
""fullscreenenter"",""1"",""1362""
","
","
","""event"",""trial"",""time""
""fullscreenenter"",""1"",""1362""
","
","","","-1","","","16","20961","2695","&#9826;","elianto","#f73b6a7A","-1","-1","1","0","[]","0","0","3","","","","","","","",""
"pit-trial","67","541624","0.0-2.0-14.1-3.1","battery-v0.2","","""event"",""trial"",""time""
""fullscreenenter"",""1"",""1362""
","
","
","""event"",""trial"",""time""
""fullscreenenter"",""1"",""1362""
","
","","","-1","","","16","20961","2695","&#9826;","elianto","#f73b6a7A","-1","-1","1","-10","[]","0","0","3","","","","","","","",""
"pit-trial","68","546476","0.0-2.0-14.1-4.1","battery-v0.2","","""event"",""trial"",""time""
""fullscreenenter"",""1"",""1362""
","
","
","""event"",""trial"",""time""
""fullscreenenter"",""1"",""1362""
","
","","","-1","","","16","20961","2695","&#9826;","elianto","#f73b6a7A","-1","-1","1","0","[]","0","0","3","","","","","","","",""
"pit-trial","69","551329","0.0-2.0-14.2-0.2","battery-v0.2","","""event"",""trial"",""time""
""fullscreenenter"",""1"",""1362""
","
","
","""event"",""trial"",""time""
""fullscreenenter"",""1"",""1362""
","
","","","-1","","","16","20961","2695","&#9826;","elianto","#f73b6a7A","-1","-1","1","0","[]","0","0","3","","","","","","","",""
"pit-trial","70","556183","0.0-2.0-14.2-1.2","battery-v0.2","","""event"",""trial"",""time""
""fullscreenenter"",""1"",""1362""
","
","
","""event"",""trial"",""time""
""fullscreenenter"",""1"",""1362""
","
","","","-1","","","16","20961","2695","&#9826;","elianto","#f73b6a7A","-1","-1","1","0","[]","0","0","3","","","","","","","",""
"pit-trial","71","561036","0.0-2.0-14.2-2.2","battery-v0.2","","""event"",""trial"",""time""
""fullscreenenter"",""1"",""1362""
","
","
","""event"",""trial"",""time""
""fullscreenenter"",""1"",""1362""
","
","","","-1","","","16","20961","2695","&#9826;","elianto","#f73b6a7A","-1","-1","1","0","[]","0","0","3","","","","","","","",""
"pit-trial","72","565889","0.0-2.0-14.2-3.2","battery-v0.2","","""event"",""trial"",""time""
""fullscreenenter"",""1"",""1362""
","
","
","""event"",""trial"",""time""
""fullscreenenter"",""1"",""1362""
","
","","","-1","","","16","20961","2695","&#9826;","elianto","#f73b6a7A","-1","-1","1","-10","[]","0","0","3","","","","","","","",""
"pit-trial","73","570742","0.0-2.0-14.2-4.2","battery-v0.2","","""event"",""trial"",""time""
""fullscreenenter"",""1"",""1362""
","
","
","""event"",""trial"",""time""
""fullscreenenter"",""1"",""1362""
","
","","","-1","","","16","20961","2695","&#9826;","elianto","#f73b6a7A","-1","-1","1","0","[]","0","0","3","","","","","","","",""
"pit-trial","74","575595","0.0-2.0-14.3-0.3","battery-v0.2","","""event"",""trial"",""time""
""fullscreenenter"",""1"",""1362""
","
","
","""event"",""trial"",""time""
""fullscreenenter"",""1"",""1362""
","
","","","-1","","","16","20961","2695","&#9826;","elianto","#f73b6a7A","-1","-1","1","0","[]","0","0","3","","","","","","","",""
"pit-trial","75","580449","0.0-2.0-14.3-1.3","battery-v0.2","","""event"",""trial"",""time""
""fullscreenenter"",""1"",""1362""
","
","
","""event"",""trial"",""time""
""fullscreenenter"",""1"",""1362""
","
","","","-1","","","16","20961","2695","&#9826;","elianto","#f73b6a7A","-1","-1","1","0","[]","0","0","3","","","","","","","",""
"pit-trial","76","585302","0.0-2.0-14.3-2.3","battery-v0.2","","""event"",""trial"",""time""
""fullscreenenter"",""1"",""1362""
","
","
","""event"",""trial"",""time""
""fullscreenenter"",""1"",""1362""
","
","","","-1","","","16","20961","2695","&#9826;","elianto","#f73b6a7A","-1","-1","1","0","[]","0","0","3","","","","","","","",""
"pit-trial","77","590154","0.0-2.0-14.3-3.3","battery-v0.2","","""event"",""trial"",""time""
""fullscreenenter"",""1"",""1362""
","
","
","""event"",""trial"",""time""
""fullscreenenter"",""1"",""1362""
","
","","","-1","","","16","20961","2695","&#9826;","elianto","#f73b6a7A","-1","-1","1","-10","[]","0","0","3","","","","","","","",""
"pit-trial","78","595007","0.0-2.0-14.3-4.3","battery-v0.2","","""event"",""trial"",""time""
""fullscreenenter"",""1"",""1362""
","
","
","""event"",""trial"",""time""
""fullscreenenter"",""1"",""1362""
","
","","","-1","","","16","20961","2695","&#9826;","elianto","#f73b6a7A","-1","-1","1","0","[]","0","0","3","","","","","","","",""
"call-function","79","595008","0.0-2.0-15.0","battery-v0.2","","""event"",""trial"",""time""
""fullscreenenter"",""1"",""1362""
","
","
","""event"",""trial"",""time""
""fullscreenenter"",""1"",""1362""
","
","","","","","","","","","","","","","","","","","","","","","","","","","","",""
"pit-instructions","80","622506","0.0-2.0-16.0","battery-v0.2","","""event"",""trial"",""time""
""fullscreenenter"",""1"",""1362""
","
","
","""event"",""trial"",""time""
""fullscreenenter"",""1"",""1362""
","
","","[{""page_index"":0,""viewing_time"":6666.600000008941},{""page_index"":1,""viewing_time"":9483},{""page_index"":2,""viewing_time"":4472.399999991059},{""page_index"":3,""viewing_time"":6875.79999999702}]","27498","","","","","","","","","","","","","","","","","","","","","","","",""
"pit-trial","81","626008","0.0-2.0-17.0-0.0","battery-v0.2","","""event"",""trial"",""time""
""fullscreenenter"",""1"",""1362""
","
","
","""event"",""trial"",""time""
""fullscreenenter"",""1"",""1362""
","
","","","645.7000000029802","","","16","20961","2695","&#9789;","elianto","#f73b6a7A"," "," ","1","0","[1496.5]","1","0","4","","","","","","","",""
"pit-trial","82","629804","0.0-2.0-17.0-1.0","battery-v0.2","","""event"",""trial"",""time""
""fullscreenenter"",""1"",""1362""
","
","
","""event"",""trial"",""time""
""fullscreenenter"",""1"",""1362""
","
","","","929.7999999970198","","","16","20961","2695","&#9789;","elianto","#f73b6a7A"," "," ","1","0","[1780.2000000029802,2197.1000000089407]","2","0","4","","","","","","","",""
"pit-trial","83","633952","0.0-2.0-17.0-2.0","battery-v0.2","","""event"",""trial"",""time""
""fullscreenenter"",""1"",""1362""
","
","
","""event"",""trial"",""time""
""fullscreenenter"",""1"",""1362""
","
","","","1277.6000000089407","","","16","20961","2695","&#9789;","elianto","#f73b6a7A"," "," ","1","0","[2132.6000000089407,2852,3322.5,3693.5]","4","0","4","","","","","","","",""
"pit-trial","84","637435","0.0-2.0-17.0-3.0","battery-v0.2","","""event"",""trial"",""time""
""fullscreenenter"",""1"",""1362""
","
","
","""event"",""trial"",""time""
""fullscreenenter"",""1"",""1362""
","
","","","618.7000000029802","","","16","20961","2695","&#9789;","elianto","#f73b6a7A"," "," ","1","-10","[449.40000000596046,1469.2000000029802]","2","0","4","","","","","","","",""
"pit-trial","85","641051","0.0-2.0-17.0-4.0","battery-v0.2","","""event"",""trial"",""time""
""fullscreenenter"",""1"",""1362""
","
","
","""event"",""trial"",""time""
""fullscreenenter"",""1"",""1362""
","
","","","750.5","","","16","20961","2695","&#9789;","elianto","#f73b6a7A"," "," ","1","0","[1602.5,1881.3999999910593,2143.8999999910593]","3","0","4","","","","","","","",""
"pit-trial","86","645208","0.0-2.0-17.1-0.1","battery-v0.2","","""event"",""trial"",""time""
""fullscreenenter"",""1"",""1362""
","
","
","""event"",""trial"",""time""
""fullscreenenter"",""1"",""1362""
","
","","","1295.6000000089407","","","16","20961","2695","&#9789;","elianto","#f73b6a7A"," "," ","1","0","[2150.1000000089407,2599,2814.7000000029802,3688.7999999970198,4081.9000000059605]","5","0","4","","","","","","","",""
"pit-trial","87","648327","0.0-2.0-17.1-1.1","battery-v0.2","","""event"",""trial"",""time""
""fullscreenenter"",""1"",""1362""
","
","
","""event"",""trial"",""time""
""fullscreenenter"",""1"",""1362""
","
","","","266","","","16","20961","2695","&#9789;","elianto","#f73b6a7A"," "," ","1","0","[219.5,636.5,1116.3999999910593,1942.5999999940395,2652.7999999970198,3039.5]","6","0","4","","","","","","","",""
"pit-trial","88","651254","0.0-2.0-17.1-2.1","battery-v0.2","","""event"",""trial"",""time""
""fullscreenenter"",""1"",""1362""
","
","
","""event"",""trial"",""time""
""fullscreenenter"",""1"",""1362""
","
","","","74.69999998807907","","","16","20961","2695","&#9789;","elianto","#f73b6a7A"," "," ","1","0","[213.79999999701977,553.7999999970198,925.7999999970198,1180.2999999970198,1427.5,1621.7000000029802,1937,2347.7999999970198,2702.2000000029802]","9","0","4","","","","","","","",""
"pit-trial","89","654228","0.0-2.0-17.1-3.1","battery-v0.2","","""event"",""trial"",""time""
""fullscreenenter"",""1"",""1362""
","
","
","""event"",""trial"",""time""
""fullscreenenter"",""1"",""1362""
","
","","","122.1000000089407","","","16","20961","2695","&#9789;","elianto","#f73b6a7A"," "," ","1","-10","[91.09999999403954,392.69999998807907,972.1999999880791,1545.2999999970198,1868.699999988079,2425.8999999910593,2904.8999999910593]","7","0","4","","","","","","","",""
"pit-trial","90","657728","0.0-2.0-17.1-4.1","battery-v0.2","","""event"",""trial"",""time""
""fullscreenenter"",""1"",""1362""
","
","
","""event"",""trial"",""time""
""fullscreenenter"",""1"",""1362""
","
","","","648.7999999970198","","","16","20961","2695","&#9789;","elianto","#f73b6a7A"," "," ","1","0","[223.6000000089407,1499.1000000089407,1778.800000011921]","3","0","4","","","","","","","",""
"pit-trial","91","660695","0.0-2.0-17.2-0.2","battery-v0.2","","""event"",""trial"",""time""
""fullscreenenter"",""1"",""1362""
","
","
","""event"",""trial"",""time""
""fullscreenenter"",""1"",""1362""
","
","","","113.5","","","16","20961","2695","&#9789;","elianto","#f73b6a7A"," "," ","1","0","[965.2000000029802,1182.7000000029802]","2","0","4","","","","","","","",""
"pit-trial","92","663671","0.0-2.0-17.2-1.2","battery-v0.2","","""event"",""trial"",""time""
""fullscreenenter"",""1"",""1362""
","
","
","""event"",""trial"",""time""
""fullscreenenter"",""1"",""1362""
","
","","","122.79999999701977","","","16","20961","2695","&#9789;","elianto","#f73b6a7A"," "," ","1","0","[486.6000000089407,727.6000000089407,973.4000000059605,1190.2999999970198,1375.7000000029802,1592.2000000029802,1932.6000000089407]","7","0","4","","","","","","","",""
"pit-trial","93","666816","0.0-2.0-17.2-2.2","battery-v0.2","","""event"",""trial"",""time""
""fullscreenenter"",""1"",""1362""
","
","
","""event"",""trial"",""time""
""fullscreenenter"",""1"",""1362""
","
","","","293.40000000596046","","","16","20961","2695","&#9789;","elianto","#f73b6a7A"," "," ","1","0","[802.7999999970198,1143.4000000059605,1420.7999999970198,2772.7999999970198]","4","0","4","","","","","","","",""
"pit-trial","94","670100","0.0-2.0-17.2-3.2","battery-v0.2","","""event"",""trial"",""time""
""fullscreenenter"",""1"",""1362""
","
","
","""event"",""trial"",""time""
""fullscreenenter"",""1"",""1362""
","
","","","430.09999999403954","","","16","20961","2695","&#9789;","elianto","#f73b6a7A"," "," ","1","-10","[68,632.1000000089407,1281.7000000029802]","3","0","4","","","","","","","",""
"pit-trial","95","674953","0.0-2.0-17.2-4.2","battery-v0.2","","""event"",""trial"",""time""
""fullscreenenter"",""1"",""1362""
","
","
","""event"",""trial"",""time""
""fullscreenenter"",""1"",""1362""
","
","","","-1","","","16","20961","2695","&#9789;","elianto","#f73b6a7A"," ","-1","0","-10","[]","0","0","4","","","","","","","",""
"pit-trial","96","679805","0.0-2.0-17.3-0.3","battery-v0.2","","""event"",""trial"",""time""
""fullscreenenter"",""1"",""1362""
","
","
","""event"",""trial"",""time""
""fullscreenenter"",""1"",""1362""
","
","","","-1","","","16","20961","2695","&#9789;","elianto","#f73b6a7A"," ","-1","0","-10","[]","0","0","4","","","","","","","",""
"pit-trial","97","684658","0.0-2.0-17.3-1.3","battery-v0.2","","""event"",""trial"",""time""
""fullscreenenter"",""1"",""1362""
","
","
","""event"",""trial"",""time""
""fullscreenenter"",""1"",""1362""
","
","","","-1","","","16","20961","2695","&#9789;","elianto","#f73b6a7A"," ","-1","0","-10","[]","0","0","4","","","","","","","",""
"pit-trial","98","689509","0.0-2.0-17.3-2.3","battery-v0.2","","""event"",""trial"",""time""
""fullscreenenter"",""1"",""1362""
","
","
","""event"",""trial"",""time""
""fullscreenenter"",""1"",""1362""
","
","","","-1","","","16","20961","2695","&#9789;","elianto","#f73b6a7A"," ","-1","0","-10","[]","0","0","4","","","","","","","",""
"pit-trial","99","694362","0.0-2.0-17.3-3.3","battery-v0.2","","""event"",""trial"",""time""
""fullscreenenter"",""1"",""1362""
","
","
","""event"",""trial"",""time""
""fullscreenenter"",""1"",""1362""
","
","","","-1","","","16","20961","2695","&#9789;","elianto","#f73b6a7A"," ","-1","0","0","[]","0","0","4","","","","","","","",""
"pit-trial","100","699215","0.0-2.0-17.3-4.3","battery-v0.2","","""event"",""trial"",""time""
""fullscreenenter"",""1"",""1362""
","
","
","""event"",""trial"",""time""
""fullscreenenter"",""1"",""1362""
","
","","","-1","","","16","20961","2695","&#9789;","elianto","#f73b6a7A"," ","-1","0","-10","[]","0","0","4","","","","","","","",""
"call-function","101","699216","0.0-2.0-18.0","battery-v0.2","","""event"",""trial"",""time""
""fullscreenenter"",""1"",""1362""
","
","
","""event"",""trial"",""time""
""fullscreenenter"",""1"",""1362""
","
","","","","","","","","","","","","","","","","","","","","","","","","","","",""
"pit-instructions","102","781385","0.0-2.0-19.0","battery-v0.2","","""event"",""trial"",""time""
""fullscreenenter"",""1"",""1362""
","
","
","""event"",""trial"",""time""
""fullscreenenter"",""1"",""1362""
","
","","[{""page_index"":0,""viewing_time"":7879.5},{""page_index"":1,""viewing_time"":7998.29999999702},{""page_index"":2,""viewing_time"":20247.20000000298},{""page_index"":3,""viewing_time"":8404.29999999702},{""page_index"":4,""viewing_time"":8839.40000000596},{""page_index"":5,""viewing_time"":8387.09999999404},{""page_index"":6,""viewing_time"":10468.90000000596},{""page_index"":7,""viewing_time"":6101.5999999940395},{""page_index"":8,""viewing_time"":3842.5999999940395}]","82169.09999999404","","","","","","","","","","","","","","","","","","","","","","","",""
"pit-comprehension","103","785423","0.0-2.0-20.0-0.0","battery-v0.2","","""event"",""trial"",""time""
""fullscreenenter"",""1"",""1362""
","
","
","""event"",""trial"",""time""
""fullscreenenter"",""1"",""1362""
","
","","","4035.7000000029802","[""SPACE""]","0","16","20961","2695","","","","","","","","","","","","","","","","","","",""
"pit-instructions","104","789034","0.0-2.0-20.0-1.0","battery-v0.2","","""event"",""trial"",""time""
""fullscreenenter"",""1"",""1362""
","
","
","""event"",""trial"",""time""
""fullscreenenter"",""1"",""1362""
","
","","[{""page_index"":0,""viewing_time"":3591.2000000029802}]","3591.5","","","","","","","","","","","","","","","","","","","","","","","",""
"pit-comprehension","105","793836","0.0-2.0-21.0-0.0","battery-v0.2","","""event"",""trial"",""time""
""fullscreenenter"",""1"",""1362""
","
","
","""event"",""trial"",""time""
""fullscreenenter"",""1"",""1362""
","
","","","4799.70000000298","[""10""]","0","16","20961","2695","","","","","","","","","","","","","","","","","","",""
"pit-instructions","106","795780","0.0-2.0-21.0-1.0","battery-v0.2","","""event"",""trial"",""time""
""fullscreenenter"",""1"",""1362""
","
","
","""event"",""trial"",""time""
""fullscreenenter"",""1"",""1362""
","
","","[{""page_index"":0,""viewing_time"":1924.0999999940395}]","1924.4000000059605","","","","","","","","","","","","","","","","","","","","","","","",""
"pit-comprehension","107","802163","0.0-2.0-22.0-0.0","battery-v0.2","","""event"",""trial"",""time""
""fullscreenenter"",""1"",""1362""
","
","
","""event"",""trial"",""time""
""fullscreenenter"",""1"",""1362""
","
","","","6381.5999999940395","[""-10""]","1","16","20961","2695","","","","","","","","","","","","","","","","","","",""
"pit-instructions","108","808902","0.0-2.0-22.0-1.0","battery-v0.2","","""event"",""trial"",""time""
""fullscreenenter"",""1"",""1362""
","
","
","""event"",""trial"",""time""
""fullscreenenter"",""1"",""1362""
","
","","[{""page_index"":0,""viewing_time"":6715.9000000059605}]","6716.20000000298","","","","","","","","","","","","","","","","","","","","","","","",""
"pit-instructions","109","811378","0.0-2.0-22.0-2.0-0.0","battery-v0.2","","""event"",""trial"",""time""
""fullscreenenter"",""1"",""1362""
","
","
","""event"",""trial"",""time""
""fullscreenenter"",""1"",""1362""
","
","","[{""page_index"":0,""viewing_time"":2475}]","2475.0999999940395","","","","","","","","","","","","","","","","","","","","","","","",""
"pit-comprehension","110","817694","0.0-2.0-22.1-0.1","battery-v0.2","","""event"",""trial"",""time""
""fullscreenenter"",""1"",""1362""
","
","
","""event"",""trial"",""time""
""fullscreenenter"",""1"",""1362""
","
","","","6314.20000000298","[""0""]","0","16","20961","2695","","","","","","","","","","","","","","","","","","",""
"pit-instructions","111","819206","0.0-2.0-22.1-1.1","battery-v0.2","","""event"",""trial"",""time""
""fullscreenenter"",""1"",""1362""
","
","
","""event"",""trial"",""time""
""fullscreenenter"",""1"",""1362""
","
","","[{""page_index"":0,""viewing_time"":1486.8999999910593}]","1487.2999999970198","","","","","","","","","","","","","","","","","","","","","","","",""
"pit-comprehension","112","827608","0.0-2.0-23.0-0.0","battery-v0.2","","""event"",""trial"",""time""
""fullscreenenter"",""1"",""1362""
","
","
","""event"",""trial"",""time""
""fullscreenenter"",""1"",""1362""
","
","","","8401","[""True""]","0","16","20961","2695","","","","","","","","","","","","","","","","","","",""
"pit-instructions","113","829105","0.0-2.0-23.0-1.0","battery-v0.2","","""event"",""trial"",""time""
""fullscreenenter"",""1"",""1362""
","
","
","""event"",""trial"",""time""
""fullscreenenter"",""1"",""1362""
","
","","[{""page_index"":0,""viewing_time"":1475.0999999940395}]","1475.2999999970198","","","","","","","","","","","","","","","","","","","","","","","",""
"pit-comprehension","114","836421","0.0-2.0-24.0-0.0","battery-v0.2","","""event"",""trial"",""time""
""fullscreenenter"",""1"",""1362""
","
","
","""event"",""trial"",""time""
""fullscreenenter"",""1"",""1362""
","
","","","7315.0999999940395","[""True""]","0","16","20961","2695","","","","","","","","","","","","","","","","","","",""
"pit-instructions","115","838708","0.0-2.0-24.0-1.0","battery-v0.2","","""event"",""trial"",""time""
""fullscreenenter"",""1"",""1362""
","
","
","""event"",""trial"",""time""
""fullscreenenter"",""1"",""1362""
","
","","[{""page_index"":0,""viewing_time"":2262.5999999940395}]","2262.8999999910593","","","","","","","","","","","","","","","","","","","","","","","",""
"pit-comprehension","116","845291","0.0-2.0-25.0-0.0","battery-v0.2","","""event"",""trial"",""time""
""fullscreenenter"",""1"",""1362""
","
","
","""event"",""trial"",""time""
""fullscreenenter"",""1"",""1362""
","
","","","6580.79999999702","[""True""]","0","16","20961","2695","","","","","","","","","","","","","","","","","","",""
"pit-instructions","117","847078","0.0-2.0-25.0-1.0","battery-v0.2","","""event"",""trial"",""time""
""fullscreenenter"",""1"",""1362""
","
","
","""event"",""trial"",""time""
""fullscreenenter"",""1"",""1362""
","
","","[{""page_index"":0,""viewing_time"":1764.4000000059605}]","1764.6000000089407","","","","","","","","","","","","","","","","","","","","","","","",""
"pit-comprehension","118","853583","0.0-2.0-26.0-0.0","battery-v0.2","","""event"",""trial"",""time""
""fullscreenenter"",""1"",""1362""
","
","
","""event"",""trial"",""time""
""fullscreenenter"",""1"",""1362""
","
","","","6503.5","[""True""]","1","16","20961","2695","","","","","","","","","","","","","","","","","","",""
"pit-instructions","119","857415","0.0-2.0-26.0-1.0","battery-v0.2","","""event"",""trial"",""time""
""fullscreenenter"",""1"",""1362""
","
","
","""event"",""trial"",""time""
""fullscreenenter"",""1"",""1362""
","
","","[{""page_index"":0,""viewing_time"":3806.5999999940395}]","3806.9000000059605","","","","","","","","","","","","","","","","","","","","","","","",""
"pit-instructions","120","860842","0.0-2.0-26.0-2.0-0.0","battery-v0.2","","""event"",""trial"",""time""
""fullscreenenter"",""1"",""1362""
","
","
","""event"",""trial"",""time""
""fullscreenenter"",""1"",""1362""
","
","","[{""page_index"":0,""viewing_time"":3426.7999999970198}]","3427","","","","","","","","","","","","","","","","","","","","","","","",""
"pit-comprehension","121","865202","0.0-2.0-26.1-0.1","battery-v0.2","","""event"",""trial"",""time""
""fullscreenenter"",""1"",""1362""
","
","
","""event"",""trial"",""time""
""fullscreenenter"",""1"",""1362""
","
","","","4357.79999999702","[""False""]","0","16","20961","2695","","","","","","","","","","","","","","","","","","",""
"pit-instructions","122","866768","0.0-2.0-26.1-1.1","battery-v0.2","","""event"",""trial"",""time""
""fullscreenenter"",""1"",""1362""
","
","
","""event"",""trial"",""time""
""fullscreenenter"",""1"",""1362""
","
","","[{""page_index"":0,""viewing_time"":1540.800000011921}]","1541.1000000089407","","","","","","","","","","","","","","","","","","","","","","","",""
"pit-instructions","123","882864","0.0-3.0","battery-v0.2","","""event"",""trial"",""time""
""fullscreenenter"",""1"",""1362""
","
","
","""event"",""trial"",""time""
""fullscreenenter"",""1"",""1362""
","
","","[{""page_index"":0,""viewing_time"":3426.9000000059605},{""page_index"":1,""viewing_time"":5307.199999988079},{""page_index"":2,""viewing_time"":7360.9000000059605}]","16095.20000000298","","","","","","","","","","","","","","","","","","","","","","","",""
"pit-trial","124","886662","0.0-4.0","battery-v0.2","","""event"",""trial"",""time""
""fullscreenenter"",""1"",""1362""
","
","
","""event"",""trial"",""time""
""fullscreenenter"",""1"",""1362""
","
","","","937","","","16","20961","2695","&#9733;","elianto","#3366ff99","-1"," ","0","0","[1790.3999999910593]","1","1","","","20961","1","2","2","win","no-go","0"
"pit-trial","125","889846","0.0-5.0","battery-v0.2","","""event"",""trial"",""time""
""fullscreenenter"",""1"",""1362""
","
","
","""event"",""trial"",""time""
""fullscreenenter"",""1"",""1362""
","
","","","317.29999999701977","","","16","20961","2695","&#9752;","elianto","#f73b6a7A"," "," ","1","-10","[1167.9000000059605]","1","1","","","20961","2","3","3","lose","go","1"
"pit-trial","126","894714","0.0-6.0","battery-v0.2","","""event"",""trial"",""time""
""fullscreenenter"",""1"",""1362""
","
","
","""event"",""trial"",""time""
""fullscreenenter"",""1"",""1362""
","
","","","-1","","","16","20961","2695","&#9728;","elianto","#f73b6a7A","-1","-1","1","0","[]","0","1","","","20961","3","0","4","lose","no-go","0"
"pit-trial","127","898307","0.0-7.0","battery-v0.2","","""event"",""trial"",""time""
""fullscreenenter"",""1"",""1362""
","
","
","""event"",""trial"",""time""
""fullscreenenter"",""1"",""1362""
","
","","","734","","","16","20961","2695","&#9730;","elianto","#3366ff99"," "," ","1","+10","[1584.6000000089407]","1","1","","","20961","4","1","1","win","go","0"
"pit-trial","128","901682","0.0-8.0","battery-v0.2","","""event"",""trial"",""time""
""fullscreenenter"",""1"",""1362""
","
","
","""event"",""trial"",""time""
""fullscreenenter"",""1"",""1362""
","
","","","510.30000001192093","","","16","20961","2695","&#9733;","elianto","#3366ff99","-1"," ","0","+10","[1360.7000000029802]","1","1","","","20961","5","2","2","win","no-go","1"
"pit-trial","129","905104","0.0-9.0","battery-v0.2","","""event"",""trial"",""time""
""fullscreenenter"",""1"",""1362""
","
","
","""event"",""trial"",""time""
""fullscreenenter"",""1"",""1362""
","
","","","555.9000000059605","","","16","20961","2695","&#9730;","elianto","#3366ff99"," "," ","1","+10","[1408.5]","1","1","","","20961","6","1","1","win","go","0"
"pit-trial","130","909974","0.0-10.0","battery-v0.2","","""event"",""trial"",""time""
""fullscreenenter"",""1"",""1362""
","
","
","""event"",""trial"",""time""
""fullscreenenter"",""1"",""1362""
","
","","","-1","","","16","20961","2695","&#9752;","elianto","#f73b6a7A"," ","-1","0","-10","[]","0","1","","","20961","7","3","3","lose","go","0"
"pit-trial","131","914837","0.0-11.0","battery-v0.2","","""event"",""trial"",""time""
""fullscreenenter"",""1"",""1362""
","
","
","""event"",""trial"",""time""
""fullscreenenter"",""1"",""1362""
","
","","","-1","","","16","20961","2695","&#9728;","elianto","#f73b6a7A","-1","-1","1","0","[]","0","1","","","20961","8","0","4","lose","no-go","0"
"pit-trial","132","919691","0.0-12.0","battery-v0.2","","""event"",""trial"",""time""
""fullscreenenter"",""1"",""1362""
","
","
","""event"",""trial"",""time""
""fullscreenenter"",""1"",""1362""
","
","","","-1","","","16","20961","2695","&#9752;","elianto","#f73b6a7A"," ","-1","0","0","[]","0","1","","","20961","9","3","3","lose","go","1"
"pit-trial","133","923265","0.0-13.0","battery-v0.2","","""event"",""trial"",""time""
""fullscreenenter"",""1"",""1362""
","
","
","""event"",""trial"",""time""
""fullscreenenter"",""1"",""1362""
","
","","","722.5","","","16","20961","2695","&#9730;","elianto","#3366ff99"," "," ","1","+10","[1572.8999999910593]","1","1","","","20961","10","1","1","win","go","0"
"pit-trial","134","926688","0.0-14.0","battery-v0.2","","""event"",""trial"",""time""
""fullscreenenter"",""1"",""1362""
","
","
","""event"",""trial"",""time""
""fullscreenenter"",""1"",""1362""
","
","","","570.5999999940395","","","16","20961","2695","&#9733;","elianto","#3366ff99","-1"," ","0","0","[1421]","1","1","","","20961","11","2","2","win","no-go","0"
"pit-trial","135","930730","0.0-15.0","battery-v0.2","","""event"",""trial"",""time""
""fullscreenenter"",""1"",""1362""
","
","
","""event"",""trial"",""time""
""fullscreenenter"",""1"",""1362""
","
","","","1189.7000000029802","","","16","20961","2695","&#9728;","elianto","#f73b6a7A","-1"," ","0","-10","[2039.7999999970198]","1","1","","","20961","12","0","4","lose","no-go","0"
"pit-trial","136","934485","0.0-16.0","battery-v0.2","","""event"",""trial"",""time""
""fullscreenenter"",""1"",""1362""
","
","
","""event"",""trial"",""time""
""fullscreenenter"",""1"",""1362""
","
","","","903","","","16","20961","2695","&#9728;","elianto","#f73b6a7A","-1"," ","0","-10","[1753.5]","1","1","","","20961","13","0","4","lose","no-go","0"
"pit-trial","137","938156","0.0-17.0","battery-v0.2","","""event"",""trial"",""time""
""fullscreenenter"",""1"",""1362""
","
","
","""event"",""trial"",""time""
""fullscreenenter"",""1"",""1362""
","
","","","819.2000000029802","","","16","20961","2695","&#9733;","elianto","#3366ff99","-1"," ","0","0","[1669.0999999940395]","1","1","","","20961","14","2","2","win","no-go","0"
"pit-trial","138","943008","0.0-18.0","battery-v0.2","","""event"",""trial"",""time""
""fullscreenenter"",""1"",""1362""
","
","
","""event"",""trial"",""time""
""fullscreenenter"",""1"",""1362""
","
","","","-1","","","16","20961","2695","&#9752;","elianto","#f73b6a7A"," ","-1","0","-10","[]","0","1","","","20961","15","3","3","lose","go","0"
"pit-trial","139","946423","0.0-19.0","battery-v0.2","","""event"",""trial"",""time""
""fullscreenenter"",""1"",""1362""
","
","
","""event"",""trial"",""time""
""fullscreenenter"",""1"",""1362""
","
","","","562","","","16","20961","2695","&#9730;","elianto","#3366ff99"," "," ","1","+10","[1412.2999999970198]","1","1","","","20961","16","1","1","win","go","0"
"pit-trial","140","950270","0.0-20.0","battery-v0.2","","""event"",""trial"",""time""
""fullscreenenter"",""1"",""1362""
","
","
","""event"",""trial"",""time""
""fullscreenenter"",""1"",""1362""
","
","","","995.2999999970198","","","16","20961","2695","&#9752;","elianto","#f73b6a7A"," "," ","1","0","[1845.4000000059605]","1","1","","","20961","17","3","3","lose","go","0"
"pit-trial","141","954875","0.0-21.0","battery-v0.2","","""event"",""trial"",""time""
""fullscreenenter"",""1"",""1362""
","
","
","""event"",""trial"",""time""
""fullscreenenter"",""1"",""1362""
","
","","","1752.5999999940395","","","16","20961","2695","&#9730;","elianto","#3366ff99"," "," ","1","+10","[2603.0999999940395,3762.2000000029802,4226.79999999702]","3","1","","","20961","18","1","1","win","go","0"
"pit-trial","142","957981","0.0-22.0","battery-v0.2","","""event"",""trial"",""time""
""fullscreenenter"",""1"",""1362""
","
","
","""event"",""trial"",""time""
""fullscreenenter"",""1"",""1362""
","
","","","253.29999999701977","","","16","20961","2695","&#9733;","elianto","#3366ff99","-1"," ","0","+10","[694.9000000059605,1103.9000000059605]","2","1","","","20961","19","2","2","win","no-go","1"
"pit-trial","143","962833","0.0-23.0","battery-v0.2","","""event"",""trial"",""time""
""fullscreenenter"",""1"",""1362""
","
","
","""event"",""trial"",""time""
""fullscreenenter"",""1"",""1362""
","
","","","-1","","","16","20961","2695","&#9728;","elianto","#f73b6a7A","-1","-1","1","0","[741.7000000029802]","1","1","","","20961","20","0","4","lose","no-go","0"
"pit-instructions","144","975020","0.0-24.0","battery-v0.2","","""event"",""trial"",""time""
""fullscreenenter"",""1"",""1362""
","
","
","""event"",""trial"",""time""
""fullscreenenter"",""1"",""1362""
","
","","[{""page_index"":0,""viewing_time"":5404},{""page_index"":1,""viewing_time"":6781.70000000298}]","12185.89999999106","","","","","","","","","","","","","","","","","","","","","","","",""
"pit-trial","145","978520","0.0-25.0","battery-v0.2","","""event"",""trial"",""time""
""fullscreenenter"",""1"",""1362""
","
","
","""event"",""trial"",""time""
""fullscreenenter"",""1"",""1362""
","
","","","639.0999999940395","","","16","20961","2695","l","elianto","#3366ff99","-1"," ","0","0","[1490.2000000029802]","1","2","","","20961","21","1","2","win","no-go","0"
"pit-trial","146","982262","0.0-26.0","battery-v0.2","","""event"",""trial"",""time""
""fullscreenenter"",""1"",""1362""
","
","
","""event"",""trial"",""time""
""fullscreenenter"",""1"",""1362""
","
","","","886.2000000029802","","","16","20961","2695","a","elianto","#f73b6a7A"," "," ","1","-10","[1740.0999999940395]","1","2","","","20961","22","2","3","lose","go","1"
"pit-trial","147","986151","0.0-27.0","battery-v0.2","","""event"",""trial"",""time""
""fullscreenenter"",""1"",""1362""
","
","
","""event"",""trial"",""time""
""fullscreenenter"",""1"",""1362""
","
","","","1028.699999988079","","","16","20961","2695","g","elianto","#f73b6a7A","-1"," ","0","-10","[1883.2999999970198]","1","2","","","20961","23","3","4","lose","no-go","0"
"pit-trial","148","990787","0.0-28.0","battery-v0.2","","""event"",""trial"",""time""
""fullscreenenter"",""1"",""1362""
","
","
","""event"",""trial"",""time""
""fullscreenenter"",""1"",""1362""
","
","","","1772.3999999910593","","","16","20961","2695","u","elianto","#f73b6a7A"," "," ","1","0","[2622.5999999940395]","1","2","","","20961","24","0","3","lose","go","0"
"pit-trial","149","995667","0.0-29.0","battery-v0.2","","""event"",""trial"",""time""
""fullscreenenter"",""1"",""1362""
","
","
","""event"",""trial"",""time""
""fullscreenenter"",""1"",""1362""
","
","","","-1","","","16","20961","2695","g","elianto","#f73b6a7A","-1","-1","1","0","[]","0","2","","","20961","25","3","4","lose","no-go","0"
"pit-trial","150","1000538","0.0-30.0","battery-v0.2","","""event"",""trial"",""time""
""fullscreenenter"",""1"",""1362""
","
","
","""event"",""trial"",""time""
""fullscreenenter"",""1"",""1362""
","
","","","-1","","","16","20961","2695","u","elianto","#f73b6a7A"," ","-1","0","-10","[]","0","2","","","20961","26","0","3","lose","go","0"
"pit-trial","151","1005405","0.0-31.0","battery-v0.2","","""event"",""trial"",""time""
""fullscreenenter"",""1"",""1362""
","
","
","""event"",""trial"",""time""
""fullscreenenter"",""1"",""1362""
","
","","","-1","","","16","20961","2695","a","elianto","#f73b6a7A"," ","-1","0","0","[]","0","2","","","20961","27","2","3","lose","go","1"
"pit-trial","152","1009196","0.0-32.0","battery-v0.2","","""event"",""trial"",""time""
""fullscreenenter"",""1"",""1362""
","
","
","""event"",""trial"",""time""
""fullscreenenter"",""1"",""1362""
","
","","","938.0999999940395","","","16","20961","2695","l","elianto","#3366ff99","-1"," ","0","0","[1789.0999999940395]","1","2","","","20961","28","1","2","win","no-go","0"
"pit-trial","153","1014049","0.0-33.0","battery-v0.2","","""event"",""trial"",""time""
""fullscreenenter"",""1"",""1362""
","
","
","""event"",""trial"",""time""
""fullscreenenter"",""1"",""1362""
","
","","","-1","","","16","20961","2695","a","elianto","#f73b6a7A"," ","-1","0","-10","[]","0","2","","","20961","29","2","3","lose","go","0"
"pit-trial","154","1018043","0.0-34.0","battery-v0.2","","""event"",""trial"",""time""
""fullscreenenter"",""1"",""1362""
","
","
","""event"",""trial"",""time""
""fullscreenenter"",""1"",""1362""
","
","","","1141.199999988079","","","16","20961","2695","u","elianto","#f73b6a7A"," "," ","1","0","[1991.9000000059605]","1","2","","","20961","30","0","3","lose","go","0"
"pit-trial","155","1022896","0.0-35.0","battery-v0.2","","""event"",""trial"",""time""
""fullscreenenter"",""1"",""1362""
","
","
","""event"",""trial"",""time""
""fullscreenenter"",""1"",""1362""
","
","","","-1","","","16","20961","2695","g","elianto","#f73b6a7A","-1","-1","1","0","[]","0","2","","","20961","31","3","4","lose","no-go","0"
"pit-trial","156","1027749","0.0-36.0","battery-v0.2","","""event"",""trial"",""time""
""fullscreenenter"",""1"",""1362""
","
","
","""event"",""trial"",""time""
""fullscreenenter"",""1"",""1362""
","
","","","-1","","","16","20961","2695","l","elianto","#3366ff99","-1","-1","1","+10","[]","0","2","","","20961","32","1","2","win","no-go","0"
"pit-trial","157","1032601","0.0-37.0","battery-v0.2","","""event"",""trial"",""time""
""fullscreenenter"",""1"",""1362""
","
","
","""event"",""trial"",""time""
""fullscreenenter"",""1"",""1362""
","
","","","-1","","","16","20961","2695","g","elianto","#f73b6a7A","-1","-1","1","0","[]","0","2","","","20961","33","3","4","lose","no-go","0"
"pit-trial","158","1037453","0.0-38.0","battery-v0.2","","""event"",""trial"",""time""
""fullscreenenter"",""1"",""1362""
","
","
","""event"",""trial"",""time""
""fullscreenenter"",""1"",""1362""
","
","","","-1","","","16","20961","2695","l","elianto","#3366ff99","-1","-1","1","+10","[]","0","2","","","20961","34","1","2","win","no-go","0"
"pit-trial","159","1042306","0.0-39.0","battery-v0.2","","""event"",""trial"",""time""
""fullscreenenter"",""1"",""1362""
","
","
","""event"",""trial"",""time""
""fullscreenenter"",""1"",""1362""
","
","","","-1","","","16","20961","2695","a","elianto","#f73b6a7A"," ","-1","0","-10","[]","0","2","","","20961","35","2","3","lose","go","0"
"pit-trial","160","1046153","0.0-40.0","battery-v0.2","","""event"",""trial"",""time""
""fullscreenenter"",""1"",""1362""
","
","
","""event"",""trial"",""time""
""fullscreenenter"",""1"",""1362""
","
","","","994.8999999910593","","","16","20961","2695","u","elianto","#f73b6a7A"," "," ","1","0","[1845.4000000059605]","1","2","","","20961","36","0","3","lose","go","0"
"pit-trial","161","1051009","0.0-41.0","battery-v0.2","","""event"",""trial"",""time""
""fullscreenenter"",""1"",""1362""
","
","
","""event"",""trial"",""time""
""fullscreenenter"",""1"",""1362""
","
","","","-1","","","16","20961","2695","l","elianto","#3366ff99","-1","-1","1","0","[]","0","2","","","20961","37","1","2","win","no-go","1"
"pit-trial","162","1055862","0.0-42.0","battery-v0.2","","""event"",""trial"",""time""
""fullscreenenter"",""1"",""1362""
","
","
","""event"",""trial"",""time""
""fullscreenenter"",""1"",""1362""
","
","","","-1","","","16","20961","2695","g","elianto","#f73b6a7A","-1","-1","1","0","[]","0","2","","","20961","38","3","4","lose","no-go","0"
"pit-trial","163","1060007","0.0-43.0","battery-v0.2","","""event"",""trial"",""time""
""fullscreenenter"",""1"",""1362""
","
","
","""event"",""trial"",""time""
""fullscreenenter"",""1"",""1362""
","
","","","1292.5999999940395","","","16","20961","2695","a","elianto","#f73b6a7A"," "," ","1","-10","[2142.7000000029802]","1","2","","","20961","39","2","3","lose","go","1"
"pit-trial","164","1064859","0.0-44.0","battery-v0.2","","""event"",""trial"",""time""
""fullscreenenter"",""1"",""1362""
","
","
","""event"",""trial"",""time""
""fullscreenenter"",""1"",""1362""
","
","","","-1","","","16","20961","2695","u","elianto","#f73b6a7A"," ","-1","0","-10","[]","0","2","","","20961","40","0","3","lose","go","0"
"pit-trial","165","1069711","0.0-45.0","battery-v0.2","","""event"",""trial"",""time""
""fullscreenenter"",""1"",""1362""
","
","
","""event"",""trial"",""time""
""fullscreenenter"",""1"",""1362""
","
","","","-1","","","16","20961","2695","l","elianto","#3366ff99","-1","-1","1","0","[]","0","2","","","20961","41","1","2","win","no-go","1"
"pit-trial","166","1074564","0.0-46.0","battery-v0.2","","""event"",""trial"",""time""
""fullscreenenter"",""1"",""1362""
","
","
","""event"",""trial"",""time""
""fullscreenenter"",""1"",""1362""
","
","","","-1","","","16","20961","2695","g","elianto","#f73b6a7A","-1","-1","1","0","[]","0","2","","","20961","42","3","4","lose","no-go","0"
"pit-trial","167","1079416","0.0-47.0","battery-v0.2","","""event"",""trial"",""time""
""fullscreenenter"",""1"",""1362""
","
","
","""event"",""trial"",""time""
""fullscreenenter"",""1"",""1362""
","
","","","-1","","","16","20961","2695","u","elianto","#f73b6a7A"," ","-1","0","-10","[]","0","2","","","20961","43","0","3","lose","go","0"
"pit-trial","168","1084268","0.0-48.0","battery-v0.2","","""event"",""trial"",""time""
""fullscreenenter"",""1"",""1362""
","
","
","""event"",""trial"",""time""
""fullscreenenter"",""1"",""1362""
","
","","","-1","","","16","20961","2695","a","elianto","#f73b6a7A"," ","-1","0","-10","[]","0","2","","","20961","44","2","3","lose","go","0"
"pit-trial","169","1089122","0.0-49.0","battery-v0.2","","""event"",""trial"",""time""
""fullscreenenter"",""1"",""1362""
","
","
","""event"",""trial"",""time""
""fullscreenenter"",""1"",""1362""
","
","","","-1","","","16","20961","2695","l","elianto","#3366ff99","-1","-1","1","+10","[]","0","2","","","20961","45","1","2","win","no-go","0"
"pit-trial","170","1093975","0.0-50.0","battery-v0.2","","""event"",""trial"",""time""
""fullscreenenter"",""1"",""1362""
","
","
","""event"",""trial"",""time""
""fullscreenenter"",""1"",""1362""
","
","","","-1","","","16","20961","2695","g","elianto","#f73b6a7A","-1","-1","1","-10","[]","0","2","","","20961","46","3","4","lose","no-go","1"
"pit-trial","171","1097374","0.0-51.0","battery-v0.2","","""event"",""trial"",""time""
""fullscreenenter"",""1"",""1362""
","
","
","""event"",""trial"",""time""
""fullscreenenter"",""1"",""1362""
","
","","","545","","","16","20961","2695","u","elianto","#f73b6a7A"," "," ","1","0","[1395.7999999970198]","1","2","","","20961","47","0","3","lose","go","0"
"pit-trial","172","1100758","0.0-52.0","battery-v0.2","","""event"",""trial"",""time""
""fullscreenenter"",""1"",""1362""
","
","
","""event"",""trial"",""time""
""fullscreenenter"",""1"",""1362""
","
","","","530.8999999910593","","","16","20961","2695","a","elianto","#f73b6a7A"," "," ","1","0","[1381.7000000029802]","1","2","","","20961","48","2","3","lose","go","0"
"pit-trial","173","1105610","0.0-53.0","battery-v0.2","","""event"",""trial"",""time""
""fullscreenenter"",""1"",""1362""
","
","
","""event"",""trial"",""time""
""fullscreenenter"",""1"",""1362""
","
","","","-1","","","16","20961","2695","g","elianto","#f73b6a7A","-1","-1","1","-10","[]","0","2","","","20961","49","3","4","lose","no-go","1"
"pit-trial","174","1110462","0.0-54.0","battery-v0.2","","""event"",""trial"",""time""
""fullscreenenter"",""1"",""1362""
","
","
","""event"",""trial"",""time""
""fullscreenenter"",""1"",""1362""
","
","","","-1","","","16","20961","2695","l","elianto","#3366ff99","-1","-1","1","+10","[]","0","2","","","20961","50","1","2","win","no-go","0"
"pit-trial","175","1114263","0.0-55.0","battery-v0.2","","""event"",""trial"",""time""
""fullscreenenter"",""1"",""1362""
","
","
","""event"",""trial"",""time""
""fullscreenenter"",""1"",""1362""
","
","","","948.5999999940395","","","16","20961","2695","u","elianto","#f73b6a7A"," "," ","1","-10","[1798.8999999910593]","1","2","","","20961","51","0","3","lose","go","1"
"pit-trial","176","1117654","0.0-56.0","battery-v0.2","","""event"",""trial"",""time""
""fullscreenenter"",""1"",""1362""
","
","
","""event"",""trial"",""time""
""fullscreenenter"",""1"",""1362""
","
","","","540","","","16","20961","2695","a","elianto","#f73b6a7A"," "," ","1","0","[1390.4000000059605]","1","2","","","20961","52","2","3","lose","go","0"
"pit-trial","177","1121998","0.0-57.0","battery-v0.2","","""event"",""trial"",""time""
""fullscreenenter"",""1"",""1362""
","
","
","""event"",""trial"",""time""
""fullscreenenter"",""1"",""1362""
","
","","","1491.2999999970198","","","16","20961","2695","a","elianto","#f73b6a7A"," "," ","1","0","[2341.7999999970198]","1","2","","","20961","53","2","3","lose","go","0"
"pit-trial","178","1126850","0.0-58.0","battery-v0.2","","""event"",""trial"",""time""
""fullscreenenter"",""1"",""1362""
","
","
","""event"",""trial"",""time""
""fullscreenenter"",""1"",""1362""
","
","","","-1","","","16","20961","2695","l","elianto","#3366ff99","-1","-1","1","+10","[]","0","2","","","20961","54","1","2","win","no-go","0"
"pit-trial","179","1131703","0.0-59.0","battery-v0.2","","""event"",""trial"",""time""
""fullscreenenter"",""1"",""1362""
","
","
","""event"",""trial"",""time""
""fullscreenenter"",""1"",""1362""
","
","","","-1","","","16","20961","2695","g","elianto","#f73b6a7A","-1","-1","1","0","[]","0","2","","","20961","55","3","4","lose","no-go","0"
"pit-trial","180","1136569","0.0-60.0","battery-v0.2","","""event"",""trial"",""time""
""fullscreenenter"",""1"",""1362""
","
","
","""event"",""trial"",""time""
""fullscreenenter"",""1"",""1362""
","
","","","-1","","","16","20961","2695","u","elianto","#f73b6a7A"," ","-1","0","-10","[]","0","2","","","20961","56","0","3","lose","go","0"
"pit-trial","181","1141421","0.0-61.0","battery-v0.2","","""event"",""trial"",""time""
""fullscreenenter"",""1"",""1362""
","
","
","""event"",""trial"",""time""
""fullscreenenter"",""1"",""1362""
","
","","","-1","","","16","20961","2695","g","elianto","#f73b6a7A","-1","-1","1","0","[]","0","2","","","20961","57","3","4","lose","no-go","0"
"pit-trial","182","1145247","0.0-62.0","battery-v0.2","","""event"",""trial"",""time""
""fullscreenenter"",""1"",""1362""
","
","
","""event"",""trial"",""time""
""fullscreenenter"",""1"",""1362""
","
","","","973.2999999970198","","","16","20961","2695","a","elianto","#f73b6a7A"," "," ","1","-10","[1824.1000000089407]","1","2","","","20961","58","2","3","lose","go","1"
"pit-trial","183","1150069","0.0-63.0","battery-v0.2","","""event"",""trial"",""time""
""fullscreenenter"",""1"",""1362""
","
","
","""event"",""trial"",""time""
""fullscreenenter"",""1"",""1362""
","
","","","1969.9000000059605","","","16","20961","2695","p","elianto","#3366ff99"," "," ","1","0","[2820.2000000029802]","1","2","","","20961","59","4","1","win","go","1"
"pit-trial","184","1154081","0.0-64.0","battery-v0.2","","""event"",""trial"",""time""
""fullscreenenter"",""1"",""1362""
","
","
","""event"",""trial"",""time""
""fullscreenenter"",""1"",""1362""
","
","","","1158","","","16","20961","2695","u","elianto","#f73b6a7A"," "," ","1","-10","[2009]","1","2","","","20961","60","0","3","lose","go","1"
"pit-trial","185","1158592","0.0-65.0","battery-v0.2","","""event"",""trial"",""time""
""fullscreenenter"",""1"",""1362""
","
","
","""event"",""trial"",""time""
""fullscreenenter"",""1"",""1362""
","
","","","1658.800000011921","","","16","20961","2695","a","elianto","#f73b6a7A"," "," ","1","-10","[2509]","1","2","","","20961","61","2","3","lose","go","1"
"pit-trial","186","1163445","0.0-66.0","battery-v0.2","","""event"",""trial"",""time""
""fullscreenenter"",""1"",""1362""
","
","
","""event"",""trial"",""time""
""fullscreenenter"",""1"",""1362""
","
","","","-1","","","16","20961","2695","p","elianto","#3366ff99"," ","-1","0","0","[]","0","2","","","20961","62","4","1","win","go","0"
"pit-trial","187","1168298","0.0-67.0","battery-v0.2","","""event"",""trial"",""time""
""fullscreenenter"",""1"",""1362""
","
","
","""event"",""trial"",""time""
""fullscreenenter"",""1"",""1362""
","
","","","-1","","","16","20961","2695","g","elianto","#f73b6a7A","-1","-1","1","-10","[]","0","2","","","20961","63","3","4","lose","no-go","1"
"pit-trial","188","1173151","0.0-68.0","battery-v0.2","","""event"",""trial"",""time""
""fullscreenenter"",""1"",""1362""
","
","
","""event"",""trial"",""time""
""fullscreenenter"",""1"",""1362""
","
","","","-1","","","16","20961","2695","l","elianto","#3366ff99","-1","-1","1","+10","[]","0","2","","","20961","64","1","2","win","no-go","0"
"pit-trial","189","1178004","0.0-69.0","battery-v0.2","","""event"",""trial"",""time""
""fullscreenenter"",""1"",""1362""
","
","
","""event"",""trial"",""time""
""fullscreenenter"",""1"",""1362""
","
","","","-1","","","16","20961","2695","l","elianto","#3366ff99","-1","-1","1","+10","[]","0","2","","","20961","65","1","2","win","no-go","0"
"pit-trial","190","1182857","0.0-70.0","battery-v0.2","","""event"",""trial"",""time""
""fullscreenenter"",""1"",""1362""
","
","
","""event"",""trial"",""time""
""fullscreenenter"",""1"",""1362""
","
","","","-1","","","16","20961","2695","g","elianto","#f73b6a7A","-1","-1","1","0","[]","0","2","","","20961","66","3","4","lose","no-go","0"
"pit-trial","191","1187056","0.0-71.0","battery-v0.2","","""event"",""trial"",""time""
""fullscreenenter"",""1"",""1362""
","
","
","""event"",""trial"",""time""
""fullscreenenter"",""1"",""1362""
","
","","","1346.2999999970198","","","16","20961","2695","s","elianto","#3366ff99","-1"," ","0","0","[2197.0999999940395]","1","2","","","20961","67","5","2","win","no-go","0"
"pit-trial","192","1191066","0.0-72.0","battery-v0.2","","""event"",""trial"",""time""
""fullscreenenter"",""1"",""1362""
","
","
","""event"",""trial"",""time""
""fullscreenenter"",""1"",""1362""
","
","","","1157.2000000029802","","","16","20961","2695","p","elianto","#3366ff99"," "," ","1","+10","[2008.2000000029802]","1","2","","","20961","68","4","1","win","go","0"
"pit-trial","193","1195920","0.0-73.0","battery-v0.2","","""event"",""trial"",""time""
""fullscreenenter"",""1"",""1362""
","
","
","""event"",""trial"",""time""
""fullscreenenter"",""1"",""1362""
","
","","","-1","","","16","20961","2695","l","elianto","#3366ff99","-1","-1","1","+10","[]","0","2","","","20961","69","1","2","win","no-go","0"
"pit-trial","194","1200146","0.0-74.0","battery-v0.2","","""event"",""trial"",""time""
""fullscreenenter"",""1"",""1362""
","
","
","""event"",""trial"",""time""
""fullscreenenter"",""1"",""1362""
","
","","","1373.699999988079","","","16","20961","2695","p","elianto","#3366ff99"," "," ","1","+10","[2224.0999999940395]","1","2","","","20961","70","4","1","win","go","0"
"pit-trial","195","1204611","0.0-75.0","battery-v0.2","","""event"",""trial"",""time""
""fullscreenenter"",""1"",""1362""
","
","
","""event"",""trial"",""time""
""fullscreenenter"",""1"",""1362""
","
","","","1613","","","16","20961","2695","a","elianto","#f73b6a7A"," "," ","1","0","[2463.4000000059605]","1","2","","","20961","71","2","3","lose","go","0"
"pit-trial","196","1208630","0.0-76.0","battery-v0.2","","""event"",""trial"",""time""
""fullscreenenter"",""1"",""1362""
","
","
","""event"",""trial"",""time""
""fullscreenenter"",""1"",""1362""
","
","","","1167.5","","","16","20961","2695","s","elianto","#3366ff99","-1"," ","0","0","[2017.7999999970198]","1","2","","","20961","72","5","2","win","no-go","0"
"pit-trial","197","1213497","0.0-77.0","battery-v0.2","","""event"",""trial"",""time""
""fullscreenenter"",""1"",""1362""
","
","
","""event"",""trial"",""time""
""fullscreenenter"",""1"",""1362""
","
","","","-1","","","16","20961","2695","s","elianto","#3366ff99","-1","-1","1","+10","[3159.3999999910593]","1","2","","","20961","73","5","2","win","no-go","0"
"pit-trial","198","1218350","0.0-78.0","battery-v0.2","","""event"",""trial"",""time""
""fullscreenenter"",""1"",""1362""
","
","
","""event"",""trial"",""time""
""fullscreenenter"",""1"",""1362""
","
","","","-1","","","16","20961","2695","g","elianto","#f73b6a7A","-1","-1","1","0","[]","0","2","","","20961","74","3","4","lose","no-go","0"
"pit-trial","199","1223203","0.0-79.0","battery-v0.2","","""event"",""trial"",""time""
""fullscreenenter"",""1"",""1362""
","
","
","""event"",""trial"",""time""
""fullscreenenter"",""1"",""1362""
","
","","","-1","","","16","20961","2695","l","elianto","#3366ff99","-1","-1","1","+10","[]","0","2","","","20961","75","1","2","win","no-go","0"
"pit-trial","200","1228055","0.0-80.0","battery-v0.2","","""event"",""trial"",""time""
""fullscreenenter"",""1"",""1362""
","
","
","""event"",""trial"",""time""
""fullscreenenter"",""1"",""1362""
","
","","","-1","","","16","20961","2695","p","elianto","#3366ff99"," ","-1","0","0","[4789.5]","1","2","","","20961","76","4","1","win","go","0"
"pit-trial","201","1231701","0.0-81.0","battery-v0.2","","""event"",""trial"",""time""
""fullscreenenter"",""1"",""1362""
","
","
","""event"",""trial"",""time""
""fullscreenenter"",""1"",""1362""
","
","","","794.1000000089407","","","16","20961","2695","p","elianto","#3366ff99"," "," ","1","+10","[1644.5999999940395]","1","2","","","20961","77","4","1","win","go","0"
"pit-trial","202","1236555","0.0-82.0","battery-v0.2","","""event"",""trial"",""time""
""fullscreenenter"",""1"",""1362""
","
","
","""event"",""trial"",""time""
""fullscreenenter"",""1"",""1362""
","
","","","-1","","","16","20961","2695","g","elianto","#f73b6a7A","-1","-1","1","0","[]","0","2","","","20961","78","3","4","lose","no-go","0"
"pit-trial","203","1240186","0.0-83.0","battery-v0.2","","""event"",""trial"",""time""
""fullscreenenter"",""1"",""1362""
","
","
","""event"",""trial"",""time""
""fullscreenenter"",""1"",""1362""
","
","","","778.7999999970198","","","16","20961","2695","p","elianto","#3366ff99"," "," ","1","+10","[1629.5999999940395]","1","2","","","20961","79","4","1","win","go","0"
"pit-trial","204","1243724","0.0-84.0","battery-v0.2","","""event"",""trial"",""time""
""fullscreenenter"",""1"",""1362""
","
","
","""event"",""trial"",""time""
""fullscreenenter"",""1"",""1362""
","
","","","686.2999999970198","","","16","20961","2695","s","elianto","#3366ff99","-1"," ","0","0","[1536.8999999910593]","1","2","","","20961","80","5","2","win","no-go","0"
"pit-trial","205","1247727","0.0-85.0","battery-v0.2","","""event"",""trial"",""time""
""fullscreenenter"",""1"",""1362""
","
","
","""event"",""trial"",""time""
""fullscreenenter"",""1"",""1362""
","
","","","1147.5","","","16","20961","2695","s","elianto","#3366ff99","-1"," ","0","0","[2000.7999999970198]","1","2","","","20961","81","5","2","win","no-go","0"
"pit-trial","206","1252581","0.0-86.0","battery-v0.2","","""event"",""trial"",""time""
""fullscreenenter"",""1"",""1362""
","
","
","""event"",""trial"",""time""
""fullscreenenter"",""1"",""1362""
","
","","","-1","","","16","20961","2695","e","elianto","#f73b6a7A","-1","-1","1","-10","[]","0","2","","","20961","82","7","4","lose","no-go","1"
"pit-trial","207","1256496","0.0-87.0","battery-v0.2","","""event"",""trial"",""time""
""fullscreenenter"",""1"",""1362""
","
","
","""event"",""trial"",""time""
""fullscreenenter"",""1"",""1362""
","
","","","1063.1000000089407","","","16","20961","2695","p","elianto","#3366ff99"," "," ","1","+10","[1913.6000000089407]","1","2","","","20961","83","4","1","win","go","0"
"pit-trial","208","1261349","0.0-88.0","battery-v0.2","","""event"",""trial"",""time""
""fullscreenenter"",""1"",""1362""
","
","
","""event"",""trial"",""time""
""fullscreenenter"",""1"",""1362""
","
","","","-1","","","16","20961","2695","g","elianto","#f73b6a7A","-1","-1","1","0","[]","0","2","","","20961","84","3","4","lose","no-go","0"
"pit-trial","209","1264996","0.0-89.0","battery-v0.2","","""event"",""trial"",""time""
""fullscreenenter"",""1"",""1362""
","
","
","""event"",""trial"",""time""
""fullscreenenter"",""1"",""1362""
","
","","","794.3999999910593","","","16","20961","2695","p","elianto","#3366ff99"," "," ","1","+10","[1644.5]","1","2","","","20961","85","4","1","win","go","0"
"pit-trial","210","1268558","0.0-90.0","battery-v0.2","","""event"",""trial"",""time""
""fullscreenenter"",""1"",""1362""
","
","
","""event"",""trial"",""time""
""fullscreenenter"",""1"",""1362""
","
","","","708.5","","","16","20961","2695","s","elianto","#3366ff99","-1"," ","0","0","[1559.5]","1","2","","","20961","86","5","2","win","no-go","0"
"pit-trial","211","1272452","0.0-91.0","battery-v0.2","","""event"",""trial"",""time""
""fullscreenenter"",""1"",""1362""
","
","
","""event"",""trial"",""time""
""fullscreenenter"",""1"",""1362""
","
","","","1041.6000000089407","","","16","20961","2695","w","elianto","#f73b6a7A"," "," ","1","0","[1892.2999999970198]","1","2","","","20961","87","6","3","lose","go","0"
"pit-trial","212","1277304","0.0-92.0","battery-v0.2","","""event"",""trial"",""time""
""fullscreenenter"",""1"",""1362""
","
","
","""event"",""trial"",""time""
""fullscreenenter"",""1"",""1362""
","
","","","-1","","","16","20961","2695","e","elianto","#f73b6a7A","-1","-1","1","0","[]","0","2","","","20961","88","7","4","lose","no-go","0"
"pit-trial","213","1282157","0.0-93.0","battery-v0.2","","""event"",""trial"",""time""
""fullscreenenter"",""1"",""1362""
","
","
","""event"",""trial"",""time""
""fullscreenenter"",""1"",""1362""
","
","","","-1","","","16","20961","2695","s","elianto","#3366ff99","-1","-1","1","0","[]","0","2","","","20961","89","5","2","win","no-go","1"
"pit-trial","214","1287009","0.0-94.0","battery-v0.2","","""event"",""trial"",""time""
""fullscreenenter"",""1"",""1362""
","
","
","""event"",""trial"",""time""
""fullscreenenter"",""1"",""1362""
","
","","","-1","","","16","20961","2695","w","elianto","#f73b6a7A"," ","-1","0","-10","[]","0","2","","","20961","90","6","3","lose","go","0"
"pit-trial","215","1290741","0.0-95.0","battery-v0.2","","""event"",""trial"",""time""
""fullscreenenter"",""1"",""1362""
","
","
","""event"",""trial"",""time""
""fullscreenenter"",""1"",""1362""
","
","","","879","","","16","20961","2695","p","elianto","#3366ff99"," "," ","1","0","[1729.7999999970198]","1","2","","","20961","91","4","1","win","go","1"
"pit-trial","216","1295608","0.0-96.0","battery-v0.2","","""event"",""trial"",""time""
""fullscreenenter"",""1"",""1362""
","
","
","""event"",""trial"",""time""
""fullscreenenter"",""1"",""1362""
","
","","","-1","","","16","20961","2695","e","elianto","#f73b6a7A","-1","-1","1","0","[]","0","2","","","20961","92","7","4","lose","no-go","0"
"pit-trial","217","1299911","0.0-97.0","battery-v0.2","","""event"",""trial"",""time""
""fullscreenenter"",""1"",""1362""
","
","
","""event"",""trial"",""time""
""fullscreenenter"",""1"",""1362""
","
","","","1451.2000000029802","","","16","20961","2695","w","elianto","#f73b6a7A"," "," ","1","0","[2301.7999999970198]","1","2","","","20961","93","6","3","lose","go","0"
"pit-trial","218","1304764","0.0-98.0","battery-v0.2","","""event"",""trial"",""time""
""fullscreenenter"",""1"",""1362""
","
","
","""event"",""trial"",""time""
""fullscreenenter"",""1"",""1362""
","
","","","-1","","","16","20961","2695","e","elianto","#f73b6a7A","-1","-1","1","-10","[]","0","2","","","20961","94","7","4","lose","no-go","1"
"pit-trial","219","1309031","0.0-99.0","battery-v0.2","","""event"",""trial"",""time""
""fullscreenenter"",""1"",""1362""
","
","
","""event"",""trial"",""time""
""fullscreenenter"",""1"",""1362""
","
","","","1413.8999999910593","","","16","20961","2695","d","elianto","#3366ff99"," "," ","1","+10","[2264.3999999910593]","1","2","","","20961","95","8","1","win","go","0"
"pit-trial","220","1312777","0.0-100.0","battery-v0.2","","""event"",""trial"",""time""
""fullscreenenter"",""1"",""1362""
","
","
","""event"",""trial"",""time""
""fullscreenenter"",""1"",""1362""
","
","","","893.7999999970198","","","16","20961","2695","s","elianto","#3366ff99","-1"," ","0","0","[1744.2000000029802]","1","2","","","20961","96","5","2","win","no-go","0"
"pit-trial","221","1316694","0.0-101.0","battery-v0.2","","""event"",""trial"",""time""
""fullscreenenter"",""1"",""1362""
","
","
","""event"",""trial"",""time""
""fullscreenenter"",""1"",""1362""
","
","","","1065.199999988079","","","16","20961","2695","s","elianto","#3366ff99","-1"," ","0","0","[1916.2999999970198]","1","2","","","20961","97","5","2","win","no-go","0"
"pit-trial","222","1320852","0.0-102.0","battery-v0.2","","""event"",""trial"",""time""
""fullscreenenter"",""1"",""1362""
","
","
","""event"",""trial"",""time""
""fullscreenenter"",""1"",""1362""
","
","","","1305","","","16","20961","2695","d","elianto","#3366ff99"," "," ","1","0","[2155.7999999970198]","1","2","","","20961","98","8","1","win","go","1"
"pit-trial","223","1325209","0.0-103.0","battery-v0.2","","""event"",""trial"",""time""
""fullscreenenter"",""1"",""1362""
","
","
","""event"",""trial"",""time""
""fullscreenenter"",""1"",""1362""
","
","","","1504.6000000089407","","","16","20961","2695","w","elianto","#f73b6a7A"," "," ","1","0","[2355.4000000059605]","1","2","","","20961","99","6","3","lose","go","0"
"pit-trial","224","1330062","0.0-104.0","battery-v0.2","","""event"",""trial"",""time""
""fullscreenenter"",""1"",""1362""
","
","
","""event"",""trial"",""time""
""fullscreenenter"",""1"",""1362""
","
","","","-1","","","16","20961","2695","e","elianto","#f73b6a7A","-1","-1","1","0","[]","0","2","","","20961","100","7","4","lose","no-go","0"
"pit-trial","225","1333987","0.0-105.0","battery-v0.2","","""event"",""trial"",""time""
""fullscreenenter"",""1"",""1362""
","
","
","""event"",""trial"",""time""
""fullscreenenter"",""1"",""1362""
","
","","","1073","","","16","20961","2695","j","elianto","#3366ff99"," "," ","1","+10","[1923.2999999970198]","1","2","","","20961","101","9","1","win","go","0"
"pit-trial","226","1338159","0.0-106.0","battery-v0.2","","""event"",""trial"",""time""
""fullscreenenter"",""1"",""1362""
","
","
","""event"",""trial"",""time""
""fullscreenenter"",""1"",""1362""
","
","","","1319.4000000059605","","","16","20961","2695","d","elianto","#3366ff99"," "," ","1","+10","[2169.7999999970198]","1","2","","","20961","102","8","1","win","go","0"
"pit-trial","227","1343012","0.0-107.0","battery-v0.2","","""event"",""trial"",""time""
""fullscreenenter"",""1"",""1362""
","
","
","""event"",""trial"",""time""
""fullscreenenter"",""1"",""1362""
","
","","","-1","","","16","20961","2695","s","elianto","#3366ff99","-1","-1","1","+10","[]","0","2","","","20961","103","5","2","win","no-go","0"
"pit-trial","228","1347687","0.0-108.0","battery-v0.2","","""event"",""trial"",""time""
""fullscreenenter"",""1"",""1362""
","
","
","""event"",""trial"",""time""
""fullscreenenter"",""1"",""1362""
","
","","","1823","","","16","20961","2695","e","elianto","#f73b6a7A","-1"," ","0","-10","[2673.1000000089407]","1","2","","","20961","104","7","4","lose","no-go","0"
"pit-trial","229","1351487","0.0-109.0","battery-v0.2","","""event"",""trial"",""time""
""fullscreenenter"",""1"",""1362""
","
","
","""event"",""trial"",""time""
""fullscreenenter"",""1"",""1362""
","
","","","946.4000000059605","","","16","20961","2695","j","elianto","#3366ff99"," "," ","1","0","[1798.2000000029802]","1","2","","","20961","105","9","1","win","go","1"
"pit-trial","230","1355266","0.0-110.0","battery-v0.2","","""event"",""trial"",""time""
""fullscreenenter"",""1"",""1362""
","
","
","""event"",""trial"",""time""
""fullscreenenter"",""1"",""1362""
","
","","","926.7999999970198","","","16","20961","2695","d","elianto","#3366ff99"," "," ","1","+10","[1776.7999999970198]","1","2","","","20961","106","8","1","win","go","0"
"pit-trial","231","1360118","0.0-111.0","battery-v0.2","","""event"",""trial"",""time""
""fullscreenenter"",""1"",""1362""
","
","
","""event"",""trial"",""time""
""fullscreenenter"",""1"",""1362""
","
","","","-1","","","16","20961","2695","w","elianto","#f73b6a7A"," ","-1","0","-10","[]","0","2","","","20961","107","6","3","lose","go","0"
"pit-trial","232","1363859","0.0-112.0","battery-v0.2","","""event"",""trial"",""time""
""fullscreenenter"",""1"",""1362""
","
","
","""event"",""trial"",""time""
""fullscreenenter"",""1"",""1362""
","
","","","888.4000000059605","","","16","20961","2695","p","elianto","#3366ff99"," "," ","1","+10","[1739]","1","2","","","20961","108","4","1","win","go","0"
"pit-trial","233","1367551","0.0-113.0","battery-v0.2","","""event"",""trial"",""time""
""fullscreenenter"",""1"",""1362""
","
","
","""event"",""trial"",""time""
""fullscreenenter"",""1"",""1362""
","
","","","839.4000000059605","","","16","20961","2695","d","elianto","#3366ff99"," "," ","1","+10","[1690.1000000089407]","1","2","","","20961","109","8","1","win","go","0"
"pit-trial","234","1372403","0.0-114.0","battery-v0.2","","""event"",""trial"",""time""
""fullscreenenter"",""1"",""1362""
","
","
","""event"",""trial"",""time""
""fullscreenenter"",""1"",""1362""
","
","","","-1","","","16","20961","2695","s","elianto","#3366ff99","-1","-1","1","+10","[]","0","2","","","20961","110","5","2","win","no-go","0"
"pit-trial","235","1377255","0.0-115.0","battery-v0.2","","""event"",""trial"",""time""
""fullscreenenter"",""1"",""1362""
","
","
","""event"",""trial"",""time""
""fullscreenenter"",""1"",""1362""
","
","","","-1","","","16","20961","2695","j","elianto","#3366ff99"," ","-1","0","0","[]","0","2","","","20961","111","9","1","win","go","0"
"pit-trial","236","1381444","0.0-116.0","battery-v0.2","","""event"",""trial"",""time""
""fullscreenenter"",""1"",""1362""
","
","
","""event"",""trial"",""time""
""fullscreenenter"",""1"",""1362""
","
","","","1336.6000000089407","","","16","20961","2695","w","elianto","#f73b6a7A"," "," ","1","-10","[2187.2999999970198]","1","2","","","20961","112","6","3","lose","go","1"
"pit-trial","237","1386296","0.0-117.0","battery-v0.2","","""event"",""trial"",""time""
""fullscreenenter"",""1"",""1362""
","
","
","""event"",""trial"",""time""
""fullscreenenter"",""1"",""1362""
","
","","","-1","","","16","20961","2695","s","elianto","#3366ff99","-1","-1","1","0","[]","0","2","","","20961","113","5","2","win","no-go","1"
"pit-trial","238","1391150","0.0-118.0","battery-v0.2","","""event"",""trial"",""time""
""fullscreenenter"",""1"",""1362""
","
","
","""event"",""trial"",""time""
""fullscreenenter"",""1"",""1362""
","
","","","-1","","","16","20961","2695","d","elianto","#3366ff99"," ","-1","0","0","[3060.699999988079]","1","2","","","20961","114","8","1","win","go","0"
"pit-trial","239","1394595","0.0-119.0","battery-v0.2","","""event"",""trial"",""time""
""fullscreenenter"",""1"",""1362""
","
","
","""event"",""trial"",""time""
""fullscreenenter"",""1"",""1362""
","
","","","593.5","","","16","20961","2695","w","elianto","#f73b6a7A"," "," ","1","0","[1443.7999999970198]","1","2","","","20961","115","6","3","lose","go","0"
"pit-trial","240","1398127","0.0-120.0","battery-v0.2","","""event"",""trial"",""time""
""fullscreenenter"",""1"",""1362""
","
","
","""event"",""trial"",""time""
""fullscreenenter"",""1"",""1362""
","
","","","679","","","16","20961","2695","j","elianto","#3366ff99"," "," ","1","+10","[1529.2999999970198]","1","2","","","20961","116","9","1","win","go","0"
"pit-trial","241","1402083","0.0-121.0","battery-v0.2","","""event"",""trial"",""time""
""fullscreenenter"",""1"",""1362""
","
","
","""event"",""trial"",""time""
""fullscreenenter"",""1"",""1362""
","
","","","1103.4000000059605","","","16","20961","2695","j","elianto","#3366ff99"," "," ","1","+10","[1954.1000000089407]","1","2","","","20961","117","9","1","win","go","0"
"pit-trial","242","1405722","0.0-122.0","battery-v0.2","","""event"",""trial"",""time""
""fullscreenenter"",""1"",""1362""
","
","
","""event"",""trial"",""time""
""fullscreenenter"",""1"",""1362""
","
","","","786.5999999940395","","","16","20961","2695","d","elianto","#3366ff99"," "," ","1","+10","[1636.7000000029802]","1","2","","","20961","118","8","1","win","go","0"
"pit-trial","243","1410575","0.0-123.0","battery-v0.2","","""event"",""trial"",""time""
""fullscreenenter"",""1"",""1362""
","
","
","""event"",""trial"",""time""
""fullscreenenter"",""1"",""1362""
","
","","","-1","","","16","20961","2695","s","elianto","#3366ff99","-1","-1","1","+10","[]","0","2","","","20961","119","5","2","win","no-go","0"
"pit-trial","244","1414632","0.0-124.0","battery-v0.2","","""event"",""trial"",""time""
""fullscreenenter"",""1"",""1362""
","
","
","""event"",""trial"",""time""
""fullscreenenter"",""1"",""1362""
","
","","","1204.6000000089407","","","16","20961","2695","w","elianto","#f73b6a7A"," "," ","1","0","[2055]","1","2","","","20961","120","6","3","lose","go","0"
"pit-trial","245","1419495","0.0-125.0","battery-v0.2","","""event"",""trial"",""time""
""fullscreenenter"",""1"",""1362""
","
","
","""event"",""trial"",""time""
""fullscreenenter"",""1"",""1362""
","
","","","-1","","","16","20961","2695","w","elianto","#f73b6a7A"," ","-1","0","-10","[]","0","2","","","20961","121","6","3","lose","go","0"
"pit-trial","246","1424349","0.0-126.0","battery-v0.2","","""event"",""trial"",""time""
""fullscreenenter"",""1"",""1362""
","
","
","""event"",""trial"",""time""
""fullscreenenter"",""1"",""1362""
","
","","","-1","","","16","20961","2695","j","elianto","#3366ff99"," ","-1","0","0","[]","0","2","","","20961","122","9","1","win","go","0"
"pit-trial","247","1429202","0.0-127.0","battery-v0.2","","""event"",""trial"",""time""
""fullscreenenter"",""1"",""1362""
","
","
","""event"",""trial"",""time""
""fullscreenenter"",""1"",""1362""
","
","","","-1","","","16","20961","2695","e","elianto","#f73b6a7A","-1","-1","1","0","[]","0","2","","","20961","123","7","4","lose","no-go","0"
"pit-trial","248","1434054","0.0-128.0","battery-v0.2","","""event"",""trial"",""time""
""fullscreenenter"",""1"",""1362""
","
","
","""event"",""trial"",""time""
""fullscreenenter"",""1"",""1362""
","
","","","-1","","","16","20961","2695","d","elianto","#3366ff99"," ","-1","0","0","[3491.9000000059605]","1","2","","","20961","124","8","1","win","go","0"
"pit-trial","249","1438906","0.0-129.0","battery-v0.2","","""event"",""trial"",""time""
""fullscreenenter"",""1"",""1362""
","
","
","""event"",""trial"",""time""
""fullscreenenter"",""1"",""1362""
","
","","","-1","","","16","20961","2695","j","elianto","#3366ff99"," ","-1","0","0","[]","0","2","","","20961","125","9","1","win","go","0"
"pit-trial","250","1442593","0.0-130.0","battery-v0.2","","""event"",""trial"",""time""
""fullscreenenter"",""1"",""1362""
","
","
","""event"",""trial"",""time""
""fullscreenenter"",""1"",""1362""
","
","","","834.7000000029802","","","16","20961","2695","d","elianto","#3366ff99"," "," ","1","+10","[1684.800000011921]","1","2","","","20961","126","8","1","win","go","0"
"pit-trial","251","1447447","0.0-131.0","battery-v0.2","","""event"",""trial"",""time""
""fullscreenenter"",""1"",""1362""
","
","
","""event"",""trial"",""time""
""fullscreenenter"",""1"",""1362""
","
","","","-1","","","16","20961","2695","e","elianto","#f73b6a7A","-1","-1","1","0","[3668.2000000029802]","1","2","","","20961","127","7","4","lose","no-go","0"
"pit-trial","252","1452300","0.0-132.0","battery-v0.2","","""event"",""trial"",""time""
""fullscreenenter"",""1"",""1362""
","
","
","""event"",""trial"",""time""
""fullscreenenter"",""1"",""1362""
","
","","","-1","","","16","20961","2695","w","elianto","#f73b6a7A"," ","-1","0","0","[]","0","2","","","20961","128","6","3","lose","go","1"
"pit-trial","253","1456863","0.0-133.0","battery-v0.2","","""event"",""trial"",""time""
""fullscreenenter"",""1"",""1362""
","
","
","""event"",""trial"",""time""
""fullscreenenter"",""1"",""1362""
","
","","","1710.7000000029802","","","16","20961","2695","j","elianto","#3366ff99"," "," ","1","+10","[2561.5]","1","2","","","20961","129","9","1","win","go","0"
"pit-trial","254","1461716","0.0-134.0","battery-v0.2","","""event"",""trial"",""time""
""fullscreenenter"",""1"",""1362""
","
","
","""event"",""trial"",""time""
""fullscreenenter"",""1"",""1362""
","
","","","-1","","","16","20961","2695","w","elianto","#f73b6a7A"," ","-1","0","-10","[]","0","2","","","20961","130","6","3","lose","go","0"
"pit-trial","255","1466569","0.0-135.0","battery-v0.2","","""event"",""trial"",""time""
""fullscreenenter"",""1"",""1362""
","
","
","""event"",""trial"",""time""
""fullscreenenter"",""1"",""1362""
","
","","","-1","","","16","20961","2695","e","elianto","#f73b6a7A","-1","-1","1","-10","[]","0","2","","","20961","131","7","4","lose","no-go","1"
"pit-trial","256","1471420","0.0-136.0","battery-v0.2","","""event"",""trial"",""time""
""fullscreenenter"",""1"",""1362""
","
","
","""event"",""trial"",""time""
""fullscreenenter"",""1"",""1362""
","
","","","-1","","","16","20961","2695","d","elianto","#3366ff99"," ","-1","0","0","[]","0","2","","","20961","132","8","1","win","go","0"
"pit-trial","257","1474820","0.0-137.0","battery-v0.2","","""event"",""trial"",""time""
""fullscreenenter"",""1"",""1362""
","
","
","""event"",""trial"",""time""
""fullscreenenter"",""1"",""1362""
","
","","","547.7000000029802","","","16","20961","2695","d","elianto","#3366ff99"," "," ","1","+10","[1398.4000000059605]","1","2","","","20961","133","8","1","win","go","0"
"pit-trial","258","1479673","0.0-138.0","battery-v0.2","","""event"",""trial"",""time""
""fullscreenenter"",""1"",""1362""
","
","
","""event"",""trial"",""time""
""fullscreenenter"",""1"",""1362""
","
","","","-1","","","16","20961","2695","w","elianto","#f73b6a7A"," ","-1","0","-10","[]","0","2","","","20961","134","6","3","lose","go","0"
"pit-trial","259","1484526","0.0-139.0","battery-v0.2","","""event"",""trial"",""time""
""fullscreenenter"",""1"",""1362""
","
","
","""event"",""trial"",""time""
""fullscreenenter"",""1"",""1362""
","
","","","-1","","","16","20961","2695","e","elianto","#f73b6a7A","-1","-1","1","0","[2872.4000000059605]","1","2","","","20961","135","7","4","lose","no-go","0"
"pit-trial","260","1489377","0.0-140.0","battery-v0.2","","""event"",""trial"",""time""
""fullscreenenter"",""1"",""1362""
","
","
","""event"",""trial"",""time""
""fullscreenenter"",""1"",""1362""
","
","","","-1","","","16","20961","2695","j","elianto","#3366ff99"," ","-1","0","0","[]","0","2","","","20961","136","9","1","win","go","0"
"pit-trial","261","1494230","0.0-141.0","battery-v0.2","","""event"",""trial"",""time""
""fullscreenenter"",""1"",""1362""
","
","
","""event"",""trial"",""time""
""fullscreenenter"",""1"",""1362""
","
","","","-1","","","16","20961","2695","j","elianto","#3366ff99"," ","-1","0","0","[4271.79999999702]","1","2","","","20961","137","9","1","win","go","0"
"pit-trial","262","1499083","0.0-142.0","battery-v0.2","","""event"",""trial"",""time""
""fullscreenenter"",""1"",""1362""
","
","
","""event"",""trial"",""time""
""fullscreenenter"",""1"",""1362""
","
","","","-1","","","16","20961","2695","e","elianto","#f73b6a7A","-1","-1","1","0","[3035.4000000059605,3259.5,3476.5]","3","2","","","20961","138","7","4","lose","no-go","0"
"pit-trial","263","1503935","0.0-143.0","battery-v0.2","","""event"",""trial"",""time""
""fullscreenenter"",""1"",""1362""
","
","
","""event"",""trial"",""time""
""fullscreenenter"",""1"",""1362""
","
