"trial_type","trial_index","time_elapsed","internal_node_id","task_version","subject_id","interactions","blur_events","focus_events","fullscreenenter_events","fullscreenexit_events","success","view_history","rt","responses","num_errors","age","subject","participantId","rune","rune_set","hex","correct","choice","accuracy","outcome","keys","total_keys","block","practice","value","sub","trial","stimulus","robot","valence","action","sham"
"pavlovia","0","10","0.0-0.0","battery-v0.2","","""event"",""trial"",""time""
""fullscreenenter"",""1"",""3007""
","
","
","""event"",""trial"",""time""
""fullscreenenter"",""1"",""3007""
","
","","","","","","","","","","","","","","","","","","","","","","","","","","",""
"fullscreen","1","3777","0.0-1.0","battery-v0.2","","""event"",""trial"",""time""
""fullscreenenter"",""1"",""3007""
","
","
","""event"",""trial"",""time""
""fullscreenenter"",""1"",""3007""
","
","true","","","","","","","","","","","","","","","","","","","","","","","","","",""
"pit-instructions","2","8490","0.0-2.0-0.0","battery-v0.2","","""event"",""trial"",""time""
""fullscreenenter"",""1"",""3007""
","
","
","""event"",""trial"",""time""
""fullscreenenter"",""1"",""3007""
","
","","[{""page_index"":0,""viewing_time"":4709}]","4710","","","","","","","","","","","","","","","","","","","","","","","",""
"pit-comprehension","3","14778","0.0-2.0-1.0-0.0","battery-v0.2","","""event"",""trial"",""time""
""fullscreenenter"",""1"",""3007""
","
","
","""event"",""trial"",""time""
""fullscreenenter"",""1"",""3007""
","
","","","6278","[""shark""]","0","25","14075","5941","","","","","","","","","","","","","","","","","","",""
"pit-instructions","4","16839","0.0-2.0-1.0-1.0","battery-v0.2","","""event"",""trial"",""time""
""fullscreenenter"",""1"",""3007""
","
","
","""event"",""trial"",""time""
""fullscreenenter"",""1"",""3007""
","
","","[{""page_index"":0,""viewing_time"":2058}]","2058","","","","","","","","","","","","","","","","","","","","","","","",""
"pit-comprehension","5","20157","0.0-2.0-2.0-0.0","battery-v0.2","","""event"",""trial"",""time""
""fullscreenenter"",""1"",""3007""
","
","
","""event"",""trial"",""time""
""fullscreenenter"",""1"",""3007""
","
","","","3314","[""tiger""]","0","25","14075","5941","","","","","","","","","","","","","","","","","","",""
"pit-instructions","6","21849","0.0-2.0-2.0-1.0","battery-v0.2","","""event"",""trial"",""time""
""fullscreenenter"",""1"",""3007""
","
","
","""event"",""trial"",""time""
""fullscreenenter"",""1"",""3007""
","
","","[{""page_index"":0,""viewing_time"":1689}]","1689","","","","","","","","","","","","","","","","","","","","","","","",""
"pit-instructions","7","128818","0.0-2.0-3.0","battery-v0.2","","""event"",""trial"",""time""
""fullscreenenter"",""1"",""3007""
","
","
","""event"",""trial"",""time""
""fullscreenenter"",""1"",""3007""
","
","","[{""page_index"":0,""viewing_time"":11706},{""page_index"":1,""viewing_time"":7728},{""page_index"":2,""viewing_time"":6775},{""page_index"":3,""viewing_time"":5542},{""page_index"":4,""viewing_time"":5825},{""page_index"":5,""viewing_time"":6072},{""page_index"":6,""viewing_time"":8503},{""page_index"":7,""viewing_time"":6951},{""page_index"":8,""viewing_time"":6348},{""page_index"":9,""viewing_time"":11756},{""page_index"":10,""viewing_time"":8482},{""page_index"":11,""viewing_time"":7297},{""page_index"":12,""viewing_time"":7987},{""page_index"":13,""viewing_time"":5993}]","106967","","","","","","","","","","","","","","","","","","","","","","","",""
"pit-trial","8","132241","0.0-2.0-4.0-0.0","battery-v0.2","","""event"",""trial"",""time""
""fullscreenenter"",""1"",""3007""
","
","
","""event"",""trial"",""time""
""fullscreenenter"",""1"",""3007""
","
","","","552","","","25","14075","5941","&#9784;","elianto","#FFFFF080"," "," ","1","&#10004","[1412]","1","0","0","","","","","","","",""
"pit-trial","9","135522","0.0-2.0-4.1-0.1","battery-v0.2","","""event"",""trial"",""time""
""fullscreenenter"",""1"",""3007""
","
","
","""event"",""trial"",""time""
""fullscreenenter"",""1"",""3007""
","
","","","426","","","25","14075","5941","&#9784;","elianto","#FFFFF080"," "," ","1","&#10004","[1279]","1","0","0","","","","","","","",""
"pit-trial","10","138912","0.0-2.0-4.2-0.2","battery-v0.2","","""event"",""trial"",""time""
""fullscreenenter"",""1"",""3007""
","
","
","""event"",""trial"",""time""
""fullscreenenter"",""1"",""3007""
","
","","","448","","","25","14075","5941","&#9784;","elianto","#FFFFF080"," "," ","1","&#10004","[1305]","1","0","0","","","","","","","",""
"pit-trial","11","142286","0.0-2.0-4.3-0.3","battery-v0.2","","""event"",""trial"",""time""
""fullscreenenter"",""1"",""3007""
","
","
","""event"",""trial"",""time""
""fullscreenenter"",""1"",""3007""
","
","","","513","","","25","14075","5941","&#9784;","elianto","#FFFFF080"," "," ","1","&#10004","[1366]","1","0","0","","","","","","","",""
"pit-trial","12","145656","0.0-2.0-4.4-0.4","battery-v0.2","","""event"",""trial"",""time""
""fullscreenenter"",""1"",""3007""
","
","
","""event"",""trial"",""time""
""fullscreenenter"",""1"",""3007""
","
","","","503","","","25","14075","5941","&#9784;","elianto","#FFFFF080"," "," ","1","&#10004","[1358]","1","0","0","","","","","","","",""
"pit-instructions","13","167921","0.0-2.0-5.0","battery-v0.2","","""event"",""trial"",""time""
""fullscreenenter"",""1"",""3007""
","
","
","""event"",""trial"",""time""
""fullscreenenter"",""1"",""3007""
","
","","[{""page_index"":0,""viewing_time"":5588},{""page_index"":1,""viewing_time"":5704},{""page_index"":2,""viewing_time"":5732},{""page_index"":3,""viewing_time"":5239}]","22263","","","","","","","","","","","","","","","","","","","","","","","",""
"pit-trial","14","172785","0.0-2.0-6.0-0.0","battery-v0.2","","""event"",""trial"",""time""
""fullscreenenter"",""1"",""3007""
","
","
","""event"",""trial"",""time""
""fullscreenenter"",""1"",""3007""
","
","","","-1","","","25","14075","5941","&#9854;","elianto","#FFFFF080","-1","-1","1","&#10004","[]","0","0","1","","","","","","","",""
"pit-trial","15","177649","0.0-2.0-6.1-0.1","battery-v0.2","","""event"",""trial"",""time""
""fullscreenenter"",""1"",""3007""
","
","
","""event"",""trial"",""time""
""fullscreenenter"",""1"",""3007""
","
","","","-1","","","25","14075","5941","&#9854;","elianto","#FFFFF080","-1","-1","1","&#10004","[]","0","0","1","","","","","","","",""
"pit-trial","16","182519","0.0-2.0-6.2-0.2","battery-v0.2","","""event"",""trial"",""time""
""fullscreenenter"",""1"",""3007""
","
","
","""event"",""trial"",""time""
""fullscreenenter"",""1"",""3007""
","
","","","-1","","","25","14075","5941","&#9854;","elianto","#FFFFF080","-1","-1","1","&#10004","[]","0","0","1","","","","","","","",""
"pit-trial","17","187399","0.0-2.0-6.3-0.3","battery-v0.2","","""event"",""trial"",""time""
""fullscreenenter"",""1"",""3007""
","
","
","""event"",""trial"",""time""
""fullscreenenter"",""1"",""3007""
","
","","","-1","","","25","14075","5941","&#9854;","elianto","#FFFFF080","-1","-1","1","&#10004","[]","0","0","1","","","","","","","",""
"pit-trial","18","192266","0.0-2.0-6.4-0.4","battery-v0.2","","""event"",""trial"",""time""
""fullscreenenter"",""1"",""3007""
","
","
","""event"",""trial"",""time""
""fullscreenenter"",""1"",""3007""
","
","","","-1","","","25","14075","5941","&#9854;","elianto","#FFFFF080","-1","-1","1","&#10004","[]","0","0","1","","","","","","","",""
"pit-instructions","19","318819","0.0-2.0-7.0","battery-v0.2","","""event"",""trial"",""time""
""fullscreenenter"",""1"",""3007""
","
","
","""event"",""trial"",""time""
""fullscreenenter"",""1"",""3007""
","
","","[{""page_index"":0,""viewing_time"":5841},{""page_index"":1,""viewing_time"":7492},{""page_index"":2,""viewing_time"":6387},{""page_index"":3,""viewing_time"":7618},{""page_index"":4,""viewing_time"":6780},{""page_index"":5,""viewing_time"":6202},{""page_index"":6,""viewing_time"":5490},{""page_index"":7,""viewing_time"":8927},{""page_index"":8,""viewing_time"":7080},{""page_index"":9,""viewing_time"":6171},{""page_index"":10,""viewing_time"":6701},{""page_index"":11,""viewing_time"":5566},{""page_index"":12,""viewing_time"":6972},{""page_index"":13,""viewing_time"":8136},{""page_index"":14,""viewing_time"":7586},{""page_index"":15,""viewing_time"":7506},{""page_index"":16,""viewing_time"":7418},{""page_index"":17,""viewing_time"":8676}]","126549","","","","","","","","","","","","","","","","","","","","","","","",""
"pit-trial","20","323696","0.0-2.0-8.0-0.0","battery-v0.2","","""event"",""trial"",""time""
""fullscreenenter"",""1"",""3007""
","
","
","""event"",""trial"",""time""
""fullscreenenter"",""1"",""3007""
","
","","","-1","","","25","14075","5941","&#9776;","elianto","#3366ff99"," ","-1","0","0","[]","0","0","1","","","","","","","",""
"pit-trial","21","327059","0.0-2.0-8.0-1.0","battery-v0.2","","""event"",""trial"",""time""
""fullscreenenter"",""1"",""3007""
","
","
","""event"",""trial"",""time""
""fullscreenenter"",""1"",""3007""
","
","","","497","","","25","14075","5941","&#9776;","elianto","#3366ff99"," "," ","1","+10","[1355]","1","0","1","","","","","","","",""
"pit-trial","22","330523","0.0-2.0-8.0-2.0","battery-v0.2","","""event"",""trial"",""time""
""fullscreenenter"",""1"",""3007""
","
","
","""event"",""trial"",""time""
""fullscreenenter"",""1"",""3007""
","
","","","599","","","25","14075","5941","&#9776;","elianto","#3366ff99"," "," ","1","+10","[1458]","1","0","1","","","","","","","",""
"pit-trial","23","334463","0.0-2.0-8.0-3.0","battery-v0.2","","""event"",""trial"",""time""
""fullscreenenter"",""1"",""3007""
","
","
","""event"",""trial"",""time""
""fullscreenenter"",""1"",""3007""
","
","","","1078","","","25","14075","5941","&#9776;","elianto","#3366ff99"," "," ","1","0","[1938]","1","0","1","","","","","","","",""
"pit-trial","24","337943","0.0-2.0-8.0-4.0","battery-v0.2","","""event"",""trial"",""time""
""fullscreenenter"",""1"",""3007""
","
","
","""event"",""trial"",""time""
""fullscreenenter"",""1"",""3007""
","
","","","609","","","25","14075","5941","&#9776;","elianto","#3366ff99"," "," ","1","+10","[1468]","1","0","1","","","","","","","",""
"pit-trial","25","341419","0.0-2.0-8.1-0.1","battery-v0.2","","""event"",""trial"",""time""
""fullscreenenter"",""1"",""3007""
","
","
","""event"",""trial"",""time""
""fullscreenenter"",""1"",""3007""
","
","","","610","","","25","14075","5941","&#9776;","elianto","#3366ff99"," "," ","1","+10","[1464]","1","0","1","","","","","","","",""
"pit-trial","26","344734","0.0-2.0-8.1-1.1","battery-v0.2","","""event"",""trial"",""time""
""fullscreenenter"",""1"",""3007""
","
","
","""event"",""trial"",""time""
""fullscreenenter"",""1"",""3007""
","
","","","444","","","25","14075","5941","&#9776;","elianto","#3366ff99"," "," ","1","+10","[1300]","1","0","1","","","","","","","",""
"pit-trial","27","348129","0.0-2.0-8.1-2.1","battery-v0.2","","""event"",""trial"",""time""
""fullscreenenter"",""1"",""3007""
","
","
","""event"",""trial"",""time""
""fullscreenenter"",""1"",""3007""
","
","","","535","","","25","14075","5941","&#9776;","elianto","#3366ff99"," "," ","1","+10","[1394]","1","0","1","","","","","","","",""
"pit-trial","28","351634","0.0-2.0-8.1-3.1","battery-v0.2","","""event"",""trial"",""time""
""fullscreenenter"",""1"",""3007""
","
","
","""event"",""trial"",""time""
""fullscreenenter"",""1"",""3007""
","
","","","630","","","25","14075","5941","&#9776;","elianto","#3366ff99"," "," ","1","0","[1488]","1","0","1","","","","","","","",""
"pit-trial","29","355063","0.0-2.0-8.1-4.1","battery-v0.2","","""event"",""trial"",""time""
""fullscreenenter"",""1"",""3007""
","
","
","""event"",""trial"",""time""
""fullscreenenter"",""1"",""3007""
","
","","","564","","","25","14075","5941","&#9776;","elianto","#3366ff99"," "," ","1","+10","[1420]","1","0","1","","","","","","","",""
"pit-trial","30","358671","0.0-2.0-8.2-0.2","battery-v0.2","","""event"",""trial"",""time""
""fullscreenenter"",""1"",""3007""
","
","
","""event"",""trial"",""time""
""fullscreenenter"",""1"",""3007""
","
","","","592","","","25","14075","5941","&#9776;","elianto","#3366ff99"," "," ","1","+10","[1453]","1","0","1","","","","","","","",""
"pit-trial","31","362420","0.0-2.0-8.2-1.2","battery-v0.2","","""event"",""trial"",""time""
""fullscreenenter"",""1"",""3007""
","
","
","""event"",""trial"",""time""
""fullscreenenter"",""1"",""3007""
","
","","","825","","","25","14075","5941","&#9776;","elianto","#3366ff99"," "," ","1","+10","[1735]","1","0","1","","","","","","","",""
"pit-trial","32","365965","0.0-2.0-8.2-2.2","battery-v0.2","","""event"",""trial"",""time""
""fullscreenenter"",""1"",""3007""
","
","
","""event"",""trial"",""time""
""fullscreenenter"",""1"",""3007""
","
","","","680","","","25","14075","5941","&#9776;","elianto","#3366ff99"," "," ","1","+10","[1539]","1","0","1","","","","","","","",""
"pit-trial","33","370124","0.0-2.0-8.2-3.2","battery-v0.2","","""event"",""trial"",""time""
""fullscreenenter"",""1"",""3007""
","
","
","""event"",""trial"",""time""
""fullscreenenter"",""1"",""3007""
","
","","","1105","","","25","14075","5941","&#9776;","elianto","#3366ff99"," "," ","1","0","[1962]","1","0","1","","","","","","","",""
"pit-trial","34","373857","0.0-2.0-8.2-4.2","battery-v0.2","","""event"",""trial"",""time""
""fullscreenenter"",""1"",""3007""
","
","
","""event"",""trial"",""time""
""fullscreenenter"",""1"",""3007""
","
","","","803","","","25","14075","5941","&#9776;","elianto","#3366ff99"," "," ","1","+10","[1662]","1","0","1","","","","","","","",""
"call-function","35","373859","0.0-2.0-9.0","battery-v0.2","","""event"",""trial"",""time""
""fullscreenenter"",""1"",""3007""
","
","
","""event"",""trial"",""time""
""fullscreenenter"",""1"",""3007""
","
","","","","","","","","","","","","","","","","","","","","","","","","","","",""
"pit-instructions","36","431650","0.0-2.0-10.0","battery-v0.2","","""event"",""trial"",""time""
""fullscreenenter"",""1"",""3007""
","
","
","""event"",""trial"",""time""
""fullscreenenter"",""1"",""3007""
","
","","[{""page_index"":0,""viewing_time"":6643},{""page_index"":1,""viewing_time"":9184},{""page_index"":2,""viewing_time"":21615},{""page_index"":3,""viewing_time"":11923},{""page_index"":4,""viewing_time"":8424}]","57790","","","","","","","","","","","","","","","","","","","","","","","",""
"pit-trial","37","435532","0.0-2.0-11.0-0.0","battery-v0.2","","""event"",""trial"",""time""
""fullscreenenter"",""1"",""3007""
","
","
","""event"",""trial"",""time""
""fullscreenenter"",""1"",""3007""
","
","","","951","","","25","14075","5941","&#9761;","elianto","#3366ff99","-1"," ","0","0","[1867]","1","0","2","","","","","","","",""
"pit-trial","38","440015","0.0-2.0-11.0-1.0","battery-v0.2","","""event"",""trial"",""time""
""fullscreenenter"",""1"",""3007""
","
","
","""event"",""trial"",""time""
""fullscreenenter"",""1"",""3007""
","
","","","1609","","","25","14075","5941","&#9761;","elianto","#3366ff99","-1"," ","0","0","[2469]","1","0","2","","","","","","","",""
"pit-trial","39","445130","0.0-2.0-11.0-2.0","battery-v0.2","","""event"",""trial"",""time""
""fullscreenenter"",""1"",""3007""
","
","
","""event"",""trial"",""time""
""fullscreenenter"",""1"",""3007""
","
","","","-1","","","25","14075","5941","&#9761;","elianto","#3366ff99","-1","-1","1","+10","[]","0","0","2","","","","","","","",""
"pit-trial","40","450135","0.0-2.0-11.0-3.0","battery-v0.2","","""event"",""trial"",""time""
""fullscreenenter"",""1"",""3007""
","
","
","""event"",""trial"",""time""
""fullscreenenter"",""1"",""3007""
","
","","","-1","","","25","14075","5941","&#9761;","elianto","#3366ff99","-1","-1","1","0","[]","0","0","2","","","","","","","",""
"pit-trial","41","455008","0.0-2.0-11.0-4.0","battery-v0.2","","""event"",""trial"",""time""
""fullscreenenter"",""1"",""3007""
","
","
","""event"",""trial"",""time""
""fullscreenenter"",""1"",""3007""
","
","","","-1","","","25","14075","5941","&#9761;","elianto","#3366ff99","-1","-1","1","+10","[]","0","0","2","","","","","","","",""
"pit-trial","42","459883","0.0-2.0-11.1-0.1","battery-v0.2","","""event"",""trial"",""time""
""fullscreenenter"",""1"",""3007""
","
","
","""event"",""trial"",""time""
""fullscreenenter"",""1"",""3007""
","
","","","-1","","","25","14075","5941","&#9761;","elianto","#3366ff99","-1","-1","1","+10","[]","0","0","2","","","","","","","",""
"pit-trial","43","464754","0.0-2.0-11.1-1.1","battery-v0.2","","""event"",""trial"",""time""
""fullscreenenter"",""1"",""3007""
","
","
","""event"",""trial"",""time""
""fullscreenenter"",""1"",""3007""
","
","","","-1","","","25","14075","5941","&#9761;","elianto","#3366ff99","-1","-1","1","+10","[]","0","0","2","","","","","","","",""
"pit-trial","44","469628","0.0-2.0-11.1-2.1","battery-v0.2","","""event"",""trial"",""time""
""fullscreenenter"",""1"",""3007""
","
","
","""event"",""trial"",""time""
""fullscreenenter"",""1"",""3007""
","
","","","-1","","","25","14075","5941","&#9761;","elianto","#3366ff99","-1","-1","1","+10","[]","0","0","2","","","","","","","",""
"pit-trial","45","474495","0.0-2.0-11.1-3.1","battery-v0.2","","""event"",""trial"",""time""
""fullscreenenter"",""1"",""3007""
","
","
","""event"",""trial"",""time""
""fullscreenenter"",""1"",""3007""
","
","","","-1","","","25","14075","5941","&#9761;","elianto","#3366ff99","-1","-1","1","0","[]","0","0","2","","","","","","","",""
"pit-trial","46","479360","0.0-2.0-11.1-4.1","battery-v0.2","","""event"",""trial"",""time""
""fullscreenenter"",""1"",""3007""
","
","
","""event"",""trial"",""time""
""fullscreenenter"",""1"",""3007""
","
","","","-1","","","25","14075","5941","&#9761;","elianto","#3366ff99","-1","-1","1","+10","[]","0","0","2","","","","","","","",""
"pit-trial","47","484229","0.0-2.0-11.2-0.2","battery-v0.2","","""event"",""trial"",""time""
""fullscreenenter"",""1"",""3007""
","
","
","""event"",""trial"",""time""
""fullscreenenter"",""1"",""3007""
","
","","","-1","","","25","14075","5941","&#9761;","elianto","#3366ff99","-1","-1","1","+10","[]","0","0","2","","","","","","","",""
"pit-trial","48","489087","0.0-2.0-11.2-1.2","battery-v0.2","","""event"",""trial"",""time""
""fullscreenenter"",""1"",""3007""
","
","
","""event"",""trial"",""time""
""fullscreenenter"",""1"",""3007""
","
","","","-1","","","25","14075","5941","&#9761;","elianto","#3366ff99","-1","-1","1","+10","[]","0","0","2","","","","","","","",""
"pit-trial","49","493952","0.0-2.0-11.2-2.2","battery-v0.2","","""event"",""trial"",""time""
""fullscreenenter"",""1"",""3007""
","
","
","""event"",""trial"",""time""
""fullscreenenter"",""1"",""3007""
","
","","","-1","","","25","14075","5941","&#9761;","elianto","#3366ff99","-1","-1","1","+10","[]","0","0","2","","","","","","","",""
"pit-trial","50","498828","0.0-2.0-11.2-3.2","battery-v0.2","","""event"",""trial"",""time""
""fullscreenenter"",""1"",""3007""
","
","
","""event"",""trial"",""time""
""fullscreenenter"",""1"",""3007""
","
","","","-1","","","25","14075","5941","&#9761;","elianto","#3366ff99","-1","-1","1","0","[]","0","0","2","","","","","","","",""
"pit-trial","51","503691","0.0-2.0-11.2-4.2","battery-v0.2","","""event"",""trial"",""time""
""fullscreenenter"",""1"",""3007""
","
","
","""event"",""trial"",""time""
""fullscreenenter"",""1"",""3007""
","
","","","-1","","","25","14075","5941","&#9761;","elianto","#3366ff99","-1","-1","1","+10","[]","0","0","2","","","","","","","",""
"pit-trial","52","508567","0.0-2.0-11.3-0.3","battery-v0.2","","""event"",""trial"",""time""
""fullscreenenter"",""1"",""3007""
","
","
","""event"",""trial"",""time""
""fullscreenenter"",""1"",""3007""
","
","","","-1","","","25","14075","5941","&#9761;","elianto","#3366ff99","-1","-1","1","+10","[]","0","0","2","","","","","","","",""
"pit-trial","53","513428","0.0-2.0-11.3-1.3","battery-v0.2","","""event"",""trial"",""time""
""fullscreenenter"",""1"",""3007""
","
","
","""event"",""trial"",""time""
""fullscreenenter"",""1"",""3007""
","
","","","-1","","","25","14075","5941","&#9761;","elianto","#3366ff99","-1","-1","1","+10","[]","0","0","2","","","","","","","",""
"pit-trial","54","518308","0.0-2.0-11.3-2.3","battery-v0.2","","""event"",""trial"",""time""
""fullscreenenter"",""1"",""3007""
","
","
","""event"",""trial"",""time""
""fullscreenenter"",""1"",""3007""
","
","","","-1","","","25","14075","5941","&#9761;","elianto","#3366ff99","-1","-1","1","+10","[]","0","0","2","","","","","","","",""
"pit-trial","55","523171","0.0-2.0-11.3-3.3","battery-v0.2","","""event"",""trial"",""time""
""fullscreenenter"",""1"",""3007""
","
","
","""event"",""trial"",""time""
""fullscreenenter"",""1"",""3007""
","
","","","-1","","","25","14075","5941","&#9761;","elianto","#3366ff99","-1","-1","1","0","[]","0","0","2","","","","","","","",""
"pit-trial","56","528038","0.0-2.0-11.3-4.3","battery-v0.2","","""event"",""trial"",""time""
""fullscreenenter"",""1"",""3007""
","
","
","""event"",""trial"",""time""
""fullscreenenter"",""1"",""3007""
","
","","","-1","","","25","14075","5941","&#9761;","elianto","#3366ff99","-1","-1","1","+10","[]","0","0","2","","","","","","","",""
"call-function","57","528040","0.0-2.0-12.0","battery-v0.2","","""event"",""trial"",""time""
""fullscreenenter"",""1"",""3007""
","
","
","""event"",""trial"",""time""
""fullscreenenter"",""1"",""3007""
","
","","","","","","","","","","","","","","","","","","","","","","","","","","",""
"pit-instructions","58","570546","0.0-2.0-13.0","battery-v0.2","","""event"",""trial"",""time""
""fullscreenenter"",""1"",""3007""
","
","
","""event"",""trial"",""time""
""fullscreenenter"",""1"",""3007""
","
","","[{""page_index"":0,""viewing_time"":7586},{""page_index"":1,""viewing_time"":9053},{""page_index"":2,""viewing_time"":3767},{""page_index"":3,""viewing_time"":10456},{""page_index"":4,""viewing_time"":11643}]","42505","","","","","","","","","","","","","","","","","","","","","","","",""
"pit-trial","59","575425","0.0-2.0-14.0-0.0","battery-v0.2","","""event"",""trial"",""time""
""fullscreenenter"",""1"",""3007""
","
","
","""event"",""trial"",""time""
""fullscreenenter"",""1"",""3007""
","
","","","-1","","","25","14075","5941","&#9826;","elianto","#f73b6a7A","-1","-1","1","0","[]","0","0","3","","","","","","","",""
"pit-trial","60","578936","0.0-2.0-14.0-1.0","battery-v0.2","","""event"",""trial"",""time""
""fullscreenenter"",""1"",""3007""
","
","
","""event"",""trial"",""time""
""fullscreenenter"",""1"",""3007""
","
","","","647","","","25","14075","5941","&#9826;","elianto","#f73b6a7A","-1"," ","0","-10","[1506]","1","0","3","","","","","","","",""
"pit-trial","61","583810","0.0-2.0-14.0-2.0","battery-v0.2","","""event"",""trial"",""time""
""fullscreenenter"",""1"",""3007""
","
","
","""event"",""trial"",""time""
""fullscreenenter"",""1"",""3007""
","
","","","-1","","","25","14075","5941","&#9826;","elianto","#f73b6a7A","-1","-1","1","0","[]","0","0","3","","","","","","","",""
"pit-trial","62","588677","0.0-2.0-14.0-3.0","battery-v0.2","","""event"",""trial"",""time""
""fullscreenenter"",""1"",""3007""
","
","
","""event"",""trial"",""time""
""fullscreenenter"",""1"",""3007""
","
","","","-1","","","25","14075","5941","&#9826;","elianto","#f73b6a7A","-1","-1","1","-10","[]","0","0","3","","","","","","","",""
"pit-trial","63","593540","0.0-2.0-14.0-4.0","battery-v0.2","","""event"",""trial"",""time""
""fullscreenenter"",""1"",""3007""
","
","
","""event"",""trial"",""time""
""fullscreenenter"",""1"",""3007""
","
","","","-1","","","25","14075","5941","&#9826;","elianto","#f73b6a7A","-1","-1","1","0","[]","0","0","3","","","","","","","",""
"pit-trial","64","598403","0.0-2.0-14.1-0.1","battery-v0.2","","""event"",""trial"",""time""
""fullscreenenter"",""1"",""3007""
","
","
","""event"",""trial"",""time""
""fullscreenenter"",""1"",""3007""
","
","","","-1","","","25","14075","5941","&#9826;","elianto","#f73b6a7A","-1","-1","1","0","[]","0","0","3","","","","","","","",""
"pit-trial","65","603280","0.0-2.0-14.1-1.1","battery-v0.2","","""event"",""trial"",""time""
""fullscreenenter"",""1"",""3007""
","
","
","""event"",""trial"",""time""
""fullscreenenter"",""1"",""3007""
","
","","","-1","","","25","14075","5941","&#9826;","elianto","#f73b6a7A","-1","-1","1","0","[]","0","0","3","","","","","","","",""
"pit-trial","66","608157","0.0-2.0-14.1-2.1","battery-v0.2","","""event"",""trial"",""time""
""fullscreenenter"",""1"",""3007""
","
","
","""event"",""trial"",""time""
""fullscreenenter"",""1"",""3007""
","
","","","-1","","","25","14075","5941","&#9826;","elianto","#f73b6a7A","-1","-1","1","0","[]","0","0","3","","","","","","","",""
"pit-trial","67","613021","0.0-2.0-14.1-3.1","battery-v0.2","","""event"",""trial"",""time""
""fullscreenenter"",""1"",""3007""
","
","
","""event"",""trial"",""time""
""fullscreenenter"",""1"",""3007""
","
","","","-1","","","25","14075","5941","&#9826;","elianto","#f73b6a7A","-1","-1","1","-10","[]","0","0","3","","","","","","","",""
"pit-trial","68","617900","0.0-2.0-14.1-4.1","battery-v0.2","","""event"",""trial"",""time""
""fullscreenenter"",""1"",""3007""
","
","
","""event"",""trial"",""time""
""fullscreenenter"",""1"",""3007""
","
","","","-1","","","25","14075","5941","&#9826;","elianto","#f73b6a7A","-1","-1","1","0","[]","0","0","3","","","","","","","",""
"pit-trial","69","622772","0.0-2.0-14.2-0.2","battery-v0.2","","""event"",""trial"",""time""
""fullscreenenter"",""1"",""3007""
","
","
","""event"",""trial"",""time""
""fullscreenenter"",""1"",""3007""
","
","","","-1","","","25","14075","5941","&#9826;","elianto","#f73b6a7A","-1","-1","1","0","[]","0","0","3","","","","","","","",""
"pit-trial","70","627637","0.0-2.0-14.2-1.2","battery-v0.2","","""event"",""trial"",""time""
""fullscreenenter"",""1"",""3007""
","
","
","""event"",""trial"",""time""
""fullscreenenter"",""1"",""3007""
","
","","","-1","","","25","14075","5941","&#9826;","elianto","#f73b6a7A","-1","-1","1","0","[]","0","0","3","","","","","","","",""
"pit-trial","71","632505","0.0-2.0-14.2-2.2","battery-v0.2","","""event"",""trial"",""time""
""fullscreenenter"",""1"",""3007""
","
","
","""event"",""trial"",""time""
""fullscreenenter"",""1"",""3007""
","
","","","-1","","","25","14075","5941","&#9826;","elianto","#f73b6a7A","-1","-1","1","0","[]","0","0","3","","","","","","","",""
"pit-trial","72","637379","0.0-2.0-14.2-3.2","battery-v0.2","","""event"",""trial"",""time""
""fullscreenenter"",""1"",""3007""
","
","
","""event"",""trial"",""time""
""fullscreenenter"",""1"",""3007""
","
","","","-1","","","25","14075","5941","&#9826;","elianto","#f73b6a7A","-1","-1","1","-10","[]","0","0","3","","","","","","","",""
"pit-trial","73","642255","0.0-2.0-14.2-4.2","battery-v0.2","","""event"",""trial"",""time""
""fullscreenenter"",""1"",""3007""
","
","
","""event"",""trial"",""time""
""fullscreenenter"",""1"",""3007""
","
","","","-1","","","25","14075","5941","&#9826;","elianto","#f73b6a7A","-1","-1","1","0","[]","0","0","3","","","","","","","",""
"pit-trial","74","647115","0.0-2.0-14.3-0.3","battery-v0.2","","""event"",""trial"",""time""
""fullscreenenter"",""1"",""3007""
","
","
","""event"",""trial"",""time""
""fullscreenenter"",""1"",""3007""
","
","","","-1","","","25","14075","5941","&#9826;","elianto","#f73b6a7A","-1","-1","1","0","[]","0","0","3","","","","","","","",""
"pit-trial","75","651985","0.0-2.0-14.3-1.3","battery-v0.2","","""event"",""trial"",""time""
""fullscreenenter"",""1"",""3007""
","
","
","""event"",""trial"",""time""
""fullscreenenter"",""1"",""3007""
","
","","","-1","","","25","14075","5941","&#9826;","elianto","#f73b6a7A","-1","-1","1","0","[]","0","0","3","","","","","","","",""
"pit-trial","76","656850","0.0-2.0-14.3-2.3","battery-v0.2","","""event"",""trial"",""time""
""fullscreenenter"",""1"",""3007""
","
","
","""event"",""trial"",""time""
""fullscreenenter"",""1"",""3007""
","
","","","-1","","","25","14075","5941","&#9826;","elianto","#f73b6a7A","-1","-1","1","0","[]","0","0","3","","","","","","","",""
"pit-trial","77","661714","0.0-2.0-14.3-3.3","battery-v0.2","","""event"",""trial"",""time""
""fullscreenenter"",""1"",""3007""
","
","
","""event"",""trial"",""time""
""fullscreenenter"",""1"",""3007""
","
","","","-1","","","25","14075","5941","&#9826;","elianto","#f73b6a7A","-1","-1","1","-10","[]","0","0","3","","","","","","","",""
"pit-trial","78","666572","0.0-2.0-14.3-4.3","battery-v0.2","","""event"",""trial"",""time""
""fullscreenenter"",""1"",""3007""
","
","
","""event"",""trial"",""time""
""fullscreenenter"",""1"",""3007""
","
","","","-1","","","25","14075","5941","&#9826;","elianto","#f73b6a7A","-1","-1","1","0","[]","0","0","3","","","","","","","",""
"call-function","79","666575","0.0-2.0-15.0","battery-v0.2","","""event"",""trial"",""time""
""fullscreenenter"",""1"",""3007""
","
","
","""event"",""trial"",""time""
""fullscreenenter"",""1"",""3007""
","
","","","","","","","","","","","","","","","","","","","","","","","","","","",""
"pit-instructions","80","701313","0.0-2.0-16.0","battery-v0.2","","""event"",""trial"",""time""
""fullscreenenter"",""1"",""3007""
","
","
","""event"",""trial"",""time""
""fullscreenenter"",""1"",""3007""
","
","","[{""page_index"":0,""viewing_time"":6934},{""page_index"":1,""viewing_time"":9310},{""page_index"":2,""viewing_time"":11852},{""page_index"":3,""viewing_time"":6641}]","34737","","","","","","","","","","","","","","","","","","","","","","","",""
"pit-trial","81","704676","0.0-2.0-17.0-0.0","battery-v0.2","","""event"",""trial"",""time""
""fullscreenenter"",""1"",""3007""
","
","
","""event"",""trial"",""time""
""fullscreenenter"",""1"",""3007""
","
","","","486","","","25","14075","5941","&#9789;","elianto","#f73b6a7A"," "," ","1","0","[1343]","1","0","4","","","","","","","",""
"pit-trial","82","707992","0.0-2.0-17.0-1.0","battery-v0.2","","""event"",""trial"",""time""
""fullscreenenter"",""1"",""3007""
","
","
","""event"",""trial"",""time""
""fullscreenenter"",""1"",""3007""
","
","","","446","","","25","14075","5941","&#9789;","elianto","#f73b6a7A"," "," ","1","0","[1307]","1","0","4","","","","","","","",""
"pit-trial","83","711746","0.0-2.0-17.0-2.0","battery-v0.2","","""event"",""trial"",""time""
""fullscreenenter"",""1"",""3007""
","
","
","""event"",""trial"",""time""
""fullscreenenter"",""1"",""3007""
","
","","","879","","","25","14075","5941","&#9789;","elianto","#f73b6a7A"," "," ","1","0","[1738]","1","0","4","","","","","","","",""
"pit-trial","84","715207","0.0-2.0-17.0-3.0","battery-v0.2","","""event"",""trial"",""time""
""fullscreenenter"",""1"",""3007""
","
","
","""event"",""trial"",""time""
""fullscreenenter"",""1"",""3007""
","
","","","583","","","25","14075","5941","&#9789;","elianto","#f73b6a7A"," "," ","1","-10","[1444]","1","0","4","","","","","","","",""
"pit-trial","85","718734","0.0-2.0-17.0-4.0","battery-v0.2","","""event"",""trial"",""time""
""fullscreenenter"",""1"",""3007""
","
","
","""event"",""trial"",""time""
""fullscreenenter"",""1"",""3007""
","
","","","652","","","25","14075","5941","&#9789;","elianto","#f73b6a7A"," "," ","1","0","[1513]","1","0","4","","","","","","","",""
"pit-trial","86","722239","0.0-2.0-17.1-0.1","battery-v0.2","","""event"",""trial"",""time""
""fullscreenenter"",""1"",""3007""
","
","
","""event"",""trial"",""time""
""fullscreenenter"",""1"",""3007""
","
","","","635","","","25","14075","5941","&#9789;","elianto","#f73b6a7A"," "," ","1","0","[1496]","1","0","4","","","","","","","",""
"pit-trial","87","725650","0.0-2.0-17.1-1.1","battery-v0.2","","""event"",""trial"",""time""
""fullscreenenter"",""1"",""3007""
","
","
","""event"",""trial"",""time""
""fullscreenenter"",""1"",""3007""
","
","","","535","","","25","14075","5941","&#9789;","elianto","#f73b6a7A"," "," ","1","0","[1395]","1","0","4","","","","","","","",""
"pit-trial","88","728760","0.0-2.0-17.1-2.1","battery-v0.2","","""event"",""trial"",""time""
""fullscreenenter"",""1"",""3007""
","
","
","""event"",""trial"",""time""
""fullscreenenter"",""1"",""3007""
","
","","","238","","","25","14075","5941","&#9789;","elianto","#f73b6a7A"," "," ","1","0","[1096]","1","0","4","","","","","","","",""
"pit-trial","89","731760","0.0-2.0-17.1-3.1","battery-v0.2","","""event"",""trial"",""time""
""fullscreenenter"",""1"",""3007""
","
","
","""event"",""trial"",""time""
""fullscreenenter"",""1"",""3007""
","
","","","124","","","25","14075","5941","&#9789;","elianto","#f73b6a7A"," "," ","1","-10","[983]","1","0","4","","","","","","","",""
"pit-trial","90","736399","0.0-2.0-17.1-4.1","battery-v0.2","","""event"",""trial"",""time""
""fullscreenenter"",""1"",""3007""
","
","
","""event"",""trial"",""time""
""fullscreenenter"",""1"",""3007""
","
","","","1775","","","25","14075","5941","&#9789;","elianto","#f73b6a7A"," "," ","1","0","[2634]","1","0","4","","","","","","","",""
"pit-trial","91","739819","0.0-2.0-17.2-0.2","battery-v0.2","","""event"",""trial"",""time""
""fullscreenenter"",""1"",""3007""
","
","
","""event"",""trial"",""time""
""fullscreenenter"",""1"",""3007""
","
","","","506","","","25","14075","5941","&#9789;","elianto","#f73b6a7A"," "," ","1","0","[1411]","1","0","4","","","","","","","",""
"pit-trial","92","743359","0.0-2.0-17.2-1.2","battery-v0.2","","""event"",""trial"",""time""
""fullscreenenter"",""1"",""3007""
","
","
","""event"",""trial"",""time""
""fullscreenenter"",""1"",""3007""
","
","","","491","","","25","14075","5941","&#9789;","elianto","#f73b6a7A"," "," ","1","0","[1352]","1","0","4","","","","","","","",""
"pit-trial","93","746418","0.0-2.0-17.2-2.2","battery-v0.2","","""event"",""trial"",""time""
""fullscreenenter"",""1"",""3007""
","
","
","""event"",""trial"",""time""
""fullscreenenter"",""1"",""3007""
","
","","","193","","","25","14075","5941","&#9789;","elianto","#f73b6a7A"," "," ","1","0","[1050]","1","0","4","","","","","","","",""
"pit-trial","94","750662","0.0-2.0-17.2-3.2","battery-v0.2","","""event"",""trial"",""time""
""fullscreenenter"",""1"",""3007""
","
","
","""event"",""trial"",""time""
""fullscreenenter"",""1"",""3007""
","
","","","1382","","","25","14075","5941","&#9789;","elianto","#f73b6a7A"," "," ","1","-10","[2241]","1","0","4","","","","","","","",""
"pit-trial","95","754582","0.0-2.0-17.2-4.2","battery-v0.2","","""event"",""trial"",""time""
""fullscreenenter"",""1"",""3007""
","
","
","""event"",""trial"",""time""
""fullscreenenter"",""1"",""3007""
","
","","","1059","","","25","14075","5941","&#9789;","elianto","#f73b6a7A"," "," ","1","0","[1916]","1","0","4","","","","","","","",""
"pit-trial","96","759447","0.0-2.0-17.3-0.3","battery-v0.2","","""event"",""trial"",""time""
""fullscreenenter"",""1"",""3007""
","
","
","""event"",""trial"",""time""
""fullscreenenter"",""1"",""3007""
","
","","","-1","","","25","14075","5941","&#9789;","elianto","#f73b6a7A"," ","-1","0","-10","[3519]","1","0","4","","","","","","","",""
"pit-trial","97","762955","0.0-2.0-17.3-1.3","battery-v0.2","","""event"",""trial"",""time""
""fullscreenenter"",""1"",""3007""
","
","
","""event"",""trial"",""time""
""fullscreenenter"",""1"",""3007""
","
","","","639","","","25","14075","5941","&#9789;","elianto","#f73b6a7A"," "," ","1","0","[1500]","1","0","4","","","","","","","",""
"pit-trial","98","766606","0.0-2.0-17.3-2.3","battery-v0.2","","""event"",""trial"",""time""
""fullscreenenter"",""1"",""3007""
","
","
","""event"",""trial"",""time""
""fullscreenenter"",""1"",""3007""
","
","","","545","","","25","14075","5941","&#9789;","elianto","#f73b6a7A"," "," ","1","0","[1406]","1","0","4","","","","","","","",""
"pit-trial","99","770793","0.0-2.0-17.3-3.3","battery-v0.2","","""event"",""trial"",""time""
""fullscreenenter"",""1"",""3007""
","
","
","""event"",""trial"",""time""
""fullscreenenter"",""1"",""3007""
","
","","","1294","","","25","14075","5941","&#9789;","elianto","#f73b6a7A"," "," ","1","-10","[2184]","1","0","4","","","","","","","",""
"pit-trial","100","774594","0.0-2.0-17.3-4.3","battery-v0.2","","""event"",""trial"",""time""
""fullscreenenter"",""1"",""3007""
","
","
","""event"",""trial"",""time""
""fullscreenenter"",""1"",""3007""
","
","","","931","","","25","14075","5941","&#9789;","elianto","#f73b6a7A"," "," ","1","0","[1787]","1","0","4","","","","","","","",""
"call-function","101","774595","0.0-2.0-18.0","battery-v0.2","","""event"",""trial"",""time""
""fullscreenenter"",""1"",""3007""
","
","
","""event"",""trial"",""time""
""fullscreenenter"",""1"",""3007""
","
","","","","","","","","","","","","","","","","","","","","","","","","","","",""
"pit-instructions","102","848266","0.0-2.0-19.0","battery-v0.2","","""event"",""trial"",""time""
""fullscreenenter"",""1"",""3007""
","
","
","""event"",""trial"",""time""
""fullscreenenter"",""1"",""3007""
","
","","[{""page_index"":0,""viewing_time"":7400},{""page_index"":1,""viewing_time"":6141},{""page_index"":2,""viewing_time"":11432},{""page_index"":3,""viewing_time"":8535},{""page_index"":4,""viewing_time"":8093},{""page_index"":5,""viewing_time"":12757},{""page_index"":6,""viewing_time"":8292},{""page_index"":7,""viewing_time"":7131},{""page_index"":8,""viewing_time"":3890}]","73671","","","","","","","","","","","","","","","","","","","","","","","",""
"pit-comprehension","103","853430","0.0-2.0-20.0-0.0","battery-v0.2","","""event"",""trial"",""time""
""fullscreenenter"",""1"",""3007""
","
","
","""event"",""trial"",""time""
""fullscreenenter"",""1"",""3007""
","
","","","5161","[""SPACE""]","0","25","14075","5941","","","","","","","","","","","","","","","","","","",""
"pit-instructions","104","856671","0.0-2.0-20.0-1.0","battery-v0.2","","""event"",""trial"",""time""
""fullscreenenter"",""1"",""3007""
","
","
","""event"",""trial"",""time""
""fullscreenenter"",""1"",""3007""
","
","","[{""page_index"":0,""viewing_time"":3218}]","3219","","","","","","","","","","","","","","","","","","","","","","","",""
"pit-comprehension","105","863471","0.0-2.0-21.0-0.0","battery-v0.2","","""event"",""trial"",""time""
""fullscreenenter"",""1"",""3007""
","
","
","""event"",""trial"",""time""
""fullscreenenter"",""1"",""3007""
","
","","","6793","[""10""]","0","25","14075","5941","","","","","","","","","","","","","","","","","","",""
"pit-instructions","106","865393","0.0-2.0-21.0-1.0","battery-v0.2","","""event"",""trial"",""time""
""fullscreenenter"",""1"",""3007""
","
","
","""event"",""trial"",""time""
""fullscreenenter"",""1"",""3007""
","
","","[{""page_index"":0,""viewing_time"":1882}]","1883","","","","","","","","","","","","","","","","","","","","","","","",""
"pit-comprehension","107","873463","0.0-2.0-22.0-0.0","battery-v0.2","","""event"",""trial"",""time""
""fullscreenenter"",""1"",""3007""
","
","
","""event"",""trial"",""time""
""fullscreenenter"",""1"",""3007""
","
","","","8065","[""0""]","0","25","14075","5941","","","","","","","","","","","","","","","","","","",""
"pit-instructions","108","875454","0.0-2.0-22.0-1.0","battery-v0.2","","""event"",""trial"",""time""
""fullscreenenter"",""1"",""3007""
","
","
","""event"",""trial"",""time""
""fullscreenenter"",""1"",""3007""
","
","","[{""page_index"":0,""viewing_time"":1948}]","1948","","","","","","","","","","","","","","","","","","","","","","","",""
"pit-comprehension","109","885474","0.0-2.0-23.0-0.0","battery-v0.2","","""event"",""trial"",""time""
""fullscreenenter"",""1"",""3007""
","
","
","""event"",""trial"",""time""
""fullscreenenter"",""1"",""3007""
","
","","","10015","[""False""]","1","25","14075","5941","","","","","","","","","","","","","","","","","","",""
"pit-instructions","110","894240","0.0-2.0-23.0-1.0","battery-v0.2","","""event"",""trial"",""time""
""fullscreenenter"",""1"",""3007""
","
","
","""event"",""trial"",""time""
""fullscreenenter"",""1"",""3007""
","
","","[{""page_index"":0,""viewing_time"":8723}]","8723","","","","","","","","","","","","","","","","","","","","","","","",""
"pit-instructions","111","895561","0.0-2.0-23.0-2.0-0.0","battery-v0.2","","""event"",""trial"",""time""
""fullscreenenter"",""1"",""3007""
","
","
","""event"",""trial"",""time""
""fullscreenenter"",""1"",""3007""
","
","","[{""page_index"":0,""viewing_time"":1317}]","1318","","","","","","","","","","","","","","","","","","","","","","","",""
"pit-comprehension","112","905794","0.0-2.0-23.1-0.1","battery-v0.2","","""event"",""trial"",""time""
""fullscreenenter"",""1"",""3007""
","
","
","""event"",""trial"",""time""
""fullscreenenter"",""1"",""3007""
","
","","","10229","[""True""]","0","25","14075","5941","","","","","","","","","","","","","","","","","","",""
"pit-instructions","113","907782","0.0-2.0-23.1-1.1","battery-v0.2","","""event"",""trial"",""time""
""fullscreenenter"",""1"",""3007""
","
","
","""event"",""trial"",""time""
""fullscreenenter"",""1"",""3007""
","
","","[{""page_index"":0,""viewing_time"":1963}]","1964","","","","","","","","","","","","","","","","","","","","","","","",""
"pit-comprehension","114","916300","0.0-2.0-24.0-0.0","battery-v0.2","","""event"",""trial"",""time""
""fullscreenenter"",""1"",""3007""
","
","
","""event"",""trial"",""time""
""fullscreenenter"",""1"",""3007""
","
","","","8513","[""True""]","0","25","14075","5941","","","","","","","","","","","","","","","","","","",""
"pit-instructions","115","918479","0.0-2.0-24.0-1.0","battery-v0.2","","""event"",""trial"",""time""
""fullscreenenter"",""1"",""3007""
","
","
","""event"",""trial"",""time""
""fullscreenenter"",""1"",""3007""
","
","","[{""page_index"":0,""viewing_time"":2134}]","2134","","","","","","","","","","","","","","","","","","","","","","","",""
"pit-comprehension","116","925243","0.0-2.0-25.0-0.0","battery-v0.2","","""event"",""trial"",""time""
""fullscreenenter"",""1"",""3007""
","
","
","""event"",""trial"",""time""
""fullscreenenter"",""1"",""3007""
","
","","","6763","[""True""]","0","25","14075","5941","","","","","","","","","","","","","","","","","","",""
"pit-instructions","117","927651","0.0-2.0-25.0-1.0","battery-v0.2","","""event"",""trial"",""time""
""fullscreenenter"",""1"",""3007""
","
","
","""event"",""trial"",""time""
""fullscreenenter"",""1"",""3007""
","
","","[{""page_index"":0,""viewing_time"":2382}]","2382","","","","","","","","","","","","","","","","","","","","","","","",""
"pit-comprehension","118","933889","0.0-2.0-26.0-0.0","battery-v0.2","","""event"",""trial"",""time""
""fullscreenenter"",""1"",""3007""
","
","
","""event"",""trial"",""time""
""fullscreenenter"",""1"",""3007""
","
","","","6232","[""False""]","0","25","14075","5941","","","","","","","","","","","","","","","","","","",""
"pit-instructions","119","935739","0.0-2.0-26.0-1.0","battery-v0.2","","""event"",""trial"",""time""
""fullscreenenter"",""1"",""3007""
","
","
","""event"",""trial"",""time""
""fullscreenenter"",""1"",""3007""
","
","","[{""page_index"":0,""viewing_time"":1812}]","1812","","","","","","","","","","","","","","","","","","","","","","","",""
"pit-instructions","120","954121","0.0-3.0","battery-v0.2","","""event"",""trial"",""time""
""fullscreenenter"",""1"",""3007""
","
","
","""event"",""trial"",""time""
""fullscreenenter"",""1"",""3007""
","
","","[{""page_index"":0,""viewing_time"":4735},{""page_index"":1,""viewing_time"":5767},{""page_index"":2,""viewing_time"":7878}]","18380","","","","","","","","","","","","","","","","","","","","","","","",""
"pit-trial","121","958216","0.0-4.0","battery-v0.2","","""event"",""trial"",""time""
""fullscreenenter"",""1"",""3007""
","
","
","""event"",""trial"",""time""
""fullscreenenter"",""1"",""3007""
","
","","","1221","","","25","14075","5941","&#9730;","elianto","#3366ff99"," "," ","1","0","[2075]","1","1","","","14075","1","1","1","win","go","1"
"pit-trial","122","962353","0.0-5.0","battery-v0.2","","""event"",""trial"",""time""
""fullscreenenter"",""1"",""3007""
","
","
","""event"",""trial"",""time""
""fullscreenenter"",""1"",""3007""
","
","","","1272","","","25","14075","5941","&#9728;","elianto","#f73b6a7A","-1"," ","0","-10","[2131]","1","1","","","14075","2","0","4","lose","no-go","0"
"pit-trial","123","967219","0.0-6.0","battery-v0.2","","""event"",""trial"",""time""
""fullscreenenter"",""1"",""3007""
","
","
","""event"",""trial"",""time""
""fullscreenenter"",""1"",""3007""
","
","","","-1","","","25","14075","5941","&#9733;","elianto","#3366ff99","-1","-1","1","+10","[]","0","1","","","14075","3","2","2","win","no-go","0"
"pit-trial","124","972096","0.0-7.0","battery-v0.2","","""event"",""trial"",""time""
""fullscreenenter"",""1"",""3007""
","
","
","""event"",""trial"",""time""
""fullscreenenter"",""1"",""3007""
","
","","","-1","","","25","14075","5941","&#9752;","elianto","#f73b6a7A"," ","-1","0","0","[]","0","1","","","14075","4","3","3","lose","go","1"
"pit-trial","125","976134","0.0-8.0","battery-v0.2","","""event"",""trial"",""time""
""fullscreenenter"",""1"",""3007""
","
","
","""event"",""trial"",""time""
""fullscreenenter"",""1"",""3007""
","
","","","960","","","25","14075","5941","&#9733;","elianto","#3366ff99","-1"," ","0","0","[1820]","1","1","","","14075","5","2","2","win","no-go","0"
"pit-trial","126","981003","0.0-9.0","battery-v0.2","","""event"",""trial"",""time""
""fullscreenenter"",""1"",""3007""
","
","
","""event"",""trial"",""time""
""fullscreenenter"",""1"",""3007""
","
","","","-1","","","25","14075","5941","&#9728;","elianto","#f73b6a7A","-1","-1","1","0","[]","0","1","","","14075","6","0","4","lose","no-go","0"
"pit-trial","127","985037","0.0-10.0","battery-v0.2","","""event"",""trial"",""time""
""fullscreenenter"",""1"",""3007""
","
","
","""event"",""trial"",""time""
""fullscreenenter"",""1"",""3007""
","
","","","973","","","25","14075","5941","&#9730;","elianto","#3366ff99"," "," ","1","+10","[1835]","1","1","","","14075","7","1","1","win","go","0"
"pit-trial","128","989905","0.0-11.0","battery-v0.2","","""event"",""trial"",""time""
""fullscreenenter"",""1"",""3007""
","
","
","""event"",""trial"",""time""
""fullscreenenter"",""1"",""3007""
","
","","","-1","","","25","14075","5941","&#9752;","elianto","#f73b6a7A"," ","-1","0","-10","[]","0","1","","","14075","8","3","3","lose","go","0"
"pit-trial","129","993951","0.0-12.0","battery-v0.2","","""event"",""trial"",""time""
""fullscreenenter"",""1"",""3007""
","
","
","""event"",""trial"",""time""
""fullscreenenter"",""1"",""3007""
","
","","","924","","","25","14075","5941","&#9730;","elianto","#3366ff99"," "," ","1","+10","[1780]","1","1","","","14075","9","1","1","win","go","0"
"pit-trial","130","998817","0.0-13.0","battery-v0.2","","""event"",""trial"",""time""
""fullscreenenter"",""1"",""3007""
","
","
","""event"",""trial"",""time""
""fullscreenenter"",""1"",""3007""
","
","","","-1","","","25","14075","5941","&#9733;","elianto","#3366ff99","-1","-1","1","+10","[]","0","1","","","14075","10","2","2","win","no-go","0"
"pit-trial","131","1004063","0.0-14.0","battery-v0.2","","""event"",""trial"",""time""
""fullscreenenter"",""1"",""3007""
","
","
","""event"",""trial"",""time""
""fullscreenenter"",""1"",""3007""
","
","","","-1","","","25","14075","5941","&#9752;","elianto","#f73b6a7A"," ","-1","0","-10","[]","0","1","","","14075","11","3","3","lose","go","0"
"pit-trial","132","1008082","0.0-15.0","battery-v0.2","","""event"",""trial"",""time""
""fullscreenenter"",""1"",""3007""
","
","
","""event"",""trial"",""time""
""fullscreenenter"",""1"",""3007""
","
","","","1139","","","25","14075","5941","&#9728;","elianto","#f73b6a7A","-1"," ","0","-10","[1998]","1","1","","","14075","12","0","4","lose","no-go","0"
"pit-trial","133","1012545","0.0-16.0","battery-v0.2","","""event"",""trial"",""time""
""fullscreenenter"",""1"",""3007""
","
","
","""event"",""trial"",""time""
""fullscreenenter"",""1"",""3007""
","
","","","1595","","","25","14075","5941","&#9752;","elianto","#f73b6a7A"," "," ","1","0","[2447]","1","1","","","14075","13","3","3","lose","go","0"
"pit-trial","134","1016747","0.0-17.0","battery-v0.2","","""event"",""trial"",""time""
""fullscreenenter"",""1"",""3007""
","
","
","""event"",""trial"",""time""
""fullscreenenter"",""1"",""3007""
","
","","","1330","","","25","14075","5941","&#9730;","elianto","#3366ff99"," "," ","1","0","[2191]","1","1","","","14075","14","1","1","win","go","1"
"pit-trial","135","1021620","0.0-18.0","battery-v0.2","","""event"",""trial"",""time""
""fullscreenenter"",""1"",""3007""
","
","
","""event"",""trial"",""time""
""fullscreenenter"",""1"",""3007""
","
","","","-1","","","25","14075","5941","&#9733;","elianto","#3366ff99","-1","-1","1","0","[2995]","1","1","","","14075","15","2","2","win","no-go","1"
"pit-trial","136","1025672","0.0-19.0","battery-v0.2","","""event"",""trial"",""time""
""fullscreenenter"",""1"",""3007""
","
","
","""event"",""trial"",""time""
""fullscreenenter"",""1"",""3007""
","
","","","1122","","","25","14075","5941","&#9728;","elianto","#f73b6a7A","-1"," ","0","-10","[1980]","1","1","","","14075","16","0","4","lose","no-go","0"
"pit-trial","137","1030531","0.0-20.0","battery-v0.2","","""event"",""trial"",""time""
""fullscreenenter"",""1"",""3007""
","
","
","""event"",""trial"",""time""
""fullscreenenter"",""1"",""3007""
","
","","","-1","","","25","14075","5941","&#9752;","elianto","#f73b6a7A"," ","-1","0","-10","[3011]","1","1","","","14075","17","3","3","lose","go","0"
"pit-trial","138","1034467","0.0-21.0","battery-v0.2","","""event"",""trial"",""time""
""fullscreenenter"",""1"",""3007""
","
","
","""event"",""trial"",""time""
""fullscreenenter"",""1"",""3007""
","
","","","1066","","","25","14075","5941","&#9730;","elianto","#3366ff99"," "," ","1","+10","[1927]","1","1","","","14075","18","1","1","win","go","0"
"pit-trial","139","1038795","0.0-22.0","battery-v0.2","","""event"",""trial"",""time""
""fullscreenenter"",""1"",""3007""
","
","
","""event"",""trial"",""time""
""fullscreenenter"",""1"",""3007""
","
","","","1462","","","25","14075","5941","&#9733;","elianto","#3366ff99","-1"," ","0","0","[2316]","1","1","","","14075","19","2","2","win","no-go","0"
"pit-trial","140","1042682","0.0-23.0","battery-v0.2","","""event"",""trial"",""time""
""fullscreenenter"",""1"",""3007""
","
","
","""event"",""trial"",""time""
""fullscreenenter"",""1"",""3007""
","
","","","1012","","","25","14075","5941","&#9728;","elianto","#f73b6a7A","-1"," ","0","-10","[1869]","1","1","","","14075","20","0","4","lose","no-go","0"
"pit-instructions","141","1055813","0.0-24.0","battery-v0.2","","""event"",""trial"",""time""
""fullscreenenter"",""1"",""3007""
","
","
","""event"",""trial"",""time""
""fullscreenenter"",""1"",""3007""
","
","","[{""page_index"":0,""viewing_time"":5999},{""page_index"":1,""viewing_time"":7129}]","13128","","","","","","","","","","","","","","","","","","","","","","","",""
"pit-trial","142","1060684","0.0-25.0","battery-v0.2","","""event"",""trial"",""time""
""fullscreenenter"",""1"",""3007""
","
","
","""event"",""trial"",""time""
""fullscreenenter"",""1"",""3007""
","
","","","-1","","","25","14075","5941","u","elianto","#f73b6a7A","-1","-1","1","0","[]","0","2","","","14075","21","0","4","lose","no-go","0"
"pit-trial","143","1065565","0.0-26.0","battery-v0.2","","""event"",""trial"",""time""
""fullscreenenter"",""1"",""3007""
","
","
","""event"",""trial"",""time""
""fullscreenenter"",""1"",""3007""
","
","","","-1","","","25","14075","5941","g","elianto","#f73b6a7A"," ","-1","0","-10","[]","0","2","","","14075","22","3","3","lose","go","0"
"pit-trial","144","1070437","0.0-27.0","battery-v0.2","","""event"",""trial"",""time""
""fullscreenenter"",""1"",""3007""
","
","
","""event"",""trial"",""time""
""fullscreenenter"",""1"",""3007""
","
","","","-1","","","25","14075","5941","a","elianto","#f73b6a7A","-1","-1","1","0","[]","0","2","","","14075","23","2","4","lose","no-go","0"
"pit-trial","145","1075309","0.0-28.0","battery-v0.2","","""event"",""trial"",""time""
""fullscreenenter"",""1"",""3007""
","
","
","""event"",""trial"",""time""
""fullscreenenter"",""1"",""3007""
","
","","","-1","","","25","14075","5941","l","elianto","#3366ff99"," ","-1","0","0","[]","0","2","","","14075","24","1","1","win","go","0"
"pit-trial","146","1080180","0.0-29.0","battery-v0.2","","""event"",""trial"",""time""
""fullscreenenter"",""1"",""3007""
","
","
","""event"",""trial"",""time""
""fullscreenenter"",""1"",""3007""
","
","","","-1","","","25","14075","5941","a","elianto","#f73b6a7A","-1","-1","1","0","[]","0","2","","","14075","25","2","4","lose","no-go","0"
"pit-trial","147","1084263","0.0-30.0","battery-v0.2","","""event"",""trial"",""time""
""fullscreenenter"",""1"",""3007""
","
","
","""event"",""trial"",""time""
""fullscreenenter"",""1"",""3007""
","
","","","1217","","","25","14075","5941","u","elianto","#f73b6a7A","-1"," ","0","-10","[2079]","1","2","","","14075","26","0","4","lose","no-go","0"
"pit-trial","148","1088312","0.0-31.0","battery-v0.2","","""event"",""trial"",""time""
""fullscreenenter"",""1"",""3007""
","
","
","""event"",""trial"",""time""
""fullscreenenter"",""1"",""3007""
","
","","","1181","","","25","14075","5941","l","elianto","#3366ff99"," "," ","1","+10","[2040]","1","2","","","14075","27","1","1","win","go","0"
"pit-trial","149","1092698","0.0-32.0","battery-v0.2","","""event"",""trial"",""time""
""fullscreenenter"",""1"",""3007""
","
","
","""event"",""trial"",""time""
""fullscreenenter"",""1"",""3007""
","
","","","1519","","","25","14075","5941","g","elianto","#f73b6a7A"," "," ","1","-10","[2378]","1","2","","","14075","28","3","3","lose","go","1"
"pit-trial","150","1097701","0.0-33.0","battery-v0.2","","""event"",""trial"",""time""
""fullscreenenter"",""1"",""3007""
","
","
","""event"",""trial"",""time""
""fullscreenenter"",""1"",""3007""
","
","","","-1","","","25","14075","5941","g","elianto","#f73b6a7A"," ","-1","0","-10","[]","0","2","","","14075","29","3","3","lose","go","0"
"pit-trial","151","1102565","0.0-34.0","battery-v0.2","","""event"",""trial"",""time""
""fullscreenenter"",""1"",""3007""
","
","
","""event"",""trial"",""time""
""fullscreenenter"",""1"",""3007""
","
","","","-1","","","25","14075","5941","u","elianto","#f73b6a7A","-1","-1","1","0","[]","0","2","","","14075","30","0","4","lose","no-go","0"
"pit-trial","152","1106696","0.0-35.0","battery-v0.2","","""event"",""trial"",""time""
""fullscreenenter"",""1"",""3007""
","
","
","""event"",""trial"",""time""
""fullscreenenter"",""1"",""3007""
","
","","","1263","","","25","14075","5941","a","elianto","#f73b6a7A","-1"," ","0","-10","[2121]","1","2","","","14075","31","2","4","lose","no-go","0"
"pit-trial","153","1110731","0.0-36.0","battery-v0.2","","""event"",""trial"",""time""
""fullscreenenter"",""1"",""3007""
","
","
","""event"",""trial"",""time""
""fullscreenenter"",""1"",""3007""
","
","","","1007","","","25","14075","5941","l","elianto","#3366ff99"," "," ","1","+10","[1866]","1","2","","","14075","32","1","1","win","go","0"
"pit-trial","154","1115591","0.0-37.0","battery-v0.2","","""event"",""trial"",""time""
""fullscreenenter"",""1"",""3007""
","
","
","""event"",""trial"",""time""
""fullscreenenter"",""1"",""3007""
","
","","","-1","","","25","14075","5941","u","elianto","#f73b6a7A","-1","-1","1","0","[]","0","2","","","14075","33","0","4","lose","no-go","0"
"pit-trial","155","1120461","0.0-38.0","battery-v0.2","","""event"",""trial"",""time""
""fullscreenenter"",""1"",""3007""
","
","
","""event"",""trial"",""time""
""fullscreenenter"",""1"",""3007""
","
","","","-1","","","25","14075","5941","g","elianto","#f73b6a7A"," ","-1","0","-10","[]","0","2","","","14075","34","3","3","lose","go","0"
"pit-trial","156","1124244","0.0-39.0","battery-v0.2","","""event"",""trial"",""time""
""fullscreenenter"",""1"",""3007""
","
","
","""event"",""trial"",""time""
""fullscreenenter"",""1"",""3007""
","
","","","911","","","25","14075","5941","l","elianto","#3366ff99"," "," ","1","+10","[1773]","1","2","","","14075","35","1","1","win","go","0"
"pit-trial","157","1129256","0.0-40.0","battery-v0.2","","""event"",""trial"",""time""
""fullscreenenter"",""1"",""3007""
","
","
","""event"",""trial"",""time""
""fullscreenenter"",""1"",""3007""
","
","","","-1","","","25","14075","5941","a","elianto","#f73b6a7A","-1","-1","1","-10","[]","0","2","","","14075","36","2","4","lose","no-go","1"
"pit-trial","158","1133701","0.0-41.0","battery-v0.2","","""event"",""trial"",""time""
""fullscreenenter"",""1"",""3007""
","
","
","""event"",""trial"",""time""
""fullscreenenter"",""1"",""3007""
","
","","","1580","","","25","14075","5941","a","elianto","#f73b6a7A","-1"," ","0","-10","[2439]","1","2","","","14075","37","2","4","lose","no-go","0"
"pit-trial","159","1137391","0.0-42.0","battery-v0.2","","""event"",""trial"",""time""
""fullscreenenter"",""1"",""3007""
","
","
","""event"",""trial"",""time""
""fullscreenenter"",""1"",""3007""
","
","","","828","","","25","14075","5941","g","elianto","#f73b6a7A"," "," ","1","0","[1686]","1","2","","","14075","38","3","3","lose","go","0"
"pit-trial","160","1142398","0.0-43.0","battery-v0.2","","""event"",""trial"",""time""
""fullscreenenter"",""1"",""3007""
","
","
","""event"",""trial"",""time""
""fullscreenenter"",""1"",""3007""
","
","","","-1","","","25","14075","5941","u","elianto","#f73b6a7A","-1","-1","1","0","[]","0","2","","","14075","39","0","4","lose","no-go","0"
"pit-trial","161","1146070","0.0-44.0","battery-v0.2","","""event"",""trial"",""time""
""fullscreenenter"",""1"",""3007""
","
","
","""event"",""trial"",""time""
""fullscreenenter"",""1"",""3007""
","
","","","806","","","25","14075","5941","l","elianto","#3366ff99"," "," ","1","0","[1663]","1","2","","","14075","40","1","1","win","go","1"
"pit-trial","162","1151093","0.0-45.0","battery-v0.2","","""event"",""trial"",""time""
""fullscreenenter"",""1"",""3007""
","
","
","""event"",""trial"",""time""
""fullscreenenter"",""1"",""3007""
","
","","","-1","","","25","14075","5941","u","elianto","#f73b6a7A","-1","-1","1","0","[]","0","2","","","14075","41","0","4","lose","no-go","0"
"pit-trial","163","1155352","0.0-46.0","battery-v0.2","","""event"",""trial"",""time""
""fullscreenenter"",""1"",""3007""
","
","
","""event"",""trial"",""time""
""fullscreenenter"",""1"",""3007""
","
","","","1394","","","25","14075","5941","a","elianto","#f73b6a7A","-1"," ","0","-10","[2253]","1","2","","","14075","42","2","4","lose","no-go","0"
"pit-trial","164","1159133","0.0-47.0","battery-v0.2","","""event"",""trial"",""time""
""fullscreenenter"",""1"",""3007""
","
","
","""event"",""trial"",""time""
""fullscreenenter"",""1"",""3007""
","
","","","914","","","25","14075","5941","l","elianto","#3366ff99"," "," ","1","+10","[1774]","1","2","","","14075","43","1","1","win","go","0"
"pit-trial","165","1163190","0.0-48.0","battery-v0.2","","""event"",""trial"",""time""
""fullscreenenter"",""1"",""3007""
","
","
","""event"",""trial"",""time""
""fullscreenenter"",""1"",""3007""
","
","","","1185","","","25","14075","5941","g","elianto","#f73b6a7A"," "," ","1","-10","[2045]","1","2","","","14075","44","3","3","lose","go","1"
"pit-trial","166","1168064","0.0-49.0","battery-v0.2","","""event"",""trial"",""time""
""fullscreenenter"",""1"",""3007""
","
","
","""event"",""trial"",""time""
""fullscreenenter"",""1"",""3007""
","
","","","-1","","","25","14075","5941","u","elianto","#f73b6a7A","-1","-1","1","0","[]","0","2","","","14075","45","0","4","lose","no-go","0"
"pit-trial","167","1172929","0.0-50.0","battery-v0.2","","""event"",""trial"",""time""
""fullscreenenter"",""1"",""3007""
","
","
","""event"",""trial"",""time""
""fullscreenenter"",""1"",""3007""
","
","","","-1","","","25","14075","5941","g","elianto","#f73b6a7A"," ","-1","0","-10","[]","0","2","","","14075","46","3","3","lose","go","0"
"pit-trial","168","1177808","0.0-51.0","battery-v0.2","","""event"",""trial"",""time""
""fullscreenenter"",""1"",""3007""
","
","
","""event"",""trial"",""time""
""fullscreenenter"",""1"",""3007""
","
","","","-1","","","25","14075","5941","a","elianto","#f73b6a7A","-1","-1","1","0","[]","0","2","","","14075","47","2","4","lose","no-go","0"
"pit-trial","169","1182672","0.0-52.0","battery-v0.2","","""event"",""trial"",""time""
""fullscreenenter"",""1"",""3007""
","
","
","""event"",""trial"",""time""
""fullscreenenter"",""1"",""3007""
","
","","","-1","","","25","14075","5941","p","elianto","#3366ff99","-1","-1","1","+10","[]","0","2","","","14075","48","4","2","win","no-go","0"
"pit-trial","170","1186702","0.0-53.0","battery-v0.2","","""event"",""trial"",""time""
""fullscreenenter"",""1"",""3007""
","
","
","""event"",""trial"",""time""
""fullscreenenter"",""1"",""3007""
","
","","","1002","","","25","14075","5941","l","elianto","#3366ff99"," "," ","1","+10","[1863]","1","2","","","14075","49","1","1","win","go","0"
"pit-trial","171","1191567","0.0-54.0","battery-v0.2","","""event"",""trial"",""time""
""fullscreenenter"",""1"",""3007""
","
","
","""event"",""trial"",""time""
""fullscreenenter"",""1"",""3007""
","
","","","-1","","","25","14075","5941","g","elianto","#f73b6a7A"," ","-1","0","-10","[]","0","2","","","14075","50","3","3","lose","go","0"
"pit-trial","172","1196578","0.0-55.0","battery-v0.2","","""event"",""trial"",""time""
""fullscreenenter"",""1"",""3007""
","
","
","""event"",""trial"",""time""
""fullscreenenter"",""1"",""3007""
","
","","","-1","","","25","14075","5941","u","elianto","#f73b6a7A","-1","-1","1","0","[]","0","2","","","14075","51","0","4","lose","no-go","0"
"pit-trial","173","1201457","0.0-56.0","battery-v0.2","","""event"",""trial"",""time""
""fullscreenenter"",""1"",""3007""
","
","
","""event"",""trial"",""time""
""fullscreenenter"",""1"",""3007""
","
","","","-1","","","25","14075","5941","p","elianto","#3366ff99","-1","-1","1","0","[]","0","2","","","14075","52","4","2","win","no-go","1"
"pit-trial","174","1206321","0.0-57.0","battery-v0.2","","""event"",""trial"",""time""
""fullscreenenter"",""1"",""3007""
","
","
","""event"",""trial"",""time""
""fullscreenenter"",""1"",""3007""
","
","","","-1","","","25","14075","5941","a","elianto","#f73b6a7A","-1","-1","1","0","[]","0","2","","","14075","53","2","4","lose","no-go","0"
"pit-trial","175","1210181","0.0-58.0","battery-v0.2","","""event"",""trial"",""time""
""fullscreenenter"",""1"",""3007""
","
","
","""event"",""trial"",""time""
""fullscreenenter"",""1"",""3007""
","
","","","992","","","25","14075","5941","l","elianto","#3366ff99"," "," ","1","+10","[1850]","1","2","","","14075","54","1","1","win","go","0"
"pit-trial","176","1215189","0.0-59.0","battery-v0.2","","""event"",""trial"",""time""
""fullscreenenter"",""1"",""3007""
","
","
","""event"",""trial"",""time""
""fullscreenenter"",""1"",""3007""
","
","","","-1","","","25","14075","5941","p","elianto","#3366ff99","-1","-1","1","+10","[]","0","2","","","14075","55","4","2","win","no-go","0"
"pit-trial","177","1220195","0.0-60.0","battery-v0.2","","""event"",""trial"",""time""
""fullscreenenter"",""1"",""3007""
","
","
","""event"",""trial"",""time""
""fullscreenenter"",""1"",""3007""
","
","","","-1","","","25","14075","5941","u","elianto","#f73b6a7A","-1","-1","1","0","[]","0","2","","","14075","56","0","4","lose","no-go","0"
"pit-trial","178","1225074","0.0-61.0","battery-v0.2","","""event"",""trial"",""time""
""fullscreenenter"",""1"",""3007""
","
","
","""event"",""trial"",""time""
""fullscreenenter"",""1"",""3007""
","
","","","-1","","","25","14075","5941","u","elianto","#f73b6a7A","-1","-1","1","0","[]","0","2","","","14075","57","0","4","lose","no-go","0"
"pit-trial","179","1228965","0.0-62.0","battery-v0.2","","""event"",""trial"",""time""
""fullscreenenter"",""1"",""3007""
","
","
","""event"",""trial"",""time""
""fullscreenenter"",""1"",""3007""
","
","","","1026","","","25","14075","5941","g","elianto","#f73b6a7A"," "," ","1","0","[1885]","1","2","","","14075","58","3","3","lose","go","0"
"pit-trial","180","1233397","0.0-63.0","battery-v0.2","","""event"",""trial"",""time""
""fullscreenenter"",""1"",""3007""
","
","
","""event"",""trial"",""time""
""fullscreenenter"",""1"",""3007""
","
","","","1564","","","25","14075","5941","l","elianto","#3366ff99"," "," ","1","0","[2421]","1","2","","","14075","59","1","1","win","go","1"
"pit-trial","181","1238368","0.0-64.0","battery-v0.2","","""event"",""trial"",""time""
""fullscreenenter"",""1"",""3007""
","
","
","""event"",""trial"",""time""
""fullscreenenter"",""1"",""3007""
","
","","","-1","","","25","14075","5941","p","elianto","#3366ff99","-1","-1","1","+10","[]","0","2","","","14075","60","4","2","win","no-go","0"
"pit-trial","182","1243244","0.0-65.0","battery-v0.2","","""event"",""trial"",""time""
""fullscreenenter"",""1"",""3007""
","
","
","""event"",""trial"",""time""
""fullscreenenter"",""1"",""3007""
","
","","","-1","","","25","14075","5941","p","elianto","#3366ff99","-1","-1","1","+10","[]","0","2","","","14075","61","4","2","win","no-go","0"
"pit-trial","183","1248119","0.0-66.0","battery-v0.2","","""event"",""trial"",""time""
""fullscreenenter"",""1"",""3007""
","
","
","""event"",""trial"",""time""
""fullscreenenter"",""1"",""3007""
","
","","","-1","","","25","14075","5941","a","elianto","#f73b6a7A","-1","-1","1","0","[]","0","2","","","14075","62","2","4","lose","no-go","0"
"pit-trial","184","1252346","0.0-67.0","battery-v0.2","","""event"",""trial"",""time""
""fullscreenenter"",""1"",""3007""
","
","
","""event"",""trial"",""time""
""fullscreenenter"",""1"",""3007""
","
","","","1361","","","25","14075","5941","g","elianto","#f73b6a7A"," "," ","1","0","[2223]","1","2","","","14075","63","3","3","lose","go","0"
"pit-trial","185","1256754","0.0-68.0","battery-v0.2","","""event"",""trial"",""time""
""fullscreenenter"",""1"",""3007""
","
","
","""event"",""trial"",""time""
""fullscreenenter"",""1"",""3007""
","
","","","1545","","","25","14075","5941","l","elianto","#3366ff99"," "," ","1","+10","[2401]","1","2","","","14075","64","1","1","win","go","0"
"pit-trial","186","1261619","0.0-69.0","battery-v0.2","","""event"",""trial"",""time""
""fullscreenenter"",""1"",""3007""
","
","
","""event"",""trial"",""time""
""fullscreenenter"",""1"",""3007""
","
","","","-1","","","25","14075","5941","p","elianto","#3366ff99","-1","-1","1","+10","[]","0","2","","","14075","65","4","2","win","no-go","0"
"pit-trial","187","1265778","0.0-70.0","battery-v0.2","","""event"",""trial"",""time""
""fullscreenenter"",""1"",""3007""
","
","
","""event"",""trial"",""time""
""fullscreenenter"",""1"",""3007""
","
","","","1286","","","25","14075","5941","l","elianto","#3366ff99"," "," ","1","+10","[2142]","1","2","","","14075","66","1","1","win","go","0"
"pit-trial","188","1269890","0.0-71.0","battery-v0.2","","""event"",""trial"",""time""
""fullscreenenter"",""1"",""3007""
","
","
","""event"",""trial"",""time""
""fullscreenenter"",""1"",""3007""
","
","","","1243","","","25","14075","5941","g","elianto","#f73b6a7A"," "," ","1","0","[2096]","1","2","","","14075","67","3","3","lose","go","0"
"pit-trial","189","1274753","0.0-72.0","battery-v0.2","","""event"",""trial"",""time""
""fullscreenenter"",""1"",""3007""
","
","
","""event"",""trial"",""time""
""fullscreenenter"",""1"",""3007""
","
","","","-1","","","25","14075","5941","a","elianto","#f73b6a7A","-1","-1","1","0","[]","0","2","","","14075","68","2","4","lose","no-go","0"
"pit-trial","190","1279623","0.0-73.0","battery-v0.2","","""event"",""trial"",""time""
""fullscreenenter"",""1"",""3007""
","
","
","""event"",""trial"",""time""
""fullscreenenter"",""1"",""3007""
","
","","","-1","","","25","14075","5941","p","elianto","#3366ff99","-1","-1","1","+10","[]","0","2","","","14075","69","4","2","win","no-go","0"
"pit-trial","191","1283481","0.0-74.0","battery-v0.2","","""event"",""trial"",""time""
""fullscreenenter"",""1"",""3007""
","
","
","""event"",""trial"",""time""
""fullscreenenter"",""1"",""3007""
","
","","","981","","","25","14075","5941","l","elianto","#3366ff99"," "," ","1","+10","[1839]","1","2","","","14075","70","1","1","win","go","0"
"pit-trial","192","1288481","0.0-75.0","battery-v0.2","","""event"",""trial"",""time""
""fullscreenenter"",""1"",""3007""
","
","
","""event"",""trial"",""time""
""fullscreenenter"",""1"",""3007""
","
","","","-1","","","25","14075","5941","s","elianto","#3366ff99"," ","-1","0","0","[]","0","2","","","14075","71","5","1","win","go","0"
"pit-trial","193","1292720","0.0-76.0","battery-v0.2","","""event"",""trial"",""time""
""fullscreenenter"",""1"",""3007""
","
","
","""event"",""trial"",""time""
""fullscreenenter"",""1"",""3007""
","
","","","1374","","","25","14075","5941","g","elianto","#f73b6a7A"," "," ","1","0","[2234]","1","2","","","14075","72","3","3","lose","go","0"
"pit-trial","194","1297171","0.0-77.0","battery-v0.2","","""event"",""trial"",""time""
""fullscreenenter"",""1"",""3007""
","
","
","""event"",""trial"",""time""
""fullscreenenter"",""1"",""3007""
","
","","","1585","","","25","14075","5941","l","elianto","#3366ff99"," "," ","1","+10","[2443]","1","2","","","14075","73","1","1","win","go","0"
"pit-trial","195","1300992","0.0-78.0","battery-v0.2","","""event"",""trial"",""time""
""fullscreenenter"",""1"",""3007""
","
","
","""event"",""trial"",""time""
""fullscreenenter"",""1"",""3007""
","
","","","960","","","25","14075","5941","g","elianto","#f73b6a7A"," "," ","1","0","[1815]","1","2","","","14075","74","3","3","lose","go","0"
"pit-trial","196","1305076","0.0-79.0","battery-v0.2","","""event"",""trial"",""time""
""fullscreenenter"",""1"",""3007""
","
","
","""event"",""trial"",""time""
""fullscreenenter"",""1"",""3007""
","
","","","1087","","","25","14075","5941","s","elianto","#3366ff99"," "," ","1","+10","[1946]","1","2","","","14075","75","5","1","win","go","0"
"pit-trial","197","1309948","0.0-80.0","battery-v0.2","","""event"",""trial"",""time""
""fullscreenenter"",""1"",""3007""
","
","
","""event"",""trial"",""time""
""fullscreenenter"",""1"",""3007""
","
","","","-1","","","25","14075","5941","p","elianto","#3366ff99","-1","-1","1","0","[]","0","2","","","14075","76","4","2","win","no-go","1"
"pit-trial","198","1314827","0.0-81.0","battery-v0.2","","""event"",""trial"",""time""
""fullscreenenter"",""1"",""3007""
","
","
","""event"",""trial"",""time""
""fullscreenenter"",""1"",""3007""
","
","","","-1","","","25","14075","5941","p","elianto","#3366ff99","-1","-1","1","+10","[]","0","2","","","14075","77","4","2","win","no-go","0"
"pit-trial","199","1318914","0.0-82.0","battery-v0.2","","""event"",""trial"",""time""
""fullscreenenter"",""1"",""3007""
","
","
","""event"",""trial"",""time""
""fullscreenenter"",""1"",""3007""
","
","","","1212","","","25","14075","5941","s","elianto","#3366ff99"," "," ","1","+10","[2069]","1","2","","","14075","78","5","1","win","go","0"
"pit-trial","200","1322946","0.0-83.0","battery-v0.2","","""event"",""trial"",""time""
""fullscreenenter"",""1"",""3007""
","
","
","""event"",""trial"",""time""
""fullscreenenter"",""1"",""3007""
","
","","","996","","","25","14075","5941","g","elianto","#f73b6a7A"," "," ","1","0","[1853]","1","2","","","14075","79","3","3","lose","go","0"
"pit-trial","201","1327086","0.0-84.0","battery-v0.2","","""event"",""trial"",""time""
""fullscreenenter"",""1"",""3007""
","
","
","""event"",""trial"",""time""
""fullscreenenter"",""1"",""3007""
","
","","","1273","","","25","14075","5941","w","elianto","#f73b6a7A","-1"," ","0","-10","[2132]","1","2","","","14075","80","6","4","lose","no-go","0"
"pit-trial","202","1332005","0.0-85.0","battery-v0.2","","""event"",""trial"",""time""
""fullscreenenter"",""1"",""3007""
","
","
","""event"",""trial"",""time""
""fullscreenenter"",""1"",""3007""
","
","","","-1","","","25","14075","5941","e","elianto","#f73b6a7A"," ","-1","0","-10","[]","0","2","","","14075","81","7","3","lose","go","0"
"pit-trial","203","1336500","0.0-86.0","battery-v0.2","","""event"",""trial"",""time""
""fullscreenenter"",""1"",""3007""
","
","
","""event"",""trial"",""time""
""fullscreenenter"",""1"",""3007""
","
","","","1627","","","25","14075","5941","s","elianto","#3366ff99"," "," ","1","0","[2484]","1","2","","","14075","82","5","1","win","go","1"
"pit-trial","204","1340677","0.0-87.0","battery-v0.2","","""event"",""trial"",""time""
""fullscreenenter"",""1"",""3007""
","
","
","""event"",""trial"",""time""
""fullscreenenter"",""1"",""3007""
","
","","","1307","","","25","14075","5941","w","elianto","#f73b6a7A","-1"," ","0","-10","[2165]","1","2","","","14075","83","6","4","lose","no-go","0"
"pit-trial","205","1345557","0.0-88.0","battery-v0.2","","""event"",""trial"",""time""
""fullscreenenter"",""1"",""3007""
","
","
","""event"",""trial"",""time""
""fullscreenenter"",""1"",""3007""
","
","","","-1","","","25","14075","5941","p","elianto","#3366ff99","-1","-1","1","+10","[]","0","2","","","14075","84","4","2","win","no-go","0"
"pit-trial","206","1350420","0.0-89.0","battery-v0.2","","""event"",""trial"",""time""
""fullscreenenter"",""1"",""3007""
","
","
","""event"",""trial"",""time""
""fullscreenenter"",""1"",""3007""
","
","","","-1","","","25","14075","5941","p","elianto","#3366ff99","-1","-1","1","+10","[]","0","2","","","14075","85","4","2","win","no-go","0"
"pit-trial","207","1354581","0.0-90.0","battery-v0.2","","""event"",""trial"",""time""
""fullscreenenter"",""1"",""3007""
","
","
","""event"",""trial"",""time""
""fullscreenenter"",""1"",""3007""
","
","","","1294","","","25","14075","5941","w","elianto","#f73b6a7A","-1"," ","0","-10","[2151]","1","2","","","14075","86","6","4","lose","no-go","0"
"pit-trial","208","1359580","0.0-91.0","battery-v0.2","","""event"",""trial"",""time""
""fullscreenenter"",""1"",""3007""
","
","
","""event"",""trial"",""time""
""fullscreenenter"",""1"",""3007""
","
","","","-1","","","25","14075","5941","s","elianto","#3366ff99"," ","-1","0","0","[]","0","2","","","14075","87","5","1","win","go","0"
"pit-trial","209","1364564","0.0-92.0","battery-v0.2","","""event"",""trial"",""time""
""fullscreenenter"",""1"",""3007""
","
","
","""event"",""trial"",""time""
""fullscreenenter"",""1"",""3007""
","
","","","-1","","","25","14075","5941","e","elianto","#f73b6a7A"," ","-1","0","-10","[]","0","2","","","14075","88","7","3","lose","go","0"
"pit-trial","210","1369432","0.0-93.0","battery-v0.2","","""event"",""trial"",""time""
""fullscreenenter"",""1"",""3007""
","
","
","""event"",""trial"",""time""
""fullscreenenter"",""1"",""3007""
","
","","","-1","","","25","14075","5941","p","elianto","#3366ff99","-1","-1","1","0","[]","0","2","","","14075","89","4","2","win","no-go","1"
"pit-trial","211","1373508","0.0-94.0","battery-v0.2","","""event"",""trial"",""time""
""fullscreenenter"",""1"",""3007""
","
","
","""event"",""trial"",""time""
""fullscreenenter"",""1"",""3007""
","
","","","1094","","","25","14075","5941","s","elianto","#3366ff99"," "," ","1","0","[1946]","1","2","","","14075","90","5","1","win","go","1"
"pit-trial","212","1377552","0.0-95.0","battery-v0.2","","""event"",""trial"",""time""
""fullscreenenter"",""1"",""3007""
","
","
","""event"",""trial"",""time""
""fullscreenenter"",""1"",""3007""
","
","","","1123","","","25","14075","5941","e","elianto","#f73b6a7A"," "," ","1","0","[1984]","1","2","","","14075","91","7","3","lose","go","0"
"pit-trial","213","1381144","0.0-96.0","battery-v0.2","","""event"",""trial"",""time""
""fullscreenenter"",""1"",""3007""
","
","
","""event"",""trial"",""time""
""fullscreenenter"",""1"",""3007""
","
","","","727","","","25","14075","5941","w","elianto","#f73b6a7A","-1"," ","0","-10","[1585]","1","2","","","14075","92","6","4","lose","no-go","0"
"pit-trial","214","1385056","0.0-97.0","battery-v0.2","","""event"",""trial"",""time""
""fullscreenenter"",""1"",""3007""
","
","
","""event"",""trial"",""time""
""fullscreenenter"",""1"",""3007""
","
","","","1047","","","25","14075","5941","e","elianto","#f73b6a7A"," "," ","1","0","[1909]","1","2","","","14075","93","7","3","lose","go","0"
"pit-trial","215","1389174","0.0-98.0","battery-v0.2","","""event"",""trial"",""time""
""fullscreenenter"",""1"",""3007""
","
","
","""event"",""trial"",""time""
""fullscreenenter"",""1"",""3007""
","
","","","1253","","","25","14075","5941","d","elianto","#3366ff99","-1"," ","0","+10","[2111]","1","2","","","14075","94","8","2","win","no-go","1"
"pit-trial","216","1394053","0.0-99.0","battery-v0.2","","""event"",""trial"",""time""
""fullscreenenter"",""1"",""3007""
","
","
","""event"",""trial"",""time""
""fullscreenenter"",""1"",""3007""
","
","","","-1","","","25","14075","5941","w","elianto","#f73b6a7A","-1","-1","1","0","[]","0","2","","","14075","95","6","4","lose","no-go","0"
"pit-trial","217","1397771","0.0-100.0","battery-v0.2","","""event"",""trial"",""time""
""fullscreenenter"",""1"",""3007""
","
","
","""event"",""trial"",""time""
""fullscreenenter"",""1"",""3007""
","
","","","742","","","25","14075","5941","s","elianto","#3366ff99"," "," ","1","+10","[1599]","1","2","","","14075","96","5","1","win","go","0"
"pit-trial","218","1402647","0.0-101.0","battery-v0.2","","""event"",""trial"",""time""
""fullscreenenter"",""1"",""3007""
","
","
","""event"",""trial"",""time""
""fullscreenenter"",""1"",""3007""
","
","","","-1","","","25","14075","5941","w","elianto","#f73b6a7A","-1","-1","1","0","[]","0","2","","","14075","97","6","4","lose","no-go","0"
"pit-trial","219","1407080","0.0-102.0","battery-v0.2","","""event"",""trial"",""time""
""fullscreenenter"",""1"",""3007""
","
","
","""event"",""trial"",""time""
""fullscreenenter"",""1"",""3007""
","
","","","1571","","","25","14075","5941","e","elianto","#f73b6a7A"," "," ","1","0","[2429]","1","2","","","14075","98","7","3","lose","go","0"
"pit-trial","220","1411269","0.0-103.0","battery-v0.2","","""event"",""trial"",""time""
""fullscreenenter"",""1"",""3007""
","
","
","""event"",""trial"",""time""
""fullscreenenter"",""1"",""3007""
","
","","","1283","","","25","14075","5941","s","elianto","#3366ff99"," "," ","1","+10","[2173]","1","2","","","14075","99","5","1","win","go","0"
"pit-trial","221","1416128","0.0-104.0","battery-v0.2","","""event"",""trial"",""time""
""fullscreenenter"",""1"",""3007""
","
","
","""event"",""trial"",""time""
""fullscreenenter"",""1"",""3007""
","
","","","-1","","","25","14075","5941","d","elianto","#3366ff99","-1","-1","1","+10","[2926]","1","2","","","14075","100","8","2","win","no-go","0"
"pit-trial","222","1420177","0.0-105.0","battery-v0.2","","""event"",""trial"",""time""
""fullscreenenter"",""1"",""3007""
","
","
","""event"",""trial"",""time""
""fullscreenenter"",""1"",""3007""
","
","","","1135","","","25","14075","5941","j","elianto","#3366ff99","-1"," ","0","0","[1993]","1","2","","","14075","101","9","2","win","no-go","0"
"pit-trial","223","1424365","0.0-106.0","battery-v0.2","","""event"",""trial"",""time""
""fullscreenenter"",""1"",""3007""
","
","
","""event"",""trial"",""time""
""fullscreenenter"",""1"",""3007""
","
","","","1327","","","25","14075","5941","s","elianto","#3366ff99"," "," ","1","0","[2184]","1","2","","","14075","102","5","1","win","go","1"
"pit-trial","224","1428472","0.0-107.0","battery-v0.2","","""event"",""trial"",""time""
""fullscreenenter"",""1"",""3007""
","
","
","""event"",""trial"",""time""
""fullscreenenter"",""1"",""3007""
","
","","","1245","","","25","14075","5941","w","elianto","#f73b6a7A","-1"," ","0","0","[2101]","1","2","","","14075","103","6","4","lose","no-go","1"
"pit-trial","225","1432488","0.0-108.0","battery-v0.2","","""event"",""trial"",""time""
""fullscreenenter"",""1"",""3007""
","
","
","""event"",""trial"",""time""
""fullscreenenter"",""1"",""3007""
","
","","","1007","","","25","14075","5941","d","elianto","#3366ff99","-1"," ","0","0","[1868]","1","2","","","14075","104","8","2","win","no-go","0"
"pit-trial","226","1437355","0.0-109.0","battery-v0.2","","""event"",""trial"",""time""
""fullscreenenter"",""1"",""3007""
","
","
","""event"",""trial"",""time""
""fullscreenenter"",""1"",""3007""
","
","","","-1","","","25","14075","5941","d","elianto","#3366ff99","-1","-1","1","0","[]","0","2","","","14075","105","8","2","win","no-go","1"
"pit-trial","227","1441438","0.0-110.0","battery-v0.2","","""event"",""trial"",""time""
""fullscreenenter"",""1"",""3007""
","
","
","""event"",""trial"",""time""
""fullscreenenter"",""1"",""3007""
","
","","","1207","","","25","14075","5941","s","elianto","#3366ff99"," "," ","1","+10","[2066]","1","2","","","14075","106","5","1","win","go","0"
"pit-trial","228","1446043","0.0-111.0","battery-v0.2","","""event"",""trial"",""time""
""fullscreenenter"",""1"",""3007""
","
","
","""event"",""trial"",""time""
""fullscreenenter"",""1"",""3007""
","
","","","1735","","","25","14075","5941","w","elianto","#f73b6a7A","-1"," ","0","-10","[2592]","1","2","","","14075","107","6","4","lose","no-go","0"
"pit-trial","229","1450366","0.0-112.0","battery-v0.2","","""event"",""trial"",""time""
""fullscreenenter"",""1"",""3007""
","
","
","""event"",""trial"",""time""
""fullscreenenter"",""1"",""3007""
","
","","","1303","","","25","14075","5941","j","elianto","#3366ff99","-1"," ","0","0","[2165]","1","2","","","14075","108","9","2","win","no-go","0"
"pit-trial","230","1455371","0.0-113.0","battery-v0.2","","""event"",""trial"",""time""
""fullscreenenter"",""1"",""3007""
","
","
","""event"",""trial"",""time""
""fullscreenenter"",""1"",""3007""
","
","","","-1","","","25","14075","5941","d","elianto","#3366ff99","-1","-1","1","+10","[3030]","1","2","","","14075","109","8","2","win","no-go","0"
"pit-trial","231","1459760","0.0-114.0","battery-v0.2","","""event"",""trial"",""time""
""fullscreenenter"",""1"",""3007""
","
","
","""event"",""trial"",""time""
""fullscreenenter"",""1"",""3007""
","
","","","1530","","","25","14075","5941","w","elianto","#f73b6a7A","-1"," ","0","-10","[2386]","1","2","","","14075","110","6","4","lose","no-go","0"
"pit-trial","232","1463794","0.0-115.0","battery-v0.2","","""event"",""trial"",""time""
""fullscreenenter"",""1"",""3007""
","
","
","""event"",""trial"",""time""
""fullscreenenter"",""1"",""3007""
","
","","","1043","","","25","14075","5941","j","elianto","#3366ff99","-1"," ","0","+10","[1902]","1","2","","","14075","111","9","2","win","no-go","1"
"pit-trial","233","1468186","0.0-116.0","battery-v0.2","","""event"",""trial"",""time""
""fullscreenenter"",""1"",""3007""
","
","
","""event"",""trial"",""time""
""fullscreenenter"",""1"",""3007""
","
","","","1515","","","25","14075","5941","s","elianto","#3366ff99"," "," ","1","+10","[2372]","1","2","","","14075","112","5","1","win","go","0"
"pit-trial","234","1472485","0.0-117.0","battery-v0.2","","""event"",""trial"",""time""
""fullscreenenter"",""1"",""3007""
","
","
","""event"",""trial"",""time""
""fullscreenenter"",""1"",""3007""
","
","","","1433","","","25","14075","5941","d","elianto","#3366ff99","-1"," ","0","+10","[2289]","1","2","","","14075","113","8","2","win","no-go","1"
"pit-trial","235","1477047","0.0-118.0","battery-v0.2","","""event"",""trial"",""time""
""fullscreenenter"",""1"",""3007""
","
","
","""event"",""trial"",""time""
""fullscreenenter"",""1"",""3007""
","
","","","1699","","","25","14075","5941","s","elianto","#3366ff99"," "," ","1","0","[2558]","1","2","","","14075","114","5","1","win","go","1"
"pit-trial","236","1480838","0.0-119.0","battery-v0.2","","""event"",""trial"",""time""
""fullscreenenter"",""1"",""3007""
","
","
","""event"",""trial"",""time""
""fullscreenenter"",""1"",""3007""
","
","","","888","","","25","14075","5941","e","elianto","#f73b6a7A"," "," ","1","0","[1747]","1","2","","","14075","115","7","3","lose","go","0"
"pit-trial","237","1485458","0.0-120.0","battery-v0.2","","""event"",""trial"",""time""
""fullscreenenter"",""1"",""3007""
","
","
","""event"",""trial"",""time""
""fullscreenenter"",""1"",""3007""
","
","","","1749","","","25","14075","5941","j","elianto","#3366ff99","-1"," ","0","+10","[2606]","1","2","","","14075","116","9","2","win","no-go","1"
"pit-trial","238","1489184","0.0-121.0","battery-v0.2","","""event"",""trial"",""time""
""fullscreenenter"",""1"",""3007""
","
","
","""event"",""trial"",""time""
""fullscreenenter"",""1"",""3007""
","
","","","833","","","25","14075","5941","j","elianto","#3366ff99","-1"," ","0","0","[1691]","1","2","","","14075","117","9","2","win","no-go","0"
"pit-trial","239","1492963","0.0-122.0","battery-v0.2","","""event"",""trial"",""time""
""fullscreenenter"",""1"",""3007""
","
","
","""event"",""trial"",""time""
""fullscreenenter"",""1"",""3007""
","
","","","904","","","25","14075","5941","s","elianto","#3366ff99"," "," ","1","+10","[1759]","1","2","","","14075","118","5","1","win","go","0"
"pit-trial","240","1497077","0.0-123.0","battery-v0.2","","""event"",""trial"",""time""
""fullscreenenter"",""1"",""3007""
","
","
","""event"",""trial"",""time""
""fullscreenenter"",""1"",""3007""
","
","","","1112","","","25","14075","5941","d","elianto","#3366ff99","-1"," ","0","0","[1969]","1","2","","","14075","119","8","2","win","no-go","0"
"pit-trial","241","1501204","0.0-124.0","battery-v0.2","","""event"",""trial"",""time""
""fullscreenenter"",""1"",""3007""
","
","
","""event"",""trial"",""time""
""fullscreenenter"",""1"",""3007""
","
","","","1094","","","25","14075","5941","w","elianto","#f73b6a7A","-1"," ","0","-10","[1950]","1","2","","","14075","120","6","4","lose","no-go","0"
"pit-trial","242","1504909","0.0-125.0","battery-v0.2","","""event"",""trial"",""time""
""fullscreenenter"",""1"",""3007""
","
","
","""event"",""trial"",""time""
""fullscreenenter"",""1"",""3007""
","
","","","852","","","25","14075","5941","s","elianto","#3366ff99"," "," ","1","+10","[1702]","1","2","","","14075","121","5","1","win","go","0"
"pit-trial","243","1509575","0.0-126.0","battery-v0.2","","""event"",""trial"",""time""
""fullscreenenter"",""1"",""3007""
","
","
","""event"",""trial"",""time""
""fullscreenenter"",""1"",""3007""
","
","","","1797","","","25","14075","5941","d","elianto","#3366ff99","-1"," ","0","0","[2660]","1","2","","","14075","122","8","2","win","no-go","0"
"pit-trial","244","1513418","0.0-127.0","battery-v0.2","","""event"",""trial"",""time""
""fullscreenenter"",""1"",""3007""
","
","
","""event"",""trial"",""time""
""fullscreenenter"",""1"",""3007""
","
","","","862","","","25","14075","5941","j","elianto","#3366ff99","-1"," ","0","0","[1724]","1","2","","","14075","123","9","2","win","no-go","0"
"pit-trial","245","1518392","0.0-128.0","battery-v0.2","","""event"",""trial"",""time""
""fullscreenenter"",""1"",""3007""
","
","
","""event"",""trial"",""time""
""fullscreenenter"",""1"",""3007""
","
","","","-1","","","25","14075","5941","e","elianto","#f73b6a7A"," ","-1","0","0","[]","0","2","","","14075","124","7","3","lose","go","1"
"pit-trial","246","1522389","0.0-129.0","battery-v0.2","","""event"",""trial"",""time""
""fullscreenenter"",""1"",""3007""
","
","
","""event"",""trial"",""time""
""fullscreenenter"",""1"",""3007""
","
","","","1118","","","25","14075","5941","d","elianto","#3366ff99","-1"," ","0","0","[1978]","1","2","","","14075","125","8","2","win","no-go","0"
"pit-trial","247","1526160","0.0-130.0","battery-v0.2","","""event"",""trial"",""time""
""fullscreenenter"",""1"",""3007""
","
","
","""event"",""trial"",""time""
""fullscreenenter"",""1"",""3007""
","
","","","910","","","25","14075","5941","j","elianto","#3366ff99","-1"," ","0","0","[1763]","1","2","","","14075","126","9","2","win","no-go","0"
"pit-trial","248","1531022","0.0-131.0","battery-v0.2","","""event"",""trial"",""time""
""fullscreenenter"",""1"",""3007""
","
","
","""event"",""trial"",""time""
""fullscreenenter"",""1"",""3007""
","
","","","-1","","","25","14075","5941","e","elianto","#f73b6a7A"," ","-1","0","-10","[]","0","2","","","14075","127","7","3","lose","go","0"
"pit-trial","249","1535084","0.0-132.0","battery-v0.2","","""event"",""trial"",""time""
""fullscreenenter"",""1"",""3007""
","
","
","""event"",""trial"",""time""
""fullscreenenter"",""1"",""3007""
","
","","","1204","","","25","14075","5941","w","elianto","#f73b6a7A","-1"," ","0","-10","[2060]","1","2","","","14075","128","6","4","lose","no-go","0"
"pit-trial","250","1540093","0.0-133.0","battery-v0.2","","""event"",""trial"",""time""
""fullscreenenter"",""1"",""3007""
","
","
","""event"",""trial"",""time""
""fullscreenenter"",""1"",""3007""
","
","","","-1","","","25","14075","5941","w","elianto","#f73b6a7A","-1","-1","1","0","[]","0","2","","","14075","129","6","4","lose","no-go","0"
"pit-trial","251","1545115","0.0-134.0","battery-v0.2","","""event"",""trial"",""time""
""fullscreenenter"",""1"",""3007""
","
","
","""event"",""trial"",""time""
""fullscreenenter"",""1"",""3007""
","
","","","-1","","","25","14075","5941","e","elianto","#f73b6a7A"," ","-1","0","-10","[]","0","2","","","14075","130","7","3","lose","go","0"
"pit-trial","252","1549985","0.0-135.0","battery-v0.2","","""event"",""trial"",""time""
""fullscreenenter"",""1"",""3007""
","
","
","""event"",""trial"",""time""
""fullscreenenter"",""1"",""3007""
","
","","","-1","","","25","14075","5941","j","elianto","#3366ff99","-1","-1","1","+10","[]","0","2","","","14075","131","9","2","win","no-go","0"
"pit-trial","253","1554857","0.0-136.0","battery-v0.2","","""event"",""trial"",""time""
""fullscreenenter"",""1"",""3007""
","
","
","""event"",""trial"",""time""
""fullscreenenter"",""1"",""3007""
","
","","","-1","","","25","14075","5941","d","elianto","#3366ff99","-1","-1","1","0","[]","0","2","","","14075","132","8","2","win","no-go","1"
"pit-trial","254","1559724","0.0-137.0","battery-v0.2","","""event"",""trial"",""time""
""fullscreenenter"",""1"",""3007""
","
","
","""event"",""trial"",""time""
""fullscreenenter"",""1"",""3007""
","
","","","-1","","","25","14075","5941","e","elianto","#f73b6a7A"," ","-1","0","-10","[]","0","2","","","14075","133","7","3","lose","go","0"
"pit-trial","255","1564591","0.0-138.0","battery-v0.2","","""event"",""trial"",""time""
""fullscreenenter"",""1"",""3007""
","
","
","""event"",""trial"",""time""
""fullscreenenter"",""1"",""3007""
","
","","","-1","","","25","14075","5941","d","elianto","#3366ff99","-1","-1","1","+10","[]","0","2","","","14075","134","8","2","win","no-go","0"
"pit-trial","256","1569464","0.0-139.0","battery-v0.2","","""event"",""trial"",""time""
""fullscreenenter"",""1"",""3007""
","
","
","""event"",""trial"",""time""
""fullscreenenter"",""1"",""3007""
","
","","","-1","","","25","14075","5941","w","elianto","#f73b6a7A","-1","-1","1","0","[]","0","2","","","14075","135","6","4","lose","no-go","0"
"pit-trial","257","1574340","0.0-140.0","battery-v0.2","","""event"",""trial"",""time""
""fullscreenenter"",""1"",""3007""
","
","
","""event"",""trial"",""time""
""fullscreenenter"",""1"",""3007""
","
","","","-1","","","25","14075","5941","j","elianto","#3366ff99","-1","-1","1","+10","[]","0","2","","","14075","136","9","2","win","no-go","0"
"pit-trial","258","1579220","0.0-141.0","battery-v0.2","","""event"",""trial"",""time""
""fullscreenenter"",""1"",""3007""
","
","
","""event"",""trial"",""time""
""fullscreenenter"",""1"",""3007""
","
","","","-1","","","25","14075","5941","j","elianto","#3366ff99","-1","-1","1","+10","[]","0","2","","","14075","137","9","2","win","no-go","0"
"pit-trial","259","1584103","0.0-142.0","battery-v0.2","","""event"",""trial"",""time""
""fullscreenenter"",""1"",""3007""
","
","
","""event"",""trial"",""time""
""fullscreenenter"",""1"",""3007""
","
","","","-1","","","25","14075","5941","e","elianto","#f73b6a7A"," ","-1","0","-10","[]","0","2","","","14075","138","7","3","lose","go","0"
"pit-trial","260","1588975","0.0-143.0","battery-v0.2","","""event"",""trial"",""time""
""fullscreenenter"",""1"",""3007""
","
","
","""event"",""trial"",""time""
""fullscreenenter"",""1"",""3007""
","
","","","-1","","","25","14075","5941","d","elianto","#3366ff99","-1","-1","1","+10","[]","0","2","","","14075","139","8","2","win","no-go","0"
"pit-trial","261","1593846","0.0-144.0","battery-v0.2","","""event"",""trial"",""time""
""fullscreenenter"",""1"",""3007""
","
","
","""event"",""trial"",""time""
""fullscreenenter"",""1"",""3007""
","
","","","-1","","","25","14075","5941","w","elianto","#f73b6a7A","-1","-1","1","0","[]","0","2","","","14075","140","6","4","lose","no-go","0"
"pit-instructions","262","1658191","0.0-145.0","battery-v0.2","","""event"",""trial"",""time""
""fullscreenenter"",""1"",""3007""
","
","
","""event"",""trial"",""time""
""fullscreenenter"",""1"",""3007""
","
","","[{""page_index"":0,""viewing_time"":54869},{""page_index"":1,""viewing_time"":9474}]","64343","","","","","","","","","","","","","","","","","","","","","","","",""
"pit-trial","263","1663056","0.0-146.0","battery-v0.2","","""event"",""trial"",""time""
""fullscreenenter"",""1"",""3007""
","
","
","""event"",""trial"",""time""
""fullscreenenter"",""1"",""3007""
","
","","","-1","","","25","14075","5941","y","elianto","#f73b6a7A"," ","-1","0","-10","[]","0","3","","","14075","141","2","3","lose","go","0"
"pit-trial","264","1666782","0.0-147.0","battery-v0.2","","""event"",""trial"",""time""
""fullscreenenter"",""1"",""3007""
","
","
","""event"",""trial"",""time""
""fullscreenenter"",""1"",""3007""
","
","","","859","","","25","14075","5941","h","elianto","#f73b6a7A","-1"," ","0","0","[1712]","1","3","","","14075","142","3","4","lose","no-go","1"
"pit-trial","265","1670664","0.0-148.0","battery-v0.2","","""event"",""trial"",""time""
""fullscreenenter"",""1"",""3007""
","
","
","""event"",""trial"",""time""
""fullscreenenter"",""1"",""3007""
","
","","","1014","","","25","14075","5941","r","elianto","#3366ff99","-1"," ","0","+10","[1864]","1","3","","","14075","143","1","2","win","no-go","1"
"pit-trial","266","1674790","0.0-149.0","battery-v0.2","","""event"",""trial"",""time""
""fullscreenenter"",""1"",""3007""
","
","
","""event"",""trial"",""time""
""fullscreenenter"",""1"",""3007""
","
","","","1237","","","25","14075","5941","m","elianto","#f73b6a7A"," "," ","1","0","[2094]","1","3","","","14075","144","0","3","lose","go","0"
"pit-trial","267","1678762","0.0-150.0","battery-v0.2","","""event"",""trial"",""time""
""fullscreenenter"",""1"",""3007""
","
","
","""event"",""trial"",""time""
""fullscreenenter"",""1"",""3007""
","
","","","1104","","","25","14075","5941","h","elianto","#f73b6a7A","-1"," ","0","-10","[1965]","1","3","","","14075","145","3","4","lose","no-go","0"
"pit-trial","268","1682777","0.0-151.0","battery-v0.2","","""event"",""trial"",""time""
""fullscreenenter"",""1"",""3007""
","
","
","""event"",""trial"",""time""
""fullscreenenter"",""1"",""3007""
","
","","","1142","","","25","14075","5941","r","elianto","#3366ff99","-1"," ","0","0","[1998]","1","3","","","14075","146","1","2","win","no-go","0"
"pit-trial","269","1686968","0.0-152.0","battery-v0.2","","""event"",""trial"",""time""
""fullscreenenter"",""1"",""3007""
","
","
","""event"",""trial"",""time""
""fullscreenenter"",""1"",""3007""
","
","","","1136","","","25","14075","5941","m","elianto","#f73b6a7A"," "," ","1","-10","[1991]","1","3","","","14075","147","0","3","lose","go","1"
"pit-trial","270","1690733","0.0-153.0","battery-v0.2","","""event"",""trial"",""time""
""fullscreenenter"",""1"",""3007""
","
","
","""event"",""trial"",""time""
""fullscreenenter"",""1"",""3007""
","
","","","896","","","25","14075","5941","y","elianto","#f73b6a7A"," "," ","1","0","[1752]","1","3","","","14075","148","2","3","lose","go","0"
"pit-trial","271","1695608","0.0-154.0","battery-v0.2","","""event"",""trial"",""time""
""fullscreenenter"",""1"",""3007""
","
","
","""event"",""trial"",""time""
""fullscreenenter"",""1"",""3007""
","
","","","-1","","","25","14075","5941","r","elianto","#3366ff99","-1","-1","1","+10","[]","0","3","","","14075","149","1","2","win","no-go","0"
"pit-trial","272","1700487","0.0-155.0","battery-v0.2","","""event"",""trial"",""time""
""fullscreenenter"",""1"",""3007""
","
","
","""event"",""trial"",""time""
""fullscreenenter"",""1"",""3007""
","
","","","-1","","","25","14075","5941","m","elianto","#f73b6a7A"," ","-1","0","-10","[]","0","3","","","14075","150","0","3","lose","go","0"
"pit-trial","273","1704920","0.0-156.0","battery-v0.2","","""event"",""trial"",""time""
""fullscreenenter"",""1"",""3007""
","
","
","""event"",""trial"",""time""
""fullscreenenter"",""1"",""3007""
","
","","","1560","","","25","14075","5941","y","elianto","#f73b6a7A"," "," ","1","0","[2415]","1","3","","","14075","151","2","3","lose","go","0"
"pit-trial","274","1709915","0.0-157.0","battery-v0.2","","""event"",""trial"",""time""
""fullscreenenter"",""1"",""3007""
","
","
","""event"",""trial"",""time""
""fullscreenenter"",""1"",""3007""
","
","","","-1","","","25","14075","5941","h","elianto","#f73b6a7A","-1","-1","1","0","[]","0","3","","","14075","152","3","4","lose","no-go","0"
"pit-trial","275","1714694","0.0-158.0","battery-v0.2","","""event"",""trial"",""time""
""fullscreenenter"",""1"",""3007""
","
","
","""event"",""trial"",""time""
""fullscreenenter"",""1"",""3007""
","
","","","1920","","","25","14075","5941","h","elianto","#f73b6a7A","-1"," ","0","-10","[2776]","1","3","","","14075","153","3","4","lose","no-go","0"
"pit-trial","276","1719562","0.0-159.0","battery-v0.2","","""event"",""trial"",""time""
""fullscreenenter"",""1"",""3007""
","
","
","""event"",""trial"",""time""
""fullscreenenter"",""1"",""3007""
","
","","","-1","","","25","14075","5941","r","elianto","#3366ff99","-1","-1","1","+10","[]","0","3","","","14075","154","1","2","win","no-go","0"
"pit-trial","277","1723503","0.0-160.0","battery-v0.2","","""event"",""trial"",""time""
""fullscreenenter"",""1"",""3007""
","
","
","""event"",""trial"",""time""
""fullscreenenter"",""1"",""3007""
","
","","","1067","","","25","14075","5941","y","elianto","#f73b6a7A"," "," ","1","-10","[1924]","1","3","","","14075","155","2","3","lose","go","1"
