"trial_type","trial_index","time_elapsed","internal_node_id","task_version","subject_id","interactions","blur_events","focus_events","fullscreenenter_events","fullscreenexit_events","success","view_history","rt","responses","num_errors","age","subject","participantId","rune","rune_set","hex","correct","choice","accuracy","outcome","keys","total_keys","block","practice","value","sub","trial","stimulus","robot","valence","action","sham"
"pavlovia","0","14","0.0-0.0","battery-v0.2","","""event"",""trial"",""time""
""fullscreenenter"",""1"",""2042""
","
","
","""event"",""trial"",""time""
""fullscreenenter"",""1"",""2042""
","
","","","","","","","","","","","","","","","","","","","","","","","","","","",""
"fullscreen","1","2962","0.0-1.0","battery-v0.2","","""event"",""trial"",""time""
""fullscreenenter"",""1"",""2042""
","
","
","""event"",""trial"",""time""
""fullscreenenter"",""1"",""2042""
","
","true","","","","","","","","","","","","","","","","","","","","","","","","","",""
"pit-instructions","2","7095","0.0-2.0-0.0","battery-v0.2","","""event"",""trial"",""time""
""fullscreenenter"",""1"",""2042""
","
","
","""event"",""trial"",""time""
""fullscreenenter"",""1"",""2042""
","
","","[{""page_index"":0,""viewing_time"":4127.999999999999}]","4129.000000000001","","","","","","","","","","","","","","","","","","","","","","","",""
"pit-comprehension","3","9586","0.0-2.0-1.0-0.0","battery-v0.2","","""event"",""trial"",""time""
""fullscreenenter"",""1"",""2042""
","
","
","""event"",""trial"",""time""
""fullscreenenter"",""1"",""2042""
","
","","","2435","[""shark""]","0","21","4640","3049","","","","","","","","","","","","","","","","","","",""
"pit-instructions","4","12116","0.0-2.0-1.0-1.0","battery-v0.2","","""event"",""trial"",""time""
""fullscreenenter"",""1"",""2042""
","
","
","""event"",""trial"",""time""
""fullscreenenter"",""1"",""2042""
","
","","[{""page_index"":0,""viewing_time"":2512}]","2512","","","","","","","","","","","","","","","","","","","","","","","",""
"pit-comprehension","5","14135","0.0-2.0-2.0-0.0","battery-v0.2","","""event"",""trial"",""time""
""fullscreenenter"",""1"",""2042""
","
","
","""event"",""trial"",""time""
""fullscreenenter"",""1"",""2042""
","
","","","2015","[""tiger""]","0","21","4640","3049","","","","","","","","","","","","","","","","","","",""
"pit-instructions","6","15315","0.0-2.0-2.0-1.0","battery-v0.2","","""event"",""trial"",""time""
""fullscreenenter"",""1"",""2042""
","
","
","""event"",""trial"",""time""
""fullscreenenter"",""1"",""2042""
","
","","[{""page_index"":0,""viewing_time"":1171}]","1172","","","","","","","","","","","","","","","","","","","","","","","",""
"pit-instructions","7","130254","0.0-2.0-3.0","battery-v0.2","","""event"",""trial"",""time""
""fullscreenenter"",""1"",""2042""
","
","
","""event"",""trial"",""time""
""fullscreenenter"",""1"",""2042""
","
","","[{""page_index"":0,""viewing_time"":10112},{""page_index"":1,""viewing_time"":8194},{""page_index"":2,""viewing_time"":6910},{""page_index"":3,""viewing_time"":7333},{""page_index"":4,""viewing_time"":6584.000000000007},{""page_index"":5,""viewing_time"":6297.999999999993},{""page_index"":6,""viewing_time"":7065},{""page_index"":7,""viewing_time"":6868},{""page_index"":8,""viewing_time"":7440},{""page_index"":9,""viewing_time"":10022.000000000015},{""page_index"":10,""viewing_time"":8263.999999999985},{""page_index"":11,""viewing_time"":8377},{""page_index"":12,""viewing_time"":10448.000000000015},{""page_index"":13,""viewing_time"":11024.999999999985}]","114941","","","","","","","","","","","","","","","","","","","","","","","",""
"pit-trial","8","133939","0.0-2.0-4.0-0.0","battery-v0.2","","""event"",""trial"",""time""
""fullscreenenter"",""1"",""2042""
","
","
","""event"",""trial"",""time""
""fullscreenenter"",""1"",""2042""
","
","","","821","","","21","4640","3049","&#9784;","elianto","#FFFFF080"," "," ","1","&#10004","[1671]","1","0","0","","","","","","","",""
"pit-trial","9","137460","0.0-2.0-4.1-0.1","battery-v0.2","","""event"",""trial"",""time""
""fullscreenenter"",""1"",""2042""
","
","
","""event"",""trial"",""time""
""fullscreenenter"",""1"",""2042""
","
","","","665","","","21","4640","3049","&#9784;","elianto","#FFFFF080"," "," ","1","&#10004","[1516]","1","0","0","","","","","","","",""
"pit-trial","10","140797","0.0-2.0-4.2-0.2","battery-v0.2","","""event"",""trial"",""time""
""fullscreenenter"",""1"",""2042""
","
","
","""event"",""trial"",""time""
""fullscreenenter"",""1"",""2042""
","
","","","480.9999999999709","","","21","4640","3049","&#9784;","elianto","#FFFFF080"," "," ","1","&#10004","[1331]","1","0","0","","","","","","","",""
"pit-trial","11","144106","0.0-2.0-4.3-0.3","battery-v0.2","","""event"",""trial"",""time""
""fullscreenenter"",""1"",""2042""
","
","
","""event"",""trial"",""time""
""fullscreenenter"",""1"",""2042""
","
","","","455","","","21","4640","3049","&#9784;","elianto","#FFFFF080"," "," ","1","&#10004","[1306,3108]","2","0","0","","","","","","","",""
"pit-trial","12","147535","0.0-2.0-4.4-0.4","battery-v0.2","","""event"",""trial"",""time""
""fullscreenenter"",""1"",""2042""
","
","
","""event"",""trial"",""time""
""fullscreenenter"",""1"",""2042""
","
","","","574","","","21","4640","3049","&#9784;","elianto","#FFFFF080"," "," ","1","&#10004","[1425]","1","0","0","","","","","","","",""
"pit-instructions","13","187850","0.0-2.0-5.0","battery-v0.2","","""event"",""trial"",""time""
""fullscreenenter"",""1"",""2042""
","
","
","""event"",""trial"",""time""
""fullscreenenter"",""1"",""2042""
","
","","[{""page_index"":0,""viewing_time"":21741},{""page_index"":1,""viewing_time"":5865},{""page_index"":2,""viewing_time"":5501},{""page_index"":3,""viewing_time"":7203}]","40311","","","","","","","","","","","","","","","","","","","","","","","",""
"pit-trial","14","192704","0.0-2.0-6.0-0.0","battery-v0.2","","""event"",""trial"",""time""
""fullscreenenter"",""1"",""2042""
","
","
","""event"",""trial"",""time""
""fullscreenenter"",""1"",""2042""
","
","","","-1","","","21","4640","3049","&#9854;","elianto","#FFFFF080","-1","-1","1","&#10004","[]","0","0","1","","","","","","","",""
"pit-trial","15","197558","0.0-2.0-6.1-0.1","battery-v0.2","","""event"",""trial"",""time""
""fullscreenenter"",""1"",""2042""
","
","
","""event"",""trial"",""time""
""fullscreenenter"",""1"",""2042""
","
","","","-1","","","21","4640","3049","&#9854;","elianto","#FFFFF080","-1","-1","1","&#10004","[]","0","0","1","","","","","","","",""
"pit-trial","16","202411","0.0-2.0-6.2-0.2","battery-v0.2","","""event"",""trial"",""time""
""fullscreenenter"",""1"",""2042""
","
","
","""event"",""trial"",""time""
""fullscreenenter"",""1"",""2042""
","
","","","-1","","","21","4640","3049","&#9854;","elianto","#FFFFF080","-1","-1","1","&#10004","[]","0","0","1","","","","","","","",""
"pit-trial","17","207266","0.0-2.0-6.3-0.3","battery-v0.2","","""event"",""trial"",""time""
""fullscreenenter"",""1"",""2042""
","
","
","""event"",""trial"",""time""
""fullscreenenter"",""1"",""2042""
","
","","","-1","","","21","4640","3049","&#9854;","elianto","#FFFFF080","-1","-1","1","&#10004","[]","0","0","1","","","","","","","",""
"pit-trial","18","212119","0.0-2.0-6.4-0.4","battery-v0.2","","""event"",""trial"",""time""
""fullscreenenter"",""1"",""2042""
","
","
","""event"",""trial"",""time""
""fullscreenenter"",""1"",""2042""
","
","","","-1","","","21","4640","3049","&#9854;","elianto","#FFFFF080","-1","-1","1","&#10004","[]","0","0","1","","","","","","","",""
"pit-instructions","19","378940","0.0-2.0-7.0","battery-v0.2","","""event"",""trial"",""time""
""fullscreenenter"",""1"",""2042""
","
","
","""event"",""trial"",""time""
""fullscreenenter"",""1"",""2042""
","
","","[{""page_index"":0,""viewing_time"":6669.000000000029},{""page_index"":1,""viewing_time"":8784.99999999997},{""page_index"":2,""viewing_time"":9019.00000000003},{""page_index"":3,""viewing_time"":8044.999999999971},{""page_index"":4,""viewing_time"":6967.000000000029},{""page_index"":5,""viewing_time"":6459},{""page_index"":6,""viewing_time"":11136.99999999997},{""page_index"":7,""viewing_time"":17794},{""page_index"":8,""viewing_time"":8750},{""page_index"":9,""viewing_time"":8646},{""page_index"":10,""viewing_time"":8366},{""page_index"":11,""viewing_time"":7088},{""page_index"":12,""viewing_time"":7925},{""page_index"":13,""viewing_time"":8856.000000000058},{""page_index"":14,""viewing_time"":12145.999999999942},{""page_index"":15,""viewing_time"":9954},{""page_index"":16,""viewing_time"":10810},{""page_index"":17,""viewing_time"":9411}]","166827","","","","","","","","","","","","","","","","","","","","","","","",""
"pit-trial","20","383796","0.0-2.0-8.0-0.0","battery-v0.2","","""event"",""trial"",""time""
""fullscreenenter"",""1"",""2042""
","
","
","""event"",""trial"",""time""
""fullscreenenter"",""1"",""2042""
","
","","","-1","","","21","4640","3049","&#9776;","elianto","#3366ff99"," ","-1","0","0","[]","0","0","1","","","","","","","",""
"pit-trial","21","388650","0.0-2.0-8.0-1.0","battery-v0.2","","""event"",""trial"",""time""
""fullscreenenter"",""1"",""2042""
","
","
","""event"",""trial"",""time""
""fullscreenenter"",""1"",""2042""
","
","","","-1","","","21","4640","3049","&#9776;","elianto","#3366ff99"," ","-1","0","0","[]","0","0","1","","","","","","","",""
"pit-trial","22","392290","0.0-2.0-8.0-2.0","battery-v0.2","","""event"",""trial"",""time""
""fullscreenenter"",""1"",""2042""
","
","
","""event"",""trial"",""time""
""fullscreenenter"",""1"",""2042""
","
","","","785","","","21","4640","3049","&#9776;","elianto","#3366ff99"," "," ","1","+10","[1636]","1","0","1","","","","","","","",""
"pit-trial","23","395942","0.0-2.0-8.0-3.0","battery-v0.2","","""event"",""trial"",""time""
""fullscreenenter"",""1"",""2042""
","
","
","""event"",""trial"",""time""
""fullscreenenter"",""1"",""2042""
","
","","","799","","","21","4640","3049","&#9776;","elianto","#3366ff99"," "," ","1","0","[1649]","1","0","1","","","","","","","",""
"pit-trial","24","399409","0.0-2.0-8.0-4.0","battery-v0.2","","""event"",""trial"",""time""
""fullscreenenter"",""1"",""2042""
","
","
","""event"",""trial"",""time""
""fullscreenenter"",""1"",""2042""
","
","","","612","","","21","4640","3049","&#9776;","elianto","#3366ff99"," "," ","1","+10","[1463.9999999999418]","1","0","1","","","","","","","",""
"pit-trial","25","402861","0.0-2.0-8.1-0.1","battery-v0.2","","""event"",""trial"",""time""
""fullscreenenter"",""1"",""2042""
","
","
","""event"",""trial"",""time""
""fullscreenenter"",""1"",""2042""
","
","","","598","","","21","4640","3049","&#9776;","elianto","#3366ff99"," "," ","1","+10","[1448]","1","0","1","","","","","","","",""
"pit-trial","26","406165","0.0-2.0-8.1-1.1","battery-v0.2","","""event"",""trial"",""time""
""fullscreenenter"",""1"",""2042""
","
","
","""event"",""trial"",""time""
""fullscreenenter"",""1"",""2042""
","
","","","449","","","21","4640","3049","&#9776;","elianto","#3366ff99"," "," ","1","+10","[1300]","1","0","1","","","","","","","",""
"pit-trial","27","410691","0.0-2.0-8.1-2.1","battery-v0.2","","""event"",""trial"",""time""
""fullscreenenter"",""1"",""2042""
","
","
","""event"",""trial"",""time""
""fullscreenenter"",""1"",""2042""
","
","","","1672","","","21","4640","3049","&#9776;","elianto","#3366ff99"," "," ","1","+10","[2523]","1","0","1","","","","","","","",""
"pit-trial","28","414423","0.0-2.0-8.1-3.1","battery-v0.2","","""event"",""trial"",""time""
""fullscreenenter"",""1"",""2042""
","
","
","""event"",""trial"",""time""
""fullscreenenter"",""1"",""2042""
","
","","","878","","","21","4640","3049","&#9776;","elianto","#3366ff99"," "," ","1","0","[1728]","1","0","1","","","","","","","",""
"pit-trial","29","417823","0.0-2.0-8.1-4.1","battery-v0.2","","""event"",""trial"",""time""
""fullscreenenter"",""1"",""2042""
","
","
","""event"",""trial"",""time""
""fullscreenenter"",""1"",""2042""
","
","","","546","","","21","4640","3049","&#9776;","elianto","#3366ff99"," "," ","1","+10","[1397]","1","0","1","","","","","","","",""
"pit-trial","30","421421","0.0-2.0-8.2-0.2","battery-v0.2","","""event"",""trial"",""time""
""fullscreenenter"",""1"",""2042""
","
","
","""event"",""trial"",""time""
""fullscreenenter"",""1"",""2042""
","
","","","743.9999999999418","","","21","4640","3049","&#9776;","elianto","#3366ff99"," "," ","1","+10","[1594.9999999999418]","1","0","1","","","","","","","",""
"pit-trial","31","425745","0.0-2.0-8.2-1.2","battery-v0.2","","""event"",""trial"",""time""
""fullscreenenter"",""1"",""2042""
","
","
","""event"",""trial"",""time""
""fullscreenenter"",""1"",""2042""
","
","","","1470","","","21","4640","3049","&#9776;","elianto","#3366ff99"," "," ","1","+10","[273,2320]","2","0","1","","","","","","","",""
"pit-trial","32","429176","0.0-2.0-8.2-2.2","battery-v0.2","","""event"",""trial"",""time""
""fullscreenenter"",""1"",""2042""
","
","
","""event"",""trial"",""time""
""fullscreenenter"",""1"",""2042""
","
","","","577","","","21","4640","3049","&#9776;","elianto","#3366ff99"," "," ","1","+10","[1428]","1","0","1","","","","","","","",""
"pit-trial","33","432528","0.0-2.0-8.2-3.2","battery-v0.2","","""event"",""trial"",""time""
""fullscreenenter"",""1"",""2042""
","
","
","""event"",""trial"",""time""
""fullscreenenter"",""1"",""2042""
","
","","","496.0000000000582","","","21","4640","3049","&#9776;","elianto","#3366ff99"," "," ","1","0","[1347.0000000000582]","1","0","1","","","","","","","",""
"pit-trial","34","435931","0.0-2.0-8.2-4.2","battery-v0.2","","""event"",""trial"",""time""
""fullscreenenter"",""1"",""2042""
","
","
","""event"",""trial"",""time""
""fullscreenenter"",""1"",""2042""
","
","","","550","","","21","4640","3049","&#9776;","elianto","#3366ff99"," "," ","1","+10","[1401]","1","0","1","","","","","","","",""
"call-function","35","435934","0.0-2.0-9.0","battery-v0.2","","""event"",""trial"",""time""
""fullscreenenter"",""1"",""2042""
","
","
","""event"",""trial"",""time""
""fullscreenenter"",""1"",""2042""
","
","","","","","","","","","","","","","","","","","","","","","","","","","","",""
"pit-instructions","36","476769","0.0-2.0-10.0","battery-v0.2","","""event"",""trial"",""time""
""fullscreenenter"",""1"",""2042""
","
","
","""event"",""trial"",""time""
""fullscreenenter"",""1"",""2042""
","
","","[{""page_index"":0,""viewing_time"":5909},{""page_index"":1,""viewing_time"":7296.000000000058},{""page_index"":2,""viewing_time"":10347.999999999942},{""page_index"":3,""viewing_time"":10044},{""page_index"":4,""viewing_time"":7240.000000000058}]","40837.00000000006","","","","","","","","","","","","","","","","","","","","","","","",""
"pit-trial","37","480496","0.0-2.0-11.0-0.0","battery-v0.2","","""event"",""trial"",""time""
""fullscreenenter"",""1"",""2042""
","
","
","""event"",""trial"",""time""
""fullscreenenter"",""1"",""2042""
","
","","","875","","","21","4640","3049","&#9761;","elianto","#3366ff99","-1"," ","0","0","[1725]","1","0","2","","","","","","","",""
"pit-trial","38","483858","0.0-2.0-11.0-1.0","battery-v0.2","","""event"",""trial"",""time""
""fullscreenenter"",""1"",""2042""
","
","
","""event"",""trial"",""time""
""fullscreenenter"",""1"",""2042""
","
","","","509.0000000000582","","","21","4640","3049","&#9761;","elianto","#3366ff99","-1"," ","0","0","[1360.0000000000582]","1","0","2","","","","","","","",""
"pit-trial","39","488713","0.0-2.0-11.0-2.0","battery-v0.2","","""event"",""trial"",""time""
""fullscreenenter"",""1"",""2042""
","
","
","""event"",""trial"",""time""
""fullscreenenter"",""1"",""2042""
","
","","","-1","","","21","4640","3049","&#9761;","elianto","#3366ff99","-1","-1","1","+10","[]","0","0","2","","","","","","","",""
"pit-trial","40","493567","0.0-2.0-11.0-3.0","battery-v0.2","","""event"",""trial"",""time""
""fullscreenenter"",""1"",""2042""
","
","
","""event"",""trial"",""time""
""fullscreenenter"",""1"",""2042""
","
","","","-1","","","21","4640","3049","&#9761;","elianto","#3366ff99","-1","-1","1","0","[]","0","0","2","","","","","","","",""
"pit-trial","41","498421","0.0-2.0-11.0-4.0","battery-v0.2","","""event"",""trial"",""time""
""fullscreenenter"",""1"",""2042""
","
","
","""event"",""trial"",""time""
""fullscreenenter"",""1"",""2042""
","
","","","-1","","","21","4640","3049","&#9761;","elianto","#3366ff99","-1","-1","1","+10","[]","0","0","2","","","","","","","",""
"pit-trial","42","503276","0.0-2.0-11.1-0.1","battery-v0.2","","""event"",""trial"",""time""
""fullscreenenter"",""1"",""2042""
","
","
","""event"",""trial"",""time""
""fullscreenenter"",""1"",""2042""
","
","","","-1","","","21","4640","3049","&#9761;","elianto","#3366ff99","-1","-1","1","+10","[]","0","0","2","","","","","","","",""
"pit-trial","43","508128","0.0-2.0-11.1-1.1","battery-v0.2","","""event"",""trial"",""time""
""fullscreenenter"",""1"",""2042""
","
","
","""event"",""trial"",""time""
""fullscreenenter"",""1"",""2042""
","
","","","-1","","","21","4640","3049","&#9761;","elianto","#3366ff99","-1","-1","1","+10","[]","0","0","2","","","","","","","",""
"pit-trial","44","512982","0.0-2.0-11.1-2.1","battery-v0.2","","""event"",""trial"",""time""
""fullscreenenter"",""1"",""2042""
","
","
","""event"",""trial"",""time""
""fullscreenenter"",""1"",""2042""
","
","","","-1","","","21","4640","3049","&#9761;","elianto","#3366ff99","-1","-1","1","+10","[]","0","0","2","","","","","","","",""
"pit-trial","45","517836","0.0-2.0-11.1-3.1","battery-v0.2","","""event"",""trial"",""time""
""fullscreenenter"",""1"",""2042""
","
","
","""event"",""trial"",""time""
""fullscreenenter"",""1"",""2042""
","
","","","-1","","","21","4640","3049","&#9761;","elianto","#3366ff99","-1","-1","1","0","[]","0","0","2","","","","","","","",""
"pit-trial","46","522690","0.0-2.0-11.1-4.1","battery-v0.2","","""event"",""trial"",""time""
""fullscreenenter"",""1"",""2042""
","
","
","""event"",""trial"",""time""
""fullscreenenter"",""1"",""2042""
","
","","","-1","","","21","4640","3049","&#9761;","elianto","#3366ff99","-1","-1","1","+10","[]","0","0","2","","","","","","","",""
"pit-trial","47","527544","0.0-2.0-11.2-0.2","battery-v0.2","","""event"",""trial"",""time""
""fullscreenenter"",""1"",""2042""
","
","
","""event"",""trial"",""time""
""fullscreenenter"",""1"",""2042""
","
","","","-1","","","21","4640","3049","&#9761;","elianto","#3366ff99","-1","-1","1","+10","[]","0","0","2","","","","","","","",""
"pit-trial","48","532399","0.0-2.0-11.2-1.2","battery-v0.2","","""event"",""trial"",""time""
""fullscreenenter"",""1"",""2042""
","
","
","""event"",""trial"",""time""
""fullscreenenter"",""1"",""2042""
","
","","","-1","","","21","4640","3049","&#9761;","elianto","#3366ff99","-1","-1","1","+10","[]","0","0","2","","","","","","","",""
"pit-trial","49","537253","0.0-2.0-11.2-2.2","battery-v0.2","","""event"",""trial"",""time""
""fullscreenenter"",""1"",""2042""
","
","
","""event"",""trial"",""time""
""fullscreenenter"",""1"",""2042""
","
","","","-1","","","21","4640","3049","&#9761;","elianto","#3366ff99","-1","-1","1","+10","[]","0","0","2","","","","","","","",""
"pit-trial","50","542107","0.0-2.0-11.2-3.2","battery-v0.2","","""event"",""trial"",""time""
""fullscreenenter"",""1"",""2042""
","
","
","""event"",""trial"",""time""
""fullscreenenter"",""1"",""2042""
","
","","","-1","","","21","4640","3049","&#9761;","elianto","#3366ff99","-1","-1","1","0","[]","0","0","2","","","","","","","",""
"pit-trial","51","546961","0.0-2.0-11.2-4.2","battery-v0.2","","""event"",""trial"",""time""
""fullscreenenter"",""1"",""2042""
","
","
","""event"",""trial"",""time""
""fullscreenenter"",""1"",""2042""
","
","","","-1","","","21","4640","3049","&#9761;","elianto","#3366ff99","-1","-1","1","+10","[]","0","0","2","","","","","","","",""
"pit-trial","52","551816","0.0-2.0-11.3-0.3","battery-v0.2","","""event"",""trial"",""time""
""fullscreenenter"",""1"",""2042""
","
","
","""event"",""trial"",""time""
""fullscreenenter"",""1"",""2042""
","
","","","-1","","","21","4640","3049","&#9761;","elianto","#3366ff99","-1","-1","1","+10","[]","0","0","2","","","","","","","",""
"pit-trial","53","556670","0.0-2.0-11.3-1.3","battery-v0.2","","""event"",""trial"",""time""
""fullscreenenter"",""1"",""2042""
","
","
","""event"",""trial"",""time""
""fullscreenenter"",""1"",""2042""
","
","","","-1","","","21","4640","3049","&#9761;","elianto","#3366ff99","-1","-1","1","+10","[]","0","0","2","","","","","","","",""
"pit-trial","54","561524","0.0-2.0-11.3-2.3","battery-v0.2","","""event"",""trial"",""time""
""fullscreenenter"",""1"",""2042""
","
","
","""event"",""trial"",""time""
""fullscreenenter"",""1"",""2042""
","
","","","-1","","","21","4640","3049","&#9761;","elianto","#3366ff99","-1","-1","1","+10","[]","0","0","2","","","","","","","",""
"pit-trial","55","566379","0.0-2.0-11.3-3.3","battery-v0.2","","""event"",""trial"",""time""
""fullscreenenter"",""1"",""2042""
","
","
","""event"",""trial"",""time""
""fullscreenenter"",""1"",""2042""
","
","","","-1","","","21","4640","3049","&#9761;","elianto","#3366ff99","-1","-1","1","0","[]","0","0","2","","","","","","","",""
"pit-trial","56","571233","0.0-2.0-11.3-4.3","battery-v0.2","","""event"",""trial"",""time""
""fullscreenenter"",""1"",""2042""
","
","
","""event"",""trial"",""time""
""fullscreenenter"",""1"",""2042""
","
","","","-1","","","21","4640","3049","&#9761;","elianto","#3366ff99","-1","-1","1","+10","[]","0","0","2","","","","","","","",""
"call-function","57","571234","0.0-2.0-12.0","battery-v0.2","","""event"",""trial"",""time""
""fullscreenenter"",""1"",""2042""
","
","
","""event"",""trial"",""time""
""fullscreenenter"",""1"",""2042""
","
","","","","","","","","","","","","","","","","","","","","","","","","","","",""
"pit-instructions","58","609999","0.0-2.0-13.0","battery-v0.2","","""event"",""trial"",""time""
""fullscreenenter"",""1"",""2042""
","
","
","""event"",""trial"",""time""
""fullscreenenter"",""1"",""2042""
","
","","[{""page_index"":0,""viewing_time"":5627},{""page_index"":1,""viewing_time"":7981},{""page_index"":2,""viewing_time"":5214},{""page_index"":3,""viewing_time"":12344},{""page_index"":4,""viewing_time"":7599}]","38766","","","","","","","","","","","","","","","","","","","","","","","",""
"pit-trial","59","614855","0.0-2.0-14.0-0.0","battery-v0.2","","""event"",""trial"",""time""
""fullscreenenter"",""1"",""2042""
","
","
","""event"",""trial"",""time""
""fullscreenenter"",""1"",""2042""
","
","","","-1","","","21","4640","3049","&#9826;","elianto","#f73b6a7A","-1","-1","1","0","[]","0","0","3","","","","","","","",""
"pit-trial","60","619709","0.0-2.0-14.0-1.0","battery-v0.2","","""event"",""trial"",""time""
""fullscreenenter"",""1"",""2042""
","
","
","""event"",""trial"",""time""
""fullscreenenter"",""1"",""2042""
","
","","","-1","","","21","4640","3049","&#9826;","elianto","#f73b6a7A","-1","-1","1","0","[]","0","0","3","","","","","","","",""
"pit-trial","61","624563","0.0-2.0-14.0-2.0","battery-v0.2","","""event"",""trial"",""time""
""fullscreenenter"",""1"",""2042""
","
","
","""event"",""trial"",""time""
""fullscreenenter"",""1"",""2042""
","
","","","-1","","","21","4640","3049","&#9826;","elianto","#f73b6a7A","-1","-1","1","0","[]","0","0","3","","","","","","","",""
"pit-trial","62","629418","0.0-2.0-14.0-3.0","battery-v0.2","","""event"",""trial"",""time""
""fullscreenenter"",""1"",""2042""
","
","
","""event"",""trial"",""time""
""fullscreenenter"",""1"",""2042""
","
","","","-1","","","21","4640","3049","&#9826;","elianto","#f73b6a7A","-1","-1","1","-10","[]","0","0","3","","","","","","","",""
"pit-trial","63","634272","0.0-2.0-14.0-4.0","battery-v0.2","","""event"",""trial"",""time""
""fullscreenenter"",""1"",""2042""
","
","
","""event"",""trial"",""time""
""fullscreenenter"",""1"",""2042""
","
","","","-1","","","21","4640","3049","&#9826;","elianto","#f73b6a7A","-1","-1","1","0","[]","0","0","3","","","","","","","",""
"pit-trial","64","639126","0.0-2.0-14.1-0.1","battery-v0.2","","""event"",""trial"",""time""
""fullscreenenter"",""1"",""2042""
","
","
","""event"",""trial"",""time""
""fullscreenenter"",""1"",""2042""
","
","","","-1","","","21","4640","3049","&#9826;","elianto","#f73b6a7A","-1","-1","1","0","[]","0","0","3","","","","","","","",""
"pit-trial","65","643979","0.0-2.0-14.1-1.1","battery-v0.2","","""event"",""trial"",""time""
""fullscreenenter"",""1"",""2042""
","
","
","""event"",""trial"",""time""
""fullscreenenter"",""1"",""2042""
","
","","","-1","","","21","4640","3049","&#9826;","elianto","#f73b6a7A","-1","-1","1","0","[]","0","0","3","","","","","","","",""
"pit-trial","66","648833","0.0-2.0-14.1-2.1","battery-v0.2","","""event"",""trial"",""time""
""fullscreenenter"",""1"",""2042""
","
","
","""event"",""trial"",""time""
""fullscreenenter"",""1"",""2042""
","
","","","-1","","","21","4640","3049","&#9826;","elianto","#f73b6a7A","-1","-1","1","0","[]","0","0","3","","","","","","","",""
"pit-trial","67","653687","0.0-2.0-14.1-3.1","battery-v0.2","","""event"",""trial"",""time""
""fullscreenenter"",""1"",""2042""
","
","
","""event"",""trial"",""time""
""fullscreenenter"",""1"",""2042""
","
","","","-1","","","21","4640","3049","&#9826;","elianto","#f73b6a7A","-1","-1","1","-10","[]","0","0","3","","","","","","","",""
"pit-trial","68","658542","0.0-2.0-14.1-4.1","battery-v0.2","","""event"",""trial"",""time""
""fullscreenenter"",""1"",""2042""
","
","
","""event"",""trial"",""time""
""fullscreenenter"",""1"",""2042""
","
","","","-1","","","21","4640","3049","&#9826;","elianto","#f73b6a7A","-1","-1","1","0","[]","0","0","3","","","","","","","",""
"pit-trial","69","663396","0.0-2.0-14.2-0.2","battery-v0.2","","""event"",""trial"",""time""
""fullscreenenter"",""1"",""2042""
","
","
","""event"",""trial"",""time""
""fullscreenenter"",""1"",""2042""
","
","","","-1","","","21","4640","3049","&#9826;","elianto","#f73b6a7A","-1","-1","1","0","[]","0","0","3","","","","","","","",""
"pit-trial","70","668250","0.0-2.0-14.2-1.2","battery-v0.2","","""event"",""trial"",""time""
""fullscreenenter"",""1"",""2042""
","
","
","""event"",""trial"",""time""
""fullscreenenter"",""1"",""2042""
","
","","","-1","","","21","4640","3049","&#9826;","elianto","#f73b6a7A","-1","-1","1","0","[]","0","0","3","","","","","","","",""
"pit-trial","71","673103","0.0-2.0-14.2-2.2","battery-v0.2","","""event"",""trial"",""time""
""fullscreenenter"",""1"",""2042""
","
","
","""event"",""trial"",""time""
""fullscreenenter"",""1"",""2042""
","
","","","-1","","","21","4640","3049","&#9826;","elianto","#f73b6a7A","-1","-1","1","0","[]","0","0","3","","","","","","","",""
"pit-trial","72","677959","0.0-2.0-14.2-3.2","battery-v0.2","","""event"",""trial"",""time""
""fullscreenenter"",""1"",""2042""
","
","
","""event"",""trial"",""time""
""fullscreenenter"",""1"",""2042""
","
","","","-1","","","21","4640","3049","&#9826;","elianto","#f73b6a7A","-1","-1","1","-10","[]","0","0","3","","","","","","","",""
"pit-trial","73","682822","0.0-2.0-14.2-4.2","battery-v0.2","","""event"",""trial"",""time""
""fullscreenenter"",""1"",""2042""
","
","
","""event"",""trial"",""time""
""fullscreenenter"",""1"",""2042""
","
","","","-1","","","21","4640","3049","&#9826;","elianto","#f73b6a7A","-1","-1","1","0","[]","0","0","3","","","","","","","",""
"pit-trial","74","689734","0.0-2.0-14.3-0.3","battery-v0.2","","""event"",""trial"",""time""
""fullscreenenter"",""1"",""2042""
","
","
","""event"",""trial"",""time""
""fullscreenenter"",""1"",""2042""
","
","","","-1","","","21","4640","3049","&#9826;","elianto","#f73b6a7A","-1","-1","1","0","[]","0","0","3","","","","","","","",""
"pit-trial","75","694587","0.0-2.0-14.3-1.3","battery-v0.2","","""event"",""trial"",""time""
""fullscreenenter"",""1"",""2042""
","
","
","""event"",""trial"",""time""
""fullscreenenter"",""1"",""2042""
","
","","","-1","","","21","4640","3049","&#9826;","elianto","#f73b6a7A","-1","-1","1","0","[]","0","0","3","","","","","","","",""
"pit-trial","76","699443","0.0-2.0-14.3-2.3","battery-v0.2","","""event"",""trial"",""time""
""fullscreenenter"",""1"",""2042""
","
","
","""event"",""trial"",""time""
""fullscreenenter"",""1"",""2042""
","
","","","-1","","","21","4640","3049","&#9826;","elianto","#f73b6a7A","-1","-1","1","0","[]","0","0","3","","","","","","","",""
"pit-trial","77","704297","0.0-2.0-14.3-3.3","battery-v0.2","","""event"",""trial"",""time""
""fullscreenenter"",""1"",""2042""
","
","
","""event"",""trial"",""time""
""fullscreenenter"",""1"",""2042""
","
","","","-1","","","21","4640","3049","&#9826;","elianto","#f73b6a7A","-1","-1","1","-10","[]","0","0","3","","","","","","","",""
"pit-trial","78","709151","0.0-2.0-14.3-4.3","battery-v0.2","","""event"",""trial"",""time""
""fullscreenenter"",""1"",""2042""
","
","
","""event"",""trial"",""time""
""fullscreenenter"",""1"",""2042""
","
","","","-1","","","21","4640","3049","&#9826;","elianto","#f73b6a7A","-1","-1","1","0","[]","0","0","3","","","","","","","",""
"call-function","79","709153","0.0-2.0-15.0","battery-v0.2","","""event"",""trial"",""time""
""fullscreenenter"",""1"",""2042""
","
","
","""event"",""trial"",""time""
""fullscreenenter"",""1"",""2042""
","
","","","","","","","","","","","","","","","","","","","","","","","","","","",""
"pit-instructions","80","738619","0.0-2.0-16.0","battery-v0.2","","""event"",""trial"",""time""
""fullscreenenter"",""1"",""2042""
","
","
","""event"",""trial"",""time""
""fullscreenenter"",""1"",""2042""
","
","","[{""page_index"":0,""viewing_time"":6462},{""page_index"":1,""viewing_time"":10059},{""page_index"":2,""viewing_time"":7156.000000000116},{""page_index"":3,""viewing_time"":5788.999999999884}]","29467","","","","","","","","","","","","","","","","","","","","","","","",""
"pit-trial","81","743473","0.0-2.0-17.0-0.0","battery-v0.2","","""event"",""trial"",""time""
""fullscreenenter"",""1"",""2042""
","
","
","""event"",""trial"",""time""
""fullscreenenter"",""1"",""2042""
","
","","","-1","","","21","4640","3049","&#9789;","elianto","#f73b6a7A"," ","-1","0","-10","[]","0","0","4","","","","","","","",""
"pit-trial","82","748327","0.0-2.0-17.0-1.0","battery-v0.2","","""event"",""trial"",""time""
""fullscreenenter"",""1"",""2042""
","
","
","""event"",""trial"",""time""
""fullscreenenter"",""1"",""2042""
","
","","","-1","","","21","4640","3049","&#9789;","elianto","#f73b6a7A"," ","-1","0","-10","[]","0","0","4","","","","","","","",""
"pit-trial","83","753182","0.0-2.0-17.0-2.0","battery-v0.2","","""event"",""trial"",""time""
""fullscreenenter"",""1"",""2042""
","
","
","""event"",""trial"",""time""
""fullscreenenter"",""1"",""2042""
","
","","","-1","","","21","4640","3049","&#9789;","elianto","#f73b6a7A"," ","-1","0","-10","[]","0","0","4","","","","","","","",""
"pit-trial","84","758035","0.0-2.0-17.0-3.0","battery-v0.2","","""event"",""trial"",""time""
""fullscreenenter"",""1"",""2042""
","
","
","""event"",""trial"",""time""
""fullscreenenter"",""1"",""2042""
","
","","","-1","","","21","4640","3049","&#9789;","elianto","#f73b6a7A"," ","-1","0","0","[]","0","0","4","","","","","","","",""
"pit-trial","85","762889","0.0-2.0-17.0-4.0","battery-v0.2","","""event"",""trial"",""time""
""fullscreenenter"",""1"",""2042""
","
","
","""event"",""trial"",""time""
""fullscreenenter"",""1"",""2042""
","
","","","-1","","","21","4640","3049","&#9789;","elianto","#f73b6a7A"," ","-1","0","-10","[]","0","0","4","","","","","","","",""
"pit-trial","86","767748","0.0-2.0-17.1-0.1","battery-v0.2","","""event"",""trial"",""time""
""fullscreenenter"",""1"",""2042""
","
","
","""event"",""trial"",""time""
""fullscreenenter"",""1"",""2042""
","
","","","-1","","","21","4640","3049","&#9789;","elianto","#f73b6a7A"," ","-1","0","-10","[]","0","0","4","","","","","","","",""
"pit-trial","87","772603","0.0-2.0-17.1-1.1","battery-v0.2","","""event"",""trial"",""time""
""fullscreenenter"",""1"",""2042""
","
","
","""event"",""trial"",""time""
""fullscreenenter"",""1"",""2042""
","
","","","-1","","","21","4640","3049","&#9789;","elianto","#f73b6a7A"," ","-1","0","-10","[]","0","0","4","","","","","","","",""
"pit-trial","88","777457","0.0-2.0-17.1-2.1","battery-v0.2","","""event"",""trial"",""time""
""fullscreenenter"",""1"",""2042""
","
","
","""event"",""trial"",""time""
""fullscreenenter"",""1"",""2042""
","
","","","-1","","","21","4640","3049","&#9789;","elianto","#f73b6a7A"," ","-1","0","-10","[]","0","0","4","","","","","","","",""
"pit-trial","89","782312","0.0-2.0-17.1-3.1","battery-v0.2","","""event"",""trial"",""time""
""fullscreenenter"",""1"",""2042""
","
","
","""event"",""trial"",""time""
""fullscreenenter"",""1"",""2042""
","
","","","-1","","","21","4640","3049","&#9789;","elianto","#f73b6a7A"," ","-1","0","0","[]","0","0","4","","","","","","","",""
"pit-trial","90","787166","0.0-2.0-17.1-4.1","battery-v0.2","","""event"",""trial"",""time""
""fullscreenenter"",""1"",""2042""
","
","
","""event"",""trial"",""time""
""fullscreenenter"",""1"",""2042""
","
","","","-1","","","21","4640","3049","&#9789;","elianto","#f73b6a7A"," ","-1","0","-10","[]","0","0","4","","","","","","","",""
"pit-trial","91","792020","0.0-2.0-17.2-0.2","battery-v0.2","","""event"",""trial"",""time""
""fullscreenenter"",""1"",""2042""
","
","
","""event"",""trial"",""time""
""fullscreenenter"",""1"",""2042""
","
","","","-1","","","21","4640","3049","&#9789;","elianto","#f73b6a7A"," ","-1","0","-10","[]","0","0","4","","","","","","","",""
"pit-trial","92","796874","0.0-2.0-17.2-1.2","battery-v0.2","","""event"",""trial"",""time""
""fullscreenenter"",""1"",""2042""
","
","
","""event"",""trial"",""time""
""fullscreenenter"",""1"",""2042""
","
","","","-1","","","21","4640","3049","&#9789;","elianto","#f73b6a7A"," ","-1","0","-10","[]","0","0","4","","","","","","","",""
"pit-trial","93","801729","0.0-2.0-17.2-2.2","battery-v0.2","","""event"",""trial"",""time""
""fullscreenenter"",""1"",""2042""
","
","
","""event"",""trial"",""time""
""fullscreenenter"",""1"",""2042""
","
","","","-1","","","21","4640","3049","&#9789;","elianto","#f73b6a7A"," ","-1","0","-10","[]","0","0","4","","","","","","","",""
"pit-trial","94","806583","0.0-2.0-17.2-3.2","battery-v0.2","","""event"",""trial"",""time""
""fullscreenenter"",""1"",""2042""
","
","
","""event"",""trial"",""time""
""fullscreenenter"",""1"",""2042""
","
","","","-1","","","21","4640","3049","&#9789;","elianto","#f73b6a7A"," ","-1","0","0","[]","0","0","4","","","","","","","",""
"pit-trial","95","811438","0.0-2.0-17.2-4.2","battery-v0.2","","""event"",""trial"",""time""
""fullscreenenter"",""1"",""2042""
","
","
","""event"",""trial"",""time""
""fullscreenenter"",""1"",""2042""
","
","","","-1","","","21","4640","3049","&#9789;","elianto","#f73b6a7A"," ","-1","0","-10","[]","0","0","4","","","","","","","",""
"pit-trial","96","816291","0.0-2.0-17.3-0.3","battery-v0.2","","""event"",""trial"",""time""
""fullscreenenter"",""1"",""2042""
","
","
","""event"",""trial"",""time""
""fullscreenenter"",""1"",""2042""
","
","","","-1","","","21","4640","3049","&#9789;","elianto","#f73b6a7A"," ","-1","0","-10","[]","0","0","4","","","","","","","",""
"pit-trial","97","821145","0.0-2.0-17.3-1.3","battery-v0.2","","""event"",""trial"",""time""
""fullscreenenter"",""1"",""2042""
","
","
","""event"",""trial"",""time""
""fullscreenenter"",""1"",""2042""
","
","","","-1","","","21","4640","3049","&#9789;","elianto","#f73b6a7A"," ","-1","0","-10","[]","0","0","4","","","","","","","",""
"pit-trial","98","825999","0.0-2.0-17.3-2.3","battery-v0.2","","""event"",""trial"",""time""
""fullscreenenter"",""1"",""2042""
","
","
","""event"",""trial"",""time""
""fullscreenenter"",""1"",""2042""
","
","","","-1","","","21","4640","3049","&#9789;","elianto","#f73b6a7A"," ","-1","0","-10","[]","0","0","4","","","","","","","",""
"pit-trial","99","830853","0.0-2.0-17.3-3.3","battery-v0.2","","""event"",""trial"",""time""
""fullscreenenter"",""1"",""2042""
","
","
","""event"",""trial"",""time""
""fullscreenenter"",""1"",""2042""
","
","","","-1","","","21","4640","3049","&#9789;","elianto","#f73b6a7A"," ","-1","0","0","[]","0","0","4","","","","","","","",""
"pit-trial","100","835708","0.0-2.0-17.3-4.3","battery-v0.2","","""event"",""trial"",""time""
""fullscreenenter"",""1"",""2042""
","
","
","""event"",""trial"",""time""
""fullscreenenter"",""1"",""2042""
","
","","","-1","","","21","4640","3049","&#9789;","elianto","#f73b6a7A"," ","-1","0","-10","[]","0","0","4","","","","","","","",""
"call-function","101","835710","0.0-2.0-18.0","battery-v0.2","","""event"",""trial"",""time""
""fullscreenenter"",""1"",""2042""
","
","
","""event"",""trial"",""time""
""fullscreenenter"",""1"",""2042""
","
","","","","","","","","","","","","","","","","","","","","","","","","","","",""
"pit-instructions","102","913345","0.0-2.0-19.0","battery-v0.2","","""event"",""trial"",""time""
""fullscreenenter"",""1"",""2042""
","
","
","""event"",""trial"",""time""
""fullscreenenter"",""1"",""2042""
","
","","[{""page_index"":0,""viewing_time"":6267.000000000116},{""page_index"":1,""viewing_time"":6862.999999999884},{""page_index"":2,""viewing_time"":14745},{""page_index"":3,""viewing_time"":7845},{""page_index"":4,""viewing_time"":8723},{""page_index"":5,""viewing_time"":8861},{""page_index"":6,""viewing_time"":11064.000000000116},{""page_index"":7,""viewing_time"":7899.999999999884},{""page_index"":8,""viewing_time"":5371}]","77639","","","","","","","","","","","","","","","","","","","","","","","",""
"pit-comprehension","103","917913","0.0-2.0-20.0-0.0","battery-v0.2","","""event"",""trial"",""time""
""fullscreenenter"",""1"",""2042""
","
","
","""event"",""trial"",""time""
""fullscreenenter"",""1"",""2042""
","
","","","4563","[""SPACE""]","0","21","4640","3049","","","","","","","","","","","","","","","","","","",""
"pit-instructions","104","924554","0.0-2.0-20.0-1.0","battery-v0.2","","""event"",""trial"",""time""
""fullscreenenter"",""1"",""2042""
","
","
","""event"",""trial"",""time""
""fullscreenenter"",""1"",""2042""
","
","","[{""page_index"":0,""viewing_time"":6575.999999999884}]","6576.999999999884","","","","","","","","","","","","","","","","","","","","","","","",""
"pit-comprehension","105","928599","0.0-2.0-21.0-0.0","battery-v0.2","","""event"",""trial"",""time""
""fullscreenenter"",""1"",""2042""
","
","
","""event"",""trial"",""time""
""fullscreenenter"",""1"",""2042""
","
","","","4040","[""10""]","0","21","4640","3049","","","","","","","","","","","","","","","","","","",""
"pit-instructions","106","934858","0.0-2.0-21.0-1.0","battery-v0.2","","""event"",""trial"",""time""
""fullscreenenter"",""1"",""2042""
","
","
","""event"",""trial"",""time""
""fullscreenenter"",""1"",""2042""
","
","","[{""page_index"":0,""viewing_time"":6197}]","6198","","","","","","","","","","","","","","","","","","","","","","","",""
"pit-comprehension","107","941032","0.0-2.0-22.0-0.0","battery-v0.2","","""event"",""trial"",""time""
""fullscreenenter"",""1"",""2042""
","
","
","""event"",""trial"",""time""
""fullscreenenter"",""1"",""2042""
","
","","","6170","[""0""]","0","21","4640","3049","","","","","","","","","","","","","","","","","","",""
"pit-instructions","108","943664","0.0-2.0-22.0-1.0","battery-v0.2","","""event"",""trial"",""time""
""fullscreenenter"",""1"",""2042""
","
","
","""event"",""trial"",""time""
""fullscreenenter"",""1"",""2042""
","
","","[{""page_index"":0,""viewing_time"":2568.0000000001164}]","2569","","","","","","","","","","","","","","","","","","","","","","","",""
"pit-comprehension","109","951906","0.0-2.0-23.0-0.0","battery-v0.2","","""event"",""trial"",""time""
""fullscreenenter"",""1"",""2042""
","
","
","""event"",""trial"",""time""
""fullscreenenter"",""1"",""2042""
","
","","","8239","[""True""]","0","21","4640","3049","","","","","","","","","","","","","","","","","","",""
"pit-instructions","110","955167","0.0-2.0-23.0-1.0","battery-v0.2","","""event"",""trial"",""time""
""fullscreenenter"",""1"",""2042""
","
","
","""event"",""trial"",""time""
""fullscreenenter"",""1"",""2042""
","
","","[{""page_index"":0,""viewing_time"":3195}]","3196.0000000001164","","","","","","","","","","","","","","","","","","","","","","","",""
"pit-comprehension","111","962310","0.0-2.0-24.0-0.0","battery-v0.2","","""event"",""trial"",""time""
""fullscreenenter"",""1"",""2042""
","
","
","""event"",""trial"",""time""
""fullscreenenter"",""1"",""2042""
","
","","","7140","[""True""]","0","21","4640","3049","","","","","","","","","","","","","","","","","","",""
"pit-instructions","112","964029","0.0-2.0-24.0-1.0","battery-v0.2","","""event"",""trial"",""time""
""fullscreenenter"",""1"",""2042""
","
","
","""event"",""trial"",""time""
""fullscreenenter"",""1"",""2042""
","
","","[{""page_index"":0,""viewing_time"":1654.9999999998836}]","1654.9999999998836","","","","","","","","","","","","","","","","","","","","","","","",""
"pit-comprehension","113","970563","0.0-2.0-25.0-0.0","battery-v0.2","","""event"",""trial"",""time""
""fullscreenenter"",""1"",""2042""
","
","
","""event"",""trial"",""time""
""fullscreenenter"",""1"",""2042""
","
","","","6527","[""True""]","0","21","4640","3049","","","","","","","","","","","","","","","","","","",""
"pit-instructions","114","972572","0.0-2.0-25.0-1.0","battery-v0.2","","""event"",""trial"",""time""
""fullscreenenter"",""1"",""2042""
","
","
","""event"",""trial"",""time""
""fullscreenenter"",""1"",""2042""
","
","","[{""page_index"":0,""viewing_time"":1937}]","1938","","","","","","","","","","","","","","","","","","","","","","","",""
"pit-comprehension","115","977586","0.0-2.0-26.0-0.0","battery-v0.2","","""event"",""trial"",""time""
""fullscreenenter"",""1"",""2042""
","
","
","""event"",""trial"",""time""
""fullscreenenter"",""1"",""2042""
","
","","","5010","[""True""]","1","21","4640","3049","","","","","","","","","","","","","","","","","","",""
"pit-instructions","116","979639","0.0-2.0-26.0-1.0","battery-v0.2","","""event"",""trial"",""time""
""fullscreenenter"",""1"",""2042""
","
","
","""event"",""trial"",""time""
""fullscreenenter"",""1"",""2042""
","
","","[{""page_index"":0,""viewing_time"":1985}]","1985","","","","","","","","","","","","","","","","","","","","","","","",""
"pit-instructions","117","980323","0.0-2.0-26.0-2.0-0.0","battery-v0.2","","""event"",""trial"",""time""
""fullscreenenter"",""1"",""2042""
","
","
","""event"",""trial"",""time""
""fullscreenenter"",""1"",""2042""
","
","","[{""page_index"":0,""viewing_time"":680}]","680","","","","","","","","","","","","","","","","","","","","","","","",""
"pit-comprehension","118","984710","0.0-2.0-26.1-0.1","battery-v0.2","","""event"",""trial"",""time""
""fullscreenenter"",""1"",""2042""
","
","
","""event"",""trial"",""time""
""fullscreenenter"",""1"",""2042""
","
","","","4382","[""False""]","0","21","4640","3049","","","","","","","","","","","","","","","","","","",""
"pit-instructions","119","988881","0.0-2.0-26.1-1.1","battery-v0.2","","""event"",""trial"",""time""
""fullscreenenter"",""1"",""2042""
","
","
","""event"",""trial"",""time""
""fullscreenenter"",""1"",""2042""
","
","","[{""page_index"":0,""viewing_time"":4103.000000000116}]","4103.000000000116","","","","","","","","","","","","","","","","","","","","","","","",""
"pit-instructions","120","1010667","0.0-3.0","battery-v0.2","","""event"",""trial"",""time""
""fullscreenenter"",""1"",""2042""
","
","
","""event"",""trial"",""time""
""fullscreenenter"",""1"",""2042""
","
","","[{""page_index"":0,""viewing_time"":5624},{""page_index"":1,""viewing_time"":7228},{""page_index"":2,""viewing_time"":8932}]","21785","","","","","","","","","","","","","","","","","","","","","","","",""
"pit-trial","121","1015523","0.0-4.0","battery-v0.2","","""event"",""trial"",""time""
""fullscreenenter"",""1"",""2042""
","
","
","""event"",""trial"",""time""
""fullscreenenter"",""1"",""2042""
","
","","","-1","","","21","4640","3049","&#9730;","elianto","#3366ff99"," ","-1","0","0","[2935.0000000001164]","1","1","","","4640","1","1","1","win","go","0"
"pit-trial","122","1020379","0.0-5.0","battery-v0.2","","""event"",""trial"",""time""
""fullscreenenter"",""1"",""2042""
","
","
","""event"",""trial"",""time""
""fullscreenenter"",""1"",""2042""
","
","","","-1","","","21","4640","3049","&#9728;","elianto","#f73b6a7A","-1","-1","1","0","[]","0","1","","","4640","2","0","4","lose","no-go","0"
"pit-trial","123","1023903","0.0-6.0","battery-v0.2","","""event"",""trial"",""time""
""fullscreenenter"",""1"",""2042""
","
","
","""event"",""trial"",""time""
""fullscreenenter"",""1"",""2042""
","
","","","670","","","21","4640","3049","&#9733;","elianto","#3366ff99","-1"," ","0","0","[1520]","1","1","","","4640","3","2","2","win","no-go","0"
"pit-trial","124","1028759","0.0-7.0","battery-v0.2","","""event"",""trial"",""time""
""fullscreenenter"",""1"",""2042""
","
","
","""event"",""trial"",""time""
""fullscreenenter"",""1"",""2042""
","
","","","-1","","","21","4640","3049","&#9752;","elianto","#f73b6a7A"," ","-1","0","-10","[]","0","1","","","4640","4","3","3","lose","go","0"
"pit-trial","125","1033614","0.0-8.0","battery-v0.2","","""event"",""trial"",""time""
""fullscreenenter"",""1"",""2042""
","
","
","""event"",""trial"",""time""
""fullscreenenter"",""1"",""2042""
","
","","","-1","","","21","4640","3049","&#9752;","elianto","#f73b6a7A"," ","-1","0","0","[]","0","1","","","4640","5","3","3","lose","go","1"
"pit-trial","126","1037204","0.0-9.0","battery-v0.2","","""event"",""trial"",""time""
""fullscreenenter"",""1"",""2042""
","
","
","""event"",""trial"",""time""
""fullscreenenter"",""1"",""2042""
","
","","","734.9999999998836","","","21","4640","3049","&#9730;","elianto","#3366ff99"," "," ","1","+10","[1585.9999999997672]","1","1","","","4640","6","1","1","win","go","0"
"pit-trial","127","1040564","0.0-10.0","battery-v0.2","","""event"",""trial"",""time""
""fullscreenenter"",""1"",""2042""
","
","
","""event"",""trial"",""time""
""fullscreenenter"",""1"",""2042""
","
","","","505.0000000001164","","","21","4640","3049","&#9733;","elianto","#3366ff99","-1"," ","0","0","[1356]","1","1","","","4640","7","2","2","win","no-go","0"
"pit-trial","128","1045420","0.0-11.0","battery-v0.2","","""event"",""trial"",""time""
""fullscreenenter"",""1"",""2042""
","
","
","""event"",""trial"",""time""
""fullscreenenter"",""1"",""2042""
","
","","","-1","","","21","4640","3049","&#9728;","elianto","#f73b6a7A","-1","-1","1","0","[]","0","1","","","4640","8","0","4","lose","no-go","0"
"pit-trial","129","1048911","0.0-12.0","battery-v0.2","","""event"",""trial"",""time""
""fullscreenenter"",""1"",""2042""
","
","
","""event"",""trial"",""time""
""fullscreenenter"",""1"",""2042""
","
","","","636","","","21","4640","3049","&#9730;","elianto","#3366ff99"," "," ","1","+10","[1485.9999999998836]","1","1","","","4640","9","1","1","win","go","0"
"pit-trial","130","1053766","0.0-13.0","battery-v0.2","","""event"",""trial"",""time""
""fullscreenenter"",""1"",""2042""
","
","
","""event"",""trial"",""time""
""fullscreenenter"",""1"",""2042""
","
","","","-1","","","21","4640","3049","&#9752;","elianto","#f73b6a7A"," ","-1","0","0","[]","0","1","","","4640","10","3","3","lose","go","1"
"pit-trial","131","1057195","0.0-14.0","battery-v0.2","","""event"",""trial"",""time""
""fullscreenenter"",""1"",""2042""
","
","
","""event"",""trial"",""time""
""fullscreenenter"",""1"",""2042""
","
","","","575","","","21","4640","3049","&#9733;","elianto","#3366ff99","-1"," ","0","0","[1426]","1","1","","","4640","11","2","2","win","no-go","0"
"pit-trial","132","1062051","0.0-15.0","battery-v0.2","","""event"",""trial"",""time""
""fullscreenenter"",""1"",""2042""
","
","
","""event"",""trial"",""time""
""fullscreenenter"",""1"",""2042""
","
","","","-1","","","21","4640","3049","&#9728;","elianto","#f73b6a7A","-1","-1","1","0","[]","0","1","","","4640","12","0","4","lose","no-go","0"
"pit-trial","133","1065511","0.0-16.0","battery-v0.2","","""event"",""trial"",""time""
""fullscreenenter"",""1"",""2042""
","
","
","""event"",""trial"",""time""
""fullscreenenter"",""1"",""2042""
","
","","","604.9999999997672","","","21","4640","3049","&#9733;","elianto","#3366ff99","-1"," ","0","0","[1455]","1","1","","","4640","13","2","2","win","no-go","0"
"pit-trial","134","1068911","0.0-17.0","battery-v0.2","","""event"",""trial"",""time""
""fullscreenenter"",""1"",""2042""
","
","
","""event"",""trial"",""time""
""fullscreenenter"",""1"",""2042""
","
","","","543.9999999997672","","","21","4640","3049","&#9730;","elianto","#3366ff99"," "," ","1","+10","[1395]","1","1","","","4640","14","1","1","win","go","0"
"pit-trial","135","1073766","0.0-18.0","battery-v0.2","","""event"",""trial"",""time""
""fullscreenenter"",""1"",""2042""
","
","
","""event"",""trial"",""time""
""fullscreenenter"",""1"",""2042""
","
","","","-1","","","21","4640","3049","&#9728;","elianto","#f73b6a7A","-1","-1","1","-10","[]","0","1","","","4640","15","0","4","lose","no-go","1"
"pit-trial","136","1078622","0.0-19.0","battery-v0.2","","""event"",""trial"",""time""
""fullscreenenter"",""1"",""2042""
","
","
","""event"",""trial"",""time""
""fullscreenenter"",""1"",""2042""
","
","","","-1","","","21","4640","3049","&#9752;","elianto","#f73b6a7A"," ","-1","0","-10","[]","0","1","","","4640","16","3","3","lose","go","0"
"pit-trial","137","1082654","0.0-20.0","battery-v0.2","","""event"",""trial"",""time""
""fullscreenenter"",""1"",""2042""
","
","
","""event"",""trial"",""time""
""fullscreenenter"",""1"",""2042""
","
","","","1176","","","21","4640","3049","&#9752;","elianto","#f73b6a7A"," "," ","1","0","[2027]","1","1","","","4640","17","3","3","lose","go","0"
"pit-trial","138","1086309","0.0-21.0","battery-v0.2","","""event"",""trial"",""time""
""fullscreenenter"",""1"",""2042""
","
","
","""event"",""trial"",""time""
""fullscreenenter"",""1"",""2042""
","
","","","799","","","21","4640","3049","&#9733;","elianto","#3366ff99","-1"," ","0","0","[1650]","1","1","","","4640","18","2","2","win","no-go","0"
"pit-trial","139","1089709","0.0-22.0","battery-v0.2","","""event"",""trial"",""time""
""fullscreenenter"",""1"",""2042""
","
","
","""event"",""trial"",""time""
""fullscreenenter"",""1"",""2042""
","
","","","545.9999999997672","","","21","4640","3049","&#9730;","elianto","#3366ff99"," "," ","1","+10","[1396]","1","1","","","4640","19","1","1","win","go","0"
"pit-trial","140","1093261","0.0-23.0","battery-v0.2","","""event"",""trial"",""time""
""fullscreenenter"",""1"",""2042""
","
","
","""event"",""trial"",""time""
""fullscreenenter"",""1"",""2042""
","
","","","697","","","21","4640","3049","&#9728;","elianto","#f73b6a7A","-1"," ","0","-10","[1547]","1","1","","","4640","20","0","4","lose","no-go","0"
"pit-instructions","141","1105987","0.0-24.0","battery-v0.2","","""event"",""trial"",""time""
""fullscreenenter"",""1"",""2042""
","
","
","""event"",""trial"",""time""
""fullscreenenter"",""1"",""2042""
","
","","[{""page_index"":0,""viewing_time"":5576},{""page_index"":1,""viewing_time"":7147}]","12723","","","","","","","","","","","","","","","","","","","","","","","",""
"pit-trial","142","1110845","0.0-25.0","battery-v0.2","","""event"",""trial"",""time""
""fullscreenenter"",""1"",""2042""
","
","
","""event"",""trial"",""time""
""fullscreenenter"",""1"",""2042""
","
","","","-1","","","21","4640","3049","g","elianto","#f73b6a7A"," ","-1","0","-10","[]","0","2","","","4640","21","3","3","lose","go","0"
"pit-trial","143","1114873","0.0-26.0","battery-v0.2","","""event"",""trial"",""time""
""fullscreenenter"",""1"",""2042""
","
","
","""event"",""trial"",""time""
""fullscreenenter"",""1"",""2042""
","
","","","1174.0000000002328","","","21","4640","3049","a","elianto","#f73b6a7A","-1"," ","0","-10","[2025.0000000002328]","1","2","","","4640","22","2","4","lose","no-go","0"
"pit-trial","144","1118314","0.0-27.0","battery-v0.2","","""event"",""trial"",""time""
""fullscreenenter"",""1"",""2042""
","
","
","""event"",""trial"",""time""
""fullscreenenter"",""1"",""2042""
","
","","","587.0000000002328","","","21","4640","3049","l","elianto","#3366ff99"," "," ","1","+10","[1437.0000000002328]","1","2","","","4640","23","1","1","win","go","0"
"pit-trial","145","1123169","0.0-28.0","battery-v0.2","","""event"",""trial"",""time""
""fullscreenenter"",""1"",""2042""
","
","
","""event"",""trial"",""time""
""fullscreenenter"",""1"",""2042""
","
","","","-1","","","21","4640","3049","u","elianto","#f73b6a7A","-1","-1","1","0","[]","0","2","","","4640","24","0","4","lose","no-go","0"
"pit-trial","146","1127261","0.0-29.0","battery-v0.2","","""event"",""trial"",""time""
""fullscreenenter"",""1"",""2042""
","
","
","""event"",""trial"",""time""
""fullscreenenter"",""1"",""2042""
","
","","","1237","","","21","4640","3049","g","elianto","#f73b6a7A"," "," ","1","0","[2088]","1","2","","","4640","25","3","3","lose","go","0"
"pit-trial","147","1130728","0.0-30.0","battery-v0.2","","""event"",""trial"",""time""
""fullscreenenter"",""1"",""2042""
","
","
","""event"",""trial"",""time""
""fullscreenenter"",""1"",""2042""
","
","","","611","","","21","4640","3049","l","elianto","#3366ff99"," "," ","1","+10","[1463]","1","2","","","4640","26","1","1","win","go","0"
"pit-trial","148","1135584","0.0-31.0","battery-v0.2","","""event"",""trial"",""time""
""fullscreenenter"",""1"",""2042""
","
","
","""event"",""trial"",""time""
""fullscreenenter"",""1"",""2042""
","
","","","-1","","","21","4640","3049","a","elianto","#f73b6a7A","-1","-1","1","0","[]","0","2","","","4640","27","2","4","lose","no-go","0"
"pit-trial","149","1140440","0.0-32.0","battery-v0.2","","""event"",""trial"",""time""
""fullscreenenter"",""1"",""2042""
","
","
","""event"",""trial"",""time""
""fullscreenenter"",""1"",""2042""
","
","","","-1","","","21","4640","3049","u","elianto","#f73b6a7A","-1","-1","1","0","[]","0","2","","","4640","28","0","4","lose","no-go","0"
"pit-trial","150","1143876","0.0-33.0","battery-v0.2","","""event"",""trial"",""time""
""fullscreenenter"",""1"",""2042""
","
","
","""event"",""trial"",""time""
""fullscreenenter"",""1"",""2042""
","
","","","580.9999999997672","","","21","4640","3049","l","elianto","#3366ff99"," "," ","1","0","[1432]","1","2","","","4640","29","1","1","win","go","1"
"pit-trial","151","1148731","0.0-34.0","battery-v0.2","","""event"",""trial"",""time""
""fullscreenenter"",""1"",""2042""
","
","
","""event"",""trial"",""time""
""fullscreenenter"",""1"",""2042""
","
","","","-1","","","21","4640","3049","u","elianto","#f73b6a7A","-1","-1","1","0","[]","0","2","","","4640","30","0","4","lose","no-go","0"
"pit-trial","152","1153587","0.0-35.0","battery-v0.2","","""event"",""trial"",""time""
""fullscreenenter"",""1"",""2042""
","
","
","""event"",""trial"",""time""
""fullscreenenter"",""1"",""2042""
","
","","","-1","","","21","4640","3049","a","elianto","#f73b6a7A","-1","-1","1","0","[]","0","2","","","4640","31","2","4","lose","no-go","0"
"pit-trial","153","1157194","0.0-36.0","battery-v0.2","","""event"",""trial"",""time""
""fullscreenenter"",""1"",""2042""
","
","
","""event"",""trial"",""time""
""fullscreenenter"",""1"",""2042""
","
","","","753","","","21","4640","3049","g","elianto","#f73b6a7A"," "," ","1","0","[1602.9999999997672]","1","2","","","4640","32","3","3","lose","go","0"
"pit-trial","154","1162051","0.0-37.0","battery-v0.2","","""event"",""trial"",""time""
""fullscreenenter"",""1"",""2042""
","
","
","""event"",""trial"",""time""
""fullscreenenter"",""1"",""2042""
","
","","","-1","","","21","4640","3049","a","elianto","#f73b6a7A","-1","-1","1","-10","[]","0","2","","","4640","33","2","4","lose","no-go","1"
"pit-trial","155","1165493","0.0-38.0","battery-v0.2","","""event"",""trial"",""time""
""fullscreenenter"",""1"",""2042""
","
","
","""event"",""trial"",""time""
""fullscreenenter"",""1"",""2042""
","
","","","586","","","21","4640","3049","l","elianto","#3366ff99"," "," ","1","+10","[1437]","1","2","","","4640","34","1","1","win","go","0"
"pit-trial","156","1170275","0.0-39.0","battery-v0.2","","""event"",""trial"",""time""
""fullscreenenter"",""1"",""2042""
","
","
","""event"",""trial"",""time""
""fullscreenenter"",""1"",""2042""
","
","","","1926","","","21","4640","3049","u","elianto","#f73b6a7A","-1"," ","0","-10","[2777]","1","2","","","4640","35","0","4","lose","no-go","0"
"pit-trial","157","1173897","0.0-40.0","battery-v0.2","","""event"",""trial"",""time""
""fullscreenenter"",""1"",""2042""
","
","
","""event"",""trial"",""time""
""fullscreenenter"",""1"",""2042""
","
","","","767","","","21","4640","3049","g","elianto","#f73b6a7A"," "," ","1","0","[1618]","1","2","","","4640","36","3","3","lose","go","0"
"pit-trial","158","1177575","0.0-41.0","battery-v0.2","","""event"",""trial"",""time""
""fullscreenenter"",""1"",""2042""
","
","
","""event"",""trial"",""time""
""fullscreenenter"",""1"",""2042""
","
","","","820.9999999997672","","","21","4640","3049","u","elianto","#f73b6a7A","-1"," ","0","-10","[1672]","1","2","","","4640","37","0","4","lose","no-go","0"
"pit-trial","159","1181078","0.0-42.0","battery-v0.2","","""event"",""trial"",""time""
""fullscreenenter"",""1"",""2042""
","
","
","""event"",""trial"",""time""
""fullscreenenter"",""1"",""2042""
","
","","","648","","","21","4640","3049","g","elianto","#f73b6a7A"," "," ","1","0","[1498]","1","2","","","4640","38","3","3","lose","go","0"
"pit-trial","160","1184633","0.0-43.0","battery-v0.2","","""event"",""trial"",""time""
""fullscreenenter"",""1"",""2042""
","
","
","""event"",""trial"",""time""
""fullscreenenter"",""1"",""2042""
","
","","","699","","","21","4640","3049","a","elianto","#f73b6a7A","-1"," ","0","-10","[1550]","1","2","","","4640","39","2","4","lose","no-go","0"
"pit-trial","161","1188113","0.0-44.0","battery-v0.2","","""event"",""trial"",""time""
""fullscreenenter"",""1"",""2042""
","
","
","""event"",""trial"",""time""
""fullscreenenter"",""1"",""2042""
","
","","","625","","","21","4640","3049","l","elianto","#3366ff99"," "," ","1","+10","[1474.9999999997672]","1","2","","","4640","40","1","1","win","go","0"
"pit-trial","162","1191579","0.0-45.0","battery-v0.2","","""event"",""trial"",""time""
""fullscreenenter"",""1"",""2042""
","
","
","""event"",""trial"",""time""
""fullscreenenter"",""1"",""2042""
","
","","","611","","","21","4640","3049","l","elianto","#3366ff99"," "," ","1","+10","[1461]","1","2","","","4640","41","1","1","win","go","0"
"pit-trial","163","1196434","0.0-46.0","battery-v0.2","","""event"",""trial"",""time""
""fullscreenenter"",""1"",""2042""
","
","
","""event"",""trial"",""time""
""fullscreenenter"",""1"",""2042""
","
","","","-1","","","21","4640","3049","u","elianto","#f73b6a7A","-1","-1","1","0","[]","0","2","","","4640","42","0","4","lose","no-go","0"
"pit-trial","164","1200842","0.0-47.0","battery-v0.2","","""event"",""trial"",""time""
""fullscreenenter"",""1"",""2042""
","
","
","""event"",""trial"",""time""
""fullscreenenter"",""1"",""2042""
","
","","","1553","","","21","4640","3049","g","elianto","#f73b6a7A"," "," ","1","0","[2404]","1","2","","","4640","43","3","3","lose","go","0"
"pit-trial","165","1204832","0.0-48.0","battery-v0.2","","""event"",""trial"",""time""
""fullscreenenter"",""1"",""2042""
","
","
","""event"",""trial"",""time""
""fullscreenenter"",""1"",""2042""
","
","","","1135","","","21","4640","3049","a","elianto","#f73b6a7A","-1"," ","0","0","[1985]","1","2","","","4640","44","2","4","lose","no-go","1"
"pit-trial","166","1208597","0.0-49.0","battery-v0.2","","""event"",""trial"",""time""
""fullscreenenter"",""1"",""2042""
","
","
","""event"",""trial"",""time""
""fullscreenenter"",""1"",""2042""
","
","","","912","","","21","4640","3049","a","elianto","#f73b6a7A","-1"," ","0","-10","[1762]","1","2","","","4640","45","2","4","lose","no-go","0"
"pit-trial","167","1213453","0.0-50.0","battery-v0.2","","""event"",""trial"",""time""
""fullscreenenter"",""1"",""2042""
","
","
","""event"",""trial"",""time""
""fullscreenenter"",""1"",""2042""
","
","","","-1","","","21","4640","3049","u","elianto","#f73b6a7A","-1","-1","1","-10","[]","0","2","","","4640","46","0","4","lose","no-go","1"
"pit-trial","168","1216908","0.0-51.0","battery-v0.2","","""event"",""trial"",""time""
""fullscreenenter"",""1"",""2042""
","
","
","""event"",""trial"",""time""
""fullscreenenter"",""1"",""2042""
","
","","","601","","","21","4640","3049","p","elianto","#3366ff99","-1"," ","0","0","[1451]","1","2","","","4640","47","4","2","win","no-go","0"
"pit-trial","169","1220484","0.0-52.0","battery-v0.2","","""event"",""trial"",""time""
""fullscreenenter"",""1"",""2042""
","
","
","""event"",""trial"",""time""
""fullscreenenter"",""1"",""2042""
","
","","","719","","","21","4640","3049","g","elianto","#f73b6a7A"," "," ","1","-10","[1570]","1","2","","","4640","48","3","3","lose","go","1"
"pit-trial","170","1223950","0.0-53.0","battery-v0.2","","""event"",""trial"",""time""
""fullscreenenter"",""1"",""2042""
","
","
","""event"",""trial"",""time""
""fullscreenenter"",""1"",""2042""
","
","","","611.9999999997672","","","21","4640","3049","l","elianto","#3366ff99"," "," ","1","+10","[1462]","1","2","","","4640","49","1","1","win","go","0"
"pit-trial","171","1227632","0.0-54.0","battery-v0.2","","""event"",""trial"",""time""
""fullscreenenter"",""1"",""2042""
","
","
","""event"",""trial"",""time""
""fullscreenenter"",""1"",""2042""
","
","","","827","","","21","4640","3049","p","elianto","#3366ff99","-1"," ","0","0","[1676]","1","2","","","4640","50","4","2","win","no-go","0"
"pit-trial","172","1232464","0.0-55.0","battery-v0.2","","""event"",""trial"",""time""
""fullscreenenter"",""1"",""2042""
","
","
","""event"",""trial"",""time""
""fullscreenenter"",""1"",""2042""
","
","","","1976","","","21","4640","3049","g","elianto","#f73b6a7A"," "," ","1","0","[2827]","1","2","","","4640","51","3","3","lose","go","0"
"pit-trial","173","1237318","0.0-56.0","battery-v0.2","","""event"",""trial"",""time""
""fullscreenenter"",""1"",""2042""
","
","
","""event"",""trial"",""time""
""fullscreenenter"",""1"",""2042""
","
","","","-1","","","21","4640","3049","u","elianto","#f73b6a7A","-1","-1","1","-10","[]","0","2","","","4640","52","0","4","lose","no-go","1"
"pit-trial","174","1240873","0.0-57.0","battery-v0.2","","""event"",""trial"",""time""
""fullscreenenter"",""1"",""2042""
","
","
","""event"",""trial"",""time""
""fullscreenenter"",""1"",""2042""
","
","","","699","","","21","4640","3049","a","elianto","#f73b6a7A","-1"," ","0","-10","[1550]","1","2","","","4640","53","2","4","lose","no-go","0"
"pit-trial","175","1244457","0.0-58.0","battery-v0.2","","""event"",""trial"",""time""
""fullscreenenter"",""1"",""2042""
","
","
","""event"",""trial"",""time""
""fullscreenenter"",""1"",""2042""
","
","","","728","","","21","4640","3049","u","elianto","#f73b6a7A","-1"," ","0","-10","[1579]","1","2","","","4640","54","0","4","lose","no-go","0"
"pit-trial","176","1247941","0.0-59.0","battery-v0.2","","""event"",""trial"",""time""
""fullscreenenter"",""1"",""2042""
","
","
","""event"",""trial"",""time""
""fullscreenenter"",""1"",""2042""
","
","","","631.0000000002328","","","21","4640","3049","p","elianto","#3366ff99","-1"," ","0","0","[1481]","1","2","","","4640","55","4","2","win","no-go","0"
"pit-trial","177","1251476","0.0-60.0","battery-v0.2","","""event"",""trial"",""time""
""fullscreenenter"",""1"",""2042""
","
","
","""event"",""trial"",""time""
""fullscreenenter"",""1"",""2042""
","
","","","679","","","21","4640","3049","l","elianto","#3366ff99"," "," ","1","+10","[1530]","1","2","","","4640","56","1","1","win","go","0"
"pit-trial","178","1254985","0.0-61.0","battery-v0.2","","""event"",""trial"",""time""
""fullscreenenter"",""1"",""2042""
","
","
","""event"",""trial"",""time""
""fullscreenenter"",""1"",""2042""
","
","","","655","","","21","4640","3049","l","elianto","#3366ff99"," "," ","1","+10","[1505.9999999997672]","1","2","","","4640","57","1","1","win","go","0"
"pit-trial","179","1259841","0.0-62.0","battery-v0.2","","""event"",""trial"",""time""
""fullscreenenter"",""1"",""2042""
","
","
","""event"",""trial"",""time""
""fullscreenenter"",""1"",""2042""
","
","","","-1","","","21","4640","3049","g","elianto","#f73b6a7A"," ","-1","0","0","[]","0","2","","","4640","58","3","3","lose","go","1"
"pit-trial","180","1263363","0.0-63.0","battery-v0.2","","""event"",""trial"",""time""
""fullscreenenter"",""1"",""2042""
","
","
","""event"",""trial"",""time""
""fullscreenenter"",""1"",""2042""
","
","","","668","","","21","4640","3049","p","elianto","#3366ff99","-1"," ","0","+10","[1518]","1","2","","","4640","59","4","2","win","no-go","1"
"pit-trial","181","1268219","0.0-64.0","battery-v0.2","","""event"",""trial"",""time""
""fullscreenenter"",""1"",""2042""
","
","
","""event"",""trial"",""time""
""fullscreenenter"",""1"",""2042""
","
","","","-1","","","21","4640","3049","u","elianto","#f73b6a7A","-1","-1","1","0","[]","0","2","","","4640","60","0","4","lose","no-go","0"
"pit-trial","182","1271603","0.0-65.0","battery-v0.2","","""event"",""trial"",""time""
""fullscreenenter"",""1"",""2042""
","
","
","""event"",""trial"",""time""
""fullscreenenter"",""1"",""2042""
","
","","","530.0000000002328","","","21","4640","3049","l","elianto","#3366ff99"," "," ","1","+10","[1381.0000000002328]","1","2","","","4640","61","1","1","win","go","0"
"pit-trial","183","1276458","0.0-66.0","battery-v0.2","","""event"",""trial"",""time""
""fullscreenenter"",""1"",""2042""
","
","
","""event"",""trial"",""time""
""fullscreenenter"",""1"",""2042""
","
","","","-1","","","21","4640","3049","g","elianto","#f73b6a7A"," ","-1","0","-10","[]","0","2","","","4640","62","3","3","lose","go","0"
"pit-trial","184","1280175","0.0-67.0","battery-v0.2","","""event"",""trial"",""time""
""fullscreenenter"",""1"",""2042""
","
","
","""event"",""trial"",""time""
""fullscreenenter"",""1"",""2042""
","
","","","861","","","21","4640","3049","p","elianto","#3366ff99","-1"," ","0","0","[1712]","1","2","","","4640","63","4","2","win","no-go","0"
"pit-trial","185","1285029","0.0-68.0","battery-v0.2","","""event"",""trial"",""time""
""fullscreenenter"",""1"",""2042""
","
","
","""event"",""trial"",""time""
""fullscreenenter"",""1"",""2042""
","
","","","-1","","","21","4640","3049","a","elianto","#f73b6a7A","-1","-1","1","0","[]","0","2","","","4640","64","2","4","lose","no-go","0"
"pit-trial","186","1289883","0.0-69.0","battery-v0.2","","""event"",""trial"",""time""
""fullscreenenter"",""1"",""2042""
","
","
","""event"",""trial"",""time""
""fullscreenenter"",""1"",""2042""
","
","","","-1","","","21","4640","3049","g","elianto","#f73b6a7A"," ","-1","0","-10","[]","0","2","","","4640","65","3","3","lose","go","0"
"pit-trial","187","1293633","0.0-70.0","battery-v0.2","","""event"",""trial"",""time""
""fullscreenenter"",""1"",""2042""
","
","
","""event"",""trial"",""time""
""fullscreenenter"",""1"",""2042""
","
","","","894.9999999997672","","","21","4640","3049","a","elianto","#f73b6a7A","-1"," ","0","-10","[1745]","1","2","","","4640","66","2","4","lose","no-go","0"
"pit-trial","188","1297043","0.0-71.0","battery-v0.2","","""event"",""trial"",""time""
""fullscreenenter"",""1"",""2042""
","
","
","""event"",""trial"",""time""
""fullscreenenter"",""1"",""2042""
","
","","","554","","","21","4640","3049","p","elianto","#3366ff99","-1"," ","0","0","[1405]","1","2","","","4640","67","4","2","win","no-go","0"
"pit-trial","189","1300388","0.0-72.0","battery-v0.2","","""event"",""trial"",""time""
""fullscreenenter"",""1"",""2042""
","
","
","""event"",""trial"",""time""
""fullscreenenter"",""1"",""2042""
","
","","","488","","","21","4640","3049","l","elianto","#3366ff99"," "," ","1","+10","[1339]","1","2","","","4640","68","1","1","win","go","0"
"pit-trial","190","1305248","0.0-73.0","battery-v0.2","","""event"",""trial"",""time""
""fullscreenenter"",""1"",""2042""
","
","
","""event"",""trial"",""time""
""fullscreenenter"",""1"",""2042""
","
","","","-1","","","21","4640","3049","g","elianto","#f73b6a7A"," ","-1","0","-10","[]","0","2","","","4640","69","3","3","lose","go","0"
"pit-trial","191","1308894","0.0-74.0","battery-v0.2","","""event"",""trial"",""time""
""fullscreenenter"",""1"",""2042""
","
","
","""event"",""trial"",""time""
""fullscreenenter"",""1"",""2042""
","
","","","792.9999999997672","","","21","4640","3049","l","elianto","#3366ff99"," "," ","1","+10","[1643]","1","2","","","4640","70","1","1","win","go","0"
"pit-trial","192","1312940","0.0-75.0","battery-v0.2","","""event"",""trial"",""time""
""fullscreenenter"",""1"",""2042""
","
","
","""event"",""trial"",""time""
""fullscreenenter"",""1"",""2042""
","
","","","1191","","","21","4640","3049","p","elianto","#3366ff99","-1"," ","0","0","[2042]","1","2","","","4640","71","4","2","win","no-go","0"
"pit-trial","193","1316420","0.0-76.0","battery-v0.2","","""event"",""trial"",""time""
""fullscreenenter"",""1"",""2042""
","
","
","""event"",""trial"",""time""
""fullscreenenter"",""1"",""2042""
","
","","","626","","","21","4640","3049","s","elianto","#3366ff99"," "," ","1","+10","[1476]","1","2","","","4640","72","5","1","win","go","0"
"pit-trial","194","1319790","0.0-77.0","battery-v0.2","","""event"",""trial"",""time""
""fullscreenenter"",""1"",""2042""
","
","
","""event"",""trial"",""time""
""fullscreenenter"",""1"",""2042""
","
","","","514","","","21","4640","3049","l","elianto","#3366ff99"," "," ","1","+10","[1364]","1","2","","","4640","73","1","1","win","go","0"
"pit-trial","195","1323818","0.0-78.0","battery-v0.2","","""event"",""trial"",""time""
""fullscreenenter"",""1"",""2042""
","
","
","""event"",""trial"",""time""
""fullscreenenter"",""1"",""2042""
","
","","","1175","","","21","4640","3049","g","elianto","#f73b6a7A"," "," ","1","0","[2025]","1","2","","","4640","74","3","3","lose","go","0"
"pit-trial","196","1327446","0.0-79.0","battery-v0.2","","""event"",""trial"",""time""
""fullscreenenter"",""1"",""2042""
","
","
","""event"",""trial"",""time""
""fullscreenenter"",""1"",""2042""
","
","","","773.0000000002328","","","21","4640","3049","p","elianto","#3366ff99","-1"," ","0","0","[1624.0000000002328]","1","2","","","4640","75","4","2","win","no-go","0"
"pit-trial","197","1330632","0.0-80.0","battery-v0.2","","""event"",""trial"",""time""
""fullscreenenter"",""1"",""2042""
","
","
","""event"",""trial"",""time""
""fullscreenenter"",""1"",""2042""
","
","","","330","","","21","4640","3049","s","elianto","#3366ff99"," "," ","1","+10","[1181]","1","2","","","4640","76","5","1","win","go","0"
"pit-trial","198","1334755","0.0-81.0","battery-v0.2","","""event"",""trial"",""time""
""fullscreenenter"",""1"",""2042""
","
","
","""event"",""trial"",""time""
""fullscreenenter"",""1"",""2042""
","
","","","1269","","","21","4640","3049","w","elianto","#f73b6a7A","-1"," ","0","-10","[2119]","1","2","","","4640","77","6","4","lose","no-go","0"
"pit-trial","199","1338399","0.0-82.0","battery-v0.2","","""event"",""trial"",""time""
""fullscreenenter"",""1"",""2042""
","
","
","""event"",""trial"",""time""
""fullscreenenter"",""1"",""2042""
","
","","","790","","","21","4640","3049","p","elianto","#3366ff99","-1"," ","0","0","[1640]","1","2","","","4640","78","4","2","win","no-go","0"
"pit-trial","200","1341822","0.0-83.0","battery-v0.2","","""event"",""trial"",""time""
""fullscreenenter"",""1"",""2042""
","
","
","""event"",""trial"",""time""
""fullscreenenter"",""1"",""2042""
","
","","","568.9999999997672","","","21","4640","3049","s","elianto","#3366ff99"," "," ","1","+10","[1419]","1","2","","","4640","79","5","1","win","go","0"
"pit-trial","201","1346677","0.0-84.0","battery-v0.2","","""event"",""trial"",""time""
""fullscreenenter"",""1"",""2042""
","
","
","""event"",""trial"",""time""
""fullscreenenter"",""1"",""2042""
","
","","","-1","","","21","4640","3049","g","elianto","#f73b6a7A"," ","-1","0","-10","[]","0","2","","","4640","80","3","3","lose","go","0"
"pit-trial","202","1350249","0.0-85.0","battery-v0.2","","""event"",""trial"",""time""
""fullscreenenter"",""1"",""2042""
","
","
","""event"",""trial"",""time""
""fullscreenenter"",""1"",""2042""
","
","","","718","","","21","4640","3049","p","elianto","#3366ff99","-1"," ","0","0","[1568]","1","2","","","4640","81","4","2","win","no-go","0"
"pit-trial","203","1355105","0.0-86.0","battery-v0.2","","""event"",""trial"",""time""
""fullscreenenter"",""1"",""2042""
","
","
","""event"",""trial"",""time""
""fullscreenenter"",""1"",""2042""
","
","","","-1","","","21","4640","3049","e","elianto","#f73b6a7A"," ","-1","0","-10","[]","0","2","","","4640","82","7","3","lose","go","0"
"pit-trial","204","1358473","0.0-87.0","battery-v0.2","","""event"",""trial"",""time""
""fullscreenenter"",""1"",""2042""
","
","
","""event"",""trial"",""time""
""fullscreenenter"",""1"",""2042""
","
","","","513.0000000002328","","","21","4640","3049","s","elianto","#3366ff99"," "," ","1","+10","[1364.0000000002328]","1","2","","","4640","83","5","1","win","go","0"
"pit-trial","205","1363329","0.0-88.0","battery-v0.2","","""event"",""trial"",""time""
""fullscreenenter"",""1"",""2042""
","
","
","""event"",""trial"",""time""
""fullscreenenter"",""1"",""2042""
","
","","","-1","","","21","4640","3049","w","elianto","#f73b6a7A","-1","-1","1","0","[]","0","2","","","4640","84","6","4","lose","no-go","0"
"pit-trial","206","1366757","0.0-89.0","battery-v0.2","","""event"",""trial"",""time""
""fullscreenenter"",""1"",""2042""
","
","
","""event"",""trial"",""time""
""fullscreenenter"",""1"",""2042""
","
","","","571.9999999997672","","","21","4640","3049","p","elianto","#3366ff99","-1"," ","0","0","[1423]","1","2","","","4640","85","4","2","win","no-go","0"
"pit-trial","207","1370082","0.0-90.0","battery-v0.2","","""event"",""trial"",""time""
""fullscreenenter"",""1"",""2042""
","
","
","""event"",""trial"",""time""
""fullscreenenter"",""1"",""2042""
","
","","","471","","","21","4640","3049","s","elianto","#3366ff99"," "," ","1","0","[1320.9999999997672]","1","2","","","4640","86","5","1","win","go","1"
"pit-trial","208","1374937","0.0-91.0","battery-v0.2","","""event"",""trial"",""time""
""fullscreenenter"",""1"",""2042""
","
","
","""event"",""trial"",""time""
""fullscreenenter"",""1"",""2042""
","
","","","-1","","","21","4640","3049","e","elianto","#f73b6a7A"," ","-1","0","-10","[]","0","2","","","4640","87","7","3","lose","go","0"
"pit-trial","209","1379793","0.0-92.0","battery-v0.2","","""event"",""trial"",""time""
""fullscreenenter"",""1"",""2042""
","
","
","""event"",""trial"",""time""
""fullscreenenter"",""1"",""2042""
","
","","","-1","","","21","4640","3049","w","elianto","#f73b6a7A","-1","-1","1","-10","[]","0","2","","","4640","88","6","4","lose","no-go","1"
"pit-trial","210","1383091","0.0-93.0","battery-v0.2","","""event"",""trial"",""time""
""fullscreenenter"",""1"",""2042""
","
","
","""event"",""trial"",""time""
""fullscreenenter"",""1"",""2042""
","
","","","443","","","21","4640","3049","s","elianto","#3366ff99"," "," ","1","+10","[1294]","1","2","","","4640","89","5","1","win","go","0"
"pit-trial","211","1386831","0.0-94.0","battery-v0.2","","""event"",""trial"",""time""
""fullscreenenter"",""1"",""2042""
","
","
","""event"",""trial"",""time""
""fullscreenenter"",""1"",""2042""
","
","","","884","","","21","4640","3049","e","elianto","#f73b6a7A"," "," ","1","0","[1734]","1","2","","","4640","90","7","3","lose","go","0"
"pit-trial","212","1391279","0.0-95.0","battery-v0.2","","""event"",""trial"",""time""
""fullscreenenter"",""1"",""2042""
","
","
","""event"",""trial"",""time""
""fullscreenenter"",""1"",""2042""
","
","","","1593","","","21","4640","3049","w","elianto","#f73b6a7A","-1"," ","0","-10","[2444]","1","2","","","4640","91","6","4","lose","no-go","0"
"pit-trial","213","1394857","0.0-96.0","battery-v0.2","","""event"",""trial"",""time""
""fullscreenenter"",""1"",""2042""
","
","
","""event"",""trial"",""time""
""fullscreenenter"",""1"",""2042""
","
","","","723.0000000002328","","","21","4640","3049","p","elianto","#3366ff99","-1"," ","0","0","[1573.0000000002328]","1","2","","","4640","92","4","2","win","no-go","0"
"pit-trial","214","1399334","0.0-97.0","battery-v0.2","","""event"",""trial"",""time""
""fullscreenenter"",""1"",""2042""
","
","
","""event"",""trial"",""time""
""fullscreenenter"",""1"",""2042""
","
","","","1623.9999999997672","","","21","4640","3049","e","elianto","#f73b6a7A"," "," ","1","0","[2474]","1","2","","","4640","93","7","3","lose","go","0"
"pit-trial","215","1404188","0.0-98.0","battery-v0.2","","""event"",""trial"",""time""
""fullscreenenter"",""1"",""2042""
","
","
","""event"",""trial"",""time""
""fullscreenenter"",""1"",""2042""
","
","","","-1","","","21","4640","3049","w","elianto","#f73b6a7A","-1","-1","1","0","[]","0","2","","","4640","94","6","4","lose","no-go","0"
"pit-trial","216","1407451","0.0-99.0","battery-v0.2","","""event"",""trial"",""time""
""fullscreenenter"",""1"",""2042""
","
","
","""event"",""trial"",""time""
""fullscreenenter"",""1"",""2042""
","
","","","409","","","21","4640","3049","s","elianto","#3366ff99"," "," ","1","+10","[1258.9999999997672]","1","2","","","4640","95","5","1","win","go","0"
"pit-trial","217","1411133","0.0-100.0","battery-v0.2","","""event"",""trial"",""time""
""fullscreenenter"",""1"",""2042""
","
","
","""event"",""trial"",""time""
""fullscreenenter"",""1"",""2042""
","
","","","829.0000000002328","","","21","4640","3049","d","elianto","#3366ff99","-1"," ","0","0","[1679.0000000002328]","1","2","","","4640","96","8","2","win","no-go","0"
"pit-trial","218","1414455","0.0-101.0","battery-v0.2","","""event"",""trial"",""time""
""fullscreenenter"",""1"",""2042""
","
","
","""event"",""trial"",""time""
""fullscreenenter"",""1"",""2042""
","
","","","468","","","21","4640","3049","d","elianto","#3366ff99","-1"," ","0","0","[1319]","1","2","","","4640","97","8","2","win","no-go","0"
"pit-trial","219","1417746","0.0-102.0","battery-v0.2","","""event"",""trial"",""time""
""fullscreenenter"",""1"",""2042""
","
","
","""event"",""trial"",""time""
""fullscreenenter"",""1"",""2042""
","
","","","436","","","21","4640","3049","e","elianto","#f73b6a7A"," "," ","1","0","[1286]","1","2","","","4640","98","7","3","lose","go","0"
"pit-trial","220","1421066","0.0-103.0","battery-v0.2","","""event"",""trial"",""time""
""fullscreenenter"",""1"",""2042""
","
","
","""event"",""trial"",""time""
""fullscreenenter"",""1"",""2042""
","
","","","465.00000000023283","","","21","4640","3049","s","elianto","#3366ff99"," "," ","1","+10","[1315.0000000002328]","1","2","","","4640","99","5","1","win","go","0"
"pit-trial","221","1424526","0.0-104.0","battery-v0.2","","""event"",""trial"",""time""
""fullscreenenter"",""1"",""2042""
","
","
","""event"",""trial"",""time""
""fullscreenenter"",""1"",""2042""
","
","","","606","","","21","4640","3049","w","elianto","#f73b6a7A","-1"," ","0","0","[1456]","1","2","","","4640","100","6","4","lose","no-go","1"
"pit-trial","222","1427793","0.0-105.0","battery-v0.2","","""event"",""trial"",""time""
""fullscreenenter"",""1"",""2042""
","
","
","""event"",""trial"",""time""
""fullscreenenter"",""1"",""2042""
","
","","","412","","","21","4640","3049","d","elianto","#3366ff99","-1"," ","0","0","[1263]","1","2","","","4640","101","8","2","win","no-go","0"
"pit-trial","223","1432314","0.0-106.0","battery-v0.2","","""event"",""trial"",""time""
""fullscreenenter"",""1"",""2042""
","
","
","""event"",""trial"",""time""
""fullscreenenter"",""1"",""2042""
","
","","","1667","","","21","4640","3049","w","elianto","#f73b6a7A","-1"," ","0","-10","[2517]","1","2","","","4640","102","6","4","lose","no-go","0"
"pit-trial","224","1435685","0.0-107.0","battery-v0.2","","""event"",""trial"",""time""
""fullscreenenter"",""1"",""2042""
","
","
","""event"",""trial"",""time""
""fullscreenenter"",""1"",""2042""
","
","","","516","","","21","4640","3049","j","elianto","#3366ff99","-1"," ","0","+10","[1367]","1","2","","","4640","103","9","2","win","no-go","1"
"pit-trial","225","1439363","0.0-108.0","battery-v0.2","","""event"",""trial"",""time""
""fullscreenenter"",""1"",""2042""
","
","
","""event"",""trial"",""time""
""fullscreenenter"",""1"",""2042""
","
","","","823.0000000002328","","","21","4640","3049","s","elianto","#3366ff99"," "," ","1","0","[1674.0000000002328,2044]","2","2","","","4640","104","5","1","win","go","1"
"pit-trial","226","1444217","0.0-109.0","battery-v0.2","","""event"",""trial"",""time""
""fullscreenenter"",""1"",""2042""
","
","
","""event"",""trial"",""time""
""fullscreenenter"",""1"",""2042""
","
","","","-1","","","21","4640","3049","w","elianto","#f73b6a7A","-1","-1","1","0","[]","0","2","","","4640","105","6","4","lose","no-go","0"
"pit-trial","227","1448990","0.0-110.0","battery-v0.2","","""event"",""trial"",""time""
""fullscreenenter"",""1"",""2042""
","
","
","""event"",""trial"",""time""
""fullscreenenter"",""1"",""2042""
","
","","","1918","","","21","4640","3049","d","elianto","#3366ff99","-1"," ","0","0","[2769]","1","2","","","4640","106","8","2","win","no-go","0"
"pit-trial","228","1452473","0.0-111.0","battery-v0.2","","""event"",""trial"",""time""
""fullscreenenter"",""1"",""2042""
","
","
","""event"",""trial"",""time""
""fullscreenenter"",""1"",""2042""
","
","","","626","","","21","4640","3049","s","elianto","#3366ff99"," "," ","1","+10","[1477]","1","2","","","4640","107","5","1","win","go","0"
"pit-trial","229","1456133","0.0-112.0","battery-v0.2","","""event"",""trial"",""time""
""fullscreenenter"",""1"",""2042""
","
","
","""event"",""trial"",""time""
""fullscreenenter"",""1"",""2042""
","
","","","806","","","21","4640","3049","j","elianto","#3366ff99","-1"," ","0","0","[1656]","1","2","","","4640","108","9","2","win","no-go","0"
"pit-trial","230","1460988","0.0-113.0","battery-v0.2","","""event"",""trial"",""time""
""fullscreenenter"",""1"",""2042""
","
","
","""event"",""trial"",""time""
""fullscreenenter"",""1"",""2042""
","
","","","-1","","","21","4640","3049","w","elianto","#f73b6a7A","-1","-1","1","0","[]","0","2","","","4640","109","6","4","lose","no-go","0"
"pit-trial","231","1464189","0.0-114.0","battery-v0.2","","""event"",""trial"",""time""
""fullscreenenter"",""1"",""2042""
","
","
","""event"",""trial"",""time""
""fullscreenenter"",""1"",""2042""
","
","","","346","","","21","4640","3049","s","elianto","#3366ff99"," "," ","1","+10","[1196.0000000002328]","1","2","","","4640","110","5","1","win","go","0"
"pit-trial","232","1469045","0.0-115.0","battery-v0.2","","""event"",""trial"",""time""
""fullscreenenter"",""1"",""2042""
","
","
","""event"",""trial"",""time""
""fullscreenenter"",""1"",""2042""
","
","","","-1","","","21","4640","3049","d","elianto","#3366ff99","-1","-1","1","+10","[4040]","1","2","","","4640","111","8","2","win","no-go","0"
"pit-trial","233","1472381","0.0-116.0","battery-v0.2","","""event"",""trial"",""time""
""fullscreenenter"",""1"",""2042""
","
","
","""event"",""trial"",""time""
""fullscreenenter"",""1"",""2042""
","
","","","481","","","21","4640","3049","j","elianto","#3366ff99","-1"," ","0","+10","[1332.0000000002328]","1","2","","","4640","112","9","2","win","no-go","1"
"pit-trial","234","1477235","0.0-117.0","battery-v0.2","","""event"",""trial"",""time""
""fullscreenenter"",""1"",""2042""
","
","
","""event"",""trial"",""time""
""fullscreenenter"",""1"",""2042""
","
","","","-1","","","21","4640","3049","s","elianto","#3366ff99"," ","-1","0","0","[3740]","1","2","","","4640","113","5","1","win","go","0"
"pit-trial","235","1480502","0.0-118.0","battery-v0.2","","""event"",""trial"",""time""
""fullscreenenter"",""1"",""2042""
","
","
","""event"",""trial"",""time""
""fullscreenenter"",""1"",""2042""
","
","","","411","","","21","4640","3049","j","elianto","#3366ff99","-1"," ","0","0","[1262]","1","2","","","4640","114","9","2","win","no-go","0"
"pit-trial","236","1485357","0.0-119.0","battery-v0.2","","""event"",""trial"",""time""
""fullscreenenter"",""1"",""2042""
","
","
","""event"",""trial"",""time""
""fullscreenenter"",""1"",""2042""
","
","","","-1","","","21","4640","3049","e","elianto","#f73b6a7A"," ","-1","0","0","[]","0","2","","","4640","115","7","3","lose","go","1"
"pit-trial","237","1489025","0.0-120.0","battery-v0.2","","""event"",""trial"",""time""
""fullscreenenter"",""1"",""2042""
","
","
","""event"",""trial"",""time""
""fullscreenenter"",""1"",""2042""
","
","","","814","","","21","4640","3049","d","elianto","#3366ff99","-1"," ","0","0","[1664]","1","2","","","4640","116","8","2","win","no-go","0"
"pit-trial","238","1493881","0.0-121.0","battery-v0.2","","""event"",""trial"",""time""
""fullscreenenter"",""1"",""2042""
","
","
","""event"",""trial"",""time""
""fullscreenenter"",""1"",""2042""
","
","","","-1","","","21","4640","3049","w","elianto","#f73b6a7A","-1","-1","1","0","[]","0","2","","","4640","117","6","4","lose","no-go","0"
"pit-trial","239","1497297","0.0-122.0","battery-v0.2","","""event"",""trial"",""time""
""fullscreenenter"",""1"",""2042""
","
","
","""event"",""trial"",""time""
""fullscreenenter"",""1"",""2042""
","
","","","562","","","21","4640","3049","j","elianto","#3366ff99","-1"," ","0","0","[1412]","1","2","","","4640","118","9","2","win","no-go","0"
"pit-trial","240","1500709","0.0-123.0","battery-v0.2","","""event"",""trial"",""time""
""fullscreenenter"",""1"",""2042""
","
","
","""event"",""trial"",""time""
""fullscreenenter"",""1"",""2042""
","
","","","558","","","21","4640","3049","s","elianto","#3366ff99"," "," ","1","+10","[1407.9999999997672]","1","2","","","4640","119","5","1","win","go","0"
"pit-trial","241","1503998","0.0-124.0","battery-v0.2","","""event"",""trial"",""time""
""fullscreenenter"",""1"",""2042""
","
","
","""event"",""trial"",""time""
""fullscreenenter"",""1"",""2042""
","
","","","434","","","21","4640","3049","d","elianto","#3366ff99","-1"," ","0","0","[1284]","1","2","","","4640","120","8","2","win","no-go","0"
"pit-trial","242","1507949","0.0-125.0","battery-v0.2","","""event"",""trial"",""time""
""fullscreenenter"",""1"",""2042""
","
","
","""event"",""trial"",""time""
""fullscreenenter"",""1"",""2042""
","
","","","1097","","","21","4640","3049","j","elianto","#3366ff99","-1"," ","0","+10","[1948]","1","2","","","4640","121","9","2","win","no-go","1"
"pit-trial","243","1512804","0.0-126.0","battery-v0.2","","""event"",""trial"",""time""
""fullscreenenter"",""1"",""2042""
","
","
","""event"",""trial"",""time""
""fullscreenenter"",""1"",""2042""
","
","","","-1","","","21","4640","3049","e","elianto","#f73b6a7A"," ","-1","0","-10","[3061]","1","2","","","4640","122","7","3","lose","go","0"
"pit-trial","244","1517659","0.0-127.0","battery-v0.2","","""event"",""trial"",""time""
""fullscreenenter"",""1"",""2042""
","
","
","""event"",""trial"",""time""
""fullscreenenter"",""1"",""2042""
","
","","","-1","","","21","4640","3049","d","elianto","#3366ff99","-1","-1","1","+10","[2955]","1","2","","","4640","123","8","2","win","no-go","0"
"pit-trial","245","1522513","0.0-128.0","battery-v0.2","","""event"",""trial"",""time""
""fullscreenenter"",""1"",""2042""
","
","
","""event"",""trial"",""time""
""fullscreenenter"",""1"",""2042""
","
","","","-1","","","21","4640","3049","s","elianto","#3366ff99"," ","-1","0","0","[4585]","1","2","","","4640","124","5","1","win","go","0"
"pit-trial","246","1526016","0.0-129.0","battery-v0.2","","""event"",""trial"",""time""
""fullscreenenter"",""1"",""2042""
","
","
","""event"",""trial"",""time""
""fullscreenenter"",""1"",""2042""
","
","","","648.9999999997672","","","21","4640","3049","d","elianto","#3366ff99","-1"," ","0","0","[1498]","1","2","","","4640","125","8","2","win","no-go","0"
"pit-trial","247","1530870","0.0-130.0","battery-v0.2","","""event"",""trial"",""time""
""fullscreenenter"",""1"",""2042""
","
","
","""event"",""trial"",""time""
""fullscreenenter"",""1"",""2042""
","
","","","-1","","","21","4640","3049","w","elianto","#f73b6a7A","-1","-1","1","0","[]","0","2","","","4640","126","6","4","lose","no-go","0"
"pit-trial","248","1534269","0.0-131.0","battery-v0.2","","""event"",""trial"",""time""
""fullscreenenter"",""1"",""2042""
","
","
","""event"",""trial"",""time""
""fullscreenenter"",""1"",""2042""
","
","","","545","","","21","4640","3049","j","elianto","#3366ff99","-1"," ","0","0","[1395]","1","2","","","4640","127","9","2","win","no-go","0"
"pit-trial","249","1539124","0.0-132.0","battery-v0.2","","""event"",""trial"",""time""
""fullscreenenter"",""1"",""2042""
","
","
","""event"",""trial"",""time""
""fullscreenenter"",""1"",""2042""
","
","","","-1","","","21","4640","3049","e","elianto","#f73b6a7A"," ","-1","0","-10","[]","0","2","","","4640","128","7","3","lose","go","0"
"pit-trial","250","1542584","0.0-133.0","battery-v0.2","","""event"",""trial"",""time""
""fullscreenenter"",""1"",""2042""
","
","
","""event"",""trial"",""time""
""fullscreenenter"",""1"",""2042""
","
","","","605","","","21","4640","3049","j","elianto","#3366ff99","-1"," ","0","+10","[1455]","1","2","","","4640","129","9","2","win","no-go","1"
"pit-trial","251","1547440","0.0-134.0","battery-v0.2","","""event"",""trial"",""time""
""fullscreenenter"",""1"",""2042""
","
","
","""event"",""trial"",""time""
""fullscreenenter"",""1"",""2042""
","
","","","-1","","","21","4640","3049","e","elianto","#f73b6a7A"," ","-1","0","-10","[]","0","2","","","4640","130","7","3","lose","go","0"
"pit-trial","252","1552294","0.0-135.0","battery-v0.2","","""event"",""trial"",""time""
""fullscreenenter"",""1"",""2042""
","
","
","""event"",""trial"",""time""
""fullscreenenter"",""1"",""2042""
","
","","","-1","","","21","4640","3049","w","elianto","#f73b6a7A","-1","-1","1","0","[]","0","2","","","4640","131","6","4","lose","no-go","0"
"pit-trial","253","1556498","0.0-136.0","battery-v0.2","","""event"",""trial"",""time""
""fullscreenenter"",""1"",""2042""
","
","
","""event"",""trial"",""time""
""fullscreenenter"",""1"",""2042""
","
","","","1349","","","21","4640","3049","d","elianto","#3366ff99","-1"," ","0","0","[2198.999999999767]","1","2","","","4640","132","8","2","win","no-go","0"
"pit-trial","254","1561353","0.0-137.0","battery-v0.2","","""event"",""trial"",""time""
""fullscreenenter"",""1"",""2042""
","
","
","""event"",""trial"",""time""
""fullscreenenter"",""1"",""2042""
","
","","","-1","","","21","4640","3049","e","elianto","#f73b6a7A"," ","-1","0","0","[]","0","2","","","4640","133","7","3","lose","go","1"
"pit-trial","255","1565580","0.0-138.0","battery-v0.2","","""event"",""trial"",""time""
""fullscreenenter"",""1"",""2042""
","
","
","""event"",""trial"",""time""
""fullscreenenter"",""1"",""2042""
","
","","","1373","","","21","4640","3049","d","elianto","#3366ff99","-1"," ","0","+10","[2223]","1","2","","","4640","134","8","2","win","no-go","1"
"pit-trial","256","1570435","0.0-139.0","battery-v0.2","","""event"",""trial"",""time""
""fullscreenenter"",""1"",""2042""
","
","
","""event"",""trial"",""time""
""fullscreenenter"",""1"",""2042""
","
","","","-1","","","21","4640","3049","j","elianto","#3366ff99","-1","-1","1","+10","[]","0","2","","","4640","135","9","2","win","no-go","0"
"pit-trial","257","1575291","0.0-140.0","battery-v0.2","","""event"",""trial"",""time""
""fullscreenenter"",""1"",""2042""
","
","
","""event"",""trial"",""time""
""fullscreenenter"",""1"",""2042""
","
","","","-1","","","21","4640","3049","w","elianto","#f73b6a7A","-1","-1","1","0","[]","0","2","","","4640","136","6","4","lose","no-go","0"
"pit-trial","258","1580147","0.0-141.0","battery-v0.2","","""event"",""trial"",""time""
""fullscreenenter"",""1"",""2042""
","
","
","""event"",""trial"",""time""
""fullscreenenter"",""1"",""2042""
","
","","","-1","","","21","4640","3049","w","elianto","#f73b6a7A","-1","-1","1","-10","[]","0","2","","","4640","137","6","4","lose","no-go","1"
"pit-trial","259","1583446","0.0-142.0","battery-v0.2","","""event"",""trial"",""time""
""fullscreenenter"",""1"",""2042""
","
","
","""event"",""trial"",""time""
""fullscreenenter"",""1"",""2042""
","
","","","444","","","21","4640","3049","j","elianto","#3366ff99","-1"," ","0","0","[1295]","1","2","","","4640","138","9","2","win","no-go","0"
"pit-trial","260","1586843","0.0-143.0","battery-v0.2","","""event"",""trial"",""time""
""fullscreenenter"",""1"",""2042""
","
","
","""event"",""trial"",""time""
""fullscreenenter"",""1"",""2042""
","
","","","542","","","21","4640","3049","d","elianto","#3366ff99","-1"," ","0","0","[1392.9999999997672]","1","2","","","4640","139","8","2","win","no-go","0"
"pit-trial","261","1590607","0.0-144.0","battery-v0.2","","""event"",""trial"",""time""
""fullscreenenter"",""1"",""2042""
","
","
","""event"",""trial"",""time""
""fullscreenenter"",""1"",""2042""
","
","","","908","","","21","4640","3049","e","elianto","#f73b6a7A"," "," ","1","0","[1758]","1","2","","","4640","140","7","3","lose","go","0"
"pit-instructions","262","1609016","0.0-145.0","battery-v0.2","","""event"",""trial"",""time""
""fullscreenenter"",""1"",""2042""
","
","
","""event"",""trial"",""time""
""fullscreenenter"",""1"",""2042""
","
","","[{""page_index"":0,""viewing_time"":9240},{""page_index"":1,""viewing_time"":9135}]","18376","","","","","","","","","","","","","","","","","","","","","","","",""
"pit-trial","263","1613880","0.0-146.0","battery-v0.2","","""event"",""trial"",""time""
""fullscreenenter"",""1"",""2042""
","
","
","""event"",""trial"",""time""
""fullscreenenter"",""1"",""2042""
","
","","","-1","","","21","4640","3049","t","elianto","#f73b6a7A"," ","-1","0","0","[]","0","3","","","4640","141","2","3","lose","go","1"
"pit-trial","264","1618743","0.0-147.0","battery-v0.2","","""event"",""trial"",""time""
""fullscreenenter"",""1"",""2042""
","
","
","""event"",""trial"",""time""
""fullscreenenter"",""1"",""2042""
","
","","","-1","","","21","4640","3049","f","elianto","#3366ff99","-1","-1","1","+10","[]","0","3","","","4640","142","1","2","win","no-go","0"
"pit-trial","265","1623601","0.0-148.0","battery-v0.2","","""event"",""trial"",""time""
""fullscreenenter"",""1"",""2042""
","
","
","""event"",""trial"",""time""
""fullscreenenter"",""1"",""2042""
","
","","","-1","","","21","4640","3049","b","elianto","#f73b6a7A","-1","-1","1","0","[]","0","3","","","4640","143","3","4","lose","no-go","0"
"pit-trial","266","1628457","0.0-149.0","battery-v0.2","","""event"",""trial"",""time""
""fullscreenenter"",""1"",""2042""
","
","
","""event"",""trial"",""time""
""fullscreenenter"",""1"",""2042""
","
","","","-1","","","21","4640","3049","n","elianto","#f73b6a7A"," ","-1","0","-10","[]","0","3","","","4640","144","0","3","lose","go","0"
"pit-trial","267","1633314","0.0-150.0","battery-v0.2","","""event"",""trial"",""time""
""fullscreenenter"",""1"",""2042""
","
","
","""event"",""trial"",""time""
""fullscreenenter"",""1"",""2042""
","
","","","-1","","","21","4640","3049","n","elianto","#f73b6a7A"," ","-1","0","0","[]","0","3","","","4640","145","0","3","lose","go","1"
"pit-trial","268","1638062","0.0-151.0","battery-v0.2","","""event"",""trial"",""time""
""fullscreenenter"",""1"",""2042""
","
","
","""event"",""trial"",""time""
""fullscreenenter"",""1"",""2042""
","
","","","1893","","","21","4640","3049","f","elianto","#3366ff99","-1"," ","0","0","[2743.000000000233]","1","3","","","4640","146","1","2","win","no-go","0"
"pit-trial","269","1642919","0.0-152.0","battery-v0.2","","""event"",""trial"",""time""
""fullscreenenter"",""1"",""2042""
","
","
","""event"",""trial"",""time""
""fullscreenenter"",""1"",""2042""
","
","","","-1","","","21","4640","3049","t","elianto","#f73b6a7A"," ","-1","0","0","[]","0","3","","","4640","147","2","3","lose","go","1"
"pit-trial","270","1647775","0.0-153.0","battery-v0.2","","""event"",""trial"",""time""
""fullscreenenter"",""1"",""2042""
","
","
","""event"",""trial"",""time""
""fullscreenenter"",""1"",""2042""
","
","","","-1","","","21","4640","3049","b","elianto","#f73b6a7A","-1","-1","1","-10","[]","0","3","","","4640","148","3","4","lose","no-go","1"
"pit-trial","271","1652631","0.0-154.0","battery-v0.2","","""event"",""trial"",""time""
""fullscreenenter"",""1"",""2042""
","
","
","""event"",""trial"",""time""
""fullscreenenter"",""1"",""2042""
","
","","","-1","","","21","4640","3049","n","elianto","#f73b6a7A"," ","-1","0","-10","[]","0","3","","","4640","149","0","3","lose","go","0"
"pit-trial","272","1657488","0.0-155.0","battery-v0.2","","""event"",""trial"",""time""
""fullscreenenter"",""1"",""2042""
","
","
","""event"",""trial"",""time""
""fullscreenenter"",""1"",""2042""
","
","","","-1","","","21","4640","3049","t","elianto","#f73b6a7A"," ","-1","0","-10","[]","0","3","","","4640","150","2","3","lose","go","0"
"pit-trial","273","1661400","0.0-156.0","battery-v0.2","","""event"",""trial"",""time""
""fullscreenenter"",""1"",""2042""
","
","
","""event"",""trial"",""time""
""fullscreenenter"",""1"",""2042""
","
","","","1055","","","21","4640","3049","f","elianto","#3366ff99","-1"," ","0","0","[1906]","1","3","","","4640","151","1","2","win","no-go","0"
"pit-trial","274","1665828","0.0-157.0","battery-v0.2","","""event"",""trial"",""time""
""fullscreenenter"",""1"",""2042""
","
","
","""event"",""trial"",""time""
""fullscreenenter"",""1"",""2042""
","
","","","1572","","","21","4640","3049","b","elianto","#f73b6a7A","-1"," ","0","-10","[2422]","1","3","","","4640","152","3","4","lose","no-go","0"
"pit-trial","275","1669687","0.0-158.0","battery-v0.2","","""event"",""trial"",""time""
""fullscreenenter"",""1"",""2042""
","
","
","""event"",""trial"",""time""
""fullscreenenter"",""1"",""2042""
","
