"trial_type","trial_index","time_elapsed","internal_node_id","task_version","subject_id","interactions","blur_events","focus_events","fullscreenenter_events","fullscreenexit_events","success","view_history","rt","responses","num_errors","age","subject","participantId","rune","rune_set","hex","correct","choice","accuracy","outcome","keys","total_keys","block","practice","value","sub","trial","stimulus","robot","valence","action","sham"
"pavlovia","0","7","0.0-0.0","battery-v0.2","","""event"",""trial"",""time""
""fullscreenenter"",""1"",""1954""
","
","
","""event"",""trial"",""time""
""fullscreenenter"",""1"",""1954""
","
","","","","","","","","","","","","","","","","","","","","","","","","","","",""
"fullscreen","1","2947","0.0-1.0","battery-v0.2","","""event"",""trial"",""time""
""fullscreenenter"",""1"",""1954""
","
","
","""event"",""trial"",""time""
""fullscreenenter"",""1"",""1954""
","
","true","","","","","","","","","","","","","","","","","","","","","","","","","",""
"pit-instructions","2","11113","0.0-2.0-0.0","battery-v0.2","","""event"",""trial"",""time""
""fullscreenenter"",""1"",""1954""
","
","
","""event"",""trial"",""time""
""fullscreenenter"",""1"",""1954""
","
","","[{""page_index"":0,""viewing_time"":8163.4000000059605}]","8163.5999999940395","","","","","","","","","","","","","","","","","","","","","","","",""
"pit-comprehension","3","14621","0.0-2.0-1.0-0.0","battery-v0.2","","""event"",""trial"",""time""
""fullscreenenter"",""1"",""1954""
","
","
","""event"",""trial"",""time""
""fullscreenenter"",""1"",""1954""
","
","","","3505.7000000029802","[""shark""]","0","20","7271","3856","","","","","","","","","","","","","","","","","","",""
"pit-instructions","4","15772","0.0-2.0-1.0-1.0","battery-v0.2","","""event"",""trial"",""time""
""fullscreenenter"",""1"",""1954""
","
","
","""event"",""trial"",""time""
""fullscreenenter"",""1"",""1954""
","
","","[{""page_index"":0,""viewing_time"":1142.8999999910593}]","1143","","","","","","","","","","","","","","","","","","","","","","","",""
"pit-comprehension","5","17675","0.0-2.0-2.0-0.0","battery-v0.2","","""event"",""trial"",""time""
""fullscreenenter"",""1"",""1954""
","
","
","""event"",""trial"",""time""
""fullscreenenter"",""1"",""1954""
","
","","","1900.5999999940395","[""tiger""]","0","20","7271","3856","","","","","","","","","","","","","","","","","","",""
"pit-instructions","6","18192","0.0-2.0-2.0-1.0","battery-v0.2","","""event"",""trial"",""time""
""fullscreenenter"",""1"",""1954""
","
","
","""event"",""trial"",""time""
""fullscreenenter"",""1"",""1954""
","
","","[{""page_index"":0,""viewing_time"":515.5}]","515.7000000029802","","","","","","","","","","","","","","","","","","","","","","","",""
"pit-instructions","7","117227","0.0-2.0-3.0","battery-v0.2","","""event"",""trial"",""time""
""fullscreenenter"",""1"",""1954""
","
","
","""event"",""trial"",""time""
""fullscreenenter"",""1"",""1954""
","
","","[{""page_index"":0,""viewing_time"":7481.79999999702},{""page_index"":1,""viewing_time"":5997.70000000298},{""page_index"":2,""viewing_time"":6119.399999991059},{""page_index"":3,""viewing_time"":5373.4000000059605},{""page_index"":4,""viewing_time"":6205.399999991059},{""page_index"":5,""viewing_time"":5970.5},{""page_index"":6,""viewing_time"":7711.5},{""page_index"":7,""viewing_time"":7093.70000000298},{""page_index"":8,""viewing_time"":6464.4000000059605},{""page_index"":9,""viewing_time"":11801.79999999702},{""page_index"":10,""viewing_time"":9236.79999999702},{""page_index"":11,""viewing_time"":8026.20000000298},{""page_index"":12,""viewing_time"":6292.70000000298},{""page_index"":13,""viewing_time"":5257.29999999702}]","99032.79999999702","","","","","","","","","","","","","","","","","","","","","","","",""
"pit-trial","8","120797","0.0-2.0-4.0-0.0","battery-v0.2","","""event"",""trial"",""time""
""fullscreenenter"",""1"",""1954""
","
","
","""event"",""trial"",""time""
""fullscreenenter"",""1"",""1954""
","
","","","710.0999999940395","","","20","7271","3856","&#9784;","elianto","#FFFFF080"," "," ","1","&#10004","[1560.2999999970198]","1","0","0","","","","","","","",""
"pit-trial","9","124397","0.0-2.0-4.1-0.1","battery-v0.2","","""event"",""trial"",""time""
""fullscreenenter"",""1"",""1954""
","
","
","""event"",""trial"",""time""
""fullscreenenter"",""1"",""1954""
","
","","","731.7000000029802","","","20","7271","3856","&#9784;","elianto","#FFFFF080"," "," ","1","&#10004","[1587.1000000089407]","1","0","0","","","","","","","",""
"pit-trial","10","127853","0.0-2.0-4.2-0.2","battery-v0.2","","""event"",""trial"",""time""
""fullscreenenter"",""1"",""1954""
","
","
","""event"",""trial"",""time""
""fullscreenenter"",""1"",""1954""
","
","","","596","","","20","7271","3856","&#9784;","elianto","#FFFFF080"," "," ","1","&#10004","[1446.0999999940395]","1","0","0","","","","","","","",""
"pit-trial","11","131202","0.0-2.0-4.3-0.3","battery-v0.2","","""event"",""trial"",""time""
""fullscreenenter"",""1"",""1954""
","
","
","""event"",""trial"",""time""
""fullscreenenter"",""1"",""1954""
","
","","","487.29999999701977","","","20","7271","3856","&#9784;","elianto","#FFFFF080"," "," ","1","&#10004","[1337.5]","1","0","0","","","","","","","",""
"pit-trial","12","134500","0.0-2.0-4.4-0.4","battery-v0.2","","""event"",""trial"",""time""
""fullscreenenter"",""1"",""1954""
""blur"",""13"",""146293""
""focus"",""13"",""147010""
""blur"",""13"",""149678""
""focus"",""13"",""152738""
","""event"",""trial"",""time""
""blur"",""13"",""146293""
""blur"",""13"",""149678""
","""event"",""trial"",""time""
""focus"",""13"",""147010""
""focus"",""13"",""152738""
","""event"",""trial"",""time""
""fullscreenenter"",""1"",""1954""
","
","","","435.3999999910593","","","20","7271","3856","&#9784;","elianto","#FFFFF080"," "," ","1","&#10004","[1287.5]","1","0","0","","","","","","","",""
"pit-instructions","13","158547","0.0-2.0-5.0","battery-v0.2","","""event"",""trial"",""time""
""fullscreenenter"",""1"",""1954""
""blur"",""13"",""146293""
""focus"",""13"",""147010""
""blur"",""13"",""149678""
""focus"",""13"",""152738""
","""event"",""trial"",""time""
""blur"",""13"",""146293""
""blur"",""13"",""149678""
","""event"",""trial"",""time""
""focus"",""13"",""147010""
""focus"",""13"",""152738""
","""event"",""trial"",""time""
""fullscreenenter"",""1"",""1954""
","
","","[{""page_index"":0,""viewing_time"":4773.29999999702},{""page_index"":1,""viewing_time"":7782.5999999940395},{""page_index"":2,""viewing_time"":5767.29999999702},{""page_index"":3,""viewing_time"":5722.4000000059605}]","24045.79999999702","","","","","","","","","","","","","","","","","","","","","","","",""
"pit-trial","14","163421","0.0-2.0-6.0-0.0","battery-v0.2","","""event"",""trial"",""time""
""fullscreenenter"",""1"",""1954""
""blur"",""13"",""146293""
""focus"",""13"",""147010""
""blur"",""13"",""149678""
""focus"",""13"",""152738""
","""event"",""trial"",""time""
""blur"",""13"",""146293""
""blur"",""13"",""149678""
","""event"",""trial"",""time""
""focus"",""13"",""147010""
""focus"",""13"",""152738""
","""event"",""trial"",""time""
""fullscreenenter"",""1"",""1954""
","
","","","-1","","","20","7271","3856","&#9854;","elianto","#FFFFF080","-1","-1","1","&#10004","[]","0","0","1","","","","","","","",""
"pit-trial","15","168289","0.0-2.0-6.1-0.1","battery-v0.2","","""event"",""trial"",""time""
""fullscreenenter"",""1"",""1954""
""blur"",""13"",""146293""
""focus"",""13"",""147010""
""blur"",""13"",""149678""
""focus"",""13"",""152738""
","""event"",""trial"",""time""
""blur"",""13"",""146293""
""blur"",""13"",""149678""
","""event"",""trial"",""time""
""focus"",""13"",""147010""
""focus"",""13"",""152738""
","""event"",""trial"",""time""
""fullscreenenter"",""1"",""1954""
","
","","","-1","","","20","7271","3856","&#9854;","elianto","#FFFFF080","-1","-1","1","&#10004","[]","0","0","1","","","","","","","",""
"pit-trial","16","173164","0.0-2.0-6.2-0.2","battery-v0.2","","""event"",""trial"",""time""
""fullscreenenter"",""1"",""1954""
""blur"",""13"",""146293""
""focus"",""13"",""147010""
""blur"",""13"",""149678""
""focus"",""13"",""152738""
","""event"",""trial"",""time""
""blur"",""13"",""146293""
""blur"",""13"",""149678""
","""event"",""trial"",""time""
""focus"",""13"",""147010""
""focus"",""13"",""152738""
","""event"",""trial"",""time""
""fullscreenenter"",""1"",""1954""
","
","","","-1","","","20","7271","3856","&#9854;","elianto","#FFFFF080","-1","-1","1","&#10004","[]","0","0","1","","","","","","","",""
"pit-trial","17","178040","0.0-2.0-6.3-0.3","battery-v0.2","","""event"",""trial"",""time""
""fullscreenenter"",""1"",""1954""
""blur"",""13"",""146293""
""focus"",""13"",""147010""
""blur"",""13"",""149678""
""focus"",""13"",""152738""
","""event"",""trial"",""time""
""blur"",""13"",""146293""
""blur"",""13"",""149678""
","""event"",""trial"",""time""
""focus"",""13"",""147010""
""focus"",""13"",""152738""
","""event"",""trial"",""time""
""fullscreenenter"",""1"",""1954""
","
","","","-1","","","20","7271","3856","&#9854;","elianto","#FFFFF080","-1","-1","1","&#10004","[]","0","0","1","","","","","","","",""
"pit-trial","18","182911","0.0-2.0-6.4-0.4","battery-v0.2","","""event"",""trial"",""time""
""fullscreenenter"",""1"",""1954""
""blur"",""13"",""146293""
""focus"",""13"",""147010""
""blur"",""13"",""149678""
""focus"",""13"",""152738""
","""event"",""trial"",""time""
""blur"",""13"",""146293""
""blur"",""13"",""149678""
","""event"",""trial"",""time""
""focus"",""13"",""147010""
""focus"",""13"",""152738""
","""event"",""trial"",""time""
""fullscreenenter"",""1"",""1954""
","
","","","-1","","","20","7271","3856","&#9854;","elianto","#FFFFF080","-1","-1","1","&#10004","[]","0","0","1","","","","","","","",""
"pit-instructions","19","310465","0.0-2.0-7.0","battery-v0.2","","""event"",""trial"",""time""
""fullscreenenter"",""1"",""1954""
""blur"",""13"",""146293""
""focus"",""13"",""147010""
""blur"",""13"",""149678""
""focus"",""13"",""152738""
","""event"",""trial"",""time""
""blur"",""13"",""146293""
""blur"",""13"",""149678""
","""event"",""trial"",""time""
""focus"",""13"",""147010""
""focus"",""13"",""152738""
","""event"",""trial"",""time""
""fullscreenenter"",""1"",""1954""
","
","","[{""page_index"":0,""viewing_time"":8202.20000000298},{""page_index"":1,""viewing_time"":7529.0999999940395},{""page_index"":2,""viewing_time"":6453},{""page_index"":3,""viewing_time"":6907.20000000298},{""page_index"":4,""viewing_time"":5277.5999999940395},{""page_index"":5,""viewing_time"":5338.600000008941},{""page_index"":6,""viewing_time"":4612},{""page_index"":7,""viewing_time"":8055.5999999940395},{""page_index"":8,""viewing_time"":6484.5},{""page_index"":9,""viewing_time"":6314.5},{""page_index"":10,""viewing_time"":6400.5},{""page_index"":11,""viewing_time"":5064.20000000298},{""page_index"":12,""viewing_time"":7504.70000000298},{""page_index"":13,""viewing_time"":12638.79999999702},{""page_index"":14,""viewing_time"":8064.5},{""page_index"":15,""viewing_time"":7831.70000000298},{""page_index"":16,""viewing_time"":7986.5999999940395},{""page_index"":17,""viewing_time"":6886.5999999940395}]","127552.09999999404","","","","","","","","","","","","","","","","","","","","","","","",""
"pit-trial","20","313969","0.0-2.0-8.0-0.0","battery-v0.2","","""event"",""trial"",""time""
""fullscreenenter"",""1"",""1954""
""blur"",""13"",""146293""
""focus"",""13"",""147010""
""blur"",""13"",""149678""
""focus"",""13"",""152738""
","""event"",""trial"",""time""
""blur"",""13"",""146293""
""blur"",""13"",""149678""
","""event"",""trial"",""time""
""focus"",""13"",""147010""
""focus"",""13"",""152738""
","""event"",""trial"",""time""
""fullscreenenter"",""1"",""1954""
","
","","","638","","","20","7271","3856","&#9776;","elianto","#3366ff99"," "," ","1","+10","[1488.5]","1","0","1","","","","","","","",""
"pit-trial","21","317349","0.0-2.0-8.0-1.0","battery-v0.2","","""event"",""trial"",""time""
""fullscreenenter"",""1"",""1954""
""blur"",""13"",""146293""
""focus"",""13"",""147010""
""blur"",""13"",""149678""
""focus"",""13"",""152738""
","""event"",""trial"",""time""
""blur"",""13"",""146293""
""blur"",""13"",""149678""
","""event"",""trial"",""time""
""focus"",""13"",""147010""
""focus"",""13"",""152738""
","""event"",""trial"",""time""
""fullscreenenter"",""1"",""1954""
","
","","","523.6000000089407","","","20","7271","3856","&#9776;","elianto","#3366ff99"," "," ","1","+10","[1374.5]","1","0","1","","","","","","","",""
"pit-trial","22","320549","0.0-2.0-8.0-2.0","battery-v0.2","","""event"",""trial"",""time""
""fullscreenenter"",""1"",""1954""
""blur"",""13"",""146293""
""focus"",""13"",""147010""
""blur"",""13"",""149678""
""focus"",""13"",""152738""
","""event"",""trial"",""time""
""blur"",""13"",""146293""
""blur"",""13"",""149678""
","""event"",""trial"",""time""
""focus"",""13"",""147010""
""focus"",""13"",""152738""
","""event"",""trial"",""time""
""fullscreenenter"",""1"",""1954""
","
","","","335.70000000298023","","","20","7271","3856","&#9776;","elianto","#3366ff99"," "," ","1","+10","[1189.3999999910593]","1","0","1","","","","","","","",""
"pit-trial","23","323721","0.0-2.0-8.0-3.0","battery-v0.2","","""event"",""trial"",""time""
""fullscreenenter"",""1"",""1954""
""blur"",""13"",""146293""
""focus"",""13"",""147010""
""blur"",""13"",""149678""
""focus"",""13"",""152738""
","""event"",""trial"",""time""
""blur"",""13"",""146293""
""blur"",""13"",""149678""
","""event"",""trial"",""time""
""focus"",""13"",""147010""
""focus"",""13"",""152738""
","""event"",""trial"",""time""
""fullscreenenter"",""1"",""1954""
","
","","","313.59999999403954","","","20","7271","3856","&#9776;","elianto","#3366ff99"," "," ","1","0","[1163.5]","1","0","1","","","","","","","",""
"pit-trial","24","326847","0.0-2.0-8.0-4.0","battery-v0.2","","""event"",""trial"",""time""
""fullscreenenter"",""1"",""1954""
""blur"",""13"",""146293""
""focus"",""13"",""147010""
""blur"",""13"",""149678""
""focus"",""13"",""152738""
","""event"",""trial"",""time""
""blur"",""13"",""146293""
""blur"",""13"",""149678""
","""event"",""trial"",""time""
""focus"",""13"",""147010""
""focus"",""13"",""152738""
","""event"",""trial"",""time""
""fullscreenenter"",""1"",""1954""
","
","","","265","","","20","7271","3856","&#9776;","elianto","#3366ff99"," "," ","1","+10","[1115.3999999910593]","1","0","1","","","","","","","",""
"pit-trial","25","330060","0.0-2.0-8.1-0.1","battery-v0.2","","""event"",""trial"",""time""
""fullscreenenter"",""1"",""1954""
""blur"",""13"",""146293""
""focus"",""13"",""147010""
""blur"",""13"",""149678""
""focus"",""13"",""152738""
","""event"",""trial"",""time""
""blur"",""13"",""146293""
""blur"",""13"",""149678""
","""event"",""trial"",""time""
""focus"",""13"",""147010""
""focus"",""13"",""152738""
","""event"",""trial"",""time""
""fullscreenenter"",""1"",""1954""
","
","","","345.20000000298023","","","20","7271","3856","&#9776;","elianto","#3366ff99"," "," ","1","+10","[1202]","1","0","1","","","","","","","",""
"pit-trial","26","333269","0.0-2.0-8.1-1.1","battery-v0.2","","""event"",""trial"",""time""
""fullscreenenter"",""1"",""1954""
""blur"",""13"",""146293""
""focus"",""13"",""147010""
""blur"",""13"",""149678""
""focus"",""13"",""152738""
","""event"",""trial"",""time""
""blur"",""13"",""146293""
""blur"",""13"",""149678""
","""event"",""trial"",""time""
""focus"",""13"",""147010""
""focus"",""13"",""152738""
","""event"",""trial"",""time""
""fullscreenenter"",""1"",""1954""
","
","","","346.70000000298023","","","20","7271","3856","&#9776;","elianto","#3366ff99"," "," ","1","+10","[1199.2000000029802]","1","0","1","","","","","","","",""
"pit-trial","27","336505","0.0-2.0-8.1-2.1","battery-v0.2","","""event"",""trial"",""time""
""fullscreenenter"",""1"",""1954""
""blur"",""13"",""146293""
""focus"",""13"",""147010""
""blur"",""13"",""149678""
""focus"",""13"",""152738""
","""event"",""trial"",""time""
""blur"",""13"",""146293""
""blur"",""13"",""149678""
","""event"",""trial"",""time""
""focus"",""13"",""147010""
""focus"",""13"",""152738""
","""event"",""trial"",""time""
""fullscreenenter"",""1"",""1954""
","
","","","382.20000000298023","","","20","7271","3856","&#9776;","elianto","#3366ff99"," "," ","1","+10","[1232.7999999970198]","1","0","1","","","","","","","",""
"pit-trial","28","339678","0.0-2.0-8.1-3.1","battery-v0.2","","""event"",""trial"",""time""
""fullscreenenter"",""1"",""1954""
""blur"",""13"",""146293""
""focus"",""13"",""147010""
""blur"",""13"",""149678""
""focus"",""13"",""152738""
","""event"",""trial"",""time""
""blur"",""13"",""146293""
""blur"",""13"",""149678""
","""event"",""trial"",""time""
""focus"",""13"",""147010""
""focus"",""13"",""152738""
","""event"",""trial"",""time""
""fullscreenenter"",""1"",""1954""
","
","","","308.20000000298023","","","20","7271","3856","&#9776;","elianto","#3366ff99"," "," ","1","0","[1158.2999999970198]","1","0","1","","","","","","","",""
"pit-trial","29","342885","0.0-2.0-8.1-4.1","battery-v0.2","","""event"",""trial"",""time""
""fullscreenenter"",""1"",""1954""
""blur"",""13"",""146293""
""focus"",""13"",""147010""
""blur"",""13"",""149678""
""focus"",""13"",""152738""
","""event"",""trial"",""time""
""blur"",""13"",""146293""
""blur"",""13"",""149678""
","""event"",""trial"",""time""
""focus"",""13"",""147010""
""focus"",""13"",""152738""
","""event"",""trial"",""time""
""fullscreenenter"",""1"",""1954""
","
","","","354.09999999403954","","","20","7271","3856","&#9776;","elianto","#3366ff99"," "," ","1","+10","[1204.3999999910593]","1","0","1","","","","","","","",""
"pit-trial","30","346257","0.0-2.0-8.2-0.2","battery-v0.2","","""event"",""trial"",""time""
""fullscreenenter"",""1"",""1954""
""blur"",""13"",""146293""
""focus"",""13"",""147010""
""blur"",""13"",""149678""
""focus"",""13"",""152738""
","""event"",""trial"",""time""
""blur"",""13"",""146293""
""blur"",""13"",""149678""
","""event"",""trial"",""time""
""focus"",""13"",""147010""
""focus"",""13"",""152738""
","""event"",""trial"",""time""
""fullscreenenter"",""1"",""1954""
","
","","","518.5","","","20","7271","3856","&#9776;","elianto","#3366ff99"," "," ","1","+10","[1369.199999988079]","1","0","1","","","","","","","",""
"pit-trial","31","349319","0.0-2.0-8.2-1.2","battery-v0.2","","""event"",""trial"",""time""
""fullscreenenter"",""1"",""1954""
""blur"",""13"",""146293""
""focus"",""13"",""147010""
""blur"",""13"",""149678""
""focus"",""13"",""152738""
","""event"",""trial"",""time""
""blur"",""13"",""146293""
""blur"",""13"",""149678""
","""event"",""trial"",""time""
""focus"",""13"",""147010""
""focus"",""13"",""152738""
","""event"",""trial"",""time""
""fullscreenenter"",""1"",""1954""
","
","","","209.8999999910593","","","20","7271","3856","&#9776;","elianto","#3366ff99"," "," ","1","+10","[1060.3999999910593]","1","0","1","","","","","","","",""
"pit-trial","32","353417","0.0-2.0-8.2-2.2","battery-v0.2","","""event"",""trial"",""time""
""fullscreenenter"",""1"",""1954""
""blur"",""13"",""146293""
""focus"",""13"",""147010""
""blur"",""13"",""149678""
""focus"",""13"",""152738""
","""event"",""trial"",""time""
""blur"",""13"",""146293""
""blur"",""13"",""149678""
","""event"",""trial"",""time""
""focus"",""13"",""147010""
""focus"",""13"",""152738""
","""event"",""trial"",""time""
""fullscreenenter"",""1"",""1954""
","
","","","1245.5","","","20","7271","3856","&#9776;","elianto","#3366ff99"," "," ","1","+10","[2095.5]","1","0","1","","","","","","","",""
"pit-trial","33","356572","0.0-2.0-8.2-3.2","battery-v0.2","","""event"",""trial"",""time""
""fullscreenenter"",""1"",""1954""
""blur"",""13"",""146293""
""focus"",""13"",""147010""
""blur"",""13"",""149678""
""focus"",""13"",""152738""
","""event"",""trial"",""time""
""blur"",""13"",""146293""
""blur"",""13"",""149678""
","""event"",""trial"",""time""
""focus"",""13"",""147010""
""focus"",""13"",""152738""
","""event"",""trial"",""time""
""fullscreenenter"",""1"",""1954""
","
","","","301.20000000298023","","","20","7271","3856","&#9776;","elianto","#3366ff99"," "," ","1","0","[1152.7000000029802]","1","0","1","","","","","","","",""
"pit-trial","34","359901","0.0-2.0-8.2-4.2","battery-v0.2","","""event"",""trial"",""time""
""fullscreenenter"",""1"",""1954""
""blur"",""13"",""146293""
""focus"",""13"",""147010""
""blur"",""13"",""149678""
""focus"",""13"",""152738""
","""event"",""trial"",""time""
""blur"",""13"",""146293""
""blur"",""13"",""149678""
","""event"",""trial"",""time""
""focus"",""13"",""147010""
""focus"",""13"",""152738""
","""event"",""trial"",""time""
""fullscreenenter"",""1"",""1954""
","
","","","476.20000000298023","","","20","7271","3856","&#9776;","elianto","#3366ff99"," "," ","1","+10","[1327.3999999910593]","1","0","1","","","","","","","",""
"call-function","35","359902","0.0-2.0-9.0","battery-v0.2","","""event"",""trial"",""time""
""fullscreenenter"",""1"",""1954""
""blur"",""13"",""146293""
""focus"",""13"",""147010""
""blur"",""13"",""149678""
""focus"",""13"",""152738""
","""event"",""trial"",""time""
""blur"",""13"",""146293""
""blur"",""13"",""149678""
","""event"",""trial"",""time""
""focus"",""13"",""147010""
""focus"",""13"",""152738""
","""event"",""trial"",""time""
""fullscreenenter"",""1"",""1954""
","
","","","","","","","","","","","","","","","","","","","","","","","","","","",""
"pit-instructions","36","400258","0.0-2.0-10.0","battery-v0.2","","""event"",""trial"",""time""
""fullscreenenter"",""1"",""1954""
""blur"",""13"",""146293""
""focus"",""13"",""147010""
""blur"",""13"",""149678""
""focus"",""13"",""152738""
","""event"",""trial"",""time""
""blur"",""13"",""146293""
""blur"",""13"",""149678""
","""event"",""trial"",""time""
""focus"",""13"",""147010""
""focus"",""13"",""152738""
","""event"",""trial"",""time""
""fullscreenenter"",""1"",""1954""
","
","","[{""page_index"":0,""viewing_time"":6401.70000000298},{""page_index"":1,""viewing_time"":7614.5999999940395},{""page_index"":2,""viewing_time"":9280.59999999404},{""page_index"":3,""viewing_time"":9319.90000000596},{""page_index"":4,""viewing_time"":7738.5}]","40355.59999999404","","","","","","","","","","","","","","","","","","","","","","","",""
"pit-trial","37","403587","0.0-2.0-11.0-0.0","battery-v0.2","","""event"",""trial"",""time""
""fullscreenenter"",""1"",""1954""
""blur"",""13"",""146293""
""focus"",""13"",""147010""
""blur"",""13"",""149678""
""focus"",""13"",""152738""
","""event"",""trial"",""time""
""blur"",""13"",""146293""
""blur"",""13"",""149678""
","""event"",""trial"",""time""
""focus"",""13"",""147010""
""focus"",""13"",""152738""
","""event"",""trial"",""time""
""fullscreenenter"",""1"",""1954""
","
","","","466.30000001192093","","","20","7271","3856","&#9761;","elianto","#3366ff99","-1"," ","0","0","[1317.2000000029802]","1","0","2","","","","","","","",""
"pit-trial","38","408461","0.0-2.0-11.0-1.0","battery-v0.2","","""event"",""trial"",""time""
""fullscreenenter"",""1"",""1954""
""blur"",""13"",""146293""
""focus"",""13"",""147010""
""blur"",""13"",""149678""
""focus"",""13"",""152738""
","""event"",""trial"",""time""
""blur"",""13"",""146293""
""blur"",""13"",""149678""
","""event"",""trial"",""time""
""focus"",""13"",""147010""
""focus"",""13"",""152738""
","""event"",""trial"",""time""
""fullscreenenter"",""1"",""1954""
","
","","","-1","","","20","7271","3856","&#9761;","elianto","#3366ff99","-1","-1","1","+10","[]","0","0","2","","","","","","","",""
"pit-trial","39","413343","0.0-2.0-11.0-2.0","battery-v0.2","","""event"",""trial"",""time""
""fullscreenenter"",""1"",""1954""
""blur"",""13"",""146293""
""focus"",""13"",""147010""
""blur"",""13"",""149678""
""focus"",""13"",""152738""
","""event"",""trial"",""time""
""blur"",""13"",""146293""
""blur"",""13"",""149678""
","""event"",""trial"",""time""
""focus"",""13"",""147010""
""focus"",""13"",""152738""
","""event"",""trial"",""time""
""fullscreenenter"",""1"",""1954""
","
","","","-1","","","20","7271","3856","&#9761;","elianto","#3366ff99","-1","-1","1","+10","[]","0","0","2","","","","","","","",""
"pit-trial","40","418202","0.0-2.0-11.0-3.0","battery-v0.2","","""event"",""trial"",""time""
""fullscreenenter"",""1"",""1954""
""blur"",""13"",""146293""
""focus"",""13"",""147010""
""blur"",""13"",""149678""
""focus"",""13"",""152738""
","""event"",""trial"",""time""
""blur"",""13"",""146293""
""blur"",""13"",""149678""
","""event"",""trial"",""time""
""focus"",""13"",""147010""
""focus"",""13"",""152738""
","""event"",""trial"",""time""
""fullscreenenter"",""1"",""1954""
","
","","","-1","","","20","7271","3856","&#9761;","elianto","#3366ff99","-1","-1","1","0","[]","0","0","2","","","","","","","",""
"pit-trial","41","423058","0.0-2.0-11.0-4.0","battery-v0.2","","""event"",""trial"",""time""
""fullscreenenter"",""1"",""1954""
""blur"",""13"",""146293""
""focus"",""13"",""147010""
""blur"",""13"",""149678""
""focus"",""13"",""152738""
","""event"",""trial"",""time""
""blur"",""13"",""146293""
""blur"",""13"",""149678""
","""event"",""trial"",""time""
""focus"",""13"",""147010""
""focus"",""13"",""152738""
","""event"",""trial"",""time""
""fullscreenenter"",""1"",""1954""
","
","","","-1","","","20","7271","3856","&#9761;","elianto","#3366ff99","-1","-1","1","+10","[]","0","0","2","","","","","","","",""
"pit-trial","42","427928","0.0-2.0-11.1-0.1","battery-v0.2","","""event"",""trial"",""time""
""fullscreenenter"",""1"",""1954""
""blur"",""13"",""146293""
""focus"",""13"",""147010""
""blur"",""13"",""149678""
""focus"",""13"",""152738""
","""event"",""trial"",""time""
""blur"",""13"",""146293""
""blur"",""13"",""149678""
","""event"",""trial"",""time""
""focus"",""13"",""147010""
""focus"",""13"",""152738""
","""event"",""trial"",""time""
""fullscreenenter"",""1"",""1954""
","
","","","-1","","","20","7271","3856","&#9761;","elianto","#3366ff99","-1","-1","1","+10","[]","0","0","2","","","","","","","",""
"pit-trial","43","432781","0.0-2.0-11.1-1.1","battery-v0.2","","""event"",""trial"",""time""
""fullscreenenter"",""1"",""1954""
""blur"",""13"",""146293""
""focus"",""13"",""147010""
""blur"",""13"",""149678""
""focus"",""13"",""152738""
","""event"",""trial"",""time""
""blur"",""13"",""146293""
""blur"",""13"",""149678""
","""event"",""trial"",""time""
""focus"",""13"",""147010""
""focus"",""13"",""152738""
","""event"",""trial"",""time""
""fullscreenenter"",""1"",""1954""
","
","","","-1","","","20","7271","3856","&#9761;","elianto","#3366ff99","-1","-1","1","+10","[]","0","0","2","","","","","","","",""
"pit-trial","44","437632","0.0-2.0-11.1-2.1","battery-v0.2","","""event"",""trial"",""time""
""fullscreenenter"",""1"",""1954""
""blur"",""13"",""146293""
""focus"",""13"",""147010""
""blur"",""13"",""149678""
""focus"",""13"",""152738""
","""event"",""trial"",""time""
""blur"",""13"",""146293""
""blur"",""13"",""149678""
","""event"",""trial"",""time""
""focus"",""13"",""147010""
""focus"",""13"",""152738""
","""event"",""trial"",""time""
""fullscreenenter"",""1"",""1954""
","
","","","-1","","","20","7271","3856","&#9761;","elianto","#3366ff99","-1","-1","1","+10","[]","0","0","2","","","","","","","",""
"pit-trial","45","442486","0.0-2.0-11.1-3.1","battery-v0.2","","""event"",""trial"",""time""
""fullscreenenter"",""1"",""1954""
""blur"",""13"",""146293""
""focus"",""13"",""147010""
""blur"",""13"",""149678""
""focus"",""13"",""152738""
","""event"",""trial"",""time""
""blur"",""13"",""146293""
""blur"",""13"",""149678""
","""event"",""trial"",""time""
""focus"",""13"",""147010""
""focus"",""13"",""152738""
","""event"",""trial"",""time""
""fullscreenenter"",""1"",""1954""
","
","","","-1","","","20","7271","3856","&#9761;","elianto","#3366ff99","-1","-1","1","0","[]","0","0","2","","","","","","","",""
"pit-trial","46","447339","0.0-2.0-11.1-4.1","battery-v0.2","","""event"",""trial"",""time""
""fullscreenenter"",""1"",""1954""
""blur"",""13"",""146293""
""focus"",""13"",""147010""
""blur"",""13"",""149678""
""focus"",""13"",""152738""
","""event"",""trial"",""time""
""blur"",""13"",""146293""
""blur"",""13"",""149678""
","""event"",""trial"",""time""
""focus"",""13"",""147010""
""focus"",""13"",""152738""
","""event"",""trial"",""time""
""fullscreenenter"",""1"",""1954""
","
","","","-1","","","20","7271","3856","&#9761;","elianto","#3366ff99","-1","-1","1","+10","[]","0","0","2","","","","","","","",""
"pit-trial","47","452192","0.0-2.0-11.2-0.2","battery-v0.2","","""event"",""trial"",""time""
""fullscreenenter"",""1"",""1954""
""blur"",""13"",""146293""
""focus"",""13"",""147010""
""blur"",""13"",""149678""
""focus"",""13"",""152738""
","""event"",""trial"",""time""
""blur"",""13"",""146293""
""blur"",""13"",""149678""
","""event"",""trial"",""time""
""focus"",""13"",""147010""
""focus"",""13"",""152738""
","""event"",""trial"",""time""
""fullscreenenter"",""1"",""1954""
","
","","","-1","","","20","7271","3856","&#9761;","elianto","#3366ff99","-1","-1","1","+10","[]","0","0","2","","","","","","","",""
"pit-trial","48","457045","0.0-2.0-11.2-1.2","battery-v0.2","","""event"",""trial"",""time""
""fullscreenenter"",""1"",""1954""
""blur"",""13"",""146293""
""focus"",""13"",""147010""
""blur"",""13"",""149678""
""focus"",""13"",""152738""
","""event"",""trial"",""time""
""blur"",""13"",""146293""
""blur"",""13"",""149678""
","""event"",""trial"",""time""
""focus"",""13"",""147010""
""focus"",""13"",""152738""
","""event"",""trial"",""time""
""fullscreenenter"",""1"",""1954""
","
","","","-1","","","20","7271","3856","&#9761;","elianto","#3366ff99","-1","-1","1","+10","[]","0","0","2","","","","","","","",""
"pit-trial","49","461899","0.0-2.0-11.2-2.2","battery-v0.2","","""event"",""trial"",""time""
""fullscreenenter"",""1"",""1954""
""blur"",""13"",""146293""
""focus"",""13"",""147010""
""blur"",""13"",""149678""
""focus"",""13"",""152738""
","""event"",""trial"",""time""
""blur"",""13"",""146293""
""blur"",""13"",""149678""
","""event"",""trial"",""time""
""focus"",""13"",""147010""
""focus"",""13"",""152738""
","""event"",""trial"",""time""
""fullscreenenter"",""1"",""1954""
","
","","","-1","","","20","7271","3856","&#9761;","elianto","#3366ff99","-1","-1","1","+10","[]","0","0","2","","","","","","","",""
"pit-trial","50","466754","0.0-2.0-11.2-3.2","battery-v0.2","","""event"",""trial"",""time""
""fullscreenenter"",""1"",""1954""
""blur"",""13"",""146293""
""focus"",""13"",""147010""
""blur"",""13"",""149678""
""focus"",""13"",""152738""
","""event"",""trial"",""time""
""blur"",""13"",""146293""
""blur"",""13"",""149678""
","""event"",""trial"",""time""
""focus"",""13"",""147010""
""focus"",""13"",""152738""
","""event"",""trial"",""time""
""fullscreenenter"",""1"",""1954""
","
","","","-1","","","20","7271","3856","&#9761;","elianto","#3366ff99","-1","-1","1","0","[]","0","0","2","","","","","","","",""
"pit-trial","51","471607","0.0-2.0-11.2-4.2","battery-v0.2","","""event"",""trial"",""time""
""fullscreenenter"",""1"",""1954""
""blur"",""13"",""146293""
""focus"",""13"",""147010""
""blur"",""13"",""149678""
""focus"",""13"",""152738""
","""event"",""trial"",""time""
""blur"",""13"",""146293""
""blur"",""13"",""149678""
","""event"",""trial"",""time""
""focus"",""13"",""147010""
""focus"",""13"",""152738""
","""event"",""trial"",""time""
""fullscreenenter"",""1"",""1954""
","
","","","-1","","","20","7271","3856","&#9761;","elianto","#3366ff99","-1","-1","1","+10","[]","0","0","2","","","","","","","",""
"pit-trial","52","476460","0.0-2.0-11.3-0.3","battery-v0.2","","""event"",""trial"",""time""
""fullscreenenter"",""1"",""1954""
""blur"",""13"",""146293""
""focus"",""13"",""147010""
""blur"",""13"",""149678""
""focus"",""13"",""152738""
","""event"",""trial"",""time""
""blur"",""13"",""146293""
""blur"",""13"",""149678""
","""event"",""trial"",""time""
""focus"",""13"",""147010""
""focus"",""13"",""152738""
","""event"",""trial"",""time""
""fullscreenenter"",""1"",""1954""
","
","","","-1","","","20","7271","3856","&#9761;","elianto","#3366ff99","-1","-1","1","+10","[]","0","0","2","","","","","","","",""
"pit-trial","53","481315","0.0-2.0-11.3-1.3","battery-v0.2","","""event"",""trial"",""time""
""fullscreenenter"",""1"",""1954""
""blur"",""13"",""146293""
""focus"",""13"",""147010""
""blur"",""13"",""149678""
""focus"",""13"",""152738""
","""event"",""trial"",""time""
""blur"",""13"",""146293""
""blur"",""13"",""149678""
","""event"",""trial"",""time""
""focus"",""13"",""147010""
""focus"",""13"",""152738""
","""event"",""trial"",""time""
""fullscreenenter"",""1"",""1954""
","
","","","-1","","","20","7271","3856","&#9761;","elianto","#3366ff99","-1","-1","1","+10","[]","0","0","2","","","","","","","",""
"pit-trial","54","486167","0.0-2.0-11.3-2.3","battery-v0.2","","""event"",""trial"",""time""
""fullscreenenter"",""1"",""1954""
""blur"",""13"",""146293""
""focus"",""13"",""147010""
""blur"",""13"",""149678""
""focus"",""13"",""152738""
","""event"",""trial"",""time""
""blur"",""13"",""146293""
""blur"",""13"",""149678""
","""event"",""trial"",""time""
""focus"",""13"",""147010""
""focus"",""13"",""152738""
","""event"",""trial"",""time""
""fullscreenenter"",""1"",""1954""
","
","","","-1","","","20","7271","3856","&#9761;","elianto","#3366ff99","-1","-1","1","+10","[]","0","0","2","","","","","","","",""
"pit-trial","55","491020","0.0-2.0-11.3-3.3","battery-v0.2","","""event"",""trial"",""time""
""fullscreenenter"",""1"",""1954""
""blur"",""13"",""146293""
""focus"",""13"",""147010""
""blur"",""13"",""149678""
""focus"",""13"",""152738""
","""event"",""trial"",""time""
""blur"",""13"",""146293""
""blur"",""13"",""149678""
","""event"",""trial"",""time""
""focus"",""13"",""147010""
""focus"",""13"",""152738""
","""event"",""trial"",""time""
""fullscreenenter"",""1"",""1954""
","
","","","-1","","","20","7271","3856","&#9761;","elianto","#3366ff99","-1","-1","1","0","[]","0","0","2","","","","","","","",""
"pit-trial","56","495873","0.0-2.0-11.3-4.3","battery-v0.2","","""event"",""trial"",""time""
""fullscreenenter"",""1"",""1954""
""blur"",""13"",""146293""
""focus"",""13"",""147010""
""blur"",""13"",""149678""
""focus"",""13"",""152738""
","""event"",""trial"",""time""
""blur"",""13"",""146293""
""blur"",""13"",""149678""
","""event"",""trial"",""time""
""focus"",""13"",""147010""
""focus"",""13"",""152738""
","""event"",""trial"",""time""
""fullscreenenter"",""1"",""1954""
","
","","","-1","","","20","7271","3856","&#9761;","elianto","#3366ff99","-1","-1","1","+10","[]","0","0","2","","","","","","","",""
"call-function","57","495874","0.0-2.0-12.0","battery-v0.2","","""event"",""trial"",""time""
""fullscreenenter"",""1"",""1954""
""blur"",""13"",""146293""
""focus"",""13"",""147010""
""blur"",""13"",""149678""
""focus"",""13"",""152738""
","""event"",""trial"",""time""
""blur"",""13"",""146293""
""blur"",""13"",""149678""
","""event"",""trial"",""time""
""focus"",""13"",""147010""
""focus"",""13"",""152738""
","""event"",""trial"",""time""
""fullscreenenter"",""1"",""1954""
","
","","","","","","","","","","","","","","","","","","","","","","","","","","",""
"pit-instructions","58","528911","0.0-2.0-13.0","battery-v0.2","","""event"",""trial"",""time""
""fullscreenenter"",""1"",""1954""
""blur"",""13"",""146293""
""focus"",""13"",""147010""
""blur"",""13"",""149678""
""focus"",""13"",""152738""
","""event"",""trial"",""time""
""blur"",""13"",""146293""
""blur"",""13"",""149678""
","""event"",""trial"",""time""
""focus"",""13"",""147010""
""focus"",""13"",""152738""
","""event"",""trial"",""time""
""fullscreenenter"",""1"",""1954""
","
","","[{""page_index"":0,""viewing_time"":6044.79999999702},{""page_index"":1,""viewing_time"":7001.899999991059},{""page_index"":2,""viewing_time"":4478.9000000059605},{""page_index"":3,""viewing_time"":10649.90000000596},{""page_index"":4,""viewing_time"":4861.29999999702}]","33037","","","","","","","","","","","","","","","","","","","","","","","",""
"pit-trial","59","532434","0.0-2.0-14.0-0.0","battery-v0.2","","""event"",""trial"",""time""
""fullscreenenter"",""1"",""1954""
""blur"",""13"",""146293""
""focus"",""13"",""147010""
""blur"",""13"",""149678""
""focus"",""13"",""152738""
","""event"",""trial"",""time""
""blur"",""13"",""146293""
""blur"",""13"",""149678""
","""event"",""trial"",""time""
""focus"",""13"",""147010""
""focus"",""13"",""152738""
","""event"",""trial"",""time""
""fullscreenenter"",""1"",""1954""
","
","","","662.8000000119209","","","20","7271","3856","&#9826;","elianto","#f73b6a7A","-1"," ","0","-10","[1514.800000011921]","1","0","3","","","","","","","",""
"pit-trial","60","537293","0.0-2.0-14.0-1.0","battery-v0.2","","""event"",""trial"",""time""
""fullscreenenter"",""1"",""1954""
""blur"",""13"",""146293""
""focus"",""13"",""147010""
""blur"",""13"",""149678""
""focus"",""13"",""152738""
","""event"",""trial"",""time""
""blur"",""13"",""146293""
""blur"",""13"",""149678""
","""event"",""trial"",""time""
""focus"",""13"",""147010""
""focus"",""13"",""152738""
","""event"",""trial"",""time""
""fullscreenenter"",""1"",""1954""
","
","","","-1","","","20","7271","3856","&#9826;","elianto","#f73b6a7A","-1","-1","1","0","[]","0","0","3","","","","","","","",""
"pit-trial","61","542163","0.0-2.0-14.0-2.0","battery-v0.2","","""event"",""trial"",""time""
""fullscreenenter"",""1"",""1954""
""blur"",""13"",""146293""
""focus"",""13"",""147010""
""blur"",""13"",""149678""
""focus"",""13"",""152738""
","""event"",""trial"",""time""
""blur"",""13"",""146293""
""blur"",""13"",""149678""
","""event"",""trial"",""time""
""focus"",""13"",""147010""
""focus"",""13"",""152738""
","""event"",""trial"",""time""
""fullscreenenter"",""1"",""1954""
","
","","","-1","","","20","7271","3856","&#9826;","elianto","#f73b6a7A","-1","-1","1","0","[]","0","0","3","","","","","","","",""
"pit-trial","62","547026","0.0-2.0-14.0-3.0","battery-v0.2","","""event"",""trial"",""time""
""fullscreenenter"",""1"",""1954""
""blur"",""13"",""146293""
""focus"",""13"",""147010""
""blur"",""13"",""149678""
""focus"",""13"",""152738""
","""event"",""trial"",""time""
""blur"",""13"",""146293""
""blur"",""13"",""149678""
","""event"",""trial"",""time""
""focus"",""13"",""147010""
""focus"",""13"",""152738""
","""event"",""trial"",""time""
""fullscreenenter"",""1"",""1954""
","
","","","-1","","","20","7271","3856","&#9826;","elianto","#f73b6a7A","-1","-1","1","-10","[]","0","0","3","","","","","","","",""
"pit-trial","63","551891","0.0-2.0-14.0-4.0","battery-v0.2","","""event"",""trial"",""time""
""fullscreenenter"",""1"",""1954""
""blur"",""13"",""146293""
""focus"",""13"",""147010""
""blur"",""13"",""149678""
""focus"",""13"",""152738""
","""event"",""trial"",""time""
""blur"",""13"",""146293""
""blur"",""13"",""149678""
","""event"",""trial"",""time""
""focus"",""13"",""147010""
""focus"",""13"",""152738""
","""event"",""trial"",""time""
""fullscreenenter"",""1"",""1954""
","
","","","-1","","","20","7271","3856","&#9826;","elianto","#f73b6a7A","-1","-1","1","0","[]","0","0","3","","","","","","","",""
"pit-trial","64","556762","0.0-2.0-14.1-0.1","battery-v0.2","","""event"",""trial"",""time""
""fullscreenenter"",""1"",""1954""
""blur"",""13"",""146293""
""focus"",""13"",""147010""
""blur"",""13"",""149678""
""focus"",""13"",""152738""
","""event"",""trial"",""time""
""blur"",""13"",""146293""
""blur"",""13"",""149678""
","""event"",""trial"",""time""
""focus"",""13"",""147010""
""focus"",""13"",""152738""
","""event"",""trial"",""time""
""fullscreenenter"",""1"",""1954""
","
","","","-1","","","20","7271","3856","&#9826;","elianto","#f73b6a7A","-1","-1","1","0","[]","0","0","3","","","","","","","",""
"pit-trial","65","561616","0.0-2.0-14.1-1.1","battery-v0.2","","""event"",""trial"",""time""
""fullscreenenter"",""1"",""1954""
""blur"",""13"",""146293""
""focus"",""13"",""147010""
""blur"",""13"",""149678""
""focus"",""13"",""152738""
","""event"",""trial"",""time""
""blur"",""13"",""146293""
""blur"",""13"",""149678""
","""event"",""trial"",""time""
""focus"",""13"",""147010""
""focus"",""13"",""152738""
","""event"",""trial"",""time""
""fullscreenenter"",""1"",""1954""
","
","","","-1","","","20","7271","3856","&#9826;","elianto","#f73b6a7A","-1","-1","1","0","[]","0","0","3","","","","","","","",""
"pit-trial","66","566469","0.0-2.0-14.1-2.1","battery-v0.2","","""event"",""trial"",""time""
""fullscreenenter"",""1"",""1954""
""blur"",""13"",""146293""
""focus"",""13"",""147010""
""blur"",""13"",""149678""
""focus"",""13"",""152738""
","""event"",""trial"",""time""
""blur"",""13"",""146293""
""blur"",""13"",""149678""
","""event"",""trial"",""time""
""focus"",""13"",""147010""
""focus"",""13"",""152738""
","""event"",""trial"",""time""
""fullscreenenter"",""1"",""1954""
","
","","","-1","","","20","7271","3856","&#9826;","elianto","#f73b6a7A","-1","-1","1","0","[]","0","0","3","","","","","","","",""
"pit-trial","67","571323","0.0-2.0-14.1-3.1","battery-v0.2","","""event"",""trial"",""time""
""fullscreenenter"",""1"",""1954""
""blur"",""13"",""146293""
""focus"",""13"",""147010""
""blur"",""13"",""149678""
""focus"",""13"",""152738""
","""event"",""trial"",""time""
""blur"",""13"",""146293""
""blur"",""13"",""149678""
","""event"",""trial"",""time""
""focus"",""13"",""147010""
""focus"",""13"",""152738""
","""event"",""trial"",""time""
""fullscreenenter"",""1"",""1954""
","
","","","-1","","","20","7271","3856","&#9826;","elianto","#f73b6a7A","-1","-1","1","-10","[]","0","0","3","","","","","","","",""
"pit-trial","68","576176","0.0-2.0-14.1-4.1","battery-v0.2","","""event"",""trial"",""time""
""fullscreenenter"",""1"",""1954""
""blur"",""13"",""146293""
""focus"",""13"",""147010""
""blur"",""13"",""149678""
""focus"",""13"",""152738""
","""event"",""trial"",""time""
""blur"",""13"",""146293""
""blur"",""13"",""149678""
","""event"",""trial"",""time""
""focus"",""13"",""147010""
""focus"",""13"",""152738""
","""event"",""trial"",""time""
""fullscreenenter"",""1"",""1954""
","
","","","-1","","","20","7271","3856","&#9826;","elianto","#f73b6a7A","-1","-1","1","0","[]","0","0","3","","","","","","","",""
"pit-trial","69","581030","0.0-2.0-14.2-0.2","battery-v0.2","","""event"",""trial"",""time""
""fullscreenenter"",""1"",""1954""
""blur"",""13"",""146293""
""focus"",""13"",""147010""
""blur"",""13"",""149678""
""focus"",""13"",""152738""
","""event"",""trial"",""time""
""blur"",""13"",""146293""
""blur"",""13"",""149678""
","""event"",""trial"",""time""
""focus"",""13"",""147010""
""focus"",""13"",""152738""
","""event"",""trial"",""time""
""fullscreenenter"",""1"",""1954""
","
","","","-1","","","20","7271","3856","&#9826;","elianto","#f73b6a7A","-1","-1","1","0","[]","0","0","3","","","","","","","",""
"pit-trial","70","585884","0.0-2.0-14.2-1.2","battery-v0.2","","""event"",""trial"",""time""
""fullscreenenter"",""1"",""1954""
""blur"",""13"",""146293""
""focus"",""13"",""147010""
""blur"",""13"",""149678""
""focus"",""13"",""152738""
","""event"",""trial"",""time""
""blur"",""13"",""146293""
""blur"",""13"",""149678""
","""event"",""trial"",""time""
""focus"",""13"",""147010""
""focus"",""13"",""152738""
","""event"",""trial"",""time""
""fullscreenenter"",""1"",""1954""
","
","","","-1","","","20","7271","3856","&#9826;","elianto","#f73b6a7A","-1","-1","1","0","[]","0","0","3","","","","","","","",""
"pit-trial","71","590737","0.0-2.0-14.2-2.2","battery-v0.2","","""event"",""trial"",""time""
""fullscreenenter"",""1"",""1954""
""blur"",""13"",""146293""
""focus"",""13"",""147010""
""blur"",""13"",""149678""
""focus"",""13"",""152738""
","""event"",""trial"",""time""
""blur"",""13"",""146293""
""blur"",""13"",""149678""
","""event"",""trial"",""time""
""focus"",""13"",""147010""
""focus"",""13"",""152738""
","""event"",""trial"",""time""
""fullscreenenter"",""1"",""1954""
","
","","","-1","","","20","7271","3856","&#9826;","elianto","#f73b6a7A","-1","-1","1","0","[]","0","0","3","","","","","","","",""
"pit-trial","72","595590","0.0-2.0-14.2-3.2","battery-v0.2","","""event"",""trial"",""time""
""fullscreenenter"",""1"",""1954""
""blur"",""13"",""146293""
""focus"",""13"",""147010""
""blur"",""13"",""149678""
""focus"",""13"",""152738""
","""event"",""trial"",""time""
""blur"",""13"",""146293""
""blur"",""13"",""149678""
","""event"",""trial"",""time""
""focus"",""13"",""147010""
""focus"",""13"",""152738""
","""event"",""trial"",""time""
""fullscreenenter"",""1"",""1954""
","
","","","-1","","","20","7271","3856","&#9826;","elianto","#f73b6a7A","-1","-1","1","-10","[]","0","0","3","","","","","","","",""
"pit-trial","73","600444","0.0-2.0-14.2-4.2","battery-v0.2","","""event"",""trial"",""time""
""fullscreenenter"",""1"",""1954""
""blur"",""13"",""146293""
""focus"",""13"",""147010""
""blur"",""13"",""149678""
""focus"",""13"",""152738""
","""event"",""trial"",""time""
""blur"",""13"",""146293""
""blur"",""13"",""149678""
","""event"",""trial"",""time""
""focus"",""13"",""147010""
""focus"",""13"",""152738""
","""event"",""trial"",""time""
""fullscreenenter"",""1"",""1954""
","
","","","-1","","","20","7271","3856","&#9826;","elianto","#f73b6a7A","-1","-1","1","0","[]","0","0","3","","","","","","","",""
"pit-trial","74","605310","0.0-2.0-14.3-0.3","battery-v0.2","","""event"",""trial"",""time""
""fullscreenenter"",""1"",""1954""
""blur"",""13"",""146293""
""focus"",""13"",""147010""
""blur"",""13"",""149678""
""focus"",""13"",""152738""
","""event"",""trial"",""time""
""blur"",""13"",""146293""
""blur"",""13"",""149678""
","""event"",""trial"",""time""
""focus"",""13"",""147010""
""focus"",""13"",""152738""
","""event"",""trial"",""time""
""fullscreenenter"",""1"",""1954""
","
","","","-1","","","20","7271","3856","&#9826;","elianto","#f73b6a7A","-1","-1","1","0","[]","0","0","3","","","","","","","",""
"pit-trial","75","610163","0.0-2.0-14.3-1.3","battery-v0.2","","""event"",""trial"",""time""
""fullscreenenter"",""1"",""1954""
""blur"",""13"",""146293""
""focus"",""13"",""147010""
""blur"",""13"",""149678""
""focus"",""13"",""152738""
","""event"",""trial"",""time""
""blur"",""13"",""146293""
""blur"",""13"",""149678""
","""event"",""trial"",""time""
""focus"",""13"",""147010""
""focus"",""13"",""152738""
","""event"",""trial"",""time""
""fullscreenenter"",""1"",""1954""
","
","","","-1","","","20","7271","3856","&#9826;","elianto","#f73b6a7A","-1","-1","1","0","[]","0","0","3","","","","","","","",""
"pit-trial","76","615016","0.0-2.0-14.3-2.3","battery-v0.2","","""event"",""trial"",""time""
""fullscreenenter"",""1"",""1954""
""blur"",""13"",""146293""
""focus"",""13"",""147010""
""blur"",""13"",""149678""
""focus"",""13"",""152738""
","""event"",""trial"",""time""
""blur"",""13"",""146293""
""blur"",""13"",""149678""
","""event"",""trial"",""time""
""focus"",""13"",""147010""
""focus"",""13"",""152738""
","""event"",""trial"",""time""
""fullscreenenter"",""1"",""1954""
","
","","","-1","","","20","7271","3856","&#9826;","elianto","#f73b6a7A","-1","-1","1","0","[]","0","0","3","","","","","","","",""
"pit-trial","77","619869","0.0-2.0-14.3-3.3","battery-v0.2","","""event"",""trial"",""time""
""fullscreenenter"",""1"",""1954""
""blur"",""13"",""146293""
""focus"",""13"",""147010""
""blur"",""13"",""149678""
""focus"",""13"",""152738""
","""event"",""trial"",""time""
""blur"",""13"",""146293""
""blur"",""13"",""149678""
","""event"",""trial"",""time""
""focus"",""13"",""147010""
""focus"",""13"",""152738""
","""event"",""trial"",""time""
""fullscreenenter"",""1"",""1954""
","
","","","-1","","","20","7271","3856","&#9826;","elianto","#f73b6a7A","-1","-1","1","-10","[]","0","0","3","","","","","","","",""
"pit-trial","78","624723","0.0-2.0-14.3-4.3","battery-v0.2","","""event"",""trial"",""time""
""fullscreenenter"",""1"",""1954""
""blur"",""13"",""146293""
""focus"",""13"",""147010""
""blur"",""13"",""149678""
""focus"",""13"",""152738""
","""event"",""trial"",""time""
""blur"",""13"",""146293""
""blur"",""13"",""149678""
","""event"",""trial"",""time""
""focus"",""13"",""147010""
""focus"",""13"",""152738""
","""event"",""trial"",""time""
""fullscreenenter"",""1"",""1954""
","
","","","-1","","","20","7271","3856","&#9826;","elianto","#f73b6a7A","-1","-1","1","0","[]","0","0","3","","","","","","","",""
"call-function","79","624724","0.0-2.0-15.0","battery-v0.2","","""event"",""trial"",""time""
""fullscreenenter"",""1"",""1954""
""blur"",""13"",""146293""
""focus"",""13"",""147010""
""blur"",""13"",""149678""
""focus"",""13"",""152738""
","""event"",""trial"",""time""
""blur"",""13"",""146293""
""blur"",""13"",""149678""
","""event"",""trial"",""time""
""focus"",""13"",""147010""
""focus"",""13"",""152738""
","""event"",""trial"",""time""
""fullscreenenter"",""1"",""1954""
","
","","","","","","","","","","","","","","","","","","","","","","","","","","",""
"pit-instructions","80","659443","0.0-2.0-16.0","battery-v0.2","","""event"",""trial"",""time""
""fullscreenenter"",""1"",""1954""
""blur"",""13"",""146293""
""focus"",""13"",""147010""
""blur"",""13"",""149678""
""focus"",""13"",""152738""
","""event"",""trial"",""time""
""blur"",""13"",""146293""
""blur"",""13"",""149678""
","""event"",""trial"",""time""
""focus"",""13"",""147010""
""focus"",""13"",""152738""
","""event"",""trial"",""time""
""fullscreenenter"",""1"",""1954""
","
","","[{""page_index"":0,""viewing_time"":12657.70000000298},{""page_index"":1,""viewing_time"":11236.90000000596},{""page_index"":2,""viewing_time"":4597.29999999702},{""page_index"":3,""viewing_time"":6226.399999991059}]","34718.5","","","","","","","","","","","","","","","","","","","","","","","",""
"pit-trial","81","662807","0.0-2.0-17.0-0.0","battery-v0.2","","""event"",""trial"",""time""
""fullscreenenter"",""1"",""1954""
""blur"",""13"",""146293""
""focus"",""13"",""147010""
""blur"",""13"",""149678""
""focus"",""13"",""152738""
","""event"",""trial"",""time""
""blur"",""13"",""146293""
""blur"",""13"",""149678""
","""event"",""trial"",""time""
""focus"",""13"",""147010""
""focus"",""13"",""152738""
","""event"",""trial"",""time""
""fullscreenenter"",""1"",""1954""
","
","","","504","","","20","7271","3856","&#9789;","elianto","#f73b6a7A"," "," ","1","0","[1359.4000000059605]","1","0","4","","","","","","","",""
"pit-trial","82","665986","0.0-2.0-17.0-1.0","battery-v0.2","","""event"",""trial"",""time""
""fullscreenenter"",""1"",""1954""
""blur"",""13"",""146293""
""focus"",""13"",""147010""
""blur"",""13"",""149678""
""focus"",""13"",""152738""
","""event"",""trial"",""time""
""blur"",""13"",""146293""
""blur"",""13"",""149678""
","""event"",""trial"",""time""
""focus"",""13"",""147010""
""focus"",""13"",""152738""
","""event"",""trial"",""time""
""fullscreenenter"",""1"",""1954""
","
","","","317.40000000596046","","","20","7271","3856","&#9789;","elianto","#f73b6a7A"," "," ","1","0","[1174.0999999940395]","1","0","4","","","","","","","",""
"pit-trial","83","669113","0.0-2.0-17.0-2.0","battery-v0.2","","""event"",""trial"",""time""
""fullscreenenter"",""1"",""1954""
""blur"",""13"",""146293""
""focus"",""13"",""147010""
""blur"",""13"",""149678""
""focus"",""13"",""152738""
","""event"",""trial"",""time""
""blur"",""13"",""146293""
""blur"",""13"",""149678""
","""event"",""trial"",""time""
""focus"",""13"",""147010""
""focus"",""13"",""152738""
","""event"",""trial"",""time""
""fullscreenenter"",""1"",""1954""
","
","","","269.20000000298023","","","20","7271","3856","&#9789;","elianto","#f73b6a7A"," "," ","1","0","[1119.5999999940395]","1","0","4","","","","","","","",""
"pit-trial","84","672294","0.0-2.0-17.0-3.0","battery-v0.2","","""event"",""trial"",""time""
""fullscreenenter"",""1"",""1954""
""blur"",""13"",""146293""
""focus"",""13"",""147010""
""blur"",""13"",""149678""
""focus"",""13"",""152738""
","""event"",""trial"",""time""
""blur"",""13"",""146293""
""blur"",""13"",""149678""
","""event"",""trial"",""time""
""focus"",""13"",""147010""
""focus"",""13"",""152738""
","""event"",""trial"",""time""
""fullscreenenter"",""1"",""1954""
","
","","","322.79999999701977","","","20","7271","3856","&#9789;","elianto","#f73b6a7A"," "," ","1","-10","[1174.2999999970198]","1","0","4","","","","","","","",""
"pit-trial","85","675310","0.0-2.0-17.0-4.0","battery-v0.2","","""event"",""trial"",""time""
""fullscreenenter"",""1"",""1954""
""blur"",""13"",""146293""
""focus"",""13"",""147010""
""blur"",""13"",""149678""
""focus"",""13"",""152738""
","""event"",""trial"",""time""
""blur"",""13"",""146293""
""blur"",""13"",""149678""
","""event"",""trial"",""time""
""focus"",""13"",""147010""
""focus"",""13"",""152738""
","""event"",""trial"",""time""
""fullscreenenter"",""1"",""1954""
","
","","","155.70000000298023","","","20","7271","3856","&#9789;","elianto","#f73b6a7A"," "," ","1","0","[1010]","1","0","4","","","","","","","",""
"pit-trial","86","678454","0.0-2.0-17.1-0.1","battery-v0.2","","""event"",""trial"",""time""
""fullscreenenter"",""1"",""1954""
""blur"",""13"",""146293""
""focus"",""13"",""147010""
""blur"",""13"",""149678""
""focus"",""13"",""152738""
","""event"",""trial"",""time""
""blur"",""13"",""146293""
""blur"",""13"",""149678""
","""event"",""trial"",""time""
""focus"",""13"",""147010""
""focus"",""13"",""152738""
","""event"",""trial"",""time""
""fullscreenenter"",""1"",""1954""
","
","","","280.40000000596046","","","20","7271","3856","&#9789;","elianto","#f73b6a7A"," "," ","1","0","[1134.5]","1","0","4","","","","","","","",""
"pit-trial","87","681476","0.0-2.0-17.1-1.1","battery-v0.2","","""event"",""trial"",""time""
""fullscreenenter"",""1"",""1954""
""blur"",""13"",""146293""
""focus"",""13"",""147010""
""blur"",""13"",""149678""
""focus"",""13"",""152738""
","""event"",""trial"",""time""
""blur"",""13"",""146293""
""blur"",""13"",""149678""
","""event"",""trial"",""time""
""focus"",""13"",""147010""
""focus"",""13"",""152738""
","""event"",""trial"",""time""
""fullscreenenter"",""1"",""1954""
","
","","","156.5","","","20","7271","3856","&#9789;","elianto","#f73b6a7A"," "," ","1","0","[1009.9000000059605]","1","0","4","","","","","","","",""
"pit-trial","88","684560","0.0-2.0-17.1-2.1","battery-v0.2","","""event"",""trial"",""time""
""fullscreenenter"",""1"",""1954""
""blur"",""13"",""146293""
""focus"",""13"",""147010""
""blur"",""13"",""149678""
""focus"",""13"",""152738""
","""event"",""trial"",""time""
""blur"",""13"",""146293""
""blur"",""13"",""149678""
","""event"",""trial"",""time""
""focus"",""13"",""147010""
""focus"",""13"",""152738""
","""event"",""trial"",""time""
""fullscreenenter"",""1"",""1954""
","
","","","217.30000001192093","","","20","7271","3856","&#9789;","elianto","#f73b6a7A"," "," ","1","0","[1067.8999999910593]","1","0","4","","","","","","","",""
"pit-trial","89","687602","0.0-2.0-17.1-3.1","battery-v0.2","","""event"",""trial"",""time""
""fullscreenenter"",""1"",""1954""
""blur"",""13"",""146293""
""focus"",""13"",""147010""
""blur"",""13"",""149678""
""focus"",""13"",""152738""
","""event"",""trial"",""time""
""blur"",""13"",""146293""
""blur"",""13"",""149678""
","""event"",""trial"",""time""
""focus"",""13"",""147010""
""focus"",""13"",""152738""
","""event"",""trial"",""time""
""fullscreenenter"",""1"",""1954""
","
","","","183.5","","","20","7271","3856","&#9789;","elianto","#f73b6a7A"," "," ","1","-10","[1039.7999999970198]","1","0","4","","","","","","","",""
"pit-trial","90","690711","0.0-2.0-17.1-4.1","battery-v0.2","","""event"",""trial"",""time""
""fullscreenenter"",""1"",""1954""
""blur"",""13"",""146293""
""focus"",""13"",""147010""
""blur"",""13"",""149678""
""focus"",""13"",""152738""
","""event"",""trial"",""time""
""blur"",""13"",""146293""
""blur"",""13"",""149678""
","""event"",""trial"",""time""
""focus"",""13"",""147010""
""focus"",""13"",""152738""
","""event"",""trial"",""time""
""fullscreenenter"",""1"",""1954""
","
","","","250.3999999910593","","","20","7271","3856","&#9789;","elianto","#f73b6a7A"," "," ","1","0","[1107.199999988079]","1","0","4","","","","","","","",""
"pit-trial","91","693754","0.0-2.0-17.2-0.2","battery-v0.2","","""event"",""trial"",""time""
""fullscreenenter"",""1"",""1954""
""blur"",""13"",""146293""
""focus"",""13"",""147010""
""blur"",""13"",""149678""
""focus"",""13"",""152738""
","""event"",""trial"",""time""
""blur"",""13"",""146293""
""blur"",""13"",""149678""
","""event"",""trial"",""time""
""focus"",""13"",""147010""
""focus"",""13"",""152738""
","""event"",""trial"",""time""
""fullscreenenter"",""1"",""1954""
","
","","","187.20000000298023","","","20","7271","3856","&#9789;","elianto","#f73b6a7A"," "," ","1","0","[1038.7000000029802]","1","0","4","","","","","","","",""
"pit-trial","92","696809","0.0-2.0-17.2-1.2","battery-v0.2","","""event"",""trial"",""time""
""fullscreenenter"",""1"",""1954""
""blur"",""13"",""146293""
""focus"",""13"",""147010""
""blur"",""13"",""149678""
""focus"",""13"",""152738""
","""event"",""trial"",""time""
""blur"",""13"",""146293""
""blur"",""13"",""149678""
","""event"",""trial"",""time""
""focus"",""13"",""147010""
""focus"",""13"",""152738""
","""event"",""trial"",""time""
""fullscreenenter"",""1"",""1954""
","
","","","203.40000000596046","","","20","7271","3856","&#9789;","elianto","#f73b6a7A"," "," ","1","0","[1054.5]","1","0","4","","","","","","","",""
"pit-trial","93","699870","0.0-2.0-17.2-2.2","battery-v0.2","","""event"",""trial"",""time""
""fullscreenenter"",""1"",""1954""
""blur"",""13"",""146293""
""focus"",""13"",""147010""
""blur"",""13"",""149678""
""focus"",""13"",""152738""
","""event"",""trial"",""time""
""blur"",""13"",""146293""
""blur"",""13"",""149678""
","""event"",""trial"",""time""
""focus"",""13"",""147010""
""focus"",""13"",""152738""
","""event"",""trial"",""time""
""fullscreenenter"",""1"",""1954""
","
","","","208.1000000089407","","","20","7271","3856","&#9789;","elianto","#f73b6a7A"," "," ","1","0","[1058.6000000089407]","1","0","4","","","","","","","",""
"pit-trial","94","702995","0.0-2.0-17.2-3.2","battery-v0.2","","""event"",""trial"",""time""
""fullscreenenter"",""1"",""1954""
""blur"",""13"",""146293""
""focus"",""13"",""147010""
""blur"",""13"",""149678""
""focus"",""13"",""152738""
","""event"",""trial"",""time""
""blur"",""13"",""146293""
""blur"",""13"",""149678""
","""event"",""trial"",""time""
""focus"",""13"",""147010""
""focus"",""13"",""152738""
","""event"",""trial"",""time""
""fullscreenenter"",""1"",""1954""
","
","","","270.40000000596046","","","20","7271","3856","&#9789;","elianto","#f73b6a7A"," "," ","1","-10","[1122.4000000059605]","1","0","4","","","","","","","",""
"pit-trial","95","706162","0.0-2.0-17.2-4.2","battery-v0.2","","""event"",""trial"",""time""
""fullscreenenter"",""1"",""1954""
""blur"",""13"",""146293""
""focus"",""13"",""147010""
""blur"",""13"",""149678""
""focus"",""13"",""152738""
","""event"",""trial"",""time""
""blur"",""13"",""146293""
""blur"",""13"",""149678""
","""event"",""trial"",""time""
""focus"",""13"",""147010""
""focus"",""13"",""152738""
","""event"",""trial"",""time""
""fullscreenenter"",""1"",""1954""
","
","","","315","","","20","7271","3856","&#9789;","elianto","#f73b6a7A"," "," ","1","0","[1165.300000011921]","1","0","4","","","","","","","",""
"pit-trial","96","709368","0.0-2.0-17.3-0.3","battery-v0.2","","""event"",""trial"",""time""
""fullscreenenter"",""1"",""1954""
""blur"",""13"",""146293""
""focus"",""13"",""147010""
""blur"",""13"",""149678""
""focus"",""13"",""152738""
","""event"",""trial"",""time""
""blur"",""13"",""146293""
""blur"",""13"",""149678""
","""event"",""trial"",""time""
""focus"",""13"",""147010""
""focus"",""13"",""152738""
","""event"",""trial"",""time""
""fullscreenenter"",""1"",""1954""
","
","","","353.20000000298023","","","20","7271","3856","&#9789;","elianto","#f73b6a7A"," "," ","1","0","[1203.3999999910593]","1","0","4","","","","","","","",""
"pit-trial","97","712479","0.0-2.0-17.3-1.3","battery-v0.2","","""event"",""trial"",""time""
""fullscreenenter"",""1"",""1954""
""blur"",""13"",""146293""
""focus"",""13"",""147010""
""blur"",""13"",""149678""
""focus"",""13"",""152738""
","""event"",""trial"",""time""
""blur"",""13"",""146293""
""blur"",""13"",""149678""
","""event"",""trial"",""time""
""focus"",""13"",""147010""
""focus"",""13"",""152738""
","""event"",""trial"",""time""
""fullscreenenter"",""1"",""1954""
","
","","","259.1000000089407","","","20","7271","3856","&#9789;","elianto","#f73b6a7A"," "," ","1","0","[1109.2999999970198]","1","0","4","","","","","","","",""
"pit-trial","98","715581","0.0-2.0-17.3-2.3","battery-v0.2","","""event"",""trial"",""time""
""fullscreenenter"",""1"",""1954""
""blur"",""13"",""146293""
""focus"",""13"",""147010""
""blur"",""13"",""149678""
""focus"",""13"",""152738""
","""event"",""trial"",""time""
""blur"",""13"",""146293""
""blur"",""13"",""149678""
","""event"",""trial"",""time""
""focus"",""13"",""147010""
""focus"",""13"",""152738""
","""event"",""trial"",""time""
""fullscreenenter"",""1"",""1954""
","
","","","249.29999999701977","","","20","7271","3856","&#9789;","elianto","#f73b6a7A"," "," ","1","0","[1099.6000000089407]","1","0","4","","","","","","","",""
"pit-trial","99","718753","0.0-2.0-17.3-3.3","battery-v0.2","","""event"",""trial"",""time""
""fullscreenenter"",""1"",""1954""
""blur"",""13"",""146293""
""focus"",""13"",""147010""
""blur"",""13"",""149678""
""focus"",""13"",""152738""
","""event"",""trial"",""time""
""blur"",""13"",""146293""
""blur"",""13"",""149678""
","""event"",""trial"",""time""
""focus"",""13"",""147010""
""focus"",""13"",""152738""
","""event"",""trial"",""time""
""fullscreenenter"",""1"",""1954""
","
","","","320.1000000089407","","","20","7271","3856","&#9789;","elianto","#f73b6a7A"," "," ","1","-10","[1170.2000000029802]","1","0","4","","","","","","","",""
"pit-trial","100","721858","0.0-2.0-17.3-4.3","battery-v0.2","","""event"",""trial"",""time""
""fullscreenenter"",""1"",""1954""
""blur"",""13"",""146293""
""focus"",""13"",""147010""
""blur"",""13"",""149678""
""focus"",""13"",""152738""
","""event"",""trial"",""time""
""blur"",""13"",""146293""
""blur"",""13"",""149678""
","""event"",""trial"",""time""
""focus"",""13"",""147010""
""focus"",""13"",""152738""
","""event"",""trial"",""time""
""fullscreenenter"",""1"",""1954""
","
","","","251.59999999403954","","","20","7271","3856","&#9789;","elianto","#f73b6a7A"," "," ","1","0","[1101.9000000059605]","1","0","4","","","","","","","",""
"call-function","101","721859","0.0-2.0-18.0","battery-v0.2","","""event"",""trial"",""time""
""fullscreenenter"",""1"",""1954""
""blur"",""13"",""146293""
""focus"",""13"",""147010""
""blur"",""13"",""149678""
""focus"",""13"",""152738""
","""event"",""trial"",""time""
""blur"",""13"",""146293""
""blur"",""13"",""149678""
","""event"",""trial"",""time""
""focus"",""13"",""147010""
""focus"",""13"",""152738""
","""event"",""trial"",""time""
""fullscreenenter"",""1"",""1954""
","
","","","","","","","","","","","","","","","","","","","","","","","","","","",""
"pit-instructions","102","796193","0.0-2.0-19.0","battery-v0.2","","""event"",""trial"",""time""
""fullscreenenter"",""1"",""1954""
""blur"",""13"",""146293""
""focus"",""13"",""147010""
""blur"",""13"",""149678""
""focus"",""13"",""152738""
","""event"",""trial"",""time""
""blur"",""13"",""146293""
""blur"",""13"",""149678""
","""event"",""trial"",""time""
""focus"",""13"",""147010""
""focus"",""13"",""152738""
","""event"",""trial"",""time""
""fullscreenenter"",""1"",""1954""
","
","","[{""page_index"":0,""viewing_time"":6511.5},{""page_index"":1,""viewing_time"":7573.600000008941},{""page_index"":2,""viewing_time"":15161},{""page_index"":3,""viewing_time"":8169.79999999702},{""page_index"":4,""viewing_time"":7951.5},{""page_index"":5,""viewing_time"":9012.59999999404},{""page_index"":6,""viewing_time"":8256.70000000298},{""page_index"":7,""viewing_time"":6676.29999999702},{""page_index"":8,""viewing_time"":5020.300000011921}]","74333.70000000298","","","","","","","","","","","","","","","","","","","","","","","",""
"pit-comprehension","103","800467","0.0-2.0-20.0-0.0","battery-v0.2","","""event"",""trial"",""time""
""fullscreenenter"",""1"",""1954""
""blur"",""13"",""146293""
""focus"",""13"",""147010""
""blur"",""13"",""149678""
""focus"",""13"",""152738""
","""event"",""trial"",""time""
""blur"",""13"",""146293""
""blur"",""13"",""149678""
","""event"",""trial"",""time""
""focus"",""13"",""147010""
""focus"",""13"",""152738""
","""event"",""trial"",""time""
""fullscreenenter"",""1"",""1954""
","
","","","4272.4000000059605","[""SPACE""]","0","20","7271","3856","","","","","","","","","","","","","","","","","","",""
"pit-instructions","104","802905","0.0-2.0-20.0-1.0","battery-v0.2","","""event"",""trial"",""time""
""fullscreenenter"",""1"",""1954""
""blur"",""13"",""146293""
""focus"",""13"",""147010""
""blur"",""13"",""149678""
""focus"",""13"",""152738""
","""event"",""trial"",""time""
""blur"",""13"",""146293""
""blur"",""13"",""149678""
","""event"",""trial"",""time""
""focus"",""13"",""147010""
""focus"",""13"",""152738""
","""event"",""trial"",""time""
""fullscreenenter"",""1"",""1954""
","
","","[{""page_index"":0,""viewing_time"":2398.7999999970198}]","2398.8999999910593","","","","","","","","","","","","","","","","","","","","","","","",""
"pit-comprehension","105","807694","0.0-2.0-21.0-0.0","battery-v0.2","","""event"",""trial"",""time""
""fullscreenenter"",""1"",""1954""
""blur"",""13"",""146293""
""focus"",""13"",""147010""
""blur"",""13"",""149678""
""focus"",""13"",""152738""
","""event"",""trial"",""time""
""blur"",""13"",""146293""
""blur"",""13"",""149678""
","""event"",""trial"",""time""
""focus"",""13"",""147010""
""focus"",""13"",""152738""
","""event"",""trial"",""time""
""fullscreenenter"",""1"",""1954""
","
","","","4786.70000000298","[""10""]","0","20","7271","3856","","","","","","","","","","","","","","","","","","",""
"pit-instructions","106","809145","0.0-2.0-21.0-1.0","battery-v0.2","","""event"",""trial"",""time""
""fullscreenenter"",""1"",""1954""
""blur"",""13"",""146293""
""focus"",""13"",""147010""
""blur"",""13"",""149678""
""focus"",""13"",""152738""
","""event"",""trial"",""time""
""blur"",""13"",""146293""
""blur"",""13"",""149678""
","""event"",""trial"",""time""
""focus"",""13"",""147010""
""focus"",""13"",""152738""
","""event"",""trial"",""time""
""fullscreenenter"",""1"",""1954""
","
","","[{""page_index"":0,""viewing_time"":1413.6000000089407}]","1413.7000000029802","","","","","","","","","","","","","","","","","","","","","","","",""
"pit-comprehension","107","815481","0.0-2.0-22.0-0.0","battery-v0.2","","""event"",""trial"",""time""
""fullscreenenter"",""1"",""1954""
""blur"",""13"",""146293""
""focus"",""13"",""147010""
""blur"",""13"",""149678""
""focus"",""13"",""152738""
","""event"",""trial"",""time""
""blur"",""13"",""146293""
""blur"",""13"",""149678""
","""event"",""trial"",""time""
""focus"",""13"",""147010""
""focus"",""13"",""152738""
","""event"",""trial"",""time""
""fullscreenenter"",""1"",""1954""
","
","","","6335","[""0""]","0","20","7271","3856","","","","","","","","","","","","","","","","","","",""
"pit-instructions","108","817039","0.0-2.0-22.0-1.0","battery-v0.2","","""event"",""trial"",""time""
""fullscreenenter"",""1"",""1954""
""blur"",""13"",""146293""
""focus"",""13"",""147010""
""blur"",""13"",""149678""
""focus"",""13"",""152738""
","""event"",""trial"",""time""
""blur"",""13"",""146293""
""blur"",""13"",""149678""
","""event"",""trial"",""time""
""focus"",""13"",""147010""
""focus"",""13"",""152738""
","""event"",""trial"",""time""
""fullscreenenter"",""1"",""1954""
","
","","[{""page_index"":0,""viewing_time"":1519}]","1519.2000000029802","","","","","","","","","","","","","","","","","","","","","","","",""
"pit-comprehension","109","825323","0.0-2.0-23.0-0.0","battery-v0.2","","""event"",""trial"",""time""
""fullscreenenter"",""1"",""1954""
""blur"",""13"",""146293""
""focus"",""13"",""147010""
""blur"",""13"",""149678""
""focus"",""13"",""152738""
","""event"",""trial"",""time""
""blur"",""13"",""146293""
""blur"",""13"",""149678""
","""event"",""trial"",""time""
""focus"",""13"",""147010""
""focus"",""13"",""152738""
","""event"",""trial"",""time""
""fullscreenenter"",""1"",""1954""
","
","","","8282.300000011921","[""True""]","0","20","7271","3856","","","","","","","","","","","","","","","","","","",""
"pit-instructions","110","827178","0.0-2.0-23.0-1.0","battery-v0.2","","""event"",""trial"",""time""
""fullscreenenter"",""1"",""1954""
""blur"",""13"",""146293""
""focus"",""13"",""147010""
""blur"",""13"",""149678""
""focus"",""13"",""152738""
","""event"",""trial"",""time""
""blur"",""13"",""146293""
""blur"",""13"",""149678""
","""event"",""trial"",""time""
""focus"",""13"",""147010""
""focus"",""13"",""152738""
","""event"",""trial"",""time""
""fullscreenenter"",""1"",""1954""
","
","","[{""page_index"":0,""viewing_time"":1817.9000000059605}]","1818.1000000089407","","","","","","","","","","","","","","","","","","","","","","","",""
"pit-comprehension","111","834359","0.0-2.0-24.0-0.0","battery-v0.2","","""event"",""trial"",""time""
""fullscreenenter"",""1"",""1954""
""blur"",""13"",""146293""
""focus"",""13"",""147010""
""blur"",""13"",""149678""
""focus"",""13"",""152738""
","""event"",""trial"",""time""
""blur"",""13"",""146293""
""blur"",""13"",""149678""
","""event"",""trial"",""time""
""focus"",""13"",""147010""
""focus"",""13"",""152738""
","""event"",""trial"",""time""
""fullscreenenter"",""1"",""1954""
","
","","","7179","[""True""]","0","20","7271","3856","","","","","","","","","","","","","","","","","","",""
"pit-instructions","112","836196","0.0-2.0-24.0-1.0","battery-v0.2","","""event"",""trial"",""time""
""fullscreenenter"",""1"",""1954""
""blur"",""13"",""146293""
""focus"",""13"",""147010""
""blur"",""13"",""149678""
""focus"",""13"",""152738""
","""event"",""trial"",""time""
""blur"",""13"",""146293""
""blur"",""13"",""149678""
","""event"",""trial"",""time""
""focus"",""13"",""147010""
""focus"",""13"",""152738""
","""event"",""trial"",""time""
""fullscreenenter"",""1"",""1954""
","
","","[{""page_index"":0,""viewing_time"":1797}]","1797.2999999970198","","","","","","","","","","","","","","","","","","","","","","","",""
"pit-comprehension","113","842588","0.0-2.0-25.0-0.0","battery-v0.2","","""event"",""trial"",""time""
""fullscreenenter"",""1"",""1954""
""blur"",""13"",""146293""
""focus"",""13"",""147010""
""blur"",""13"",""149678""
""focus"",""13"",""152738""
","""event"",""trial"",""time""
""blur"",""13"",""146293""
""blur"",""13"",""149678""
","""event"",""trial"",""time""
""focus"",""13"",""147010""
""focus"",""13"",""152738""
","""event"",""trial"",""time""
""fullscreenenter"",""1"",""1954""
","
","","","6390.0999999940395","[""True""]","0","20","7271","3856","","","","","","","","","","","","","","","","","","",""
"pit-instructions","114","844954","0.0-2.0-25.0-1.0","battery-v0.2","","""event"",""trial"",""time""
""fullscreenenter"",""1"",""1954""
""blur"",""13"",""146293""
""focus"",""13"",""147010""
""blur"",""13"",""149678""
""focus"",""13"",""152738""
","""event"",""trial"",""time""
""blur"",""13"",""146293""
""blur"",""13"",""149678""
","""event"",""trial"",""time""
""focus"",""13"",""147010""
""focus"",""13"",""152738""
","""event"",""trial"",""time""
""fullscreenenter"",""1"",""1954""
","
","","[{""page_index"":0,""viewing_time"":2328.1000000089407}]","2328.4000000059605","","","","","","","","","","","","","","","","","","","","","","","",""
"pit-comprehension","115","849291","0.0-2.0-26.0-0.0","battery-v0.2","","""event"",""trial"",""time""
""fullscreenenter"",""1"",""1954""
""blur"",""13"",""146293""
""focus"",""13"",""147010""
""blur"",""13"",""149678""
""focus"",""13"",""152738""
","""event"",""trial"",""time""
""blur"",""13"",""146293""
""blur"",""13"",""149678""
","""event"",""trial"",""time""
""focus"",""13"",""147010""
""focus"",""13"",""152738""
","""event"",""trial"",""time""
""fullscreenenter"",""1"",""1954""
","
","","","4335.70000000298","[""False""]","0","20","7271","3856","","","","","","","","","","","","","","","","","","",""
"pit-instructions","116","851356","0.0-2.0-26.0-1.0","battery-v0.2","","""event"",""trial"",""time""
""fullscreenenter"",""1"",""1954""
""blur"",""13"",""146293""
""focus"",""13"",""147010""
""blur"",""13"",""149678""
""focus"",""13"",""152738""
","""event"",""trial"",""time""
""blur"",""13"",""146293""
""blur"",""13"",""149678""
","""event"",""trial"",""time""
""focus"",""13"",""147010""
""focus"",""13"",""152738""
","""event"",""trial"",""time""
""fullscreenenter"",""1"",""1954""
","
","","[{""page_index"":0,""viewing_time"":2024}]","2024.300000011921","","","","","","","","","","","","","","","","","","","","","","","",""
"pit-instructions","117","867380","0.0-3.0","battery-v0.2","","""event"",""trial"",""time""
""fullscreenenter"",""1"",""1954""
""blur"",""13"",""146293""
""focus"",""13"",""147010""
""blur"",""13"",""149678""
""focus"",""13"",""152738""
","""event"",""trial"",""time""
""blur"",""13"",""146293""
""blur"",""13"",""149678""
","""event"",""trial"",""time""
""focus"",""13"",""147010""
""focus"",""13"",""152738""
","""event"",""trial"",""time""
""fullscreenenter"",""1"",""1954""
","
","","[{""page_index"":0,""viewing_time"":3648.7999999970198},{""page_index"":1,""viewing_time"":6016.399999991059},{""page_index"":2,""viewing_time"":6357.600000008941}]","16023.09999999404","","","","","","","","","","","","","","","","","","","","","","","",""
"pit-trial","118","871221","0.0-4.0","battery-v0.2","","""event"",""trial"",""time""
""fullscreenenter"",""1"",""1954""
""blur"",""13"",""146293""
""focus"",""13"",""147010""
""blur"",""13"",""149678""
""focus"",""13"",""152738""
","""event"",""trial"",""time""
""blur"",""13"",""146293""
""blur"",""13"",""149678""
","""event"",""trial"",""time""
""focus"",""13"",""147010""
""focus"",""13"",""152738""
","""event"",""trial"",""time""
""fullscreenenter"",""1"",""1954""
","
","","","974.2000000029802","","","20","7271","3856","&#9752;","elianto","#f73b6a7A"," "," ","1","0","[1824.5]","1","1","","","7271","1","3","3","lose","go","0"
"pit-trial","119","874886","0.0-5.0","battery-v0.2","","""event"",""trial"",""time""
""fullscreenenter"",""1"",""1954""
""blur"",""13"",""146293""
""focus"",""13"",""147010""
""blur"",""13"",""149678""
""focus"",""13"",""152738""
","""event"",""trial"",""time""
""blur"",""13"",""146293""
""blur"",""13"",""149678""
","""event"",""trial"",""time""
""focus"",""13"",""147010""
""focus"",""13"",""152738""
","""event"",""trial"",""time""
""fullscreenenter"",""1"",""1954""
","
","","","803.1000000089407","","","20","7271","3856","&#9733;","elianto","#3366ff99","-1"," ","0","0","[1656]","1","1","","","7271","2","2","2","win","no-go","0"
"pit-trial","120","878552","0.0-6.0","battery-v0.2","","""event"",""trial"",""time""
""fullscreenenter"",""1"",""1954""
""blur"",""13"",""146293""
""focus"",""13"",""147010""
""blur"",""13"",""149678""
""focus"",""13"",""152738""
","""event"",""trial"",""time""
""blur"",""13"",""146293""
""blur"",""13"",""149678""
","""event"",""trial"",""time""
""focus"",""13"",""147010""
""focus"",""13"",""152738""
","""event"",""trial"",""time""
""fullscreenenter"",""1"",""1954""
","
","","","808.3000000119209","","","20","7271","3856","&#9728;","elianto","#f73b6a7A","-1"," ","0","0","[1658.9000000059605]","1","1","","","7271","3","0","4","lose","no-go","1"
"pit-trial","121","882143","0.0-7.0","battery-v0.2","","""event"",""trial"",""time""
""fullscreenenter"",""1"",""1954""
""blur"",""13"",""146293""
""focus"",""13"",""147010""
""blur"",""13"",""149678""
""focus"",""13"",""152738""
","""event"",""trial"",""time""
""blur"",""13"",""146293""
""blur"",""13"",""149678""
","""event"",""trial"",""time""
""focus"",""13"",""147010""
""focus"",""13"",""152738""
","""event"",""trial"",""time""
""fullscreenenter"",""1"",""1954""
","
","","","728.7000000029802","","","20","7271","3856","&#9730;","elianto","#3366ff99"," "," ","1","+10","[1580.5]","1","1","","","7271","4","1","1","win","go","0"
"pit-trial","122","885629","0.0-8.0","battery-v0.2","","""event"",""trial"",""time""
""fullscreenenter"",""1"",""1954""
""blur"",""13"",""146293""
""focus"",""13"",""147010""
""blur"",""13"",""149678""
""focus"",""13"",""152738""
","""event"",""trial"",""time""
""blur"",""13"",""146293""
""blur"",""13"",""149678""
","""event"",""trial"",""time""
""focus"",""13"",""147010""
""focus"",""13"",""152738""
","""event"",""trial"",""time""
""fullscreenenter"",""1"",""1954""
","
","","","633.7999999970198","","","20","7271","3856","&#9730;","elianto","#3366ff99"," "," ","1","+10","[1484.2999999970198]","1","1","","","7271","5","1","1","win","go","0"
"pit-trial","123","890503","0.0-9.0","battery-v0.2","","""event"",""trial"",""time""
""fullscreenenter"",""1"",""1954""
""blur"",""13"",""146293""
""focus"",""13"",""147010""
""blur"",""13"",""149678""
""focus"",""13"",""152738""
","""event"",""trial"",""time""
""blur"",""13"",""146293""
""blur"",""13"",""149678""
","""event"",""trial"",""time""
""focus"",""13"",""147010""
""focus"",""13"",""152738""
","""event"",""trial"",""time""
""fullscreenenter"",""1"",""1954""
","
","","","-1","","","20","7271","3856","&#9733;","elianto","#3366ff99","-1","-1","1","+10","[]","0","1","","","7271","6","2","2","win","no-go","0"
"pit-trial","124","894083","0.0-10.0","battery-v0.2","","""event"",""trial"",""time""
""fullscreenenter"",""1"",""1954""
""blur"",""13"",""146293""
""focus"",""13"",""147010""
""blur"",""13"",""149678""
""focus"",""13"",""152738""
","""event"",""trial"",""time""
""blur"",""13"",""146293""
""blur"",""13"",""149678""
","""event"",""trial"",""time""
""focus"",""13"",""147010""
""focus"",""13"",""152738""
","""event"",""trial"",""time""
""fullscreenenter"",""1"",""1954""
","
","","","722.0999999940395","","","20","7271","3856","&#9728;","elianto","#f73b6a7A","-1"," ","0","0","[1572.2000000029802]","1","1","","","7271","7","0","4","lose","no-go","1"
"pit-trial","125","897701","0.0-11.0","battery-v0.2","","""event"",""trial"",""time""
""fullscreenenter"",""1"",""1954""
""blur"",""13"",""146293""
""focus"",""13"",""147010""
""blur"",""13"",""149678""
""focus"",""13"",""152738""
","""event"",""trial"",""time""
""blur"",""13"",""146293""
""blur"",""13"",""149678""
","""event"",""trial"",""time""
""focus"",""13"",""147010""
""focus"",""13"",""152738""
","""event"",""trial"",""time""
""fullscreenenter"",""1"",""1954""
","
","","","750.7000000029802","","","20","7271","3856","&#9752;","elianto","#f73b6a7A"," "," ","1","0","[1602.7999999970198]","1","1","","","7271","8","3","3","lose","go","0"
"pit-trial","126","902554","0.0-12.0","battery-v0.2","","""event"",""trial"",""time""
""fullscreenenter"",""1"",""1954""
""blur"",""13"",""146293""
""focus"",""13"",""147010""
""blur"",""13"",""149678""
""focus"",""13"",""152738""
","""event"",""trial"",""time""
""blur"",""13"",""146293""
""blur"",""13"",""149678""
","""event"",""trial"",""time""
""focus"",""13"",""147010""
""focus"",""13"",""152738""
","""event"",""trial"",""time""
""fullscreenenter"",""1"",""1954""
","
","","","-1","","","20","7271","3856","&#9733;","elianto","#3366ff99","-1","-1","1","0","[]","0","1","","","7271","9","2","2","win","no-go","1"
"pit-trial","127","906373","0.0-13.0","battery-v0.2","","""event"",""trial"",""time""
""fullscreenenter"",""1"",""1954""
""blur"",""13"",""146293""
""focus"",""13"",""147010""
""blur"",""13"",""149678""
""focus"",""13"",""152738""
","""event"",""trial"",""time""
""blur"",""13"",""146293""
""blur"",""13"",""149678""
","""event"",""trial"",""time""
""focus"",""13"",""147010""
""focus"",""13"",""152738""
","""event"",""trial"",""time""
""fullscreenenter"",""1"",""1954""
","
","","","966.5","","","20","7271","3856","&#9752;","elianto","#f73b6a7A"," "," ","1","0","[1816.699999988079]","1","1","","","7271","10","3","3","lose","go","0"
"pit-trial","128","909941","0.0-14.0","battery-v0.2","","""event"",""trial"",""time""
""fullscreenenter"",""1"",""1954""
""blur"",""13"",""146293""
""focus"",""13"",""147010""
""blur"",""13"",""149678""
""focus"",""13"",""152738""
","""event"",""trial"",""time""
""blur"",""13"",""146293""
""blur"",""13"",""149678""
","""event"",""trial"",""time""
""focus"",""13"",""147010""
""focus"",""13"",""152738""
","""event"",""trial"",""time""
""fullscreenenter"",""1"",""1954""
","
","","","715.4000000059605","","","20","7271","3856","&#9728;","elianto","#f73b6a7A","-1"," ","0","-10","[1566]","1","1","","","7271","11","0","4","lose","no-go","0"
"pit-trial","129","913460","0.0-15.0","battery-v0.2","","""event"",""trial"",""time""
""fullscreenenter"",""1"",""1954""
""blur"",""13"",""146293""
""focus"",""13"",""147010""
""blur"",""13"",""149678""
""focus"",""13"",""152738""
","""event"",""trial"",""time""
""blur"",""13"",""146293""
""blur"",""13"",""149678""
","""event"",""trial"",""time""
""focus"",""13"",""147010""
""focus"",""13"",""152738""
","""event"",""trial"",""time""
""fullscreenenter"",""1"",""1954""
","
","","","666.1999999880791","","","20","7271","3856","&#9730;","elianto","#3366ff99"," "," ","1","+10","[1517.0999999940395]","1","1","","","7271","12","1","1","win","go","0"
"pit-trial","130","918315","0.0-16.0","battery-v0.2","","""event"",""trial"",""time""
""fullscreenenter"",""1"",""1954""
""blur"",""13"",""146293""
""focus"",""13"",""147010""
""blur"",""13"",""149678""
""focus"",""13"",""152738""
","""event"",""trial"",""time""
""blur"",""13"",""146293""
""blur"",""13"",""149678""
","""event"",""trial"",""time""
""focus"",""13"",""147010""
""focus"",""13"",""152738""
","""event"",""trial"",""time""
""fullscreenenter"",""1"",""1954""
","
","","","-1","","","20","7271","3856","&#9733;","elianto","#3366ff99","-1","-1","1","+10","[]","0","1","","","7271","13","2","2","win","no-go","0"
"pit-trial","131","921920","0.0-17.0","battery-v0.2","","""event"",""trial"",""time""
""fullscreenenter"",""1"",""1954""
""blur"",""13"",""146293""
""focus"",""13"",""147010""
""blur"",""13"",""149678""
""focus"",""13"",""152738""
","""event"",""trial"",""time""
""blur"",""13"",""146293""
""blur"",""13"",""149678""
","""event"",""trial"",""time""
""focus"",""13"",""147010""
""focus"",""13"",""152738""
","""event"",""trial"",""time""
""fullscreenenter"",""1"",""1954""
","
","","","753.6000000089407","","","20","7271","3856","&#9752;","elianto","#f73b6a7A"," "," ","1","0","[1603.7999999970198]","1","1","","","7271","14","3","3","lose","go","0"
"pit-trial","132","926773","0.0-18.0","battery-v0.2","","""event"",""trial"",""time""
""fullscreenenter"",""1"",""1954""
""blur"",""13"",""146293""
""focus"",""13"",""147010""
""blur"",""13"",""149678""
""focus"",""13"",""152738""
","""event"",""trial"",""time""
""blur"",""13"",""146293""
""blur"",""13"",""149678""
","""event"",""trial"",""time""
""focus"",""13"",""147010""
""focus"",""13"",""152738""
","""event"",""trial"",""time""
""fullscreenenter"",""1"",""1954""
","
","","","-1","","","20","7271","3856","&#9728;","elianto","#f73b6a7A","-1","-1","1","0","[]","0","1","","","7271","15","0","4","lose","no-go","0"
"pit-trial","133","930227","0.0-19.0","battery-v0.2","","""event"",""trial"",""time""
""fullscreenenter"",""1"",""1954""
""blur"",""13"",""146293""
""focus"",""13"",""147010""
""blur"",""13"",""149678""
""focus"",""13"",""152738""
","""event"",""trial"",""time""
""blur"",""13"",""146293""
""blur"",""13"",""149678""
","""event"",""trial"",""time""
""focus"",""13"",""147010""
""focus"",""13"",""152738""
","""event"",""trial"",""time""
""fullscreenenter"",""1"",""1954""
","
","","","602.2000000029802","","","20","7271","3856","&#9730;","elianto","#3366ff99"," "," ","1","+10","[1453.1000000089407]","1","1","","","7271","16","1","1","win","go","0"
"pit-trial","134","935081","0.0-20.0","battery-v0.2","","""event"",""trial"",""time""
""fullscreenenter"",""1"",""1954""
""blur"",""13"",""146293""
""focus"",""13"",""147010""
""blur"",""13"",""149678""
""focus"",""13"",""152738""
","""event"",""trial"",""time""
""blur"",""13"",""146293""
""blur"",""13"",""149678""
","""event"",""trial"",""time""
""focus"",""13"",""147010""
""focus"",""13"",""152738""
","""event"",""trial"",""time""
""fullscreenenter"",""1"",""1954""
","
","","","-1","","","20","7271","3856","&#9733;","elianto","#3366ff99","-1","-1","1","+10","[]","0","1","","","7271","17","2","2","win","no-go","0"
"pit-trial","135","939158","0.0-21.0","battery-v0.2","","""event"",""trial"",""time""
""fullscreenenter"",""1"",""1954""
""blur"",""13"",""146293""
""focus"",""13"",""147010""
""blur"",""13"",""149678""
""focus"",""13"",""152738""
","""event"",""trial"",""time""
""blur"",""13"",""146293""
""blur"",""13"",""149678""
","""event"",""trial"",""time""
""focus"",""13"",""147010""
""focus"",""13"",""152738""
","""event"",""trial"",""time""
""fullscreenenter"",""1"",""1954""
","
","","","1224.4000000059605","","","20","7271","3856","&#9752;","elianto","#f73b6a7A"," "," ","1","0","[2075]","1","1","","","7271","18","3","3","lose","go","0"
"pit-trial","136","942697","0.0-22.0","battery-v0.2","","""event"",""trial"",""time""
""fullscreenenter"",""1"",""1954""
""blur"",""13"",""146293""
""focus"",""13"",""147010""
""blur"",""13"",""149678""
""focus"",""13"",""152738""
","""event"",""trial"",""time""
""blur"",""13"",""146293""
""blur"",""13"",""149678""
","""event"",""trial"",""time""
""focus"",""13"",""147010""
""focus"",""13"",""152738""
","""event"",""trial"",""time""
""fullscreenenter"",""1"",""1954""
","
","","","686.6000000089407","","","20","7271","3856","&#9730;","elianto","#3366ff99"," "," ","1","+10","[1536.6000000089407]","1","1","","","7271","19","1","1","win","go","0"
"pit-trial","137","947554","0.0-23.0","battery-v0.2","","""event"",""trial"",""time""
""fullscreenenter"",""1"",""1954""
""blur"",""13"",""146293""
""focus"",""13"",""147010""
""blur"",""13"",""149678""
""focus"",""13"",""152738""
","""event"",""trial"",""time""
""blur"",""13"",""146293""
""blur"",""13"",""149678""
","""event"",""trial"",""time""
""focus"",""13"",""147010""
""focus"",""13"",""152738""
","""event"",""trial"",""time""
""fullscreenenter"",""1"",""1954""
","
","","","-1","","","20","7271","3856","&#9728;","elianto","#f73b6a7A","-1","-1","1","-10","[]","0","1","","","7271","20","0","4","lose","no-go","1"
"pit-instructions","138","960120","0.0-24.0","battery-v0.2","","""event"",""trial"",""time""
""fullscreenenter"",""1"",""1954""
""blur"",""13"",""146293""
""focus"",""13"",""147010""
""blur"",""13"",""149678""
""focus"",""13"",""152738""
","""event"",""trial"",""time""
""blur"",""13"",""146293""
""blur"",""13"",""149678""
","""event"",""trial"",""time""
""focus"",""13"",""147010""
""focus"",""13"",""152738""
","""event"",""trial"",""time""
""fullscreenenter"",""1"",""1954""
","
","","[{""page_index"":0,""viewing_time"":6373.699999988079},{""page_index"":1,""viewing_time"":6191.4000000059605}]","12565.29999999702","","","","","","","","","","","","","","","","","","","","","","","",""
"pit-trial","139","963445","0.0-25.0","battery-v0.2","","""event"",""trial"",""time""
""fullscreenenter"",""1"",""1954""
""blur"",""13"",""146293""
""focus"",""13"",""147010""
""blur"",""13"",""149678""
""focus"",""13"",""152738""
","""event"",""trial"",""time""
""blur"",""13"",""146293""
""blur"",""13"",""149678""
","""event"",""trial"",""time""
""focus"",""13"",""147010""
""focus"",""13"",""152738""
","""event"",""trial"",""time""
""fullscreenenter"",""1"",""1954""
","
","","","470.29999999701977","","","20","7271","3856","u","elianto","#f73b6a7A","-1"," ","0","-10","[1320.5]","1","2","","","7271","21","0","4","lose","no-go","0"
"pit-trial","140","967660","0.0-26.0","battery-v0.2","","""event"",""trial"",""time""
""fullscreenenter"",""1"",""1954""
""blur"",""13"",""146293""
""focus"",""13"",""147010""
""blur"",""13"",""149678""
""focus"",""13"",""152738""
","""event"",""trial"",""time""
""blur"",""13"",""146293""
""blur"",""13"",""149678""
","""event"",""trial"",""time""
""focus"",""13"",""147010""
""focus"",""13"",""152738""
","""event"",""trial"",""time""
""fullscreenenter"",""1"",""1954""
","
","","","1343.9000000059605","","","20","7271","3856","a","elianto","#f73b6a7A","-1"," ","0","-10","[2201.0999999940395]","1","2","","","7271","22","2","4","lose","no-go","0"
"pit-trial","141","971433","0.0-27.0","battery-v0.2","","""event"",""trial"",""time""
""fullscreenenter"",""1"",""1954""
""blur"",""13"",""146293""
""focus"",""13"",""147010""
""blur"",""13"",""149678""
""focus"",""13"",""152738""
","""event"",""trial"",""time""
""blur"",""13"",""146293""
""blur"",""13"",""149678""
","""event"",""trial"",""time""
""focus"",""13"",""147010""
""focus"",""13"",""152738""
","""event"",""trial"",""time""
""fullscreenenter"",""1"",""1954""
","
","","","917.7000000029802","","","20","7271","3856","l","elianto","#3366ff99"," "," ","1","+10","[1769.1000000089407]","1","2","","","7271","23","1","1","win","go","0"
"pit-trial","142","976302","0.0-28.0","battery-v0.2","","""event"",""trial"",""time""
""fullscreenenter"",""1"",""1954""
""blur"",""13"",""146293""
""focus"",""13"",""147010""
""blur"",""13"",""149678""
""focus"",""13"",""152738""
","""event"",""trial"",""time""
""blur"",""13"",""146293""
""blur"",""13"",""149678""
","""event"",""trial"",""time""
""focus"",""13"",""147010""
""focus"",""13"",""152738""
","""event"",""trial"",""time""
""fullscreenenter"",""1"",""1954""
","
","","","-1","","","20","7271","3856","g","elianto","#f73b6a7A"," ","-1","0","-10","[]","0","2","","","7271","24","3","3","lose","go","0"
"pit-trial","143","979731","0.0-29.0","battery-v0.2","","""event"",""trial"",""time""
""fullscreenenter"",""1"",""1954""
""blur"",""13"",""146293""
""focus"",""13"",""147010""
""blur"",""13"",""149678""
""focus"",""13"",""152738""
","""event"",""trial"",""time""
""blur"",""13"",""146293""
""blur"",""13"",""149678""
","""event"",""trial"",""time""
""focus"",""13"",""147010""
""focus"",""13"",""152738""
","""event"",""trial"",""time""
""fullscreenenter"",""1"",""1954""
","
","","","567.0999999940395","","","20","7271","3856","l","elianto","#3366ff99"," "," ","1","+10","[1419.4000000059605]","1","2","","","7271","25","1","1","win","go","0"
"pit-trial","144","984588","0.0-30.0","battery-v0.2","","""event"",""trial"",""time""
""fullscreenenter"",""1"",""1954""
""blur"",""13"",""146293""
""focus"",""13"",""147010""
""blur"",""13"",""149678""
""focus"",""13"",""152738""
","""event"",""trial"",""time""
""blur"",""13"",""146293""
""blur"",""13"",""149678""
","""event"",""trial"",""time""
""focus"",""13"",""147010""
""focus"",""13"",""152738""
","""event"",""trial"",""time""
""fullscreenenter"",""1"",""1954""
","
","","","-1","","","20","7271","3856","a","elianto","#f73b6a7A","-1","-1","1","0","[]","0","2","","","7271","26","2","4","lose","no-go","0"
"pit-trial","145","989450","0.0-31.0","battery-v0.2","","""event"",""trial"",""time""
""fullscreenenter"",""1"",""1954""
""blur"",""13"",""146293""
""focus"",""13"",""147010""
""blur"",""13"",""149678""
""focus"",""13"",""152738""
","""event"",""trial"",""time""
""blur"",""13"",""146293""
""blur"",""13"",""149678""
","""event"",""trial"",""time""
""focus"",""13"",""147010""
""focus"",""13"",""152738""
","""event"",""trial"",""time""
""fullscreenenter"",""1"",""1954""
","
","","","-1","","","20","7271","3856","g","elianto","#f73b6a7A"," ","-1","0","-10","[]","0","2","","","7271","27","3","3","lose","go","0"
"pit-trial","146","994303","0.0-32.0","battery-v0.2","","""event"",""trial"",""time""
""fullscreenenter"",""1"",""1954""
""blur"",""13"",""146293""
""focus"",""13"",""147010""
""blur"",""13"",""149678""
""focus"",""13"",""152738""
","""event"",""trial"",""time""
""blur"",""13"",""146293""
""blur"",""13"",""149678""
","""event"",""trial"",""time""
""focus"",""13"",""147010""
""focus"",""13"",""152738""
","""event"",""trial"",""time""
""fullscreenenter"",""1"",""1954""
","
","","","-1","","","20","7271","3856","u","elianto","#f73b6a7A","-1","-1","1","0","[]","0","2","","","7271","28","0","4","lose","no-go","0"
"pit-trial","147","997781","0.0-33.0","battery-v0.2","","""event"",""trial"",""time""
""fullscreenenter"",""1"",""1954""
""blur"",""13"",""146293""
""focus"",""13"",""147010""
""blur"",""13"",""149678""
""focus"",""13"",""152738""
","""event"",""trial"",""time""
""blur"",""13"",""146293""
""blur"",""13"",""149678""
","""event"",""trial"",""time""
""focus"",""13"",""147010""
""focus"",""13"",""152738""
","""event"",""trial"",""time""
""fullscreenenter"",""1"",""1954""
","
","","","624.1000000089407","","","20","7271","3856","g","elianto","#f73b6a7A"," "," ","1","0","[1475.1000000089407]","1","2","","","7271","29","3","3","lose","go","0"
"pit-trial","148","1001028","0.0-34.0","battery-v0.2","","""event"",""trial"",""time""
""fullscreenenter"",""1"",""1954""
""blur"",""13"",""146293""
""focus"",""13"",""147010""
""blur"",""13"",""149678""
""focus"",""13"",""152738""
","""event"",""trial"",""time""
""blur"",""13"",""146293""
""blur"",""13"",""149678""
","""event"",""trial"",""time""
""focus"",""13"",""147010""
""focus"",""13"",""152738""
","""event"",""trial"",""time""
""fullscreenenter"",""1"",""1954""
","
","","","393.20000000298023","","","20","7271","3856","l","elianto","#3366ff99"," "," ","1","+10","[1243.8999999910593]","1","2","","","7271","30","1","1","win","go","0"
"pit-trial","149","1005882","0.0-35.0","battery-v0.2","","""event"",""trial"",""time""
""fullscreenenter"",""1"",""1954""
""blur"",""13"",""146293""
""focus"",""13"",""147010""
""blur"",""13"",""149678""
""focus"",""13"",""152738""
","""event"",""trial"",""time""
""blur"",""13"",""146293""
""blur"",""13"",""149678""
","""event"",""trial"",""time""
""focus"",""13"",""147010""
""focus"",""13"",""152738""
","""event"",""trial"",""time""
""fullscreenenter"",""1"",""1954""
","
","","","-1","","","20","7271","3856","a","elianto","#f73b6a7A","-1","-1","1","0","[]","0","2","","","7271","31","2","4","lose","no-go","0"
"pit-trial","150","1010735","0.0-36.0","battery-v0.2","","""event"",""trial"",""time""
""fullscreenenter"",""1"",""1954""
""blur"",""13"",""146293""
""focus"",""13"",""147010""
""blur"",""13"",""149678""
""focus"",""13"",""152738""
","""event"",""trial"",""time""
""blur"",""13"",""146293""
""blur"",""13"",""149678""
","""event"",""trial"",""time""
""focus"",""13"",""147010""
""focus"",""13"",""152738""
","""event"",""trial"",""time""
""fullscreenenter"",""1"",""1954""
","
","","","-1","","","20","7271","3856","u","elianto","#f73b6a7A","-1","-1","1","0","[]","0","2","","","7271","32","0","4","lose","no-go","0"
"pit-trial","151","1014234","0.0-37.0","battery-v0.2","","""event"",""trial"",""time""
""fullscreenenter"",""1"",""1954""
""blur"",""13"",""146293""
""focus"",""13"",""147010""
""blur"",""13"",""149678""
""focus"",""13"",""152738""
","""event"",""trial"",""time""
""blur"",""13"",""146293""
""blur"",""13"",""149678""
","""event"",""trial"",""time""
""focus"",""13"",""147010""
""focus"",""13"",""152738""
","""event"",""trial"",""time""
""fullscreenenter"",""1"",""1954""
","
","","","646.4000000059605","","","20","7271","3856","l","elianto","#3366ff99"," "," ","1","0","[1496.2999999970198]","1","2","","","7271","33","1","1","win","go","1"
"pit-trial","152","1017706","0.0-38.0","battery-v0.2","","""event"",""trial"",""time""
""fullscreenenter"",""1"",""1954""
""blur"",""13"",""146293""
""focus"",""13"",""147010""
""blur"",""13"",""149678""
""focus"",""13"",""152738""
","""event"",""trial"",""time""
""blur"",""13"",""146293""
""blur"",""13"",""149678""
","""event"",""trial"",""time""
""focus"",""13"",""147010""
""focus"",""13"",""152738""
","""event"",""trial"",""time""
""fullscreenenter"",""1"",""1954""
","
","","","620","","","20","7271","3856","g","elianto","#f73b6a7A"," "," ","1","0","[1470]","1","2","","","7271","34","3","3","lose","go","0"
"pit-trial","153","1022559","0.0-39.0","battery-v0.2","","""event"",""trial"",""time""
""fullscreenenter"",""1"",""1954""
""blur"",""13"",""146293""
""focus"",""13"",""147010""
""blur"",""13"",""149678""
""focus"",""13"",""152738""
","""event"",""trial"",""time""
""blur"",""13"",""146293""
""blur"",""13"",""149678""
","""event"",""trial"",""time""
""focus"",""13"",""147010""
""focus"",""13"",""152738""
","""event"",""trial"",""time""
""fullscreenenter"",""1"",""1954""
","
","","","-1","","","20","7271","3856","u","elianto","#f73b6a7A","-1","-1","1","0","[]","0","2","","","7271","35","0","4","lose","no-go","0"
"pit-trial","154","1027412","0.0-40.0","battery-v0.2","","""event"",""trial"",""time""
""fullscreenenter"",""1"",""1954""
""blur"",""13"",""146293""
""focus"",""13"",""147010""
""blur"",""13"",""149678""
""focus"",""13"",""152738""
","""event"",""trial"",""time""
""blur"",""13"",""146293""
""blur"",""13"",""149678""
","""event"",""trial"",""time""
""focus"",""13"",""147010""
""focus"",""13"",""152738""
","""event"",""trial"",""time""
""fullscreenenter"",""1"",""1954""
","
","","","-1","","","20","7271","3856","a","elianto","#f73b6a7A","-1","-1","1","0","[]","0","2","","","7271","36","2","4","lose","no-go","0"
"pit-trial","155","1030969","0.0-41.0","battery-v0.2","","""event"",""trial"",""time""
""fullscreenenter"",""1"",""1954""
""blur"",""13"",""146293""
""focus"",""13"",""147010""
""blur"",""13"",""149678""
""focus"",""13"",""152738""
","""event"",""trial"",""time""
""blur"",""13"",""146293""
""blur"",""13"",""149678""
","""event"",""trial"",""time""
""focus"",""13"",""147010""
""focus"",""13"",""152738""
","""event"",""trial"",""time""
""fullscreenenter"",""1"",""1954""
","
