"trial_type","trial_index","time_elapsed","internal_node_id","task_version","subject_id","interactions","blur_events","focus_events","fullscreenenter_events","fullscreenexit_events","success","view_history","rt","responses","num_errors","age","subject","participantId","rune","rune_set","hex","correct","choice","accuracy","outcome","keys","total_keys","block","practice","value","sub","trial","stimulus","robot","valence","action","sham"
"pavlovia","0","10","0.0-0.0","battery-v0.2","","""event"",""trial"",""time""
""fullscreenenter"",""1"",""1480""
","
","
","""event"",""trial"",""time""
""fullscreenenter"",""1"",""1480""
","
","","","","","","","","","","","","","","","","","","","","","","","","","","",""
"fullscreen","1","2464","0.0-1.0","battery-v0.2","","""event"",""trial"",""time""
""fullscreenenter"",""1"",""1480""
","
","
","""event"",""trial"",""time""
""fullscreenenter"",""1"",""1480""
","
","true","","","","","","","","","","","","","","","","","","","","","","","","","",""
"pit-instructions","2","9444","0.0-2.0-0.0","battery-v0.2","","""event"",""trial"",""time""
""fullscreenenter"",""1"",""1480""
","
","
","""event"",""trial"",""time""
""fullscreenenter"",""1"",""1480""
","
","","[{""page_index"":0,""viewing_time"":6976.200000047684}]","6976.5","","","","","","","","","","","","","","","","","","","","","","","",""
"pit-comprehension","3","14564","0.0-2.0-1.0-0.0","battery-v0.2","","""event"",""trial"",""time""
""fullscreenenter"",""1"",""1480""
","
","
","""event"",""trial"",""time""
""fullscreenenter"",""1"",""1480""
","
","","","5117.200000047684","[""shark""]","0","12","4328","1338","","","","","","","","","","","","","","","","","","",""
"pit-instructions","4","19619","0.0-2.0-1.0-1.0","battery-v0.2","","""event"",""trial"",""time""
""fullscreenenter"",""1"",""1480""
","
","
","""event"",""trial"",""time""
""fullscreenenter"",""1"",""1480""
","
","","[{""page_index"":0,""viewing_time"":5011.200000047684}]","5011.5","","","","","","","","","","","","","","","","","","","","","","","",""
"pit-comprehension","5","22532","0.0-2.0-2.0-0.0","battery-v0.2","","""event"",""trial"",""time""
""fullscreenenter"",""1"",""1480""
","
","
","""event"",""trial"",""time""
""fullscreenenter"",""1"",""1480""
","
","","","2908.7999999523163","[""tiger""]","0","12","4328","1338","","","","","","","","","","","","","","","","","","",""
"pit-instructions","6","23612","0.0-2.0-2.0-1.0","battery-v0.2","","""event"",""trial"",""time""
""fullscreenenter"",""1"",""1480""
","
","
","""event"",""trial"",""time""
""fullscreenenter"",""1"",""1480""
","
","","[{""page_index"":0,""viewing_time"":1077}]","1077.2999999523163","","","","","","","","","","","","","","","","","","","","","","","",""
"pit-instructions","7","127624","0.0-2.0-3.0","battery-v0.2","","""event"",""trial"",""time""
""fullscreenenter"",""1"",""1480""
","
","
","""event"",""trial"",""time""
""fullscreenenter"",""1"",""1480""
","
","","[{""page_index"":0,""viewing_time"":17261.200000047684},{""page_index"":1,""viewing_time"":5192},{""page_index"":2,""viewing_time"":6047.799999952316},{""page_index"":3,""viewing_time"":5208.200000047684},{""page_index"":4,""viewing_time"":5647.900000095367},{""page_index"":5,""viewing_time"":6799.899999856949},{""page_index"":6,""viewing_time"":8440.100000143051},{""page_index"":7,""viewing_time"":9984},{""page_index"":8,""viewing_time"":7448},{""page_index"":9,""viewing_time"":5664},{""page_index"":10,""viewing_time"":7215.899999856949},{""page_index"":11,""viewing_time"":8048},{""page_index"":12,""viewing_time"":6328.200000047684},{""page_index"":13,""viewing_time"":4728}]","104014","","","","","","","","","","","","","","","","","","","","","","","",""
"pit-trial","8","130783","0.0-2.0-4.0-0.0","battery-v0.2","","""event"",""trial"",""time""
""fullscreenenter"",""1"",""1480""
","
","
","""event"",""trial"",""time""
""fullscreenenter"",""1"",""1480""
","
","","","284.89999985694885","","","12","4328","1338","&#9784;","elianto","#FFFFF080"," "," ","1","&#10004","[1148.3999998569489]","1","0","0","","","","","","","",""
"pit-trial","9","134100","0.0-2.0-4.1-0.1","battery-v0.2","","""event"",""trial"",""time""
""fullscreenenter"",""1"",""1480""
","
","
","""event"",""trial"",""time""
""fullscreenenter"",""1"",""1480""
","
","","","448.7999999523163","","","12","4328","1338","&#9784;","elianto","#FFFFF080"," "," ","1","&#10004","[1301.7000000476837]","1","0","0","","","","","","","",""
"pit-trial","10","137074","0.0-2.0-4.2-0.2","battery-v0.2","","""event"",""trial"",""time""
""fullscreenenter"",""1"",""1480""
","
","
","""event"",""trial"",""time""
""fullscreenenter"",""1"",""1480""
","
","","","90.20000004768372","","","12","4328","1338","&#9784;","elianto","#FFFFF080"," "," ","1","&#10004","[945.3999998569489,1521,1625.0999999046326,2049,2385.0999999046326,2553.399999856949,2689.199999809265]","7","0","0","","","","","","","",""
"pit-trial","11","140114","0.0-2.0-4.3-0.3","battery-v0.2","","""event"",""trial"",""time""
""fullscreenenter"",""1"",""1480""
","
","
","""event"",""trial"",""time""
""fullscreenenter"",""1"",""1480""
","
","","","176.59999990463257","","","12","4328","1338","&#9784;","elianto","#FFFFF080"," "," ","1","&#10004","[19.40000009536743,146.90000009536743,323.10000014305115,467.5,779,1026.7000000476837,1282.9000000953674,1939.3000001907349,2794.9000000953674,2874.7000000476837]","10","0","0","","","","","","","",""
"pit-trial","12","143030","0.0-2.0-4.4-0.4","battery-v0.2","","""event"",""trial"",""time""
""fullscreenenter"",""1"",""1480""
","
","
","""event"",""trial"",""time""
""fullscreenenter"",""1"",""1480""
","
","","","56.799999952316284","","","12","4328","1338","&#9784;","elianto","#FFFFF080"," "," ","1","&#10004","[44,355,451,635.0999999046326,907,1179,1515.1999998092651,2035,2163.0999999046326,2323.199999809265,2435]","11","0","0","","","","","","","",""
"pit-instructions","13","166787","0.0-2.0-5.0","battery-v0.2","","""event"",""trial"",""time""
""fullscreenenter"",""1"",""1480""
","
","
","""event"",""trial"",""time""
""fullscreenenter"",""1"",""1480""
","
","","[{""page_index"":0,""viewing_time"":6622.400000095367},{""page_index"":1,""viewing_time"":6655.799999952316},{""page_index"":2,""viewing_time"":5416.200000047684},{""page_index"":3,""viewing_time"":5055.899999856949}]","23750.599999904633","","","","","","","","","","","","","","","","","","","","","","","",""
"pit-trial","14","171669","0.0-2.0-6.0-0.0","battery-v0.2","","""event"",""trial"",""time""
""fullscreenenter"",""1"",""1480""
","
","
","""event"",""trial"",""time""
""fullscreenenter"",""1"",""1480""
","
","","","-1","","","12","4328","1338","&#9854;","elianto","#FFFFF080","-1","-1","1","&#10004","[]","0","0","1","","","","","","","",""
"pit-trial","15","176539","0.0-2.0-6.1-0.1","battery-v0.2","","""event"",""trial"",""time""
""fullscreenenter"",""1"",""1480""
","
","
","""event"",""trial"",""time""
""fullscreenenter"",""1"",""1480""
","
","","","-1","","","12","4328","1338","&#9854;","elianto","#FFFFF080","-1","-1","1","&#10004","[]","0","0","1","","","","","","","",""
"pit-trial","16","181429","0.0-2.0-6.2-0.2","battery-v0.2","","""event"",""trial"",""time""
""fullscreenenter"",""1"",""1480""
","
","
","""event"",""trial"",""time""
""fullscreenenter"",""1"",""1480""
","
","","","-1","","","12","4328","1338","&#9854;","elianto","#FFFFF080","-1","-1","1","&#10004","[]","0","0","1","","","","","","","",""
"pit-trial","17","186319","0.0-2.0-6.3-0.3","battery-v0.2","","""event"",""trial"",""time""
""fullscreenenter"",""1"",""1480""
","
","
","""event"",""trial"",""time""
""fullscreenenter"",""1"",""1480""
","
","","","-1","","","12","4328","1338","&#9854;","elianto","#FFFFF080","-1","-1","1","&#10004","[]","0","0","1","","","","","","","",""
"pit-trial","18","191179","0.0-2.0-6.4-0.4","battery-v0.2","","""event"",""trial"",""time""
""fullscreenenter"",""1"",""1480""
""fullscreenexit"",""19"",""332861""
","
","
","""event"",""trial"",""time""
""fullscreenenter"",""1"",""1480""
","""event"",""trial"",""time""
""fullscreenexit"",""19"",""332861""
","","","-1","","","12","4328","1338","&#9854;","elianto","#FFFFF080","-1","-1","1","&#10004","[]","0","0","1","","","","","","","",""
"pit-instructions","19","350278","0.0-2.0-7.0","battery-v0.2","","""event"",""trial"",""time""
""fullscreenenter"",""1"",""1480""
""fullscreenexit"",""19"",""332861""
","
","
","""event"",""trial"",""time""
""fullscreenenter"",""1"",""1480""
","""event"",""trial"",""time""
""fullscreenexit"",""19"",""332861""
","","[{""page_index"":0,""viewing_time"":5668.5},{""page_index"":1,""viewing_time"":12496.100000143051},{""page_index"":2,""viewing_time"":7839.799999952316},{""page_index"":3,""viewing_time"":6920},{""page_index"":4,""viewing_time"":5448.099999904633},{""page_index"":5,""viewing_time"":6744},{""page_index"":6,""viewing_time"":6328.100000143051},{""page_index"":7,""viewing_time"":29599.89999985695},{""page_index"":8,""viewing_time"":9223.900000095367},{""page_index"":9,""viewing_time"":7248.099999904633},{""page_index"":10,""viewing_time"":7424},{""page_index"":11,""viewing_time"":8360},{""page_index"":12,""viewing_time"":8231.900000095367},{""page_index"":13,""viewing_time"":7400.200000047684},{""page_index"":14,""viewing_time"":7472},{""page_index"":15,""viewing_time"":9191.799999952316},{""page_index"":16,""viewing_time"":7247.799999952316},{""page_index"":17,""viewing_time"":6256.099999904633}]","159100.60000014305","","","","","","","","","","","","","","","","","","","","","","","",""
"pit-trial","20","353822","0.0-2.0-8.0-0.0","battery-v0.2","","""event"",""trial"",""time""
""fullscreenenter"",""1"",""1480""
""fullscreenexit"",""19"",""332861""
","
","
","""event"",""trial"",""time""
""fullscreenenter"",""1"",""1480""
","""event"",""trial"",""time""
""fullscreenexit"",""19"",""332861""
","","","672.7000000476837","","","12","4328","1338","&#9776;","elianto","#3366ff99"," "," ","1","+10","[1527.7999999523163]","1","0","1","","","","","","","",""
"pit-trial","21","357154","0.0-2.0-8.0-1.0","battery-v0.2","","""event"",""trial"",""time""
""fullscreenenter"",""1"",""1480""
""fullscreenexit"",""19"",""332861""
","
","
","""event"",""trial"",""time""
""fullscreenenter"",""1"",""1480""
","""event"",""trial"",""time""
""fullscreenexit"",""19"",""332861""
","","","452.39999985694885","","","12","4328","1338","&#9776;","elianto","#3366ff99"," "," ","1","+10","[1303.5]","1","0","1","","","","","","","",""
"pit-trial","22","360484","0.0-2.0-8.0-2.0","battery-v0.2","","""event"",""trial"",""time""
""fullscreenenter"",""1"",""1480""
""fullscreenexit"",""19"",""332861""
","
","
","""event"",""trial"",""time""
""fullscreenenter"",""1"",""1480""
","""event"",""trial"",""time""
""fullscreenexit"",""19"",""332861""
","","","464.90000009536743","","","12","4328","1338","&#9776;","elianto","#3366ff99"," "," ","1","+10","[1315.4000000953674]","1","0","1","","","","","","","",""
"pit-trial","23","363634","0.0-2.0-8.0-3.0","battery-v0.2","","""event"",""trial"",""time""
""fullscreenenter"",""1"",""1480""
""fullscreenexit"",""19"",""332861""
","
","
","""event"",""trial"",""time""
""fullscreenenter"",""1"",""1480""
","""event"",""trial"",""time""
""fullscreenexit"",""19"",""332861""
","","","267.5","","","12","4328","1338","&#9776;","elianto","#3366ff99"," "," ","1","0","[1121.6999998092651]","1","0","1","","","","","","","",""
"pit-trial","24","366684","0.0-2.0-8.0-4.0","battery-v0.2","","""event"",""trial"",""time""
""fullscreenenter"",""1"",""1480""
""fullscreenexit"",""19"",""332861""
","
","
","""event"",""trial"",""time""
""fullscreenenter"",""1"",""1480""
","""event"",""trial"",""time""
""fullscreenexit"",""19"",""332861""
","","","175.90000009536743","","","12","4328","1338","&#9776;","elianto","#3366ff99"," "," ","1","+10","[1027.1000001430511]","1","0","1","","","","","","","",""
"pit-trial","25","369934","0.0-2.0-8.1-0.1","battery-v0.2","","""event"",""trial"",""time""
""fullscreenenter"",""1"",""1480""
""fullscreenexit"",""19"",""332861""
","
","
","""event"",""trial"",""time""
""fullscreenenter"",""1"",""1480""
","""event"",""trial"",""time""
""fullscreenexit"",""19"",""332861""
","","","371.09999990463257","","","12","4328","1338","&#9776;","elianto","#3366ff99"," "," ","1","+10","[1224.4000000953674]","1","0","1","","","","","","","",""
"pit-trial","26","373154","0.0-2.0-8.1-1.1","battery-v0.2","","""event"",""trial"",""time""
""fullscreenenter"",""1"",""1480""
""fullscreenexit"",""19"",""332861""
","
","
","""event"",""trial"",""time""
""fullscreenenter"",""1"",""1480""
","""event"",""trial"",""time""
""fullscreenexit"",""19"",""332861""
","","","352.7000000476837","","","12","4328","1338","&#9776;","elianto","#3366ff99"," "," ","1","+10","[1207.6000001430511]","1","0","1","","","","","","","",""
"pit-trial","27","377224","0.0-2.0-8.1-2.1","battery-v0.2","","""event"",""trial"",""time""
""fullscreenenter"",""1"",""1480""
""fullscreenexit"",""19"",""332861""
","
","
","""event"",""trial"",""time""
""fullscreenenter"",""1"",""1480""
","""event"",""trial"",""time""
""fullscreenexit"",""19"",""332861""
","","","1192.5999999046326","","","12","4328","1338","&#9776;","elianto","#3366ff99"," "," ","1","+10","[2044.0999999046326]","1","0","1","","","","","","","",""
"pit-trial","28","380264","0.0-2.0-8.1-3.1","battery-v0.2","","""event"",""trial"",""time""
""fullscreenenter"",""1"",""1480""
""fullscreenexit"",""19"",""332861""
","
","
","""event"",""trial"",""time""
""fullscreenenter"",""1"",""1480""
","""event"",""trial"",""time""
""fullscreenexit"",""19"",""332861""
","","","178.5","","","12","4328","1338","&#9776;","elianto","#3366ff99"," "," ","1","0","[581.5999999046326,1029.5,1333.7999999523163,1701.5,2005.5999999046326,2317.399999856949,2637.5,2957.399999856949]","8","0","1","","","","","","","",""
"pit-trial","29","383423","0.0-2.0-8.1-4.1","battery-v0.2","","""event"",""trial"",""time""
""fullscreenenter"",""1"",""1480""
""fullscreenexit"",""19"",""332861""
","
","
","""event"",""trial"",""time""
""fullscreenenter"",""1"",""1480""
","""event"",""trial"",""time""
""fullscreenexit"",""19"",""332861""
","","","295.7999999523163","","","12","4328","1338","&#9776;","elianto","#3366ff99"," "," ","1","+10","[221.59999990463257,495.5,821.6999998092651,1149.5999999046326,1477.3999998569489,1845.5,2157.5,2453.5999999046326,2733.7999999523163,3061.5999999046326]","10","0","1","","","","","","","",""
"pit-trial","30","386366","0.0-2.0-8.2-0.2","battery-v0.2","","""event"",""trial"",""time""
""fullscreenenter"",""1"",""1480""
""fullscreenexit"",""19"",""332861""
","
","
","""event"",""trial"",""time""
""fullscreenenter"",""1"",""1480""
","""event"",""trial"",""time""
""fullscreenexit"",""19"",""332861""
","","","88.09999990463257","","","12","4328","1338","&#9776;","elianto","#3366ff99"," "," ","1","+10","[230.60000014305115,606.7999999523163,938.2000000476837,1294.6000001430511,1622.6000001430511,1966.7999999523163,2318.5,2702.5]","8","0","1","","","","","","","",""
"pit-trial","31","389279","0.0-2.0-8.2-1.2","battery-v0.2","","""event"",""trial"",""time""
""fullscreenenter"",""1"",""1480""
""fullscreenexit"",""19"",""332861""
","
","
","""event"",""trial"",""time""
""fullscreenenter"",""1"",""1480""
","""event"",""trial"",""time""
""fullscreenexit"",""19"",""332861""
","","","48.5","","","12","4328","1338","&#9776;","elianto","#3366ff99"," "," ","1","+10","[280.2000000476837,567.2000000476837,903.5,1287.3000001907349,1647.4000000953674,1951.6000001430511,2319.600000143051,2687.7000000476837]","8","0","1","","","","","","","",""
"pit-trial","32","392967","0.0-2.0-8.2-2.2","battery-v0.2","","""event"",""trial"",""time""
""fullscreenenter"",""1"",""1480""
""fullscreenexit"",""19"",""332861""
","
","
","""event"",""trial"",""time""
""fullscreenenter"",""1"",""1480""
","""event"",""trial"",""time""
""fullscreenexit"",""19"",""332861""
","","","823.9000000953674","","","12","4328","1338","&#9776;","elianto","#3366ff99"," "," ","1","+10","[183.5,471.2000000476837,735.6000001430511,1679.1000001430511,1863.4000000953674,2047.2000000476837,2327.100000143051,2703.2000000476837,2879.2000000476837,3007.100000143051,3295.5]","11","0","1","","","","","","","",""
"pit-trial","33","396438","0.0-2.0-8.2-3.2","battery-v0.2","","""event"",""trial"",""time""
""fullscreenenter"",""1"",""1480""
""fullscreenexit"",""19"",""332861""
","
","
","""event"",""trial"",""time""
""fullscreenenter"",""1"",""1480""
","""event"",""trial"",""time""
""fullscreenexit"",""19"",""332861""
","","","600.2999999523163","","","12","4328","1338","&#9776;","elianto","#3366ff99"," "," ","1","0","[238.90000009536743,447.40000009536743,1454.9000000953674,2174.7000000476837,2342.7999999523163,2527.4000000953674,2782.9000000953674,2990.9000000953674,3055.0999999046326,3382.9000000953674]","10","0","1","","","","","","","",""
"pit-trial","34","399407","0.0-2.0-8.2-4.2","battery-v0.2","","""event"",""trial"",""time""
""fullscreenenter"",""1"",""1480""
""fullscreenexit"",""19"",""332861""
","
","
","""event"",""trial"",""time""
""fullscreenenter"",""1"",""1480""
","""event"",""trial"",""time""
""fullscreenexit"",""19"",""332861""
","","","106.79999995231628","","","12","4328","1338","&#9776;","elianto","#3366ff99"," "," ","1","+10","[167.20000004768372,367.5,447.5,511.30000019073486,691.1000001430511,824.3000001907349,959.2000000476837,1111.6000001430511,1231.5,1807.5,1967.6000001430511,2127.300000190735,2295.4000000953674,2447.2000000476837,2631.2000000476837,2799.5,2967.5]","17","0","1","","","","","","","",""
"call-function","35","399408","0.0-2.0-9.0","battery-v0.2","","""event"",""trial"",""time""
""fullscreenenter"",""1"",""1480""
""fullscreenexit"",""19"",""332861""
","
","
","""event"",""trial"",""time""
""fullscreenenter"",""1"",""1480""
","""event"",""trial"",""time""
""fullscreenexit"",""19"",""332861""
","","","","","","","","","","","","","","","","","","","","","","","","","","",""
"pit-instructions","36","444747","0.0-2.0-10.0","battery-v0.2","","""event"",""trial"",""time""
""fullscreenenter"",""1"",""1480""
""fullscreenexit"",""19"",""332861""
","
","
","""event"",""trial"",""time""
""fullscreenenter"",""1"",""1480""
","""event"",""trial"",""time""
""fullscreenexit"",""19"",""332861""
","","[{""page_index"":0,""viewing_time"":7029.399999856949},{""page_index"":1,""viewing_time"":8904},{""page_index"":2,""viewing_time"":12871.900000095367},{""page_index"":3,""viewing_time"":9080.200000047684},{""page_index"":4,""viewing_time"":7447.899999856949}]","45333.700000047684","","","","","","","","","","","","","","","","","","","","","","","",""
"pit-trial","37","447966","0.0-2.0-11.0-0.0","battery-v0.2","","""event"",""trial"",""time""
""fullscreenenter"",""1"",""1480""
""fullscreenexit"",""19"",""332861""
","
","
","""event"",""trial"",""time""
""fullscreenenter"",""1"",""1480""
","""event"",""trial"",""time""
""fullscreenexit"",""19"",""332861""
","","","360.10000014305115","","","12","4328","1338","&#9761;","elianto","#3366ff99","-1"," ","0","0","[1214.9000000953674]","1","0","2","","","","","","","",""
"pit-trial","38","452854","0.0-2.0-11.0-1.0","battery-v0.2","","""event"",""trial"",""time""
""fullscreenenter"",""1"",""1480""
""fullscreenexit"",""19"",""332861""
","
","
","""event"",""trial"",""time""
""fullscreenenter"",""1"",""1480""
","""event"",""trial"",""time""
""fullscreenexit"",""19"",""332861""
","","","-1","","","12","4328","1338","&#9761;","elianto","#3366ff99","-1","-1","1","+10","[795.5,4563.400000095367]","2","0","2","","","","","","","",""
"pit-trial","39","455954","0.0-2.0-11.0-2.0","battery-v0.2","","""event"",""trial"",""time""
""fullscreenenter"",""1"",""1480""
""fullscreenexit"",""19"",""332861""
","
","
","""event"",""trial"",""time""
""fullscreenenter"",""1"",""1480""
","""event"",""trial"",""time""
""fullscreenexit"",""19"",""332861""
","","","224.5","","","12","4328","1338","&#9761;","elianto","#3366ff99","-1"," ","0","0","[124,564.7000000476837,1075.8000001907349,1987.9000000953674,2491.800000190735,3011.9000000953674]","6","0","2","","","","","","","",""
"pit-trial","40","458964","0.0-2.0-11.0-3.0","battery-v0.2","","""event"",""trial"",""time""
""fullscreenenter"",""1"",""1480""
""fullscreenexit"",""19"",""332861""
","
","
","""event"",""trial"",""time""
""fullscreenenter"",""1"",""1480""
","""event"",""trial"",""time""
""fullscreenexit"",""19"",""332861""
","","","128.5","","","12","4328","1338","&#9761;","elianto","#3366ff99","-1"," ","0","+10","[455.89999985694885,983.8999998569489,1455.8999998569489,2520.0999999046326]","4","0","2","","","","","","","",""
"pit-trial","41","462024","0.0-2.0-11.0-4.0","battery-v0.2","","""event"",""trial"",""time""
""fullscreenenter"",""1"",""1480""
""fullscreenexit"",""19"",""332861""
","
","
","""event"",""trial"",""time""
""fullscreenenter"",""1"",""1480""
","""event"",""trial"",""time""
""fullscreenexit"",""19"",""332861""
","","","186","","","12","4328","1338","&#9761;","elianto","#3366ff99","-1"," ","0","0","[5.900000095367432,558.0999999046326,1038,1558,2101.7000000476837,2613.9000000953674]","6","0","2","","","","","","","",""
"pit-trial","42","465055","0.0-2.0-11.1-0.1","battery-v0.2","","""event"",""trial"",""time""
""fullscreenenter"",""1"",""1480""
""fullscreenexit"",""19"",""332861""
","
","
","""event"",""trial"",""time""
""fullscreenenter"",""1"",""1480""
","""event"",""trial"",""time""
""fullscreenexit"",""19"",""332861""
","","","168.70000004768372","","","12","4328","1338","&#9761;","elianto","#3366ff99","-1"," ","0","0","[73.30000019073486,617.1000001430511,1025.4000000953674,1585.6000001430511,2081.800000190735,2593.100000143051]","6","0","2","","","","","","","",""
"pit-trial","43","468100","0.0-2.0-11.1-1.1","battery-v0.2","","""event"",""trial"",""time""
""fullscreenenter"",""1"",""1480""
""fullscreenexit"",""19"",""332861""
","
","
","""event"",""trial"",""time""
""fullscreenenter"",""1"",""1480""
","""event"",""trial"",""time""
""fullscreenexit"",""19"",""332861""
","","","183.5","","","12","4328","1338","&#9761;","elianto","#3366ff99","-1"," ","0","0","[68.09999990463257,532.3999998569489,1035.5999999046326,1531.7999999523163,2044,2507.7000000476837,3043.7000000476837]","7","0","2","","","","","","","",""
"pit-trial","44","472984","0.0-2.0-11.1-2.1","battery-v0.2","","""event"",""trial"",""time""
""fullscreenenter"",""1"",""1480""
""fullscreenexit"",""19"",""332861""
","
","
","""event"",""trial"",""time""
""fullscreenenter"",""1"",""1480""
","""event"",""trial"",""time""
""fullscreenexit"",""19"",""332861""
","","","-1","","","12","4328","1338","&#9761;","elianto","#3366ff99","-1","-1","1","+10","[]","0","0","2","","","","","","","",""
"pit-trial","45","477852","0.0-2.0-11.1-3.1","battery-v0.2","","""event"",""trial"",""time""
""fullscreenenter"",""1"",""1480""
""fullscreenexit"",""19"",""332861""
","
","
","""event"",""trial"",""time""
""fullscreenenter"",""1"",""1480""
","""event"",""trial"",""time""
""fullscreenexit"",""19"",""332861""
","","","-1","","","12","4328","1338","&#9761;","elianto","#3366ff99","-1","-1","1","0","[]","0","0","2","","","","","","","",""
"pit-trial","46","482723","0.0-2.0-11.1-4.1","battery-v0.2","","""event"",""trial"",""time""
""fullscreenenter"",""1"",""1480""
""fullscreenexit"",""19"",""332861""
","
","
","""event"",""trial"",""time""
""fullscreenenter"",""1"",""1480""
","""event"",""trial"",""time""
""fullscreenexit"",""19"",""332861""
","","","-1","","","12","4328","1338","&#9761;","elianto","#3366ff99","-1","-1","1","+10","[]","0","0","2","","","","","","","",""
"pit-trial","47","487588","0.0-2.0-11.2-0.2","battery-v0.2","","""event"",""trial"",""time""
""fullscreenenter"",""1"",""1480""
""fullscreenexit"",""19"",""332861""
","
","
","""event"",""trial"",""time""
""fullscreenenter"",""1"",""1480""
","""event"",""trial"",""time""
""fullscreenexit"",""19"",""332861""
","","","-1","","","12","4328","1338","&#9761;","elianto","#3366ff99","-1","-1","1","+10","[]","0","0","2","","","","","","","",""
"pit-trial","48","492451","0.0-2.0-11.2-1.2","battery-v0.2","","""event"",""trial"",""time""
""fullscreenenter"",""1"",""1480""
""fullscreenexit"",""19"",""332861""
","
","
","""event"",""trial"",""time""
""fullscreenenter"",""1"",""1480""
","""event"",""trial"",""time""
""fullscreenexit"",""19"",""332861""
","","","-1","","","12","4328","1338","&#9761;","elianto","#3366ff99","-1","-1","1","+10","[]","0","0","2","","","","","","","",""
"pit-trial","49","497315","0.0-2.0-11.2-2.2","battery-v0.2","","""event"",""trial"",""time""
""fullscreenenter"",""1"",""1480""
""fullscreenexit"",""19"",""332861""
","
","
","""event"",""trial"",""time""
""fullscreenenter"",""1"",""1480""
","""event"",""trial"",""time""
""fullscreenexit"",""19"",""332861""
","","","-1","","","12","4328","1338","&#9761;","elianto","#3366ff99","-1","-1","1","+10","[]","0","0","2","","","","","","","",""
"pit-trial","50","502179","0.0-2.0-11.2-3.2","battery-v0.2","","""event"",""trial"",""time""
""fullscreenenter"",""1"",""1480""
""fullscreenexit"",""19"",""332861""
","
","
","""event"",""trial"",""time""
""fullscreenenter"",""1"",""1480""
","""event"",""trial"",""time""
""fullscreenexit"",""19"",""332861""
","","","-1","","","12","4328","1338","&#9761;","elianto","#3366ff99","-1","-1","1","0","[]","0","0","2","","","","","","","",""
"pit-trial","51","507043","0.0-2.0-11.2-4.2","battery-v0.2","","""event"",""trial"",""time""
""fullscreenenter"",""1"",""1480""
""fullscreenexit"",""19"",""332861""
","
","
","""event"",""trial"",""time""
""fullscreenenter"",""1"",""1480""
","""event"",""trial"",""time""
""fullscreenexit"",""19"",""332861""
","","","-1","","","12","4328","1338","&#9761;","elianto","#3366ff99","-1","-1","1","+10","[]","0","0","2","","","","","","","",""
"pit-trial","52","511917","0.0-2.0-11.3-0.3","battery-v0.2","","""event"",""trial"",""time""
""fullscreenenter"",""1"",""1480""
""fullscreenexit"",""19"",""332861""
","
","
","""event"",""trial"",""time""
""fullscreenenter"",""1"",""1480""
","""event"",""trial"",""time""
""fullscreenexit"",""19"",""332861""
","","","-1","","","12","4328","1338","&#9761;","elianto","#3366ff99","-1","-1","1","+10","[]","0","0","2","","","","","","","",""
"pit-trial","53","516779","0.0-2.0-11.3-1.3","battery-v0.2","","""event"",""trial"",""time""
""fullscreenenter"",""1"",""1480""
""fullscreenexit"",""19"",""332861""
","
","
","""event"",""trial"",""time""
""fullscreenenter"",""1"",""1480""
","""event"",""trial"",""time""
""fullscreenexit"",""19"",""332861""
","","","-1","","","12","4328","1338","&#9761;","elianto","#3366ff99","-1","-1","1","+10","[]","0","0","2","","","","","","","",""
"pit-trial","54","521638","0.0-2.0-11.3-2.3","battery-v0.2","","""event"",""trial"",""time""
""fullscreenenter"",""1"",""1480""
""fullscreenexit"",""19"",""332861""
","
","
","""event"",""trial"",""time""
""fullscreenenter"",""1"",""1480""
","""event"",""trial"",""time""
""fullscreenexit"",""19"",""332861""
","","","-1","","","12","4328","1338","&#9761;","elianto","#3366ff99","-1","-1","1","+10","[]","0","0","2","","","","","","","",""
"pit-trial","55","526499","0.0-2.0-11.3-3.3","battery-v0.2","","""event"",""trial"",""time""
""fullscreenenter"",""1"",""1480""
""fullscreenexit"",""19"",""332861""
","
","
","""event"",""trial"",""time""
""fullscreenenter"",""1"",""1480""
","""event"",""trial"",""time""
""fullscreenexit"",""19"",""332861""
","","","-1","","","12","4328","1338","&#9761;","elianto","#3366ff99","-1","-1","1","0","[]","0","0","2","","","","","","","",""
"pit-trial","56","531364","0.0-2.0-11.3-4.3","battery-v0.2","","""event"",""trial"",""time""
""fullscreenenter"",""1"",""1480""
""fullscreenexit"",""19"",""332861""
","
","
","""event"",""trial"",""time""
""fullscreenenter"",""1"",""1480""
","""event"",""trial"",""time""
""fullscreenexit"",""19"",""332861""
","","","-1","","","12","4328","1338","&#9761;","elianto","#3366ff99","-1","-1","1","+10","[]","0","0","2","","","","","","","",""
"call-function","57","531365","0.0-2.0-12.0","battery-v0.2","","""event"",""trial"",""time""
""fullscreenenter"",""1"",""1480""
""fullscreenexit"",""19"",""332861""
","
","
","""event"",""trial"",""time""
""fullscreenenter"",""1"",""1480""
","""event"",""trial"",""time""
""fullscreenexit"",""19"",""332861""
","","","","","","","","","","","","","","","","","","","","","","","","","","",""
"pit-instructions","58","570723","0.0-2.0-13.0","battery-v0.2","","""event"",""trial"",""time""
""fullscreenenter"",""1"",""1480""
""fullscreenexit"",""19"",""332861""
","
","
","""event"",""trial"",""time""
""fullscreenenter"",""1"",""1480""
","""event"",""trial"",""time""
""fullscreenexit"",""19"",""332861""
","","[{""page_index"":0,""viewing_time"":9077.900000095367},{""page_index"":1,""viewing_time"":7831.899999856949},{""page_index"":2,""viewing_time"":3143.9000000953674},{""page_index"":3,""viewing_time"":11951.900000095367},{""page_index"":4,""viewing_time"":7352.099999904633}]","39358","","","","","","","","","","","","","","","","","","","","","","","",""
"pit-trial","59","575606","0.0-2.0-14.0-0.0","battery-v0.2","","""event"",""trial"",""time""
""fullscreenenter"",""1"",""1480""
""fullscreenexit"",""19"",""332861""
","
","
","""event"",""trial"",""time""
""fullscreenenter"",""1"",""1480""
","""event"",""trial"",""time""
""fullscreenexit"",""19"",""332861""
","","","-1","","","12","4328","1338","&#9826;","elianto","#f73b6a7A","-1","-1","1","0","[]","0","0","3","","","","","","","",""
"pit-trial","60","580486","0.0-2.0-14.0-1.0","battery-v0.2","","""event"",""trial"",""time""
""fullscreenenter"",""1"",""1480""
""fullscreenexit"",""19"",""332861""
","
","
","""event"",""trial"",""time""
""fullscreenenter"",""1"",""1480""
","""event"",""trial"",""time""
""fullscreenexit"",""19"",""332861""
","","","-1","","","12","4328","1338","&#9826;","elianto","#f73b6a7A","-1","-1","1","0","[]","0","0","3","","","","","","","",""
"pit-trial","61","585376","0.0-2.0-14.0-2.0","battery-v0.2","","""event"",""trial"",""time""
""fullscreenenter"",""1"",""1480""
""fullscreenexit"",""19"",""332861""
","
","
","""event"",""trial"",""time""
""fullscreenenter"",""1"",""1480""
","""event"",""trial"",""time""
""fullscreenexit"",""19"",""332861""
","","","-1","","","12","4328","1338","&#9826;","elianto","#f73b6a7A","-1","-1","1","0","[]","0","0","3","","","","","","","",""
"pit-trial","62","590256","0.0-2.0-14.0-3.0","battery-v0.2","","""event"",""trial"",""time""
""fullscreenenter"",""1"",""1480""
""fullscreenexit"",""19"",""332861""
","
","
","""event"",""trial"",""time""
""fullscreenenter"",""1"",""1480""
","""event"",""trial"",""time""
""fullscreenexit"",""19"",""332861""
","","","-1","","","12","4328","1338","&#9826;","elianto","#f73b6a7A","-1","-1","1","-10","[]","0","0","3","","","","","","","",""
"pit-trial","63","595126","0.0-2.0-14.0-4.0","battery-v0.2","","""event"",""trial"",""time""
""fullscreenenter"",""1"",""1480""
""fullscreenexit"",""19"",""332861""
","
","
","""event"",""trial"",""time""
""fullscreenenter"",""1"",""1480""
","""event"",""trial"",""time""
""fullscreenexit"",""19"",""332861""
","","","-1","","","12","4328","1338","&#9826;","elianto","#f73b6a7A","-1","-1","1","0","[]","0","0","3","","","","","","","",""
"pit-trial","64","600011","0.0-2.0-14.1-0.1","battery-v0.2","","""event"",""trial"",""time""
""fullscreenenter"",""1"",""1480""
""fullscreenexit"",""19"",""332861""
","
","
","""event"",""trial"",""time""
""fullscreenenter"",""1"",""1480""
","""event"",""trial"",""time""
""fullscreenexit"",""19"",""332861""
","","","-1","","","12","4328","1338","&#9826;","elianto","#f73b6a7A","-1","-1","1","0","[]","0","0","3","","","","","","","",""
"pit-trial","65","604875","0.0-2.0-14.1-1.1","battery-v0.2","","""event"",""trial"",""time""
""fullscreenenter"",""1"",""1480""
""fullscreenexit"",""19"",""332861""
","
","
","""event"",""trial"",""time""
""fullscreenenter"",""1"",""1480""
","""event"",""trial"",""time""
""fullscreenexit"",""19"",""332861""
","","","-1","","","12","4328","1338","&#9826;","elianto","#f73b6a7A","-1","-1","1","0","[]","0","0","3","","","","","","","",""
"pit-trial","66","609739","0.0-2.0-14.1-2.1","battery-v0.2","","""event"",""trial"",""time""
""fullscreenenter"",""1"",""1480""
""fullscreenexit"",""19"",""332861""
","
","
","""event"",""trial"",""time""
""fullscreenenter"",""1"",""1480""
","""event"",""trial"",""time""
""fullscreenexit"",""19"",""332861""
","","","-1","","","12","4328","1338","&#9826;","elianto","#f73b6a7A","-1","-1","1","0","[]","0","0","3","","","","","","","",""
"pit-trial","67","614603","0.0-2.0-14.1-3.1","battery-v0.2","","""event"",""trial"",""time""
""fullscreenenter"",""1"",""1480""
""fullscreenexit"",""19"",""332861""
","
","
","""event"",""trial"",""time""
""fullscreenenter"",""1"",""1480""
","""event"",""trial"",""time""
""fullscreenexit"",""19"",""332861""
","","","-1","","","12","4328","1338","&#9826;","elianto","#f73b6a7A","-1","-1","1","-10","[]","0","0","3","","","","","","","",""
"pit-trial","68","619467","0.0-2.0-14.1-4.1","battery-v0.2","","""event"",""trial"",""time""
""fullscreenenter"",""1"",""1480""
""fullscreenexit"",""19"",""332861""
","
","
","""event"",""trial"",""time""
""fullscreenenter"",""1"",""1480""
","""event"",""trial"",""time""
""fullscreenexit"",""19"",""332861""
","","","-1","","","12","4328","1338","&#9826;","elianto","#f73b6a7A","-1","-1","1","0","[]","0","0","3","","","","","","","",""
"pit-trial","69","624331","0.0-2.0-14.2-0.2","battery-v0.2","","""event"",""trial"",""time""
""fullscreenenter"",""1"",""1480""
""fullscreenexit"",""19"",""332861""
","
","
","""event"",""trial"",""time""
""fullscreenenter"",""1"",""1480""
","""event"",""trial"",""time""
""fullscreenexit"",""19"",""332861""
","","","-1","","","12","4328","1338","&#9826;","elianto","#f73b6a7A","-1","-1","1","0","[]","0","0","3","","","","","","","",""
"pit-trial","70","629196","0.0-2.0-14.2-1.2","battery-v0.2","","""event"",""trial"",""time""
""fullscreenenter"",""1"",""1480""
""fullscreenexit"",""19"",""332861""
","
","
","""event"",""trial"",""time""
""fullscreenenter"",""1"",""1480""
","""event"",""trial"",""time""
""fullscreenexit"",""19"",""332861""
","","","-1","","","12","4328","1338","&#9826;","elianto","#f73b6a7A","-1","-1","1","0","[]","0","0","3","","","","","","","",""
"pit-trial","71","634060","0.0-2.0-14.2-2.2","battery-v0.2","","""event"",""trial"",""time""
""fullscreenenter"",""1"",""1480""
""fullscreenexit"",""19"",""332861""
","
","
","""event"",""trial"",""time""
""fullscreenenter"",""1"",""1480""
","""event"",""trial"",""time""
""fullscreenexit"",""19"",""332861""
","","","-1","","","12","4328","1338","&#9826;","elianto","#f73b6a7A","-1","-1","1","0","[]","0","0","3","","","","","","","",""
"pit-trial","72","638922","0.0-2.0-14.2-3.2","battery-v0.2","","""event"",""trial"",""time""
""fullscreenenter"",""1"",""1480""
""fullscreenexit"",""19"",""332861""
","
","
","""event"",""trial"",""time""
""fullscreenenter"",""1"",""1480""
","""event"",""trial"",""time""
""fullscreenexit"",""19"",""332861""
","","","-1","","","12","4328","1338","&#9826;","elianto","#f73b6a7A","-1","-1","1","-10","[]","0","0","3","","","","","","","",""
"pit-trial","73","643787","0.0-2.0-14.2-4.2","battery-v0.2","","""event"",""trial"",""time""
""fullscreenenter"",""1"",""1480""
""fullscreenexit"",""19"",""332861""
","
","
","""event"",""trial"",""time""
""fullscreenenter"",""1"",""1480""
","""event"",""trial"",""time""
""fullscreenexit"",""19"",""332861""
","","","-1","","","12","4328","1338","&#9826;","elianto","#f73b6a7A","-1","-1","1","0","[]","0","0","3","","","","","","","",""
"pit-trial","74","648643","0.0-2.0-14.3-0.3","battery-v0.2","","""event"",""trial"",""time""
""fullscreenenter"",""1"",""1480""
""fullscreenexit"",""19"",""332861""
","
","
","""event"",""trial"",""time""
""fullscreenenter"",""1"",""1480""
","""event"",""trial"",""time""
""fullscreenexit"",""19"",""332861""
","","","-1","","","12","4328","1338","&#9826;","elianto","#f73b6a7A","-1","-1","1","0","[]","0","0","3","","","","","","","",""
"pit-trial","75","653507","0.0-2.0-14.3-1.3","battery-v0.2","","""event"",""trial"",""time""
""fullscreenenter"",""1"",""1480""
""fullscreenexit"",""19"",""332861""
","
","
","""event"",""trial"",""time""
""fullscreenenter"",""1"",""1480""
","""event"",""trial"",""time""
""fullscreenexit"",""19"",""332861""
","","","-1","","","12","4328","1338","&#9826;","elianto","#f73b6a7A","-1","-1","1","0","[]","0","0","3","","","","","","","",""
"pit-trial","76","658370","0.0-2.0-14.3-2.3","battery-v0.2","","""event"",""trial"",""time""
""fullscreenenter"",""1"",""1480""
""fullscreenexit"",""19"",""332861""
","
","
","""event"",""trial"",""time""
""fullscreenenter"",""1"",""1480""
","""event"",""trial"",""time""
""fullscreenexit"",""19"",""332861""
","","","-1","","","12","4328","1338","&#9826;","elianto","#f73b6a7A","-1","-1","1","0","[]","0","0","3","","","","","","","",""
"pit-trial","77","663249","0.0-2.0-14.3-3.3","battery-v0.2","","""event"",""trial"",""time""
""fullscreenenter"",""1"",""1480""
""fullscreenexit"",""19"",""332861""
","
","
","""event"",""trial"",""time""
""fullscreenenter"",""1"",""1480""
","""event"",""trial"",""time""
""fullscreenexit"",""19"",""332861""
","","","-1","","","12","4328","1338","&#9826;","elianto","#f73b6a7A","-1","-1","1","-10","[]","0","0","3","","","","","","","",""
"pit-trial","78","668115","0.0-2.0-14.3-4.3","battery-v0.2","","""event"",""trial"",""time""
""fullscreenenter"",""1"",""1480""
""fullscreenexit"",""19"",""332861""
","
","
","""event"",""trial"",""time""
""fullscreenenter"",""1"",""1480""
","""event"",""trial"",""time""
""fullscreenexit"",""19"",""332861""
","","","-1","","","12","4328","1338","&#9826;","elianto","#f73b6a7A","-1","-1","1","0","[]","0","0","3","","","","","","","",""
"call-function","79","668116","0.0-2.0-15.0","battery-v0.2","","""event"",""trial"",""time""
""fullscreenenter"",""1"",""1480""
""fullscreenexit"",""19"",""332861""
","
","
","""event"",""trial"",""time""
""fullscreenenter"",""1"",""1480""
","""event"",""trial"",""time""
""fullscreenexit"",""19"",""332861""
","","","","","","","","","","","","","","","","","","","","","","","","","","",""
"pit-instructions","80","700731","0.0-2.0-16.0","battery-v0.2","","""event"",""trial"",""time""
""fullscreenenter"",""1"",""1480""
""fullscreenexit"",""19"",""332861""
","
","
","""event"",""trial"",""time""
""fullscreenenter"",""1"",""1480""
","""event"",""trial"",""time""
""fullscreenexit"",""19"",""332861""
","","[{""page_index"":0,""viewing_time"":14965.900000095367},{""page_index"":1,""viewing_time"":9312},{""page_index"":2,""viewing_time"":4095.7999999523163},{""page_index"":3,""viewing_time"":4240.100000143051}]","32614.200000047684","","","","","","","","","","","","","","","","","","","","","","","",""
"pit-trial","81","703923","0.0-2.0-17.0-0.0","battery-v0.2","","""event"",""trial"",""time""
""fullscreenenter"",""1"",""1480""
""fullscreenexit"",""19"",""332861""
","
","
","""event"",""trial"",""time""
""fullscreenenter"",""1"",""1480""
","""event"",""trial"",""time""
""fullscreenexit"",""19"",""332861""
","","","330.80000019073486","","","12","4328","1338","&#9789;","elianto","#f73b6a7A"," "," ","1","0","[1183,1766.6999998092651,1934.7999999523163,2342.7999999523163,2551,2710.5999999046326,2879.0999999046326,3014.699999809265,3126.5]","9","0","4","","","","","","","",""
"pit-trial","82","706818","0.0-2.0-17.0-1.0","battery-v0.2","","""event"",""trial"",""time""
""fullscreenenter"",""1"",""1480""
""fullscreenexit"",""19"",""332861""
","
","
","""event"",""trial"",""time""
""fullscreenenter"",""1"",""1480""
","""event"",""trial"",""time""
""fullscreenexit"",""19"",""332861""
","","","32.40000009536743","","","12","4328","1338","&#9789;","elianto","#f73b6a7A"," "," ","1","0","[79.79999995231628,222.89999985694885,343.2000000476837,470.7999999523163,615,767.8999998569489,887,1022.8999998569489,1159,1303,1422.8999998569489,1663.2999999523163,1815.3999998569489,1919,2063.0999999046326,2207.2000000476837,2367.0999999046326,2478.7999999523163,2663.2999999523163,2791]","20","0","4","","","","","","","",""
"pit-trial","83","709763","0.0-2.0-17.0-2.0","battery-v0.2","","""event"",""trial"",""time""
""fullscreenenter"",""1"",""1480""
""fullscreenexit"",""19"",""332861""
","
","
","""event"",""trial"",""time""
""fullscreenenter"",""1"",""1480""
","""event"",""trial"",""time""
""fullscreenexit"",""19"",""332861""
","","","93.09999990463257","","","12","4328","1338","&#9789;","elianto","#f73b6a7A"," "," ","1","0","[31.199999809265137,168,415.5,527.0999999046326,672.2999999523163,807.2999999523163,943.0999999046326,1071.1999998092651,1183.1999998092651,1319.1999998092651]","10","0","4","","","","","","","",""
"pit-trial","84","714626","0.0-2.0-17.0-3.0","battery-v0.2","","""event"",""trial"",""time""
""fullscreenenter"",""1"",""1480""
""fullscreenexit"",""19"",""332861""
","
","
","""event"",""trial"",""time""
""fullscreenenter"",""1"",""1480""
","""event"",""trial"",""time""
""fullscreenexit"",""19"",""332861""
","","","-1","","","12","4328","1338","&#9789;","elianto","#f73b6a7A"," ","-1","0","0","[]","0","0","4","","","","","","","",""
"pit-trial","85","719490","0.0-2.0-17.0-4.0","battery-v0.2","","""event"",""trial"",""time""
""fullscreenenter"",""1"",""1480""
""fullscreenexit"",""19"",""332861""
","
","
","""event"",""trial"",""time""
""fullscreenenter"",""1"",""1480""
","""event"",""trial"",""time""
""fullscreenexit"",""19"",""332861""
","","","-1","","","12","4328","1338","&#9789;","elianto","#f73b6a7A"," ","-1","0","-10","[]","0","0","4","","","","","","","",""
"pit-trial","86","724355","0.0-2.0-17.1-0.1","battery-v0.2","","""event"",""trial"",""time""
""fullscreenenter"",""1"",""1480""
""fullscreenexit"",""19"",""332861""
","
","
","""event"",""trial"",""time""
""fullscreenenter"",""1"",""1480""
","""event"",""trial"",""time""
""fullscreenexit"",""19"",""332861""
","","","-1","","","12","4328","1338","&#9789;","elianto","#f73b6a7A"," ","-1","0","-10","[]","0","0","4","","","","","","","",""
"pit-trial","87","729219","0.0-2.0-17.1-1.1","battery-v0.2","","""event"",""trial"",""time""
""fullscreenenter"",""1"",""1480""
""fullscreenexit"",""19"",""332861""
","
","
","""event"",""trial"",""time""
""fullscreenenter"",""1"",""1480""
","""event"",""trial"",""time""
""fullscreenexit"",""19"",""332861""
","","","-1","","","12","4328","1338","&#9789;","elianto","#f73b6a7A"," ","-1","0","-10","[]","0","0","4","","","","","","","",""
"pit-trial","88","734083","0.0-2.0-17.1-2.1","battery-v0.2","","""event"",""trial"",""time""
""fullscreenenter"",""1"",""1480""
""fullscreenexit"",""19"",""332861""
","
","
","""event"",""trial"",""time""
""fullscreenenter"",""1"",""1480""
","""event"",""trial"",""time""
""fullscreenexit"",""19"",""332861""
","","","-1","","","12","4328","1338","&#9789;","elianto","#f73b6a7A"," ","-1","0","-10","[]","0","0","4","","","","","","","",""
"pit-trial","89","738946","0.0-2.0-17.1-3.1","battery-v0.2","","""event"",""trial"",""time""
""fullscreenenter"",""1"",""1480""
""fullscreenexit"",""19"",""332861""
","
","
","""event"",""trial"",""time""
""fullscreenenter"",""1"",""1480""
","""event"",""trial"",""time""
""fullscreenexit"",""19"",""332861""
","","","-1","","","12","4328","1338","&#9789;","elianto","#f73b6a7A"," ","-1","0","0","[]","0","0","4","","","","","","","",""
"pit-trial","90","743811","0.0-2.0-17.1-4.1","battery-v0.2","","""event"",""trial"",""time""
""fullscreenenter"",""1"",""1480""
""fullscreenexit"",""19"",""332861""
","
","
","""event"",""trial"",""time""
""fullscreenenter"",""1"",""1480""
","""event"",""trial"",""time""
""fullscreenexit"",""19"",""332861""
","","","-1","","","12","4328","1338","&#9789;","elianto","#f73b6a7A"," ","-1","0","-10","[]","0","0","4","","","","","","","",""
"pit-trial","91","748675","0.0-2.0-17.2-0.2","battery-v0.2","","""event"",""trial"",""time""
""fullscreenenter"",""1"",""1480""
""fullscreenexit"",""19"",""332861""
","
","
","""event"",""trial"",""time""
""fullscreenenter"",""1"",""1480""
","""event"",""trial"",""time""
""fullscreenexit"",""19"",""332861""
","","","-1","","","12","4328","1338","&#9789;","elianto","#f73b6a7A"," ","-1","0","-10","[]","0","0","4","","","","","","","",""
"pit-trial","92","753538","0.0-2.0-17.2-1.2","battery-v0.2","","""event"",""trial"",""time""
""fullscreenenter"",""1"",""1480""
""fullscreenexit"",""19"",""332861""
","
","
","""event"",""trial"",""time""
""fullscreenenter"",""1"",""1480""
","""event"",""trial"",""time""
""fullscreenexit"",""19"",""332861""
","","","-1","","","12","4328","1338","&#9789;","elianto","#f73b6a7A"," ","-1","0","-10","[]","0","0","4","","","","","","","",""
"pit-trial","93","758402","0.0-2.0-17.2-2.2","battery-v0.2","","""event"",""trial"",""time""
""fullscreenenter"",""1"",""1480""
""fullscreenexit"",""19"",""332861""
","
","
","""event"",""trial"",""time""
""fullscreenenter"",""1"",""1480""
","""event"",""trial"",""time""
""fullscreenexit"",""19"",""332861""
","","","-1","","","12","4328","1338","&#9789;","elianto","#f73b6a7A"," ","-1","0","-10","[]","0","0","4","","","","","","","",""
"pit-trial","94","763266","0.0-2.0-17.2-3.2","battery-v0.2","","""event"",""trial"",""time""
""fullscreenenter"",""1"",""1480""
""fullscreenexit"",""19"",""332861""
","
","
","""event"",""trial"",""time""
""fullscreenenter"",""1"",""1480""
","""event"",""trial"",""time""
""fullscreenexit"",""19"",""332861""
","","","-1","","","12","4328","1338","&#9789;","elianto","#f73b6a7A"," ","-1","0","0","[]","0","0","4","","","","","","","",""
"pit-trial","95","768131","0.0-2.0-17.2-4.2","battery-v0.2","","""event"",""trial"",""time""
""fullscreenenter"",""1"",""1480""
""fullscreenexit"",""19"",""332861""
","
","
","""event"",""trial"",""time""
""fullscreenenter"",""1"",""1480""
","""event"",""trial"",""time""
""fullscreenexit"",""19"",""332861""
","","","-1","","","12","4328","1338","&#9789;","elianto","#f73b6a7A"," ","-1","0","-10","[]","0","0","4","","","","","","","",""
"pit-trial","96","772996","0.0-2.0-17.3-0.3","battery-v0.2","","""event"",""trial"",""time""
""fullscreenenter"",""1"",""1480""
""fullscreenexit"",""19"",""332861""
","
","
","""event"",""trial"",""time""
""fullscreenenter"",""1"",""1480""
","""event"",""trial"",""time""
""fullscreenexit"",""19"",""332861""
","","","-1","","","12","4328","1338","&#9789;","elianto","#f73b6a7A"," ","-1","0","-10","[]","0","0","4","","","","","","","",""
"pit-trial","97","777859","0.0-2.0-17.3-1.3","battery-v0.2","","""event"",""trial"",""time""
""fullscreenenter"",""1"",""1480""
""fullscreenexit"",""19"",""332861""
","
","
","""event"",""trial"",""time""
""fullscreenenter"",""1"",""1480""
","""event"",""trial"",""time""
""fullscreenexit"",""19"",""332861""
","","","-1","","","12","4328","1338","&#9789;","elianto","#f73b6a7A"," ","-1","0","-10","[]","0","0","4","","","","","","","",""
"pit-trial","98","782723","0.0-2.0-17.3-2.3","battery-v0.2","","""event"",""trial"",""time""
""fullscreenenter"",""1"",""1480""
""fullscreenexit"",""19"",""332861""
","
","
","""event"",""trial"",""time""
""fullscreenenter"",""1"",""1480""
","""event"",""trial"",""time""
""fullscreenexit"",""19"",""332861""
","","","-1","","","12","4328","1338","&#9789;","elianto","#f73b6a7A"," ","-1","0","-10","[]","0","0","4","","","","","","","",""
"pit-trial","99","787603","0.0-2.0-17.3-3.3","battery-v0.2","","""event"",""trial"",""time""
""fullscreenenter"",""1"",""1480""
""fullscreenexit"",""19"",""332861""
","
","
","""event"",""trial"",""time""
""fullscreenenter"",""1"",""1480""
","""event"",""trial"",""time""
""fullscreenexit"",""19"",""332861""
","","","-1","","","12","4328","1338","&#9789;","elianto","#f73b6a7A"," ","-1","0","0","[]","0","0","4","","","","","","","",""
"pit-trial","100","792467","0.0-2.0-17.3-4.3","battery-v0.2","","""event"",""trial"",""time""
""fullscreenenter"",""1"",""1480""
""fullscreenexit"",""19"",""332861""
","
","
","""event"",""trial"",""time""
""fullscreenenter"",""1"",""1480""
","""event"",""trial"",""time""
""fullscreenexit"",""19"",""332861""
","","","-1","","","12","4328","1338","&#9789;","elianto","#f73b6a7A"," ","-1","0","-10","[]","0","0","4","","","","","","","",""
"call-function","101","792468","0.0-2.0-18.0","battery-v0.2","","""event"",""trial"",""time""
""fullscreenenter"",""1"",""1480""
""fullscreenexit"",""19"",""332861""
","
","
","""event"",""trial"",""time""
""fullscreenenter"",""1"",""1480""
","""event"",""trial"",""time""
""fullscreenexit"",""19"",""332861""
","","","","","","","","","","","","","","","","","","","","","","","","","","",""
"pit-instructions","102","871931","0.0-2.0-19.0","battery-v0.2","","""event"",""trial"",""time""
""fullscreenenter"",""1"",""1480""
""fullscreenexit"",""19"",""332861""
","
","
","""event"",""trial"",""time""
""fullscreenenter"",""1"",""1480""
","""event"",""trial"",""time""
""fullscreenexit"",""19"",""332861""
","","[{""page_index"":0,""viewing_time"":29838.599999904633},{""page_index"":1,""viewing_time"":4176},{""page_index"":2,""viewing_time"":8095.900000095367},{""page_index"":3,""viewing_time"":4104.099999904633},{""page_index"":4,""viewing_time"":6424.100000143051},{""page_index"":5,""viewing_time"":9800},{""page_index"":6,""viewing_time"":4343.799999952316},{""page_index"":7,""viewing_time"":4272},{""page_index"":8,""viewing_time"":8408}]","79462.89999985695","","","","","","","","","","","","","","","","","","","","","","","",""
"pit-comprehension","103","876331","0.0-2.0-20.0-0.0","battery-v0.2","","""event"",""trial"",""time""
""fullscreenenter"",""1"",""1480""
""fullscreenexit"",""19"",""332861""
","
","
","""event"",""trial"",""time""
""fullscreenenter"",""1"",""1480""
","""event"",""trial"",""time""
""fullscreenexit"",""19"",""332861""
","","","4397.400000095367","[""SPACE""]","0","12","4328","1338","","","","","","","","","","","","","","","","","","",""
"pit-instructions","104","882338","0.0-2.0-20.0-1.0","battery-v0.2","","""event"",""trial"",""time""
""fullscreenenter"",""1"",""1480""
""fullscreenexit"",""19"",""332861""
","
","
","""event"",""trial"",""time""
""fullscreenenter"",""1"",""1480""
","""event"",""trial"",""time""
""fullscreenexit"",""19"",""332861""
","","[{""page_index"":0,""viewing_time"":5891.599999904633}]","5892","","","","","","","","","","","","","","","","","","","","","","","",""
"pit-comprehension","105","889051","0.0-2.0-21.0-0.0","battery-v0.2","","""event"",""trial"",""time""
""fullscreenenter"",""1"",""1480""
""fullscreenexit"",""19"",""332861""
","
","
","""event"",""trial"",""time""
""fullscreenenter"",""1"",""1480""
","""event"",""trial"",""time""
""fullscreenexit"",""19"",""332861""
","","","6709.900000095367","[""10""]","0","12","4328","1338","","","","","","","","","","","","","","","","","","",""
"pit-instructions","106","890754","0.0-2.0-21.0-1.0","battery-v0.2","","""event"",""trial"",""time""
""fullscreenenter"",""1"",""1480""
""fullscreenexit"",""19"",""332861""
","
","
","""event"",""trial"",""time""
""fullscreenenter"",""1"",""1480""
","""event"",""trial"",""time""
""fullscreenexit"",""19"",""332861""
","","[{""page_index"":0,""viewing_time"":1655.2999999523163}]","1655.5999999046326","","","","","","","","","","","","","","","","","","","","","","","",""
"pit-comprehension","107","898659","0.0-2.0-22.0-0.0","battery-v0.2","","""event"",""trial"",""time""
""fullscreenenter"",""1"",""1480""
""fullscreenexit"",""19"",""332861""
","
","
","""event"",""trial"",""time""
""fullscreenenter"",""1"",""1480""
","""event"",""trial"",""time""
""fullscreenexit"",""19"",""332861""
","","","7901.900000095367","[""-10""]","1","12","4328","1338","","","","","","","","","","","","","","","","","","",""
"pit-instructions","108","904242","0.0-2.0-22.0-1.0","battery-v0.2","","""event"",""trial"",""time""
""fullscreenenter"",""1"",""1480""
""fullscreenexit"",""19"",""332861""
","
","
","""event"",""trial"",""time""
""fullscreenenter"",""1"",""1480""
","""event"",""trial"",""time""
""fullscreenexit"",""19"",""332861""
","","[{""page_index"":0,""viewing_time"":5532}]","5532.399999856949","","","","","","","","","","","","","","","","","","","","","","","",""
"pit-instructions","109","905202","0.0-2.0-22.0-2.0-0.0","battery-v0.2","","""event"",""trial"",""time""
""fullscreenenter"",""1"",""1480""
""fullscreenexit"",""19"",""332861""
","
","
","""event"",""trial"",""time""
""fullscreenenter"",""1"",""1480""
","""event"",""trial"",""time""
""fullscreenexit"",""19"",""332861""
","","[{""page_index"":0,""viewing_time"":958.5}]","958.7000000476837","","","","","","","","","","","","","","","","","","","","","","","",""
"pit-comprehension","110","911851","0.0-2.0-22.1-0.1","battery-v0.2","","""event"",""trial"",""time""
""fullscreenenter"",""1"",""1480""
""fullscreenexit"",""19"",""332861""
","
","
","""event"",""trial"",""time""
""fullscreenenter"",""1"",""1480""
","""event"",""trial"",""time""
""fullscreenexit"",""19"",""332861""
","","","6646.099999904633","[""0""]","0","12","4328","1338","","","","","","","","","","","","","","","","","","",""
"pit-instructions","111","913778","0.0-2.0-22.1-1.1","battery-v0.2","","""event"",""trial"",""time""
""fullscreenenter"",""1"",""1480""
""fullscreenexit"",""19"",""332861""
","
","
","""event"",""trial"",""time""
""fullscreenenter"",""1"",""1480""
","""event"",""trial"",""time""
""fullscreenexit"",""19"",""332861""
","","[{""page_index"":0,""viewing_time"":1879}]","1879.2999999523163","","","","","","","","","","","","","","","","","","","","","","","",""
"pit-comprehension","112","923539","0.0-2.0-23.0-0.0","battery-v0.2","","""event"",""trial"",""time""
""fullscreenenter"",""1"",""1480""
""fullscreenexit"",""19"",""332861""
","
","
","""event"",""trial"",""time""
""fullscreenenter"",""1"",""1480""
","""event"",""trial"",""time""
""fullscreenexit"",""19"",""332861""
","","","9758.900000095367","[""False""]","1","12","4328","1338","","","","","","","","","","","","","","","","","","",""
"pit-instructions","113","925810","0.0-2.0-23.0-1.0","battery-v0.2","","""event"",""trial"",""time""
""fullscreenenter"",""1"",""1480""
""fullscreenexit"",""19"",""332861""
","
","
","""event"",""trial"",""time""
""fullscreenenter"",""1"",""1480""
","""event"",""trial"",""time""
""fullscreenexit"",""19"",""332861""
","","[{""page_index"":0,""viewing_time"":2199.7000000476837}]","2199.9000000953674","","","","","","","","","","","","","","","","","","","","","","","",""
"pit-instructions","114","927410","0.0-2.0-23.0-2.0-0.0","battery-v0.2","","""event"",""trial"",""time""
""fullscreenenter"",""1"",""1480""
""fullscreenexit"",""19"",""332861""
","
","
","""event"",""trial"",""time""
""fullscreenenter"",""1"",""1480""
","""event"",""trial"",""time""
""fullscreenexit"",""19"",""332861""
","","[{""page_index"":0,""viewing_time"":1598.7000000476837}]","1598.9000000953674","","","","","","","","","","","","","","","","","","","","","","","",""
"pit-comprehension","115","936532","0.0-2.0-23.1-0.1","battery-v0.2","","""event"",""trial"",""time""
""fullscreenenter"",""1"",""1480""
""fullscreenexit"",""19"",""332861""
","
","
","""event"",""trial"",""time""
""fullscreenenter"",""1"",""1480""
","""event"",""trial"",""time""
""fullscreenexit"",""19"",""332861""
","","","9119.299999952316","[""True""]","0","12","4328","1338","","","","","","","","","","","","","","","","","","",""
"pit-instructions","116","938626","0.0-2.0-23.1-1.1","battery-v0.2","","""event"",""trial"",""time""
""fullscreenenter"",""1"",""1480""
""fullscreenexit"",""19"",""332861""
","
","
","""event"",""trial"",""time""
""fullscreenenter"",""1"",""1480""
","""event"",""trial"",""time""
""fullscreenexit"",""19"",""332861""
","","[{""page_index"":0,""viewing_time"":2036.9000000953674}]","2037.1000001430511","","","","","","","","","","","","","","","","","","","","","","","",""
"pit-comprehension","117","947923","0.0-2.0-24.0-0.0","battery-v0.2","","""event"",""trial"",""time""
""fullscreenenter"",""1"",""1480""
""fullscreenexit"",""19"",""332861""
","
","
","""event"",""trial"",""time""
""fullscreenenter"",""1"",""1480""
","""event"",""trial"",""time""
""fullscreenexit"",""19"",""332861""
","","","9294.200000047684","[""True""]","0","12","4328","1338","","","","","","","","","","","","","","","","","","",""
"pit-instructions","118","949803","0.0-2.0-24.0-1.0","battery-v0.2","","""event"",""trial"",""time""
""fullscreenenter"",""1"",""1480""
""fullscreenexit"",""19"",""332861""
","
","
","""event"",""trial"",""time""
""fullscreenenter"",""1"",""1480""
","""event"",""trial"",""time""
""fullscreenexit"",""19"",""332861""
","","[{""page_index"":0,""viewing_time"":1822}]","1822.3000001907349","","","","","","","","","","","","","","","","","","","","","","","",""
"pit-comprehension","119","956275","0.0-2.0-25.0-0.0","battery-v0.2","","""event"",""trial"",""time""
""fullscreenenter"",""1"",""1480""
""fullscreenexit"",""19"",""332861""
","
","
","""event"",""trial"",""time""
""fullscreenenter"",""1"",""1480""
","""event"",""trial"",""time""
""fullscreenexit"",""19"",""332861""
","","","6470.200000047684","[""True""]","0","12","4328","1338","","","","","","","","","","","","","","","","","","",""
"pit-instructions","120","959059","0.0-2.0-25.0-1.0","battery-v0.2","","""event"",""trial"",""time""
""fullscreenenter"",""1"",""1480""
""fullscreenexit"",""19"",""332861""
","
","
","""event"",""trial"",""time""
""fullscreenenter"",""1"",""1480""
","""event"",""trial"",""time""
""fullscreenexit"",""19"",""332861""
","","[{""page_index"":0,""viewing_time"":2733.100000143051}]","2733.300000190735","","","","","","","","","","","","","","","","","","","","","","","",""
"pit-comprehension","121","965363","0.0-2.0-26.0-0.0","battery-v0.2","","""event"",""trial"",""time""
""fullscreenenter"",""1"",""1480""
""fullscreenexit"",""19"",""332861""
","
","
","""event"",""trial"",""time""
""fullscreenenter"",""1"",""1480""
","""event"",""trial"",""time""
""fullscreenexit"",""19"",""332861""
","","","6301.600000143051","[""False""]","0","12","4328","1338","","","","","","","","","","","","","","","","","","",""
"pit-instructions","122","966907","0.0-2.0-26.0-1.0","battery-v0.2","","""event"",""trial"",""time""
""fullscreenenter"",""1"",""1480""
""fullscreenexit"",""19"",""332861""
","
","
","""event"",""trial"",""time""
""fullscreenenter"",""1"",""1480""
","""event"",""trial"",""time""
""fullscreenexit"",""19"",""332861""
","","[{""page_index"":0,""viewing_time"":1480}]","1480.2000000476837","","","","","","","","","","","","","","","","","","","","","","","",""
"pit-instructions","123","984667","0.0-3.0","battery-v0.2","","""event"",""trial"",""time""
""fullscreenenter"",""1"",""1480""
""fullscreenexit"",""19"",""332861""
","
","
","""event"",""trial"",""time""
""fullscreenenter"",""1"",""1480""
","""event"",""trial"",""time""
""fullscreenexit"",""19"",""332861""
","","[{""page_index"":0,""viewing_time"":5062.5},{""page_index"":1,""viewing_time"":5831.899999856949},{""page_index"":2,""viewing_time"":6863.799999952316}]","17758.5","","","","","","","","","","","","","","","","","","","","","","","",""
"pit-trial","124","988283","0.0-4.0","battery-v0.2","","""event"",""trial"",""time""
""fullscreenenter"",""1"",""1480""
""fullscreenexit"",""19"",""332861""
","
","
","""event"",""trial"",""time""
""fullscreenenter"",""1"",""1480""
","""event"",""trial"",""time""
""fullscreenexit"",""19"",""332861""
","","","743.1000001430511","","","12","4328","1338","&#9730;","elianto","#3366ff99"," "," ","1","+10","[1597.2000000476837,2148.7999999523163,2364.7999999523163,2564.7999999523163,2748.7000000476837,3029.0999999046326,3148.9000000953674,3309,3612.9000000953674]","9","1","","","4328","1","1","1","win","go","0"
"pit-trial","125","991267","0.0-5.0","battery-v0.2","","""event"",""trial"",""time""
""fullscreenenter"",""1"",""1480""
""fullscreenexit"",""19"",""332861""
","
","
","""event"",""trial"",""time""
""fullscreenenter"",""1"",""1480""
","""event"",""trial"",""time""
""fullscreenexit"",""19"",""332861""
","","","102.89999985694885","","","12","4328","1338","&#9728;","elianto","#f73b6a7A","-1"," ","0","-10","[257.09999990463257,273.2000000476837,510.09999990463257,656.5,959.7999999523163,1133.8999998569489,1262.7999999523163,1422.2000000476837,1542.3999998569489,1678.0999999046326,1806.2000000476837,1934.0999999046326,2054,2134.0999999046326,2286.2999999523163,2390.5,2422.2000000476837,2550.2999999523163,2670.399999856949,2798.2999999523163,2910.2999999523163]","21","1","","","4328","2","0","4","lose","no-go","0"
"pit-trial","126","994147","0.0-6.0","battery-v0.2","","""event"",""trial"",""time""
""fullscreenenter"",""1"",""1480""
""fullscreenexit"",""19"",""332861""
","
","
","""event"",""trial"",""time""
""fullscreenenter"",""1"",""1480""
","""event"",""trial"",""time""
""fullscreenexit"",""19"",""332861""
","","","9.5","","","12","4328","1338","&#9752;","elianto","#f73b6a7A"," "," ","1","-10","[424.69999980926514,550.3999998569489,710.7999999523163,862.5999999046326,1038.3999998569489,1214.7999999523163,1398.5,1574.3999998569489,1798.5,2091.199999809265]","10","1","","","4328","3","3","3","lose","go","1"
"pit-trial","127","997455","0.0-7.0","battery-v0.2","","""event"",""trial"",""time""
""fullscreenenter"",""1"",""1480""
""fullscreenexit"",""19"",""332861""
","
","
","""event"",""trial"",""time""
""fullscreenenter"",""1"",""1480""
","""event"",""trial"",""time""
""fullscreenexit"",""19"",""332861""
","","","447.7000000476837","","","12","4328","1338","&#9733;","elianto","#3366ff99","-1"," ","0","0","[1303.1000001430511,1726.7999999523163,1919.1000001430511,2087.600000143051,2247.2000000476837,2399,2559.4000000953674,2719.5,2879.5,3031.2999999523163,3191.2000000476837]","11","1","","","4328","4","2","2","win","no-go","0"
"pit-trial","128","1000867","0.0-8.0","battery-v0.2","","""event"",""trial"",""time""
""fullscreenenter"",""1"",""1480""
""fullscreenexit"",""19"",""332861""
","
","
","""event"",""trial"",""time""
""fullscreenenter"",""1"",""1480""
","""event"",""trial"",""time""
""fullscreenexit"",""19"",""332861""
","","","552.1000001430511","","","12","4328","1338","&#9733;","elianto","#3366ff99","-1"," ","0","0","[42.60000014305115,226.70000004768372,394.90000009536743,578.5,1402.7999999523163,1586.6000001430511,1778.7000000476837,2874.600000143051,3074.600000143051,3250.7000000476837]","10","1","","","4328","5","2","2","win","no-go","0"
"pit-trial","129","1005747","0.0-9.0","battery-v0.2","","""event"",""trial"",""time""
""fullscreenenter"",""1"",""1480""
""fullscreenexit"",""19"",""332861""
","
","
","""event"",""trial"",""time""
""fullscreenenter"",""1"",""1480""
","""event"",""trial"",""time""
""fullscreenexit"",""19"",""332861""
","","","-1","","","12","4328","1338","&#9730;","elianto","#3366ff99"," ","-1","0","+10","[31.09999990463257]","1","1","","","4328","6","1","1","win","go","1"
"pit-trial","130","1010611","0.0-10.0","battery-v0.2","","""event"",""trial"",""time""
""fullscreenenter"",""1"",""1480""
""fullscreenexit"",""19"",""332861""
","
","
","""event"",""trial"",""time""
""fullscreenenter"",""1"",""1480""
","""event"",""trial"",""time""
""fullscreenexit"",""19"",""332861""
","","","-1","","","12","4328","1338","&#9752;","elianto","#f73b6a7A"," ","-1","0","-10","[]","0","1","","","4328","7","3","3","lose","go","0"
"pit-trial","131","1013802","0.0-11.0","battery-v0.2","","""event"",""trial"",""time""
""fullscreenenter"",""1"",""1480""
""fullscreenexit"",""19"",""332861""
","
","
","""event"",""trial"",""time""
""fullscreenenter"",""1"",""1480""
","""event"",""trial"",""time""
""fullscreenexit"",""19"",""332861""
","","","327.7000000476837","","","12","4328","1338","&#9728;","elianto","#f73b6a7A","-1"," ","0","-10","[1183.1000001430511]","1","1","","","4328","8","0","4","lose","no-go","0"
"pit-trial","132","1018440","0.0-12.0","battery-v0.2","","""event"",""trial"",""time""
""fullscreenenter"",""1"",""1480""
""fullscreenexit"",""19"",""332861""
","
","
","""event"",""trial"",""time""
""fullscreenenter"",""1"",""1480""
","""event"",""trial"",""time""
""fullscreenexit"",""19"",""332861""
","","","1778.7999999523163","","","12","4328","1338","&#9730;","elianto","#3366ff99"," "," ","1","0","[2631.2999999523163]","1","1","","","4328","9","1","1","win","go","1"
"pit-trial","133","1023307","0.0-13.0","battery-v0.2","","""event"",""trial"",""time""
""fullscreenenter"",""1"",""1480""
""fullscreenexit"",""19"",""332861""
""blur"",""134"",""1026868""
","""event"",""trial"",""time""
""blur"",""134"",""1026868""
","
","""event"",""trial"",""time""
""fullscreenenter"",""1"",""1480""
","""event"",""trial"",""time""
""fullscreenexit"",""19"",""332861""
","","","-1","","","12","4328","1338","&#9728;","elianto","#f73b6a7A","-1","-1","1","0","[]","0","1","","","4328","10","0","4","lose","no-go","0"
"pit-trial","134","1028363","0.0-14.0","battery-v0.2","","""event"",""trial"",""time""
""fullscreenenter"",""1"",""1480""
""fullscreenexit"",""19"",""332861""
""blur"",""134"",""1026868""
","""event"",""trial"",""time""
""blur"",""134"",""1026868""
","
","""event"",""trial"",""time""
""fullscreenenter"",""1"",""1480""
","""event"",""trial"",""time""
""fullscreenexit"",""19"",""332861""
","","","1380.5","","","12","4328","1338","&#9733;","elianto","#3366ff99","-1"," ","0","0","[2231.2000000476837]","1","1","","","4328","11","2","2","win","no-go","0"
"pit-trial","135","1033859","0.0-15.0","battery-v0.2","","""event"",""trial"",""time""
""fullscreenenter"",""1"",""1480""
""fullscreenexit"",""19"",""332861""
""blur"",""134"",""1026868""
""focus"",""136"",""1033864""
","""event"",""trial"",""time""
""blur"",""134"",""1026868""
","""event"",""trial"",""time""
""focus"",""136"",""1033864""
","""event"",""trial"",""time""
""fullscreenenter"",""1"",""1480""
","""event"",""trial"",""time""
""fullscreenexit"",""19"",""332861""
","","","-1","","","12","4328","1338","&#9752;","elianto","#f73b6a7A"," ","-1","0","-10","[]","0","1","","","4328","12","3","3","lose","go","0"
"pit-trial","136","1038723","0.0-16.0","battery-v0.2","","""event"",""trial"",""time""
""fullscreenenter"",""1"",""1480""
""fullscreenexit"",""19"",""332861""
""blur"",""134"",""1026868""
""focus"",""136"",""1033864""
","""event"",""trial"",""time""
""blur"",""134"",""1026868""
","""event"",""trial"",""time""
""focus"",""136"",""1033864""
","""event"",""trial"",""time""
""fullscreenenter"",""1"",""1480""
","""event"",""trial"",""time""
""fullscreenexit"",""19"",""332861""
","","","-1","","","12","4328","1338","&#9752;","elianto","#f73b6a7A"," ","-1","0","-10","[]","0","1","","","4328","13","3","3","lose","go","0"
"pit-trial","137","1043588","0.0-17.0","battery-v0.2","","""event"",""trial"",""time""
""fullscreenenter"",""1"",""1480""
""fullscreenexit"",""19"",""332861""
""blur"",""134"",""1026868""
""focus"",""136"",""1033864""
","""event"",""trial"",""time""
""blur"",""134"",""1026868""
","""event"",""trial"",""time""
""focus"",""136"",""1033864""
","""event"",""trial"",""time""
""fullscreenenter"",""1"",""1480""
","""event"",""trial"",""time""
""fullscreenexit"",""19"",""332861""
","","","-1","","","12","4328","1338","&#9730;","elianto","#3366ff99"," ","-1","0","0","[]","0","1","","","4328","14","1","1","win","go","0"
"pit-trial","138","1048451","0.0-18.0","battery-v0.2","","""event"",""trial"",""time""
""fullscreenenter"",""1"",""1480""
""fullscreenexit"",""19"",""332861""
""blur"",""134"",""1026868""
""focus"",""136"",""1033864""
","""event"",""trial"",""time""
""blur"",""134"",""1026868""
","""event"",""trial"",""time""
""focus"",""136"",""1033864""
","""event"",""trial"",""time""
""fullscreenenter"",""1"",""1480""
","""event"",""trial"",""time""
""fullscreenexit"",""19"",""332861""
","","","-1","","","12","4328","1338","&#9733;","elianto","#3366ff99","-1","-1","1","+10","[]","0","1","","","4328","15","2","2","win","no-go","0"
"pit-trial","139","1053315","0.0-19.0","battery-v0.2","","""event"",""trial"",""time""
""fullscreenenter"",""1"",""1480""
""fullscreenexit"",""19"",""332861""
""blur"",""134"",""1026868""
""focus"",""136"",""1033864""
","""event"",""trial"",""time""
""blur"",""134"",""1026868""
","""event"",""trial"",""time""
""focus"",""136"",""1033864""
","""event"",""trial"",""time""
""fullscreenenter"",""1"",""1480""
","""event"",""trial"",""time""
""fullscreenexit"",""19"",""332861""
","","","-1","","","12","4328","1338","&#9728;","elianto","#f73b6a7A","-1","-1","1","-10","[]","0","1","","","4328","16","0","4","lose","no-go","1"
"pit-trial","140","1058179","0.0-20.0","battery-v0.2","","""event"",""trial"",""time""
""fullscreenenter"",""1"",""1480""
""fullscreenexit"",""19"",""332861""
""blur"",""134"",""1026868""
""focus"",""136"",""1033864""
","""event"",""trial"",""time""
""blur"",""134"",""1026868""
","""event"",""trial"",""time""
""focus"",""136"",""1033864""
","""event"",""trial"",""time""
""fullscreenenter"",""1"",""1480""
","""event"",""trial"",""time""
""fullscreenexit"",""19"",""332861""
","","","-1","","","12","4328","1338","&#9733;","elianto","#3366ff99","-1","-1","1","0","[]","0","1","","","4328","17","2","2","win","no-go","1"
"pit-trial","141","1063043","0.0-21.0","battery-v0.2","","""event"",""trial"",""time""
""fullscreenenter"",""1"",""1480""
""fullscreenexit"",""19"",""332861""
""blur"",""134"",""1026868""
""focus"",""136"",""1033864""
","""event"",""trial"",""time""
""blur"",""134"",""1026868""
","""event"",""trial"",""time""
""focus"",""136"",""1033864""
","""event"",""trial"",""time""
""fullscreenenter"",""1"",""1480""
","""event"",""trial"",""time""
""fullscreenexit"",""19"",""332861""
","","","-1","","","12","4328","1338","&#9752;","elianto","#f73b6a7A"," ","-1","0","-10","[]","0","1","","","4328","18","3","3","lose","go","0"
"pit-trial","142","1067906","0.0-22.0","battery-v0.2","","""event"",""trial"",""time""
""fullscreenenter"",""1"",""1480""
""fullscreenexit"",""19"",""332861""
""blur"",""134"",""1026868""
""focus"",""136"",""1033864""
","""event"",""trial"",""time""
""blur"",""134"",""1026868""
","""event"",""trial"",""time""
""focus"",""136"",""1033864""
","""event"",""trial"",""time""
""fullscreenenter"",""1"",""1480""
","""event"",""trial"",""time""
""fullscreenexit"",""19"",""332861""
","","","-1","","","12","4328","1338","&#9728;","elianto","#f73b6a7A","-1","-1","1","0","[]","0","1","","","4328","19","0","4","lose","no-go","0"
"pit-trial","143","1072771","0.0-23.0","battery-v0.2","","""event"",""trial"",""time""
""fullscreenenter"",""1"",""1480""
""fullscreenexit"",""19"",""332861""
""blur"",""134"",""1026868""
""focus"",""136"",""1033864""
","""event"",""trial"",""time""
""blur"",""134"",""1026868""
","""event"",""trial"",""time""
""focus"",""136"",""1033864""
","""event"",""trial"",""time""
""fullscreenenter"",""1"",""1480""
","""event"",""trial"",""time""
""fullscreenexit"",""19"",""332861""
","","","-1","","","12","4328","1338","&#9730;","elianto","#3366ff99"," ","-1","0","0","[]","0","1","","","4328","20","1","1","win","go","0"
"pit-instructions","144","1086755","0.0-24.0","battery-v0.2","","""event"",""trial"",""time""
""fullscreenenter"",""1"",""1480""
""fullscreenexit"",""19"",""332861""
""blur"",""134"",""1026868""
""focus"",""136"",""1033864""
","""event"",""trial"",""time""
""blur"",""134"",""1026868""
","""event"",""trial"",""time""
""focus"",""136"",""1033864""
","""event"",""trial"",""time""
""fullscreenenter"",""1"",""1480""
","""event"",""trial"",""time""
""fullscreenexit"",""19"",""332861""
","","[{""page_index"":0,""viewing_time"":6910.099999904633},{""page_index"":1,""viewing_time"":7072.100000143051}]","13982.700000047684","","","","","","","","","","","","","","","","","","","","","","","",""
"pit-trial","145","1089971","0.0-25.0","battery-v0.2","","""event"",""trial"",""time""
""fullscreenenter"",""1"",""1480""
""fullscreenexit"",""19"",""332861""
""blur"",""134"",""1026868""
""focus"",""136"",""1033864""
","""event"",""trial"",""time""
""blur"",""134"",""1026868""
","""event"",""trial"",""time""
""focus"",""136"",""1033864""
","""event"",""trial"",""time""
""fullscreenenter"",""1"",""1480""
","""event"",""trial"",""time""
""fullscreenexit"",""19"",""332861""
","","","348.10000014305115","","","12","4328","1338","u","elianto","#f73b6a7A","-1"," ","0","-10","[1206]","1","2","","","4328","21","0","4","lose","no-go","0"
"pit-trial","146","1093446","0.0-26.0","battery-v0.2","","""event"",""trial"",""time""
""fullscreenenter"",""1"",""1480""
""fullscreenexit"",""19"",""332861""
""blur"",""134"",""1026868""
""focus"",""136"",""1033864""
","""event"",""trial"",""time""
""blur"",""134"",""1026868""
","""event"",""trial"",""time""
""focus"",""136"",""1033864""
","""event"",""trial"",""time""
""fullscreenenter"",""1"",""1480""
","""event"",""trial"",""time""
""fullscreenexit"",""19"",""332861""
","","","600.2999999523163","","","12","4328","1338","l","elianto","#3366ff99"," "," ","1","+10","[1454.3999998569489]","1","2","","","4328","22","1","1","win","go","0"
"pit-trial","147","1098346","0.0-27.0","battery-v0.2","","""event"",""trial"",""time""
""fullscreenenter"",""1"",""1480""
""fullscreenexit"",""19"",""332861""
""blur"",""134"",""1026868""
""focus"",""136"",""1033864""
","""event"",""trial"",""time""
""blur"",""134"",""1026868""
","""event"",""trial"",""time""
""focus"",""136"",""1033864""
","""event"",""trial"",""time""
""fullscreenenter"",""1"",""1480""
","""event"",""trial"",""time""
""fullscreenexit"",""19"",""332861""
","","","-1","","","12","4328","1338","a","elianto","#f73b6a7A","-1","-1","1","0","[]","0","2","","","4328","23","2","4","lose","no-go","0"
"pit-trial","148","1103206","0.0-28.0","battery-v0.2","","""event"",""trial"",""time""
""fullscreenenter"",""1"",""1480""
""fullscreenexit"",""19"",""332861""
""blur"",""134"",""1026868""
""focus"",""136"",""1033864""
","""event"",""trial"",""time""
""blur"",""134"",""1026868""
","""event"",""trial"",""time""
""focus"",""136"",""1033864""
","""event"",""trial"",""time""
""fullscreenenter"",""1"",""1480""
","""event"",""trial"",""time""
""fullscreenexit"",""19"",""332861""
","","","-1","","","12","4328","1338","g","elianto","#f73b6a7A"," ","-1","0","-10","[]","0","2","","","4328","24","3","3","lose","go","0"
"pit-trial","149","1108096","0.0-29.0","battery-v0.2","","""event"",""trial"",""time""
""fullscreenenter"",""1"",""1480""
""fullscreenexit"",""19"",""332861""
""blur"",""134"",""1026868""
""focus"",""136"",""1033864""
","""event"",""trial"",""time""
""blur"",""134"",""1026868""
","""event"",""trial"",""time""
""focus"",""136"",""1033864""
","""event"",""trial"",""time""
""fullscreenenter"",""1"",""1480""
","""event"",""trial"",""time""
""fullscreenexit"",""19"",""332861""
","","","-1","","","12","4328","1338","u","elianto","#f73b6a7A","-1","-1","1","0","[]","0","2","","","4328","25","0","4","lose","no-go","0"
"pit-trial","150","1112976","0.0-30.0","battery-v0.2","","""event"",""trial"",""time""
""fullscreenenter"",""1"",""1480""
""fullscreenexit"",""19"",""332861""
""blur"",""134"",""1026868""
""focus"",""136"",""1033864""
","""event"",""trial"",""time""
""blur"",""134"",""1026868""
","""event"",""trial"",""time""
""focus"",""136"",""1033864""
","""event"",""trial"",""time""
""fullscreenenter"",""1"",""1480""
","""event"",""trial"",""time""
""fullscreenexit"",""19"",""332861""
","","","-1","","","12","4328","1338","a","elianto","#f73b6a7A","-1","-1","1","0","[]","0","2","","","4328","26","2","4","lose","no-go","0"
"pit-trial","151","1117851","0.0-31.0","battery-v0.2","","""event"",""trial"",""time""
""fullscreenenter"",""1"",""1480""
""fullscreenexit"",""19"",""332861""
""blur"",""134"",""1026868""
""focus"",""136"",""1033864""
","""event"",""trial"",""time""
""blur"",""134"",""1026868""
","""event"",""trial"",""time""
""focus"",""136"",""1033864""
","""event"",""trial"",""time""
""fullscreenenter"",""1"",""1480""
","""event"",""trial"",""time""
""fullscreenexit"",""19"",""332861""
","","","-1","","","12","4328","1338","g","elianto","#f73b6a7A"," ","-1","0","-10","[]","0","2","","","4328","27","3","3","lose","go","0"
"pit-trial","152","1121596","0.0-32.0","battery-v0.2","","""event"",""trial"",""time""
""fullscreenenter"",""1"",""1480""
""fullscreenexit"",""19"",""332861""
""blur"",""134"",""1026868""
""focus"",""136"",""1033864""
","""event"",""trial"",""time""
""blur"",""134"",""1026868""
","""event"",""trial"",""time""
""focus"",""136"",""1033864""
","""event"",""trial"",""time""
""fullscreenenter"",""1"",""1480""
","""event"",""trial"",""time""
""fullscreenexit"",""19"",""332861""
","","","879.7000000476837","","","12","4328","1338","l","elianto","#3366ff99"," "," ","1","+10","[1734.2999999523163]","1","2","","","4328","28","1","1","win","go","0"
"pit-trial","153","1125243","0.0-33.0","battery-v0.2","","""event"",""trial"",""time""
""fullscreenenter"",""1"",""1480""
""fullscreenexit"",""19"",""332861""
""blur"",""134"",""1026868""
""focus"",""136"",""1033864""
","""event"",""trial"",""time""
""blur"",""134"",""1026868""
","""event"",""trial"",""time""
""focus"",""136"",""1033864""
","""event"",""trial"",""time""
""fullscreenenter"",""1"",""1480""
","""event"",""trial"",""time""
""fullscreenexit"",""19"",""332861""
","","","785","","","12","4328","1338","l","elianto","#3366ff99"," "," ","1","+10","[1637.8000001907349]","1","2","","","4328","29","1","1","win","go","0"
"pit-trial","154","1130107","0.0-34.0","battery-v0.2","","""event"",""trial"",""time""
""fullscreenenter"",""1"",""1480""
""fullscreenexit"",""19"",""332861""
""blur"",""134"",""1026868""
""focus"",""136"",""1033864""
","""event"",""trial"",""time""
""blur"",""134"",""1026868""
","""event"",""trial"",""time""
""focus"",""136"",""1033864""
","""event"",""trial"",""time""
""fullscreenenter"",""1"",""1480""
","""event"",""trial"",""time""
""fullscreenexit"",""19"",""332861""
","","","-1","","","12","4328","1338","g","elianto","#f73b6a7A"," ","-1","0","-10","[4438.5]","1","2","","","4328","30","3","3","lose","go","0"
"pit-trial","155","1134971","0.0-35.0","battery-v0.2","","""event"",""trial"",""time""
""fullscreenenter"",""1"",""1480""
""fullscreenexit"",""19"",""332861""
""blur"",""134"",""1026868""
""focus"",""136"",""1033864""
","""event"",""trial"",""time""
""blur"",""134"",""1026868""
","""event"",""trial"",""time""
""focus"",""136"",""1033864""
","""event"",""trial"",""time""
""fullscreenenter"",""1"",""1480""
","""event"",""trial"",""time""
""fullscreenexit"",""19"",""332861""
","","","-1","","","12","4328","1338","a","elianto","#f73b6a7A","-1","-1","1","0","[]","0","2","","","4328","31","2","4","lose","no-go","0"
"pit-trial","156","1139835","0.0-36.0","battery-v0.2","","""event"",""trial"",""time""
""fullscreenenter"",""1"",""1480""
""fullscreenexit"",""19"",""332861""
""blur"",""134"",""1026868""
""focus"",""136"",""1033864""
","""event"",""trial"",""time""
""blur"",""134"",""1026868""
","""event"",""trial"",""time""
""focus"",""136"",""1033864""
","""event"",""trial"",""time""
""fullscreenenter"",""1"",""1480""
","""event"",""trial"",""time""
""fullscreenexit"",""19"",""332861""
","","","-1","","","12","4328","1338","u","elianto","#f73b6a7A","-1","-1","1","0","[]","0","2","","","4328","32","0","4","lose","no-go","0"
"pit-trial","157","1144700","0.0-37.0","battery-v0.2","","""event"",""trial"",""time""
""fullscreenenter"",""1"",""1480""
""fullscreenexit"",""19"",""332861""
""blur"",""134"",""1026868""
""focus"",""136"",""1033864""
","""event"",""trial"",""time""
""blur"",""134"",""1026868""
","""event"",""trial"",""time""
""focus"",""136"",""1033864""
","""event"",""trial"",""time""
""fullscreenenter"",""1"",""1480""
","""event"",""trial"",""time""
""fullscreenexit"",""19"",""332861""
","","","-1","","","12","4328","1338","a","elianto","#f73b6a7A","-1","-1","1","0","[]","0","2","","","4328","33","2","4","lose","no-go","0"
"pit-trial","158","1149563","0.0-38.0","battery-v0.2","","""event"",""trial"",""time""
""fullscreenenter"",""1"",""1480""
""fullscreenexit"",""19"",""332861""
""blur"",""134"",""1026868""
""focus"",""136"",""1033864""
","""event"",""trial"",""time""
""blur"",""134"",""1026868""
","""event"",""trial"",""time""
""focus"",""136"",""1033864""
","""event"",""trial"",""time""
""fullscreenenter"",""1"",""1480""
","""event"",""trial"",""time""
""fullscreenexit"",""19"",""332861""
","","","-1","","","12","4328","1338","u","elianto","#f73b6a7A","-1","-1","1","0","[]","0","2","","","4328","34","0","4","lose","no-go","0"
"pit-trial","159","1154426","0.0-39.0","battery-v0.2","","""event"",""trial"",""time""
""fullscreenenter"",""1"",""1480""
""fullscreenexit"",""19"",""332861""
""blur"",""134"",""1026868""
""focus"",""136"",""1033864""
","""event"",""trial"",""time""
""blur"",""134"",""1026868""
","""event"",""trial"",""time""
""focus"",""136"",""1033864""
","""event"",""trial"",""time""
""fullscreenenter"",""1"",""1480""
","""event"",""trial"",""time""
""fullscreenexit"",""19"",""332861""
","","","-1","","","12","4328","1338","l","elianto","#3366ff99"," ","-1","0","0","[]","0","2","","","4328","35","1","1","win","go","0"
"pit-trial","160","1159306","0.0-40.0","battery-v0.2","","""event"",""trial"",""time""
""fullscreenenter"",""1"",""1480""
""fullscreenexit"",""19"",""332861""
""blur"",""134"",""1026868""
""focus"",""136"",""1033864""
","""event"",""trial"",""time""
""blur"",""134"",""1026868""
","""event"",""trial"",""time""
""focus"",""136"",""1033864""
","""event"",""trial"",""time""
""fullscreenenter"",""1"",""1480""
","""event"",""trial"",""time""
""fullscreenexit"",""19"",""332861""
","","","-1","","","12","4328","1338","g","elianto","#f73b6a7A"," ","-1","0","-10","[]","0","2","","","4328","36","3","3","lose","go","0"
"pit-trial","161","1163020","0.0-41.0","battery-v0.2","","""event"",""trial"",""time""
""fullscreenenter"",""1"",""1480""
""fullscreenexit"",""19"",""332861""
""blur"",""134"",""1026868""
""focus"",""136"",""1033864""
","""event"",""trial"",""time""
""blur"",""134"",""1026868""
","""event"",""trial"",""time""
""focus"",""136"",""1033864""
","""event"",""trial"",""time""
""fullscreenenter"",""1"",""1480""
","""event"",""trial"",""time""
""fullscreenexit"",""19"",""332861""
","","","847.6999998092651","","","12","4328","1338","l","elianto","#3366ff99"," "," ","1","+10","[1703.9000000953674]","1","2","","","4328","37","1","1","win","go","0"
"pit-trial","162","1167883","0.0-42.0","battery-v0.2","","""event"",""trial"",""time""
""fullscreenenter"",""1"",""1480""
""fullscreenexit"",""19"",""332861""
""blur"",""134"",""1026868""
""focus"",""136"",""1033864""
","""event"",""trial"",""time""
""blur"",""134"",""1026868""
","""event"",""trial"",""time""
""focus"",""136"",""1033864""
","""event"",""trial"",""time""
""fullscreenenter"",""1"",""1480""
","""event"",""trial"",""time""
""fullscreenexit"",""19"",""332861""
","","","-1","","","12","4328","1338","u","elianto","#f73b6a7A","-1","-1","1","0","[]","0","2","","","4328","38","0","4","lose","no-go","0"
"pit-trial","163","1172747","0.0-43.0","battery-v0.2","","""event"",""trial"",""time""
""fullscreenenter"",""1"",""1480""
""fullscreenexit"",""19"",""332861""
""blur"",""134"",""1026868""
""focus"",""136"",""1033864""
","""event"",""trial"",""time""
""blur"",""134"",""1026868""
","""event"",""trial"",""time""
""focus"",""136"",""1033864""
","""event"",""trial"",""time""
""fullscreenenter"",""1"",""1480""
","""event"",""trial"",""time""
""fullscreenexit"",""19"",""332861""
","","","-1","","","12","4328","1338","g","elianto","#f73b6a7A"," ","-1","0","-10","[]","0","2","","","4328","39","3","3","lose","go","0"
"pit-trial","164","1177610","0.0-44.0","battery-v0.2","","""event"",""trial"",""time""
""fullscreenenter"",""1"",""1480""
""fullscreenexit"",""19"",""332861""
""blur"",""134"",""1026868""
""focus"",""136"",""1033864""
","""event"",""trial"",""time""
""blur"",""134"",""1026868""
","""event"",""trial"",""time""
""focus"",""136"",""1033864""
","""event"",""trial"",""time""
""fullscreenenter"",""1"",""1480""
","""event"",""trial"",""time""
""fullscreenexit"",""19"",""332861""
","","","-1","","","12","4328","1338","a","elianto","#f73b6a7A","-1","-1","1","0","[]","0","2","","","4328","40","2","4","lose","no-go","0"
"pit-trial","165","1182475","0.0-45.0","battery-v0.2","","""event"",""trial"",""time""
""fullscreenenter"",""1"",""1480""
""fullscreenexit"",""19"",""332861""
""blur"",""134"",""1026868""
""focus"",""136"",""1033864""
","""event"",""trial"",""time""
""blur"",""134"",""1026868""
","""event"",""trial"",""time""
""focus"",""136"",""1033864""
","""event"",""trial"",""time""
""fullscreenenter"",""1"",""1480""
","""event"",""trial"",""time""
""fullscreenexit"",""19"",""332861""
","","","-1","","","12","4328","1338","g","elianto","#f73b6a7A"," ","-1","0","-10","[]","0","2","","","4328","41","3","3","lose","go","0"
"pit-trial","166","1187339","0.0-46.0","battery-v0.2","","""event"",""trial"",""time""
""fullscreenenter"",""1"",""1480""
""fullscreenexit"",""19"",""332861""
""blur"",""134"",""1026868""
""focus"",""136"",""1033864""
","""event"",""trial"",""time""
""blur"",""134"",""1026868""
","""event"",""trial"",""time""
""focus"",""136"",""1033864""
","""event"",""trial"",""time""
""fullscreenenter"",""1"",""1480""
","""event"",""trial"",""time""
""fullscreenexit"",""19"",""332861""
","","","-1","","","12","4328","1338","u","elianto","#f73b6a7A","-1","-1","1","0","[]","0","2","","","4328","42","0","4","lose","no-go","0"
"pit-trial","167","1192202","0.0-47.0","battery-v0.2","","""event"",""trial"",""time""
""fullscreenenter"",""1"",""1480""
""fullscreenexit"",""19"",""332861""
""blur"",""134"",""1026868""
""focus"",""136"",""1033864""
","""event"",""trial"",""time""
""blur"",""134"",""1026868""
","""event"",""trial"",""time""
""focus"",""136"",""1033864""
","""event"",""trial"",""time""
""fullscreenenter"",""1"",""1480""
","""event"",""trial"",""time""
""fullscreenexit"",""19"",""332861""
","","","-1","","","12","4328","1338","a","elianto","#f73b6a7A","-1","-1","1","0","[]","0","2","","","4328","43","2","4","lose","no-go","0"
"pit-trial","168","1197067","0.0-48.0","battery-v0.2","","""event"",""trial"",""time""
""fullscreenenter"",""1"",""1480""
""fullscreenexit"",""19"",""332861""
""blur"",""134"",""1026868""
""focus"",""136"",""1033864""
","""event"",""trial"",""time""
""blur"",""134"",""1026868""
","""event"",""trial"",""time""
""focus"",""136"",""1033864""
","""event"",""trial"",""time""
""fullscreenenter"",""1"",""1480""
","""event"",""trial"",""time""
""fullscreenexit"",""19"",""332861""
","","","-1","","","12","4328","1338","l","elianto","#3366ff99"," ","-1","0","+10","[]","0","2","","","4328","44","1","1","win","go","1"
"pit-trial","169","1201931","0.0-49.0","battery-v0.2","","""event"",""trial"",""time""
""fullscreenenter"",""1"",""1480""
""fullscreenexit"",""19"",""332861""
""blur"",""134"",""1026868""
""focus"",""136"",""1033864""
","""event"",""trial"",""time""
""blur"",""134"",""1026868""
","""event"",""trial"",""time""
""focus"",""136"",""1033864""
","""event"",""trial"",""time""
""fullscreenenter"",""1"",""1480""
","""event"",""trial"",""time""
""fullscreenexit"",""19"",""332861""
","","","-1","","","12","4328","1338","g","elianto","#f73b6a7A"," ","-1","0","-10","[]","0","2","","","4328","45","3","3","lose","go","0"
"pit-trial","170","1206795","0.0-50.0","battery-v0.2","","""event"",""trial"",""time""
""fullscreenenter"",""1"",""1480""
""fullscreenexit"",""19"",""332861""
""blur"",""134"",""1026868""
""focus"",""136"",""1033864""
","""event"",""trial"",""time""
""blur"",""134"",""1026868""
","""event"",""trial"",""time""
""focus"",""136"",""1033864""
","""event"",""trial"",""time""
""fullscreenenter"",""1"",""1480""
","""event"",""trial"",""time""
""fullscreenexit"",""19"",""332861""
","","","-1","","","12","4328","1338","u","elianto","#f73b6a7A","-1","-1","1","-10","[]","0","2","","","4328","46","0","4","lose","no-go","1"
"pit-trial","171","1211674","0.0-51.0","battery-v0.2","","""event"",""trial"",""time""
""fullscreenenter"",""1"",""1480""
""fullscreenexit"",""19"",""332861""
""blur"",""134"",""1026868""
""focus"",""136"",""1033864""
","""event"",""trial"",""time""
""blur"",""134"",""1026868""
","""event"",""trial"",""time""
""focus"",""136"",""1033864""
","""event"",""trial"",""time""
""fullscreenenter"",""1"",""1480""
","""event"",""trial"",""time""
""fullscreenexit"",""19"",""332861""
","","","-1","","","12","4328","1338","p","elianto","#3366ff99","-1","-1","1","+10","[]","0","2","","","4328","47","4","2","win","no-go","0"
"pit-trial","172","1216539","0.0-52.0","battery-v0.2","","""event"",""trial"",""time""
""fullscreenenter"",""1"",""1480""
""fullscreenexit"",""19"",""332861""
""blur"",""134"",""1026868""
""focus"",""136"",""1033864""
","""event"",""trial"",""time""
""blur"",""134"",""1026868""
","""event"",""trial"",""time""
""focus"",""136"",""1033864""
","""event"",""trial"",""time""
""fullscreenenter"",""1"",""1480""
","""event"",""trial"",""time""
""fullscreenexit"",""19"",""332861""
","","","-1","","","12","4328","1338","a","elianto","#f73b6a7A","-1","-1","1","0","[]","0","2","","","4328","48","2","4","lose","no-go","0"
"pit-trial","173","1221403","0.0-53.0","battery-v0.2","","""event"",""trial"",""time""
""fullscreenenter"",""1"",""1480""
""fullscreenexit"",""19"",""332861""
""blur"",""134"",""1026868""
""focus"",""136"",""1033864""
","""event"",""trial"",""time""
""blur"",""134"",""1026868""
","""event"",""trial"",""time""
""focus"",""136"",""1033864""
","""event"",""trial"",""time""
""fullscreenenter"",""1"",""1480""
","""event"",""trial"",""time""
""fullscreenexit"",""19"",""332861""
","","","-1","","","12","4328","1338","g","elianto","#f73b6a7A"," ","-1","0","-10","[]","0","2","","","4328","49","3","3","lose","go","0"
"pit-trial","174","1226266","0.0-54.0","battery-v0.2","","""event"",""trial"",""time""
""fullscreenenter"",""1"",""1480""
""fullscreenexit"",""19"",""332861""
""blur"",""134"",""1026868""
""focus"",""136"",""1033864""
","""event"",""trial"",""time""
""blur"",""134"",""1026868""
","""event"",""trial"",""time""
""focus"",""136"",""1033864""
","""event"",""trial"",""time""
""fullscreenenter"",""1"",""1480""
","""event"",""trial"",""time""
""fullscreenexit"",""19"",""332861""
","","","-1","","","12","4328","1338","u","elianto","#f73b6a7A","-1","-1","1","-10","[]","0","2","","","4328","50","0","4","lose","no-go","1"
"pit-trial","175","1230620","0.0-55.0","battery-v0.2","","""event"",""trial"",""time""
""fullscreenenter"",""1"",""1480""
""fullscreenexit"",""19"",""332861""
""blur"",""134"",""1026868""
""focus"",""136"",""1033864""
","""event"",""trial"",""time""
""blur"",""134"",""1026868""
","""event"",""trial"",""time""
""focus"",""136"",""1033864""
","""event"",""trial"",""time""
""fullscreenenter"",""1"",""1480""
","""event"",""trial"",""time""
""fullscreenexit"",""19"",""332861""
","","","1490.2000000476837","","","12","4328","1338","l","elianto","#3366ff99"," "," ","1","0","[2343.399999856949]","1","2","","","4328","51","1","1","win","go","1"
"pit-trial","176","1235476","0.0-56.0","battery-v0.2","","""event"",""trial"",""time""
""fullscreenenter"",""1"",""1480""
""fullscreenexit"",""19"",""332861""
""blur"",""134"",""1026868""
""focus"",""136"",""1033864""
","""event"",""trial"",""time""
""blur"",""134"",""1026868""
","""event"",""trial"",""time""
""focus"",""136"",""1033864""
","""event"",""trial"",""time""
""fullscreenenter"",""1"",""1480""
","""event"",""trial"",""time""
""fullscreenexit"",""19"",""332861""
","","","-1","","","12","4328","1338","p","elianto","#3366ff99","-1","-1","1","+10","[]","0","2","","","4328","52","4","2","win","no-go","0"
"pit-trial","177","1240338","0.0-57.0","battery-v0.2","","""event"",""trial"",""time""
""fullscreenenter"",""1"",""1480""
""fullscreenexit"",""19"",""332861""
""blur"",""134"",""1026868""
""focus"",""136"",""1033864""
","""event"",""trial"",""time""
""blur"",""134"",""1026868""
","""event"",""trial"",""time""
""focus"",""136"",""1033864""
","""event"",""trial"",""time""
""fullscreenenter"",""1"",""1480""
","""event"",""trial"",""time""
""fullscreenexit"",""19"",""332861""
","","","-1","","","12","4328","1338","u","elianto","#f73b6a7A","-1","-1","1","0","[]","0","2","","","4328","53","0","4","lose","no-go","0"
"pit-trial","178","1245204","0.0-58.0","battery-v0.2","","""event"",""trial"",""time""
""fullscreenenter"",""1"",""1480""
""fullscreenexit"",""19"",""332861""
""blur"",""134"",""1026868""
""focus"",""136"",""1033864""
","""event"",""trial"",""time""
""blur"",""134"",""1026868""
","""event"",""trial"",""time""
""focus"",""136"",""1033864""
","""event"",""trial"",""time""
""fullscreenenter"",""1"",""1480""
","""event"",""trial"",""time""
""fullscreenexit"",""19"",""332861""
","","","-1","","","12","4328","1338","l","elianto","#3366ff99"," ","-1","0","0","[]","0","2","","","4328","54","1","1","win","go","0"
"pit-trial","179","1250066","0.0-59.0","battery-v0.2","","""event"",""trial"",""time""
""fullscreenenter"",""1"",""1480""
""fullscreenexit"",""19"",""332861""
""blur"",""134"",""1026868""
""focus"",""136"",""1033864""
","""event"",""trial"",""time""
""blur"",""134"",""1026868""
","""event"",""trial"",""time""
""focus"",""136"",""1033864""
","""event"",""trial"",""time""
""fullscreenenter"",""1"",""1480""
","""event"",""trial"",""time""
""fullscreenexit"",""19"",""332861""
","","","-1","","","12","4328","1338","a","elianto","#f73b6a7A","-1","-1","1","0","[]","0","2","","","4328","55","2","4","lose","no-go","0"
"pit-trial","180","1254931","0.0-60.0","battery-v0.2","","""event"",""trial"",""time""
""fullscreenenter"",""1"",""1480""
""fullscreenexit"",""19"",""332861""
""blur"",""134"",""1026868""
""focus"",""136"",""1033864""
","""event"",""trial"",""time""
""blur"",""134"",""1026868""
","""event"",""trial"",""time""
""focus"",""136"",""1033864""
","""event"",""trial"",""time""
""fullscreenenter"",""1"",""1480""
","""event"",""trial"",""time""
""fullscreenexit"",""19"",""332861""
","","","-1","","","12","4328","1338","p","elianto","#3366ff99","-1","-1","1","+10","[]","0","2","","","4328","56","4","2","win","no-go","0"
"pit-trial","181","1259795","0.0-61.0","battery-v0.2","","""event"",""trial"",""time""
""fullscreenenter"",""1"",""1480""
""fullscreenexit"",""19"",""332861""
""blur"",""134"",""1026868""
""focus"",""136"",""1033864""
","""event"",""trial"",""time""
""blur"",""134"",""1026868""
","""event"",""trial"",""time""
""focus"",""136"",""1033864""
","""event"",""trial"",""time""
""fullscreenenter"",""1"",""1480""
","""event"",""trial"",""time""
""fullscreenexit"",""19"",""332861""
","","","-1","","","12","4328","1338","l","elianto","#3366ff99"," ","-1","0","0","[]","0","2","","","4328","57","1","1","win","go","0"
"pit-trial","182","1264658","0.0-62.0","battery-v0.2","","""event"",""trial"",""time""
""fullscreenenter"",""1"",""1480""
""fullscreenexit"",""19"",""332861""
""blur"",""134"",""1026868""
""focus"",""136"",""1033864""
","""event"",""trial"",""time""
""blur"",""134"",""1026868""
","""event"",""trial"",""time""
""focus"",""136"",""1033864""
","""event"",""trial"",""time""
""fullscreenenter"",""1"",""1480""
","""event"",""trial"",""time""
""fullscreenexit"",""19"",""332861""
","","","-1","","","12","4328","1338","u","elianto","#f73b6a7A","-1","-1","1","-10","[]","0","2","","","4328","58","0","4","lose","no-go","1"
"pit-trial","183","1269522","0.0-63.0","battery-v0.2","","""event"",""trial"",""time""
""fullscreenenter"",""1"",""1480""
""fullscreenexit"",""19"",""332861""
""blur"",""134"",""1026868""
""focus"",""136"",""1033864""
","""event"",""trial"",""time""
""blur"",""134"",""1026868""
","""event"",""trial"",""time""
""focus"",""136"",""1033864""
","""event"",""trial"",""time""
""fullscreenenter"",""1"",""1480""
","""event"",""trial"",""time""
""fullscreenexit"",""19"",""332861""
","","","-1","","","12","4328","1338","p","elianto","#3366ff99","-1","-1","1","+10","[]","0","2","","","4328","59","4","2","win","no-go","0"
"pit-trial","184","1274387","0.0-64.0","battery-v0.2","","""event"",""trial"",""time""
""fullscreenenter"",""1"",""1480""
""fullscreenexit"",""19"",""332861""
""blur"",""134"",""1026868""
""focus"",""136"",""1033864""
","""event"",""trial"",""time""
""blur"",""134"",""1026868""
","""event"",""trial"",""time""
""focus"",""136"",""1033864""
","""event"",""trial"",""time""
""fullscreenenter"",""1"",""1480""
","""event"",""trial"",""time""
""fullscreenexit"",""19"",""332861""
","","","-1","","","12","4328","1338","g","elianto","#f73b6a7A"," ","-1","0","-10","[]","0","2","","","4328","60","3","3","lose","go","0"
"pit-trial","185","1279251","0.0-65.0","battery-v0.2","","""event"",""trial"",""time""
""fullscreenenter"",""1"",""1480""
""fullscreenexit"",""19"",""332861""
""blur"",""134"",""1026868""
""focus"",""136"",""1033864""
","""event"",""trial"",""time""
""blur"",""134"",""1026868""
","""event"",""trial"",""time""
""focus"",""136"",""1033864""
","""event"",""trial"",""time""
""fullscreenenter"",""1"",""1480""
","""event"",""trial"",""time""
""fullscreenexit"",""19"",""332861""
","","","-1","","","12","4328","1338","l","elianto","#3366ff99"," ","-1","0","0","[]","0","2","","","4328","61","1","1","win","go","0"
"pit-trial","186","1284114","0.0-66.0","battery-v0.2","","""event"",""trial"",""time""
""fullscreenenter"",""1"",""1480""
""fullscreenexit"",""19"",""332861""
""blur"",""134"",""1026868""
""focus"",""136"",""1033864""
","""event"",""trial"",""time""
""blur"",""134"",""1026868""
","""event"",""trial"",""time""
""focus"",""136"",""1033864""
","""event"",""trial"",""time""
""fullscreenenter"",""1"",""1480""
","""event"",""trial"",""time""
""fullscreenexit"",""19"",""332861""
","","","-1","","","12","4328","1338","a","elianto","#f73b6a7A","-1","-1","1","0","[]","0","2","","","4328","62","2","4","lose","no-go","0"
"pit-trial","187","1288978","0.0-67.0","battery-v0.2","","""event"",""trial"",""time""
""fullscreenenter"",""1"",""1480""
""fullscreenexit"",""19"",""332861""
""blur"",""134"",""1026868""
""focus"",""136"",""1033864""
","""event"",""trial"",""time""
""blur"",""134"",""1026868""
","""event"",""trial"",""time""