"trial_type","trial_index","time_elapsed","internal_node_id","task_version","subject_id","interactions","blur_events","focus_events","fullscreenenter_events","fullscreenexit_events","success","view_history","rt","responses","num_errors","age","subject","participantId","rune","rune_set","hex","correct","choice","accuracy","outcome","keys","total_keys","block","practice","value","sub","trial","stimulus","robot","valence","action","sham"
"pavlovia","0","12","0.0-0.0","battery-v0.2","","""event"",""trial"",""time""
""focus"",""0"",""1""
""fullscreenenter"",""1"",""4390""
","
","""event"",""trial"",""time""
""focus"",""0"",""1""
","""event"",""trial"",""time""
""fullscreenenter"",""1"",""4390""
","
","","","","","","","","","","","","","","","","","","","","","","","","","","",""
"fullscreen","1","5145","0.0-1.0","battery-v0.2","","""event"",""trial"",""time""
""focus"",""0"",""1""
""fullscreenenter"",""1"",""4390""
","
","""event"",""trial"",""time""
""focus"",""0"",""1""
","""event"",""trial"",""time""
""fullscreenenter"",""1"",""4390""
","
","true","","","","","","","","","","","","","","","","","","","","","","","","","",""
"pit-instructions","2","12371","0.0-2.0-0.0","battery-v0.2","","""event"",""trial"",""time""
""focus"",""0"",""1""
""fullscreenenter"",""1"",""4390""
","
","""event"",""trial"",""time""
""focus"",""0"",""1""
","""event"",""trial"",""time""
""fullscreenenter"",""1"",""4390""
","
","","[{""page_index"":0,""viewing_time"":7219}]","7219","","","","","","","","","","","","","","","","","","","","","","","",""
"pit-comprehension","3","15267","0.0-2.0-1.0-0.0","battery-v0.2","","""event"",""trial"",""time""
""focus"",""0"",""1""
""fullscreenenter"",""1"",""4390""
","
","""event"",""trial"",""time""
""focus"",""0"",""1""
","""event"",""trial"",""time""
""fullscreenenter"",""1"",""4390""
","
","","","2888","[""shark""]","0","20","10379","1786","","","","","","","","","","","","","","","","","","",""
"pit-instructions","4","16923","0.0-2.0-1.0-1.0","battery-v0.2","","""event"",""trial"",""time""
""focus"",""0"",""1""
""fullscreenenter"",""1"",""4390""
","
","""event"",""trial"",""time""
""focus"",""0"",""1""
","""event"",""trial"",""time""
""fullscreenenter"",""1"",""4390""
","
","","[{""page_index"":0,""viewing_time"":1643}]","1643","","","","","","","","","","","","","","","","","","","","","","","",""
"pit-comprehension","5","19797","0.0-2.0-2.0-0.0","battery-v0.2","","""event"",""trial"",""time""
""focus"",""0"",""1""
""fullscreenenter"",""1"",""4390""
","
","""event"",""trial"",""time""
""focus"",""0"",""1""
","""event"",""trial"",""time""
""fullscreenenter"",""1"",""4390""
","
","","","2868","[""tiger""]","0","20","10379","1786","","","","","","","","","","","","","","","","","","",""
"pit-instructions","6","21617","0.0-2.0-2.0-1.0","battery-v0.2","","""event"",""trial"",""time""
""focus"",""0"",""1""
""fullscreenenter"",""1"",""4390""
","
","""event"",""trial"",""time""
""focus"",""0"",""1""
","""event"",""trial"",""time""
""fullscreenenter"",""1"",""4390""
","
","","[{""page_index"":0,""viewing_time"":1813}]","1813","","","","","","","","","","","","","","","","","","","","","","","",""
"pit-instructions","7","124316","0.0-2.0-3.0","battery-v0.2","","""event"",""trial"",""time""
""focus"",""0"",""1""
""fullscreenenter"",""1"",""4390""
","
","""event"",""trial"",""time""
""focus"",""0"",""1""
","""event"",""trial"",""time""
""fullscreenenter"",""1"",""4390""
","
","","[{""page_index"":0,""viewing_time"":10070},{""page_index"":1,""viewing_time"":6583},{""page_index"":2,""viewing_time"":6431},{""page_index"":3,""viewing_time"":6140},{""page_index"":4,""viewing_time"":6422},{""page_index"":5,""viewing_time"":6303},{""page_index"":6,""viewing_time"":7669},{""page_index"":7,""viewing_time"":7247},{""page_index"":8,""viewing_time"":6227},{""page_index"":9,""viewing_time"":10242},{""page_index"":10,""viewing_time"":8222},{""page_index"":11,""viewing_time"":8209},{""page_index"":12,""viewing_time"":6828},{""page_index"":13,""viewing_time"":6097}]","102691","","","","","","","","","","","","","","","","","","","","","","","",""
"pit-trial","8","127746","0.0-2.0-4.0-0.0","battery-v0.2","","""event"",""trial"",""time""
""focus"",""0"",""1""
""fullscreenenter"",""1"",""4390""
","
","""event"",""trial"",""time""
""focus"",""0"",""1""
","""event"",""trial"",""time""
""fullscreenenter"",""1"",""4390""
","
","","","561","","","20","10379","1786","&#9784;","elianto","#FFFFF080"," "," ","1","&#10004","[1417]","1","0","0","","","","","","","",""
"pit-trial","9","131227","0.0-2.0-4.1-0.1","battery-v0.2","","""event"",""trial"",""time""
""focus"",""0"",""1""
""fullscreenenter"",""1"",""4390""
","
","""event"",""trial"",""time""
""focus"",""0"",""1""
","""event"",""trial"",""time""
""fullscreenenter"",""1"",""4390""
","
","","","593","","","20","10379","1786","&#9784;","elianto","#FFFFF080"," "," ","1","&#10004","[1462]","1","0","0","","","","","","","",""
"pit-trial","10","134661","0.0-2.0-4.2-0.2","battery-v0.2","","""event"",""trial"",""time""
""focus"",""0"",""1""
""fullscreenenter"",""1"",""4390""
","
","""event"",""trial"",""time""
""focus"",""0"",""1""
","""event"",""trial"",""time""
""fullscreenenter"",""1"",""4390""
","
","","","574","","","20","10379","1786","&#9784;","elianto","#FFFFF080"," "," ","1","&#10004","[1431]","1","0","0","","","","","","","",""
"pit-trial","11","138090","0.0-2.0-4.3-0.3","battery-v0.2","","""event"",""trial"",""time""
""focus"",""0"",""1""
""fullscreenenter"",""1"",""4390""
","
","""event"",""trial"",""time""
""focus"",""0"",""1""
","""event"",""trial"",""time""
""fullscreenenter"",""1"",""4390""
","
","","","557","","","20","10379","1786","&#9784;","elianto","#FFFFF080"," "," ","1","&#10004","[1408]","1","0","0","","","","","","","",""
"pit-trial","12","141533","0.0-2.0-4.4-0.4","battery-v0.2","","""event"",""trial"",""time""
""focus"",""0"",""1""
""fullscreenenter"",""1"",""4390""
","
","""event"",""trial"",""time""
""focus"",""0"",""1""
","""event"",""trial"",""time""
""fullscreenenter"",""1"",""4390""
","
","","","530","","","20","10379","1786","&#9784;","elianto","#FFFFF080"," "," ","1","&#10004","[1436]","1","0","0","","","","","","","",""
"pit-instructions","13","165186","0.0-2.0-5.0","battery-v0.2","","""event"",""trial"",""time""
""focus"",""0"",""1""
""fullscreenenter"",""1"",""4390""
","
","""event"",""trial"",""time""
""focus"",""0"",""1""
","""event"",""trial"",""time""
""fullscreenenter"",""1"",""4390""
","
","","[{""page_index"":0,""viewing_time"":5605},{""page_index"":1,""viewing_time"":5891},{""page_index"":2,""viewing_time"":5403},{""page_index"":3,""viewing_time"":6749}]","23648","","","","","","","","","","","","","","","","","","","","","","","",""
"pit-trial","14","170064","0.0-2.0-6.0-0.0","battery-v0.2","","""event"",""trial"",""time""
""focus"",""0"",""1""
""fullscreenenter"",""1"",""4390""
","
","""event"",""trial"",""time""
""focus"",""0"",""1""
","""event"",""trial"",""time""
""fullscreenenter"",""1"",""4390""
","
","","","-1","","","20","10379","1786","&#9854;","elianto","#FFFFF080","-1","-1","1","&#10004","[]","0","0","1","","","","","","","",""
"pit-trial","15","174935","0.0-2.0-6.1-0.1","battery-v0.2","","""event"",""trial"",""time""
""focus"",""0"",""1""
""fullscreenenter"",""1"",""4390""
","
","""event"",""trial"",""time""
""focus"",""0"",""1""
","""event"",""trial"",""time""
""fullscreenenter"",""1"",""4390""
","
","","","-1","","","20","10379","1786","&#9854;","elianto","#FFFFF080","-1","-1","1","&#10004","[]","0","0","1","","","","","","","",""
"pit-trial","16","179809","0.0-2.0-6.2-0.2","battery-v0.2","","""event"",""trial"",""time""
""focus"",""0"",""1""
""fullscreenenter"",""1"",""4390""
","
","""event"",""trial"",""time""
""focus"",""0"",""1""
","""event"",""trial"",""time""
""fullscreenenter"",""1"",""4390""
","
","","","-1","","","20","10379","1786","&#9854;","elianto","#FFFFF080","-1","-1","1","&#10004","[]","0","0","1","","","","","","","",""
"pit-trial","17","184666","0.0-2.0-6.3-0.3","battery-v0.2","","""event"",""trial"",""time""
""focus"",""0"",""1""
""fullscreenenter"",""1"",""4390""
","
","""event"",""trial"",""time""
""focus"",""0"",""1""
","""event"",""trial"",""time""
""fullscreenenter"",""1"",""4390""
","
","","","-1","","","20","10379","1786","&#9854;","elianto","#FFFFF080","-1","-1","1","&#10004","[]","0","0","1","","","","","","","",""
"pit-trial","18","189536","0.0-2.0-6.4-0.4","battery-v0.2","","""event"",""trial"",""time""
""focus"",""0"",""1""
""fullscreenenter"",""1"",""4390""
","
","""event"",""trial"",""time""
""focus"",""0"",""1""
","""event"",""trial"",""time""
""fullscreenenter"",""1"",""4390""
","
","","","-1","","","20","10379","1786","&#9854;","elianto","#FFFFF080","-1","-1","1","&#10004","[]","0","0","1","","","","","","","",""
"pit-instructions","19","323718","0.0-2.0-7.0","battery-v0.2","","""event"",""trial"",""time""
""focus"",""0"",""1""
""fullscreenenter"",""1"",""4390""
","
","""event"",""trial"",""time""
""focus"",""0"",""1""
","""event"",""trial"",""time""
""fullscreenenter"",""1"",""4390""
","
","","[{""page_index"":0,""viewing_time"":6314},{""page_index"":1,""viewing_time"":8574},{""page_index"":2,""viewing_time"":8369},{""page_index"":3,""viewing_time"":10019},{""page_index"":4,""viewing_time"":6666},{""page_index"":5,""viewing_time"":6314},{""page_index"":6,""viewing_time"":5215},{""page_index"":7,""viewing_time"":9765},{""page_index"":8,""viewing_time"":7432},{""page_index"":9,""viewing_time"":6892},{""page_index"":10,""viewing_time"":7410},{""page_index"":11,""viewing_time"":5094},{""page_index"":12,""viewing_time"":7770},{""page_index"":13,""viewing_time"":8217},{""page_index"":14,""viewing_time"":7894},{""page_index"":15,""viewing_time"":7055},{""page_index"":16,""viewing_time"":7553},{""page_index"":17,""viewing_time"":7623}]","134177","","","","","","","","","","","","","","","","","","","","","","","",""
"pit-trial","20","327184","0.0-2.0-8.0-0.0","battery-v0.2","","""event"",""trial"",""time""
""focus"",""0"",""1""
""fullscreenenter"",""1"",""4390""
","
","""event"",""trial"",""time""
""focus"",""0"",""1""
","""event"",""trial"",""time""
""fullscreenenter"",""1"",""4390""
","
","","","555","","","20","10379","1786","&#9776;","elianto","#3366ff99"," "," ","1","+10","[1449]","1","0","1","","","","","","","",""
"pit-trial","21","330614","0.0-2.0-8.0-1.0","battery-v0.2","","""event"",""trial"",""time""
""focus"",""0"",""1""
""fullscreenenter"",""1"",""4390""
","
","""event"",""trial"",""time""
""focus"",""0"",""1""
","""event"",""trial"",""time""
""fullscreenenter"",""1"",""4390""
","
","","","560","","","20","10379","1786","&#9776;","elianto","#3366ff99"," "," ","1","+10","[1424]","1","0","1","","","","","","","",""
"pit-trial","22","334006","0.0-2.0-8.0-2.0","battery-v0.2","","""event"",""trial"",""time""
""focus"",""0"",""1""
""fullscreenenter"",""1"",""4390""
","
","""event"",""trial"",""time""
""focus"",""0"",""1""
","""event"",""trial"",""time""
""fullscreenenter"",""1"",""4390""
","
","","","526","","","20","10379","1786","&#9776;","elianto","#3366ff99"," "," ","1","+10","[1379]","1","0","1","","","","","","","",""
"pit-trial","23","337394","0.0-2.0-8.0-3.0","battery-v0.2","","""event"",""trial"",""time""
""focus"",""0"",""1""
""fullscreenenter"",""1"",""4390""
","
","""event"",""trial"",""time""
""focus"",""0"",""1""
","""event"",""trial"",""time""
""fullscreenenter"",""1"",""4390""
","
","","","477","","","20","10379","1786","&#9776;","elianto","#3366ff99"," "," ","1","0","[1379]","1","0","1","","","","","","","",""
"pit-trial","24","340994","0.0-2.0-8.0-4.0","battery-v0.2","","""event"",""trial"",""time""
""focus"",""0"",""1""
""fullscreenenter"",""1"",""4390""
","
","""event"",""trial"",""time""
""focus"",""0"",""1""
","""event"",""trial"",""time""
""fullscreenenter"",""1"",""4390""
","
","","","673","","","20","10379","1786","&#9776;","elianto","#3366ff99"," "," ","1","+10","[1532]","1","0","1","","","","","","","",""
"pit-trial","25","344450","0.0-2.0-8.1-0.1","battery-v0.2","","""event"",""trial"",""time""
""focus"",""0"",""1""
""fullscreenenter"",""1"",""4390""
","
","""event"",""trial"",""time""
""focus"",""0"",""1""
","""event"",""trial"",""time""
""fullscreenenter"",""1"",""4390""
","
","","","539","","","20","10379","1786","&#9776;","elianto","#3366ff99"," "," ","1","+10","[1438]","1","0","1","","","","","","","",""
"pit-trial","26","347953","0.0-2.0-8.1-1.1","battery-v0.2","","""event"",""trial"",""time""
""focus"",""0"",""1""
""fullscreenenter"",""1"",""4390""
","
","""event"",""trial"",""time""
""focus"",""0"",""1""
","""event"",""trial"",""time""
""fullscreenenter"",""1"",""4390""
","
","","","641","","","20","10379","1786","&#9776;","elianto","#3366ff99"," "," ","1","+10","[1498]","1","0","1","","","","","","","",""
"pit-trial","27","351355","0.0-2.0-8.1-2.1","battery-v0.2","","""event"",""trial"",""time""
""focus"",""0"",""1""
""fullscreenenter"",""1"",""4390""
","
","""event"",""trial"",""time""
""focus"",""0"",""1""
","""event"",""trial"",""time""
""fullscreenenter"",""1"",""4390""
","
","","","524","","","20","10379","1786","&#9776;","elianto","#3366ff99"," "," ","1","+10","[1384]","1","0","1","","","","","","","",""
"pit-trial","28","354735","0.0-2.0-8.1-3.1","battery-v0.2","","""event"",""trial"",""time""
""focus"",""0"",""1""
""fullscreenenter"",""1"",""4390""
","
","""event"",""trial"",""time""
""focus"",""0"",""1""
","""event"",""trial"",""time""
""fullscreenenter"",""1"",""4390""
","
","","","509","","","20","10379","1786","&#9776;","elianto","#3366ff99"," "," ","1","0","[1363]","1","0","1","","","","","","","",""
"pit-trial","29","357950","0.0-2.0-8.1-4.1","battery-v0.2","","""event"",""trial"",""time""
""focus"",""0"",""1""
""fullscreenenter"",""1"",""4390""
","
","""event"",""trial"",""time""
""focus"",""0"",""1""
","""event"",""trial"",""time""
""fullscreenenter"",""1"",""4390""
","
","","","322","","","20","10379","1786","&#9776;","elianto","#3366ff99"," "," ","1","+10","[1211]","1","0","1","","","","","","","",""
"pit-trial","30","361593","0.0-2.0-8.2-0.2","battery-v0.2","","""event"",""trial"",""time""
""focus"",""0"",""1""
""fullscreenenter"",""1"",""4390""
","
","""event"",""trial"",""time""
""focus"",""0"",""1""
","""event"",""trial"",""time""
""fullscreenenter"",""1"",""4390""
","
","","","778","","","20","10379","1786","&#9776;","elianto","#3366ff99"," "," ","1","+10","[1638]","1","0","1","","","","","","","",""
"pit-trial","31","364915","0.0-2.0-8.2-1.2","battery-v0.2","","""event"",""trial"",""time""
""focus"",""0"",""1""
""fullscreenenter"",""1"",""4390""
","
","""event"",""trial"",""time""
""focus"",""0"",""1""
","""event"",""trial"",""time""
""fullscreenenter"",""1"",""4390""
","
","","","449","","","20","10379","1786","&#9776;","elianto","#3366ff99"," "," ","1","+10","[1305]","1","0","1","","","","","","","",""
"pit-trial","32","368188","0.0-2.0-8.2-2.2","battery-v0.2","","""event"",""trial"",""time""
""focus"",""0"",""1""
""fullscreenenter"",""1"",""4390""
","
","""event"",""trial"",""time""
""focus"",""0"",""1""
","""event"",""trial"",""time""
""fullscreenenter"",""1"",""4390""
","
","","","403","","","20","10379","1786","&#9776;","elianto","#3366ff99"," "," ","1","+10","[1260]","1","0","1","","","","","","","",""
"pit-trial","33","371465","0.0-2.0-8.2-3.2","battery-v0.2","","""event"",""trial"",""time""
""focus"",""0"",""1""
""fullscreenenter"",""1"",""4390""
","
","""event"",""trial"",""time""
""focus"",""0"",""1""
","""event"",""trial"",""time""
""fullscreenenter"",""1"",""4390""
","
","","","407","","","20","10379","1786","&#9776;","elianto","#3366ff99"," "," ","1","0","[1261]","1","0","1","","","","","","","",""
"pit-trial","34","374694","0.0-2.0-8.2-4.2","battery-v0.2","","""event"",""trial"",""time""
""focus"",""0"",""1""
""fullscreenenter"",""1"",""4390""
","
","""event"",""trial"",""time""
""focus"",""0"",""1""
","""event"",""trial"",""time""
""fullscreenenter"",""1"",""4390""
","
","","","372","","","20","10379","1786","&#9776;","elianto","#3366ff99"," "," ","1","+10","[1227]","1","0","1","","","","","","","",""
"call-function","35","374695","0.0-2.0-9.0","battery-v0.2","","""event"",""trial"",""time""
""focus"",""0"",""1""
""fullscreenenter"",""1"",""4390""
","
","""event"",""trial"",""time""
""focus"",""0"",""1""
","""event"",""trial"",""time""
""fullscreenenter"",""1"",""4390""
","
","","","","","","","","","","","","","","","","","","","","","","","","","","",""
"pit-instructions","36","418400","0.0-2.0-10.0","battery-v0.2","","""event"",""trial"",""time""
""focus"",""0"",""1""
""fullscreenenter"",""1"",""4390""
","
","""event"",""trial"",""time""
""focus"",""0"",""1""
","""event"",""trial"",""time""
""fullscreenenter"",""1"",""4390""
","
","","[{""page_index"":0,""viewing_time"":6276},{""page_index"":1,""viewing_time"":7367},{""page_index"":2,""viewing_time"":10289},{""page_index"":3,""viewing_time"":10232},{""page_index"":4,""viewing_time"":9540}]","43704","","","","","","","","","","","","","","","","","","","","","","","",""
"pit-trial","37","421990","0.0-2.0-11.0-0.0","battery-v0.2","","""event"",""trial"",""time""
""focus"",""0"",""1""
""fullscreenenter"",""1"",""4390""
","
","""event"",""trial"",""time""
""focus"",""0"",""1""
","""event"",""trial"",""time""
""fullscreenenter"",""1"",""4390""
","
","","","717","","","20","10379","1786","&#9761;","elianto","#3366ff99","-1"," ","0","0","[1575]","1","0","2","","","","","","","",""
"pit-trial","38","426863","0.0-2.0-11.0-1.0","battery-v0.2","","""event"",""trial"",""time""
""focus"",""0"",""1""
""fullscreenenter"",""1"",""4390""
","
","""event"",""trial"",""time""
""focus"",""0"",""1""
","""event"",""trial"",""time""
""fullscreenenter"",""1"",""4390""
","
","","","-1","","","20","10379","1786","&#9761;","elianto","#3366ff99","-1","-1","1","+10","[]","0","0","2","","","","","","","",""
"pit-trial","39","431731","0.0-2.0-11.0-2.0","battery-v0.2","","""event"",""trial"",""time""
""focus"",""0"",""1""
""fullscreenenter"",""1"",""4390""
","
","""event"",""trial"",""time""
""focus"",""0"",""1""
","""event"",""trial"",""time""
""fullscreenenter"",""1"",""4390""
","
","","","-1","","","20","10379","1786","&#9761;","elianto","#3366ff99","-1","-1","1","+10","[]","0","0","2","","","","","","","",""
"pit-trial","40","436596","0.0-2.0-11.0-3.0","battery-v0.2","","""event"",""trial"",""time""
""focus"",""0"",""1""
""fullscreenenter"",""1"",""4390""
","
","""event"",""trial"",""time""
""focus"",""0"",""1""
","""event"",""trial"",""time""
""fullscreenenter"",""1"",""4390""
","
","","","-1","","","20","10379","1786","&#9761;","elianto","#3366ff99","-1","-1","1","0","[]","0","0","2","","","","","","","",""
"pit-trial","41","441457","0.0-2.0-11.0-4.0","battery-v0.2","","""event"",""trial"",""time""
""focus"",""0"",""1""
""fullscreenenter"",""1"",""4390""
","
","""event"",""trial"",""time""
""focus"",""0"",""1""
","""event"",""trial"",""time""
""fullscreenenter"",""1"",""4390""
","
","","","-1","","","20","10379","1786","&#9761;","elianto","#3366ff99","-1","-1","1","+10","[]","0","0","2","","","","","","","",""
"pit-trial","42","446318","0.0-2.0-11.1-0.1","battery-v0.2","","""event"",""trial"",""time""
""focus"",""0"",""1""
""fullscreenenter"",""1"",""4390""
","
","""event"",""trial"",""time""
""focus"",""0"",""1""
","""event"",""trial"",""time""
""fullscreenenter"",""1"",""4390""
","
","","","-1","","","20","10379","1786","&#9761;","elianto","#3366ff99","-1","-1","1","+10","[]","0","0","2","","","","","","","",""
"pit-trial","43","451186","0.0-2.0-11.1-1.1","battery-v0.2","","""event"",""trial"",""time""
""focus"",""0"",""1""
""fullscreenenter"",""1"",""4390""
","
","""event"",""trial"",""time""
""focus"",""0"",""1""
","""event"",""trial"",""time""
""fullscreenenter"",""1"",""4390""
","
","","","-1","","","20","10379","1786","&#9761;","elianto","#3366ff99","-1","-1","1","+10","[]","0","0","2","","","","","","","",""
"pit-trial","44","456063","0.0-2.0-11.1-2.1","battery-v0.2","","""event"",""trial"",""time""
""focus"",""0"",""1""
""fullscreenenter"",""1"",""4390""
","
","""event"",""trial"",""time""
""focus"",""0"",""1""
","""event"",""trial"",""time""
""fullscreenenter"",""1"",""4390""
","
","","","-1","","","20","10379","1786","&#9761;","elianto","#3366ff99","-1","-1","1","+10","[]","0","0","2","","","","","","","",""
"pit-trial","45","460929","0.0-2.0-11.1-3.1","battery-v0.2","","""event"",""trial"",""time""
""focus"",""0"",""1""
""fullscreenenter"",""1"",""4390""
","
","""event"",""trial"",""time""
""focus"",""0"",""1""
","""event"",""trial"",""time""
""fullscreenenter"",""1"",""4390""
","
","","","-1","","","20","10379","1786","&#9761;","elianto","#3366ff99","-1","-1","1","0","[]","0","0","2","","","","","","","",""
"pit-trial","46","465786","0.0-2.0-11.1-4.1","battery-v0.2","","""event"",""trial"",""time""
""focus"",""0"",""1""
""fullscreenenter"",""1"",""4390""
","
","""event"",""trial"",""time""
""focus"",""0"",""1""
","""event"",""trial"",""time""
""fullscreenenter"",""1"",""4390""
","
","","","-1","","","20","10379","1786","&#9761;","elianto","#3366ff99","-1","-1","1","+10","[]","0","0","2","","","","","","","",""
"pit-trial","47","470651","0.0-2.0-11.2-0.2","battery-v0.2","","""event"",""trial"",""time""
""focus"",""0"",""1""
""fullscreenenter"",""1"",""4390""
","
","""event"",""trial"",""time""
""focus"",""0"",""1""
","""event"",""trial"",""time""
""fullscreenenter"",""1"",""4390""
","
","","","-1","","","20","10379","1786","&#9761;","elianto","#3366ff99","-1","-1","1","+10","[]","0","0","2","","","","","","","",""
"pit-trial","48","475518","0.0-2.0-11.2-1.2","battery-v0.2","","""event"",""trial"",""time""
""focus"",""0"",""1""
""fullscreenenter"",""1"",""4390""
","
","""event"",""trial"",""time""
""focus"",""0"",""1""
","""event"",""trial"",""time""
""fullscreenenter"",""1"",""4390""
","
","","","-1","","","20","10379","1786","&#9761;","elianto","#3366ff99","-1","-1","1","+10","[]","0","0","2","","","","","","","",""
"pit-trial","49","480374","0.0-2.0-11.2-2.2","battery-v0.2","","""event"",""trial"",""time""
""focus"",""0"",""1""
""fullscreenenter"",""1"",""4390""
","
","""event"",""trial"",""time""
""focus"",""0"",""1""
","""event"",""trial"",""time""
""fullscreenenter"",""1"",""4390""
","
","","","-1","","","20","10379","1786","&#9761;","elianto","#3366ff99","-1","-1","1","+10","[]","0","0","2","","","","","","","",""
"pit-trial","50","485244","0.0-2.0-11.2-3.2","battery-v0.2","","""event"",""trial"",""time""
""focus"",""0"",""1""
""fullscreenenter"",""1"",""4390""
","
","""event"",""trial"",""time""
""focus"",""0"",""1""
","""event"",""trial"",""time""
""fullscreenenter"",""1"",""4390""
","
","","","-1","","","20","10379","1786","&#9761;","elianto","#3366ff99","-1","-1","1","0","[]","0","0","2","","","","","","","",""
"pit-trial","51","490101","0.0-2.0-11.2-4.2","battery-v0.2","","""event"",""trial"",""time""
""focus"",""0"",""1""
""fullscreenenter"",""1"",""4390""
","
","""event"",""trial"",""time""
""focus"",""0"",""1""
","""event"",""trial"",""time""
""fullscreenenter"",""1"",""4390""
","
","","","-1","","","20","10379","1786","&#9761;","elianto","#3366ff99","-1","-1","1","+10","[]","0","0","2","","","","","","","",""
"pit-trial","52","494977","0.0-2.0-11.3-0.3","battery-v0.2","","""event"",""trial"",""time""
""focus"",""0"",""1""
""fullscreenenter"",""1"",""4390""
","
","""event"",""trial"",""time""
""focus"",""0"",""1""
","""event"",""trial"",""time""
""fullscreenenter"",""1"",""4390""
","
","","","-1","","","20","10379","1786","&#9761;","elianto","#3366ff99","-1","-1","1","+10","[]","0","0","2","","","","","","","",""
"pit-trial","53","499853","0.0-2.0-11.3-1.3","battery-v0.2","","""event"",""trial"",""time""
""focus"",""0"",""1""
""fullscreenenter"",""1"",""4390""
","
","""event"",""trial"",""time""
""focus"",""0"",""1""
","""event"",""trial"",""time""
""fullscreenenter"",""1"",""4390""
","
","","","-1","","","20","10379","1786","&#9761;","elianto","#3366ff99","-1","-1","1","+10","[]","0","0","2","","","","","","","",""
"pit-trial","54","504725","0.0-2.0-11.3-2.3","battery-v0.2","","""event"",""trial"",""time""
""focus"",""0"",""1""
""fullscreenenter"",""1"",""4390""
","
","""event"",""trial"",""time""
""focus"",""0"",""1""
","""event"",""trial"",""time""
""fullscreenenter"",""1"",""4390""
","
","","","-1","","","20","10379","1786","&#9761;","elianto","#3366ff99","-1","-1","1","+10","[]","0","0","2","","","","","","","",""
"pit-trial","55","509601","0.0-2.0-11.3-3.3","battery-v0.2","","""event"",""trial"",""time""
""focus"",""0"",""1""
""fullscreenenter"",""1"",""4390""
","
","""event"",""trial"",""time""
""focus"",""0"",""1""
","""event"",""trial"",""time""
""fullscreenenter"",""1"",""4390""
","
","","","-1","","","20","10379","1786","&#9761;","elianto","#3366ff99","-1","-1","1","0","[]","0","0","2","","","","","","","",""
"pit-trial","56","514469","0.0-2.0-11.3-4.3","battery-v0.2","","""event"",""trial"",""time""
""focus"",""0"",""1""
""fullscreenenter"",""1"",""4390""
","
","""event"",""trial"",""time""
""focus"",""0"",""1""
","""event"",""trial"",""time""
""fullscreenenter"",""1"",""4390""
","
","","","-1","","","20","10379","1786","&#9761;","elianto","#3366ff99","-1","-1","1","+10","[]","0","0","2","","","","","","","",""
"call-function","57","514469","0.0-2.0-12.0","battery-v0.2","","""event"",""trial"",""time""
""focus"",""0"",""1""
""fullscreenenter"",""1"",""4390""
","
","""event"",""trial"",""time""
""focus"",""0"",""1""
","""event"",""trial"",""time""
""fullscreenenter"",""1"",""4390""
","
","","","","","","","","","","","","","","","","","","","","","","","","","","",""
"pit-instructions","58","549512","0.0-2.0-13.0","battery-v0.2","","""event"",""trial"",""time""
""focus"",""0"",""1""
""fullscreenenter"",""1"",""4390""
","
","""event"",""trial"",""time""
""focus"",""0"",""1""
","""event"",""trial"",""time""
""fullscreenenter"",""1"",""4390""
","
","","[{""page_index"":0,""viewing_time"":6204},{""page_index"":1,""viewing_time"":8942},{""page_index"":2,""viewing_time"":3491},{""page_index"":3,""viewing_time"":11078},{""page_index"":4,""viewing_time"":5326}]","35043","","","","","","","","","","","","","","","","","","","","","","","",""
"pit-trial","59","552829","0.0-2.0-14.0-0.0","battery-v0.2","","""event"",""trial"",""time""
""focus"",""0"",""1""
""fullscreenenter"",""1"",""4390""
","
","""event"",""trial"",""time""
""focus"",""0"",""1""
","""event"",""trial"",""time""
""fullscreenenter"",""1"",""4390""
","
","","","448","","","20","10379","1786","&#9826;","elianto","#f73b6a7A","-1"," ","0","-10","[1308]","1","0","3","","","","","","","",""
"pit-trial","60","556235","0.0-2.0-14.0-1.0","battery-v0.2","","""event"",""trial"",""time""
""focus"",""0"",""1""
""fullscreenenter"",""1"",""4390""
","
","""event"",""trial"",""time""
""focus"",""0"",""1""
","""event"",""trial"",""time""
""fullscreenenter"",""1"",""4390""
","
","","","543","","","20","10379","1786","&#9826;","elianto","#f73b6a7A","-1"," ","0","-10","[1396]","1","0","3","","","","","","","",""
"pit-trial","61","561108","0.0-2.0-14.0-2.0","battery-v0.2","","""event"",""trial"",""time""
""focus"",""0"",""1""
""fullscreenenter"",""1"",""4390""
","
","""event"",""trial"",""time""
""focus"",""0"",""1""
","""event"",""trial"",""time""
""fullscreenenter"",""1"",""4390""
","
","","","-1","","","20","10379","1786","&#9826;","elianto","#f73b6a7A","-1","-1","1","0","[]","0","0","3","","","","","","","",""
"pit-trial","62","565983","0.0-2.0-14.0-3.0","battery-v0.2","","""event"",""trial"",""time""
""focus"",""0"",""1""
""fullscreenenter"",""1"",""4390""
","
","""event"",""trial"",""time""
""focus"",""0"",""1""
","""event"",""trial"",""time""
""fullscreenenter"",""1"",""4390""
","
","","","-1","","","20","10379","1786","&#9826;","elianto","#f73b6a7A","-1","-1","1","-10","[]","0","0","3","","","","","","","",""
"pit-trial","63","570857","0.0-2.0-14.0-4.0","battery-v0.2","","""event"",""trial"",""time""
""focus"",""0"",""1""
""fullscreenenter"",""1"",""4390""
","
","""event"",""trial"",""time""
""focus"",""0"",""1""
","""event"",""trial"",""time""
""fullscreenenter"",""1"",""4390""
","
","","","-1","","","20","10379","1786","&#9826;","elianto","#f73b6a7A","-1","-1","1","0","[]","0","0","3","","","","","","","",""
"pit-trial","64","575710","0.0-2.0-14.1-0.1","battery-v0.2","","""event"",""trial"",""time""
""focus"",""0"",""1""
""fullscreenenter"",""1"",""4390""
","
","""event"",""trial"",""time""
""focus"",""0"",""1""
","""event"",""trial"",""time""
""fullscreenenter"",""1"",""4390""
","
","","","-1","","","20","10379","1786","&#9826;","elianto","#f73b6a7A","-1","-1","1","0","[]","0","0","3","","","","","","","",""
"pit-trial","65","580569","0.0-2.0-14.1-1.1","battery-v0.2","","""event"",""trial"",""time""
""focus"",""0"",""1""
""fullscreenenter"",""1"",""4390""
","
","""event"",""trial"",""time""
""focus"",""0"",""1""
","""event"",""trial"",""time""
""fullscreenenter"",""1"",""4390""
","
","","","-1","","","20","10379","1786","&#9826;","elianto","#f73b6a7A","-1","-1","1","0","[]","0","0","3","","","","","","","",""
"pit-trial","66","585438","0.0-2.0-14.1-2.1","battery-v0.2","","""event"",""trial"",""time""
""focus"",""0"",""1""
""fullscreenenter"",""1"",""4390""
","
","""event"",""trial"",""time""
""focus"",""0"",""1""
","""event"",""trial"",""time""
""fullscreenenter"",""1"",""4390""
","
","","","-1","","","20","10379","1786","&#9826;","elianto","#f73b6a7A","-1","-1","1","0","[]","0","0","3","","","","","","","",""
"pit-trial","67","590294","0.0-2.0-14.1-3.1","battery-v0.2","","""event"",""trial"",""time""
""focus"",""0"",""1""
""fullscreenenter"",""1"",""4390""
","
","""event"",""trial"",""time""
""focus"",""0"",""1""
","""event"",""trial"",""time""
""fullscreenenter"",""1"",""4390""
","
","","","-1","","","20","10379","1786","&#9826;","elianto","#f73b6a7A","-1","-1","1","-10","[]","0","0","3","","","","","","","",""
"pit-trial","68","595162","0.0-2.0-14.1-4.1","battery-v0.2","","""event"",""trial"",""time""
""focus"",""0"",""1""
""fullscreenenter"",""1"",""4390""
","
","""event"",""trial"",""time""
""focus"",""0"",""1""
","""event"",""trial"",""time""
""fullscreenenter"",""1"",""4390""
","
","","","-1","","","20","10379","1786","&#9826;","elianto","#f73b6a7A","-1","-1","1","0","[]","0","0","3","","","","","","","",""
"pit-trial","69","600025","0.0-2.0-14.2-0.2","battery-v0.2","","""event"",""trial"",""time""
""focus"",""0"",""1""
""fullscreenenter"",""1"",""4390""
","
","""event"",""trial"",""time""
""focus"",""0"",""1""
","""event"",""trial"",""time""
""fullscreenenter"",""1"",""4390""
","
","","","-1","","","20","10379","1786","&#9826;","elianto","#f73b6a7A","-1","-1","1","0","[]","0","0","3","","","","","","","",""
"pit-trial","70","604895","0.0-2.0-14.2-1.2","battery-v0.2","","""event"",""trial"",""time""
""focus"",""0"",""1""
""fullscreenenter"",""1"",""4390""
","
","""event"",""trial"",""time""
""focus"",""0"",""1""
","""event"",""trial"",""time""
""fullscreenenter"",""1"",""4390""
","
","","","-1","","","20","10379","1786","&#9826;","elianto","#f73b6a7A","-1","-1","1","0","[]","0","0","3","","","","","","","",""
"pit-trial","71","609761","0.0-2.0-14.2-2.2","battery-v0.2","","""event"",""trial"",""time""
""focus"",""0"",""1""
""fullscreenenter"",""1"",""4390""
","
","""event"",""trial"",""time""
""focus"",""0"",""1""
","""event"",""trial"",""time""
""fullscreenenter"",""1"",""4390""
","
","","","-1","","","20","10379","1786","&#9826;","elianto","#f73b6a7A","-1","-1","1","0","[]","0","0","3","","","","","","","",""
"pit-trial","72","614623","0.0-2.0-14.2-3.2","battery-v0.2","","""event"",""trial"",""time""
""focus"",""0"",""1""
""fullscreenenter"",""1"",""4390""
","
","""event"",""trial"",""time""
""focus"",""0"",""1""
","""event"",""trial"",""time""
""fullscreenenter"",""1"",""4390""
","
","","","-1","","","20","10379","1786","&#9826;","elianto","#f73b6a7A","-1","-1","1","-10","[]","0","0","3","","","","","","","",""
"pit-trial","73","619490","0.0-2.0-14.2-4.2","battery-v0.2","","""event"",""trial"",""time""
""focus"",""0"",""1""
""fullscreenenter"",""1"",""4390""
","
","""event"",""trial"",""time""
""focus"",""0"",""1""
","""event"",""trial"",""time""
""fullscreenenter"",""1"",""4390""
","
","","","-1","","","20","10379","1786","&#9826;","elianto","#f73b6a7A","-1","-1","1","0","[]","0","0","3","","","","","","","",""
"pit-trial","74","624360","0.0-2.0-14.3-0.3","battery-v0.2","","""event"",""trial"",""time""
""focus"",""0"",""1""
""fullscreenenter"",""1"",""4390""
","
","""event"",""trial"",""time""
""focus"",""0"",""1""
","""event"",""trial"",""time""
""fullscreenenter"",""1"",""4390""
","
","","","-1","","","20","10379","1786","&#9826;","elianto","#f73b6a7A","-1","-1","1","0","[]","0","0","3","","","","","","","",""
"pit-trial","75","629226","0.0-2.0-14.3-1.3","battery-v0.2","","""event"",""trial"",""time""
""focus"",""0"",""1""
""fullscreenenter"",""1"",""4390""
","
","""event"",""trial"",""time""
""focus"",""0"",""1""
","""event"",""trial"",""time""
""fullscreenenter"",""1"",""4390""
","
","","","-1","","","20","10379","1786","&#9826;","elianto","#f73b6a7A","-1","-1","1","0","[]","0","0","3","","","","","","","",""
"pit-trial","76","634083","0.0-2.0-14.3-2.3","battery-v0.2","","""event"",""trial"",""time""
""focus"",""0"",""1""
""fullscreenenter"",""1"",""4390""
","
","""event"",""trial"",""time""
""focus"",""0"",""1""
","""event"",""trial"",""time""
""fullscreenenter"",""1"",""4390""
","
","","","-1","","","20","10379","1786","&#9826;","elianto","#f73b6a7A","-1","-1","1","0","[]","0","0","3","","","","","","","",""
"pit-trial","77","638948","0.0-2.0-14.3-3.3","battery-v0.2","","""event"",""trial"",""time""
""focus"",""0"",""1""
""fullscreenenter"",""1"",""4390""
","
","""event"",""trial"",""time""
""focus"",""0"",""1""
","""event"",""trial"",""time""
""fullscreenenter"",""1"",""4390""
","
","","","-1","","","20","10379","1786","&#9826;","elianto","#f73b6a7A","-1","-1","1","-10","[]","0","0","3","","","","","","","",""
"pit-trial","78","643821","0.0-2.0-14.3-4.3","battery-v0.2","","""event"",""trial"",""time""
""focus"",""0"",""1""
""fullscreenenter"",""1"",""4390""
","
","""event"",""trial"",""time""
""focus"",""0"",""1""
","""event"",""trial"",""time""
""fullscreenenter"",""1"",""4390""
","
","","","-1","","","20","10379","1786","&#9826;","elianto","#f73b6a7A","-1","-1","1","0","[]","0","0","3","","","","","","","",""
"call-function","79","643822","0.0-2.0-15.0","battery-v0.2","","""event"",""trial"",""time""
""focus"",""0"",""1""
""fullscreenenter"",""1"",""4390""
","
","""event"",""trial"",""time""
""focus"",""0"",""1""
","""event"",""trial"",""time""
""fullscreenenter"",""1"",""4390""
","
","","","","","","","","","","","","","","","","","","","","","","","","","","",""
"pit-instructions","80","679541","0.0-2.0-16.0","battery-v0.2","","""event"",""trial"",""time""
""focus"",""0"",""1""
""fullscreenenter"",""1"",""4390""
","
","""event"",""trial"",""time""
""focus"",""0"",""1""
","""event"",""trial"",""time""
""fullscreenenter"",""1"",""4390""
","
","","[{""page_index"":0,""viewing_time"":8306},{""page_index"":1,""viewing_time"":10484},{""page_index"":2,""viewing_time"":5140},{""page_index"":3,""viewing_time"":11788}]","35718","","","","","","","","","","","","","","","","","","","","","","","",""
"pit-trial","81","683023","0.0-2.0-17.0-0.0","battery-v0.2","","""event"",""trial"",""time""
""focus"",""0"",""1""
""fullscreenenter"",""1"",""4390""
","
","""event"",""trial"",""time""
""focus"",""0"",""1""
","""event"",""trial"",""time""
""fullscreenenter"",""1"",""4390""
","
","","","586","","","20","10379","1786","&#9789;","elianto","#f73b6a7A"," "," ","1","0","[1471]","1","0","4","","","","","","","",""
"pit-trial","82","686255","0.0-2.0-17.0-1.0","battery-v0.2","","""event"",""trial"",""time""
""focus"",""0"",""1""
""fullscreenenter"",""1"",""4390""
","
","""event"",""trial"",""time""
""focus"",""0"",""1""
","""event"",""trial"",""time""
""fullscreenenter"",""1"",""4390""
","
","","","369","","","20","10379","1786","&#9789;","elianto","#f73b6a7A"," "," ","1","0","[1224]","1","0","4","","","","","","","",""
"pit-trial","83","689682","0.0-2.0-17.0-2.0","battery-v0.2","","""event"",""trial"",""time""
""focus"",""0"",""1""
""fullscreenenter"",""1"",""4390""
","
","""event"",""trial"",""time""
""focus"",""0"",""1""
","""event"",""trial"",""time""
""fullscreenenter"",""1"",""4390""
","
","","","529","","","20","10379","1786","&#9789;","elianto","#f73b6a7A"," "," ","1","0","[1415]","1","0","4","","","","","","","",""
"pit-trial","84","693267","0.0-2.0-17.0-3.0","battery-v0.2","","""event"",""trial"",""time""
""focus"",""0"",""1""
""fullscreenenter"",""1"",""4390""
","
","""event"",""trial"",""time""
""focus"",""0"",""1""
","""event"",""trial"",""time""
""fullscreenenter"",""1"",""4390""
","
","","","716","","","20","10379","1786","&#9789;","elianto","#f73b6a7A"," "," ","1","-10","[1572]","1","0","4","","","","","","","",""
"pit-trial","85","696948","0.0-2.0-17.0-4.0","battery-v0.2","","""event"",""trial"",""time""
""focus"",""0"",""1""
""fullscreenenter"",""1"",""4390""
","
","""event"",""trial"",""time""
""focus"",""0"",""1""
","""event"",""trial"",""time""
""fullscreenenter"",""1"",""4390""
","
","","","809","","","20","10379","1786","&#9789;","elianto","#f73b6a7A"," "," ","1","0","[1664]","1","0","4","","","","","","","",""
"pit-trial","86","700451","0.0-2.0-17.1-0.1","battery-v0.2","","""event"",""trial"",""time""
""focus"",""0"",""1""
""fullscreenenter"",""1"",""4390""
","
","""event"",""trial"",""time""
""focus"",""0"",""1""
","""event"",""trial"",""time""
""fullscreenenter"",""1"",""4390""
","
","","","632","","","20","10379","1786","&#9789;","elianto","#f73b6a7A"," "," ","1","0","[1488]","1","0","4","","","","","","","",""
"pit-trial","87","704205","0.0-2.0-17.1-1.1","battery-v0.2","","""event"",""trial"",""time""
""focus"",""0"",""1""
""fullscreenenter"",""1"",""4390""
","
","""event"",""trial"",""time""
""focus"",""0"",""1""
","""event"",""trial"",""time""
""fullscreenenter"",""1"",""4390""
","
","","","889","","","20","10379","1786","&#9789;","elianto","#f73b6a7A"," "," ","1","0","[1740]","1","0","4","","","","","","","",""
"pit-trial","88","707822","0.0-2.0-17.1-2.1","battery-v0.2","","""event"",""trial"",""time""
""focus"",""0"",""1""
""fullscreenenter"",""1"",""4390""
","
","""event"",""trial"",""time""
""focus"",""0"",""1""
","""event"",""trial"",""time""
""fullscreenenter"",""1"",""4390""
","
","","","695","","","20","10379","1786","&#9789;","elianto","#f73b6a7A"," "," ","1","0","[1601]","1","0","4","","","","","","","",""
"pit-trial","89","711442","0.0-2.0-17.1-3.1","battery-v0.2","","""event"",""trial"",""time""
""focus"",""0"",""1""
""fullscreenenter"",""1"",""4390""
","
","""event"",""trial"",""time""
""focus"",""0"",""1""
","""event"",""trial"",""time""
""fullscreenenter"",""1"",""4390""
","
","","","760","","","20","10379","1786","&#9789;","elianto","#f73b6a7A"," "," ","1","-10","[1616]","1","0","4","","","","","","","",""
"pit-trial","90","714811","0.0-2.0-17.1-4.1","battery-v0.2","","""event"",""trial"",""time""
""focus"",""0"",""1""
""fullscreenenter"",""1"",""4390""
","
","""event"",""trial"",""time""
""focus"",""0"",""1""
","""event"",""trial"",""time""
""fullscreenenter"",""1"",""4390""
","
","","","508","","","20","10379","1786","&#9789;","elianto","#f73b6a7A"," "," ","1","0","[1366]","1","0","4","","","","","","","",""
"pit-trial","91","718150","0.0-2.0-17.2-0.2","battery-v0.2","","""event"",""trial"",""time""
""focus"",""0"",""1""
""fullscreenenter"",""1"",""4390""
","
","""event"",""trial"",""time""
""focus"",""0"",""1""
","""event"",""trial"",""time""
""fullscreenenter"",""1"",""4390""
","
","","","442","","","20","10379","1786","&#9789;","elianto","#f73b6a7A"," "," ","1","0","[1329]","1","0","4","","","","","","","",""
"pit-trial","92","721448","0.0-2.0-17.2-1.2","battery-v0.2","","""event"",""trial"",""time""
""focus"",""0"",""1""
""fullscreenenter"",""1"",""4390""
","
","""event"",""trial"",""time""
""focus"",""0"",""1""
","""event"",""trial"",""time""
""fullscreenenter"",""1"",""4390""
","
","","","437","","","20","10379","1786","&#9789;","elianto","#f73b6a7A"," "," ","1","0","[1288]","1","0","4","","","","","","","",""
"pit-trial","93","724794","0.0-2.0-17.2-2.2","battery-v0.2","","""event"",""trial"",""time""
""focus"",""0"",""1""
""fullscreenenter"",""1"",""4390""
","
","""event"",""trial"",""time""
""focus"",""0"",""1""
","""event"",""trial"",""time""
""fullscreenenter"",""1"",""4390""
","
","","","478","","","20","10379","1786","&#9789;","elianto","#f73b6a7A"," "," ","1","0","[1334]","1","0","4","","","","","","","",""
"pit-trial","94","728183","0.0-2.0-17.2-3.2","battery-v0.2","","""event"",""trial"",""time""
""focus"",""0"",""1""
""fullscreenenter"",""1"",""4390""
","
","""event"",""trial"",""time""
""focus"",""0"",""1""
","""event"",""trial"",""time""
""fullscreenenter"",""1"",""4390""
","
","","","522","","","20","10379","1786","&#9789;","elianto","#f73b6a7A"," "," ","1","-10","[1380]","1","0","4","","","","","","","",""
"pit-trial","95","731565","0.0-2.0-17.2-4.2","battery-v0.2","","""event"",""trial"",""time""
""focus"",""0"",""1""
""fullscreenenter"",""1"",""4390""
","
","""event"",""trial"",""time""
""focus"",""0"",""1""
","""event"",""trial"",""time""
""fullscreenenter"",""1"",""4390""
","
","","","523","","","20","10379","1786","&#9789;","elianto","#f73b6a7A"," "," ","1","0","[1377]","1","0","4","","","","","","","",""
"pit-trial","96","734803","0.0-2.0-17.3-0.3","battery-v0.2","","""event"",""trial"",""time""
""focus"",""0"",""1""
""fullscreenenter"",""1"",""4390""
","
","""event"",""trial"",""time""
""focus"",""0"",""1""
","""event"",""trial"",""time""
""fullscreenenter"",""1"",""4390""
","
","","","358","","","20","10379","1786","&#9789;","elianto","#f73b6a7A"," "," ","1","0","[1217]","1","0","4","","","","","","","",""
"pit-trial","97","738063","0.0-2.0-17.3-1.3","battery-v0.2","","""event"",""trial"",""time""
""focus"",""0"",""1""
""fullscreenenter"",""1"",""4390""
","
","""event"",""trial"",""time""
""focus"",""0"",""1""
","""event"",""trial"",""time""
""fullscreenenter"",""1"",""4390""
","
","","","389","","","20","10379","1786","&#9789;","elianto","#f73b6a7A"," "," ","1","0","[1242]","1","0","4","","","","","","","",""
"pit-trial","98","741405","0.0-2.0-17.3-2.3","battery-v0.2","","""event"",""trial"",""time""
""focus"",""0"",""1""
""fullscreenenter"",""1"",""4390""
","
","""event"",""trial"",""time""
""focus"",""0"",""1""
","""event"",""trial"",""time""
""fullscreenenter"",""1"",""4390""
","
","","","428","","","20","10379","1786","&#9789;","elianto","#f73b6a7A"," "," ","1","0","[1331]","1","0","4","","","","","","","",""
"pit-trial","99","744761","0.0-2.0-17.3-3.3","battery-v0.2","","""event"",""trial"",""time""
""focus"",""0"",""1""
""fullscreenenter"",""1"",""4390""
","
","""event"",""trial"",""time""
""focus"",""0"",""1""
","""event"",""trial"",""time""
""fullscreenenter"",""1"",""4390""
","
","","","492","","","20","10379","1786","&#9789;","elianto","#f73b6a7A"," "," ","1","-10","[1348]","1","0","4","","","","","","","",""
"pit-trial","100","748119","0.0-2.0-17.3-4.3","battery-v0.2","","""event"",""trial"",""time""
""focus"",""0"",""1""
""fullscreenenter"",""1"",""4390""
","
","""event"",""trial"",""time""
""focus"",""0"",""1""
","""event"",""trial"",""time""
""fullscreenenter"",""1"",""4390""
","
","","","486","","","20","10379","1786","&#9789;","elianto","#f73b6a7A"," "," ","1","0","[1344]","1","0","4","","","","","","","",""
"call-function","101","748119","0.0-2.0-18.0","battery-v0.2","","""event"",""trial"",""time""
""focus"",""0"",""1""
""fullscreenenter"",""1"",""4390""
","
","""event"",""trial"",""time""
""focus"",""0"",""1""
","""event"",""trial"",""time""
""fullscreenenter"",""1"",""4390""
","
","","","","","","","","","","","","","","","","","","","","","","","","","","",""
"pit-instructions","102","833761","0.0-2.0-19.0","battery-v0.2","","""event"",""trial"",""time""
""focus"",""0"",""1""
""fullscreenenter"",""1"",""4390""
","
","""event"",""trial"",""time""
""focus"",""0"",""1""
","""event"",""trial"",""time""
""fullscreenenter"",""1"",""4390""
","
","","[{""page_index"":0,""viewing_time"":7768},{""page_index"":1,""viewing_time"":6296},{""page_index"":2,""viewing_time"":15063},{""page_index"":3,""viewing_time"":8094},{""page_index"":4,""viewing_time"":8957},{""page_index"":5,""viewing_time"":12232},{""page_index"":6,""viewing_time"":10530},{""page_index"":7,""viewing_time"":7286},{""page_index"":8,""viewing_time"":9416}]","85642","","","","","","","","","","","","","","","","","","","","","","","",""
"pit-comprehension","103","844086","0.0-2.0-20.0-0.0","battery-v0.2","","""event"",""trial"",""time""
""focus"",""0"",""1""
""fullscreenenter"",""1"",""4390""
","
","""event"",""trial"",""time""
""focus"",""0"",""1""
","""event"",""trial"",""time""
""fullscreenenter"",""1"",""4390""
","
","","","10318","[""SPACE""]","0","20","10379","1786","","","","","","","","","","","","","","","","","","",""
"pit-instructions","104","850387","0.0-2.0-20.0-1.0","battery-v0.2","","""event"",""trial"",""time""
""focus"",""0"",""1""
""fullscreenenter"",""1"",""4390""
","
","""event"",""trial"",""time""
""focus"",""0"",""1""
","""event"",""trial"",""time""
""fullscreenenter"",""1"",""4390""
","
","","[{""page_index"":0,""viewing_time"":6259}]","6259","","","","","","","","","","","","","","","","","","","","","","","",""
"pit-comprehension","105","858649","0.0-2.0-21.0-0.0","battery-v0.2","","""event"",""trial"",""time""
""focus"",""0"",""1""
""fullscreenenter"",""1"",""4390""
","
","""event"",""trial"",""time""
""focus"",""0"",""1""
","""event"",""trial"",""time""
""fullscreenenter"",""1"",""4390""
","
","","","8253","[""10""]","0","20","10379","1786","","","","","","","","","","","","","","","","","","",""
"pit-instructions","106","860864","0.0-2.0-21.0-1.0","battery-v0.2","","""event"",""trial"",""time""
""focus"",""0"",""1""
""fullscreenenter"",""1"",""4390""
","
","""event"",""trial"",""time""
""focus"",""0"",""1""
","""event"",""trial"",""time""
""fullscreenenter"",""1"",""4390""
","
","","[{""page_index"":0,""viewing_time"":2185}]","2186","","","","","","","","","","","","","","","","","","","","","","","",""
"pit-comprehension","107","869417","0.0-2.0-22.0-0.0","battery-v0.2","","""event"",""trial"",""time""
""focus"",""0"",""1""
""fullscreenenter"",""1"",""4390""
","
","""event"",""trial"",""time""
""focus"",""0"",""1""
","""event"",""trial"",""time""
""fullscreenenter"",""1"",""4390""
","
","","","8548","[""0""]","0","20","10379","1786","","","","","","","","","","","","","","","","","","",""
"pit-instructions","108","873149","0.0-2.0-22.0-1.0","battery-v0.2","","""event"",""trial"",""time""
""focus"",""0"",""1""
""fullscreenenter"",""1"",""4390""
","
","""event"",""trial"",""time""
""focus"",""0"",""1""
","""event"",""trial"",""time""
""fullscreenenter"",""1"",""4390""
","
","","[{""page_index"":0,""viewing_time"":3694}]","3694","","","","","","","","","","","","","","","","","","","","","","","",""
"pit-comprehension","109","882026","0.0-2.0-23.0-0.0","battery-v0.2","","""event"",""trial"",""time""
""focus"",""0"",""1""
""fullscreenenter"",""1"",""4390""
","
","""event"",""trial"",""time""
""focus"",""0"",""1""
","""event"",""trial"",""time""
""fullscreenenter"",""1"",""4390""
","
","","","8872","[""True""]","0","20","10379","1786","","","","","","","","","","","","","","","","","","",""
"pit-instructions","110","884058","0.0-2.0-23.0-1.0","battery-v0.2","","""event"",""trial"",""time""
""focus"",""0"",""1""
""fullscreenenter"",""1"",""4390""
","
","""event"",""trial"",""time""
""focus"",""0"",""1""
","""event"",""trial"",""time""
""fullscreenenter"",""1"",""4390""
","
","","[{""page_index"":0,""viewing_time"":1999}]","2000","","","","","","","","","","","","","","","","","","","","","","","",""
"pit-comprehension","111","891682","0.0-2.0-24.0-0.0","battery-v0.2","","""event"",""trial"",""time""
""focus"",""0"",""1""
""fullscreenenter"",""1"",""4390""
","
","""event"",""trial"",""time""
""focus"",""0"",""1""
","""event"",""trial"",""time""
""fullscreenenter"",""1"",""4390""
","
","","","7620","[""True""]","0","20","10379","1786","","","","","","","","","","","","","","","","","","",""
"pit-instructions","112","893360","0.0-2.0-24.0-1.0","battery-v0.2","","""event"",""trial"",""time""
""focus"",""0"",""1""
""fullscreenenter"",""1"",""4390""
","
","""event"",""trial"",""time""
""focus"",""0"",""1""
","""event"",""trial"",""time""
""fullscreenenter"",""1"",""4390""
","
","","[{""page_index"":0,""viewing_time"":1652}]","1652","","","","","","","","","","","","","","","","","","","","","","","",""
"pit-comprehension","113","900452","0.0-2.0-25.0-0.0","battery-v0.2","","""event"",""trial"",""time""
""focus"",""0"",""1""
""fullscreenenter"",""1"",""4390""
","
","""event"",""trial"",""time""
""focus"",""0"",""1""
","""event"",""trial"",""time""
""fullscreenenter"",""1"",""4390""
","
","","","7084","[""True""]","0","20","10379","1786","","","","","","","","","","","","","","","","","","",""
"pit-instructions","114","902875","0.0-2.0-25.0-1.0","battery-v0.2","","""event"",""trial"",""time""
""focus"",""0"",""1""
""fullscreenenter"",""1"",""4390""
","
","""event"",""trial"",""time""
""focus"",""0"",""1""
","""event"",""trial"",""time""
""fullscreenenter"",""1"",""4390""
","
","","[{""page_index"":0,""viewing_time"":2385}]","2386","","","","","","","","","","","","","","","","","","","","","","","",""
"pit-comprehension","115","913280","0.0-2.0-26.0-0.0","battery-v0.2","","""event"",""trial"",""time""
""focus"",""0"",""1""
""fullscreenenter"",""1"",""4390""
","
","""event"",""trial"",""time""
""focus"",""0"",""1""
","""event"",""trial"",""time""
""fullscreenenter"",""1"",""4390""
","
","","","10398","[""False""]","0","20","10379","1786","","","","","","","","","","","","","","","","","","",""
"pit-instructions","116","915705","0.0-2.0-26.0-1.0","battery-v0.2","","""event"",""trial"",""time""
""focus"",""0"",""1""
""fullscreenenter"",""1"",""4390""
","
","""event"",""trial"",""time""
""focus"",""0"",""1""
","""event"",""trial"",""time""
""fullscreenenter"",""1"",""4390""
","
","","[{""page_index"":0,""viewing_time"":2393}]","2394","","","","","","","","","","","","","","","","","","","","","","","",""
"pit-instructions","117","1015101","0.0-3.0","battery-v0.2","","""event"",""trial"",""time""
""focus"",""0"",""1""
""fullscreenenter"",""1"",""4390""
","
","""event"",""trial"",""time""
""focus"",""0"",""1""
","""event"",""trial"",""time""
""fullscreenenter"",""1"",""4390""
","
","","[{""page_index"":0,""viewing_time"":6539},{""page_index"":1,""viewing_time"":5518},{""page_index"":2,""viewing_time"":87334}]","99391","","","","","","","","","","","","","","","","","","","","","","","",""
"pit-trial","118","1018600","0.0-4.0","battery-v0.2","","""event"",""trial"",""time""
""focus"",""0"",""1""
""fullscreenenter"",""1"",""4390""
","
","""event"",""trial"",""time""
""focus"",""0"",""1""
","""event"",""trial"",""time""
""fullscreenenter"",""1"",""4390""
","
","","","620","","","20","10379","1786","&#9752;","elianto","#f73b6a7A"," "," ","1","-10","[1471]","1","1","","","10379","1","3","3","lose","go","1"
"pit-trial","119","1022282","0.0-5.0","battery-v0.2","","""event"",""trial"",""time""
""focus"",""0"",""1""
""fullscreenenter"",""1"",""4390""
","
","""event"",""trial"",""time""
""focus"",""0"",""1""
","""event"",""trial"",""time""
""fullscreenenter"",""1"",""4390""
","
","","","807","","","20","10379","1786","&#9728;","elianto","#f73b6a7A","-1"," ","0","-10","[1666]","1","1","","","10379","2","0","4","lose","no-go","0"
"pit-trial","120","1026071","0.0-6.0","battery-v0.2","","""event"",""trial"",""time""
""focus"",""0"",""1""
""fullscreenenter"",""1"",""4390""
","
","""event"",""trial"",""time""
""focus"",""0"",""1""
","""event"",""trial"",""time""
""fullscreenenter"",""1"",""4390""
","
","","","884","","","20","10379","1786","&#9730;","elianto","#3366ff99"," "," ","1","+10","[1774]","1","1","","","10379","3","1","1","win","go","0"
"pit-trial","121","1029731","0.0-7.0","battery-v0.2","","""event"",""trial"",""time""
""focus"",""0"",""1""
""fullscreenenter"",""1"",""4390""
","
","""event"",""trial"",""time""
""focus"",""0"",""1""
","""event"",""trial"",""time""
""fullscreenenter"",""1"",""4390""
","
","","","794","","","20","10379","1786","&#9733;","elianto","#3366ff99","-1"," ","0","0","[1651]","1","1","","","10379","4","2","2","win","no-go","0"
"pit-trial","122","1033504","0.0-8.0","battery-v0.2","","""event"",""trial"",""time""
""focus"",""0"",""1""
""fullscreenenter"",""1"",""4390""
","
","""event"",""trial"",""time""
""focus"",""0"",""1""
","""event"",""trial"",""time""
""fullscreenenter"",""1"",""4390""
","
","","","910","","","20","10379","1786","&#9730;","elianto","#3366ff99"," "," ","1","+10","[1765]","1","1","","","10379","5","1","1","win","go","0"
"pit-trial","123","1038367","0.0-9.0","battery-v0.2","","""event"",""trial"",""time""
""focus"",""0"",""1""
""fullscreenenter"",""1"",""4390""
","
","""event"",""trial"",""time""
""focus"",""0"",""1""
","""event"",""trial"",""time""
""fullscreenenter"",""1"",""4390""
","
","","","-1","","","20","10379","1786","&#9733;","elianto","#3366ff99","-1","-1","1","+10","[]","0","1","","","10379","6","2","2","win","no-go","0"
"pit-trial","124","1043236","0.0-10.0","battery-v0.2","","""event"",""trial"",""time""
""focus"",""0"",""1""
""fullscreenenter"",""1"",""4390""
","
","""event"",""trial"",""time""
""focus"",""0"",""1""
","""event"",""trial"",""time""
""fullscreenenter"",""1"",""4390""
","
","","","-1","","","20","10379","1786","&#9728;","elianto","#f73b6a7A","-1","-1","1","0","[]","0","1","","","10379","7","0","4","lose","no-go","0"
"pit-trial","125","1048101","0.0-11.0","battery-v0.2","","""event"",""trial"",""time""
""focus"",""0"",""1""
""fullscreenenter"",""1"",""4390""
","
","""event"",""trial"",""time""
""focus"",""0"",""1""
","""event"",""trial"",""time""
""fullscreenenter"",""1"",""4390""
","
","","","-1","","","20","10379","1786","&#9752;","elianto","#f73b6a7A"," ","-1","0","-10","[]","0","1","","","10379","8","3","3","lose","go","0"
"pit-trial","126","1052963","0.0-12.0","battery-v0.2","","""event"",""trial"",""time""
""focus"",""0"",""1""
""fullscreenenter"",""1"",""4390""
","
","""event"",""trial"",""time""
""focus"",""0"",""1""
","""event"",""trial"",""time""
""fullscreenenter"",""1"",""4390""
","
","","","-1","","","20","10379","1786","&#9728;","elianto","#f73b6a7A","-1","-1","1","0","[]","0","1","","","10379","9","0","4","lose","no-go","0"
"pit-trial","127","1056557","0.0-13.0","battery-v0.2","","""event"",""trial"",""time""
""focus"",""0"",""1""
""fullscreenenter"",""1"",""4390""
","
","""event"",""trial"",""time""
""focus"",""0"",""1""
","""event"",""trial"",""time""
""fullscreenenter"",""1"",""4390""
","
","","","724","","","20","10379","1786","&#9730;","elianto","#3366ff99"," "," ","1","+10","[1581]","1","1","","","10379","10","1","1","win","go","0"
"pit-trial","128","1060707","0.0-14.0","battery-v0.2","","""event"",""trial"",""time""
""focus"",""0"",""1""
""fullscreenenter"",""1"",""4390""
","
","""event"",""trial"",""time""
""focus"",""0"",""1""
","""event"",""trial"",""time""
""fullscreenenter"",""1"",""4390""
","
","","","1292","","","20","10379","1786","&#9752;","elianto","#f73b6a7A"," "," ","1","-10","[2150]","1","1","","","10379","11","3","3","lose","go","1"
"pit-trial","129","1065583","0.0-15.0","battery-v0.2","","""event"",""trial"",""time""
""focus"",""0"",""1""
""fullscreenenter"",""1"",""4390""
","
","""event"",""trial"",""time""
""focus"",""0"",""1""
","""event"",""trial"",""time""
""fullscreenenter"",""1"",""4390""
","
","","","-1","","","20","10379","1786","&#9733;","elianto","#3366ff99","-1","-1","1","+10","[]","0","1","","","10379","12","2","2","win","no-go","0"
"pit-trial","130","1069260","0.0-16.0","battery-v0.2","","""event"",""trial"",""time""
""focus"",""0"",""1""
""fullscreenenter"",""1"",""4390""
","
","""event"",""trial"",""time""
""focus"",""0"",""1""
","""event"",""trial"",""time""
""fullscreenenter"",""1"",""4390""
","
","","","811","","","20","10379","1786","&#9730;","elianto","#3366ff99"," "," ","1","+10","[1667]","1","1","","","10379","13","1","1","win","go","0"
"pit-trial","131","1074128","0.0-17.0","battery-v0.2","","""event"",""trial"",""time""
""focus"",""0"",""1""
""fullscreenenter"",""1"",""4390""
","
","""event"",""trial"",""time""
""focus"",""0"",""1""
","""event"",""trial"",""time""
""fullscreenenter"",""1"",""4390""
","
","","","-1","","","20","10379","1786","&#9733;","elianto","#3366ff99","-1","-1","1","+10","[]","0","1","","","10379","14","2","2","win","no-go","0"
"pit-trial","132","1079006","0.0-18.0","battery-v0.2","","""event"",""trial"",""time""
""focus"",""0"",""1""
""fullscreenenter"",""1"",""4390""
","
","""event"",""trial"",""time""
""focus"",""0"",""1""
","""event"",""trial"",""time""
""fullscreenenter"",""1"",""4390""
","
","","","-1","","","20","10379","1786","&#9752;","elianto","#f73b6a7A"," ","-1","0","-10","[]","0","1","","","10379","15","3","3","lose","go","0"
"pit-trial","133","1083876","0.0-19.0","battery-v0.2","","""event"",""trial"",""time""
""focus"",""0"",""1""
""fullscreenenter"",""1"",""4390""
","
","""event"",""trial"",""time""
""focus"",""0"",""1""
","""event"",""trial"",""time""
""fullscreenenter"",""1"",""4390""
","
","","","-1","","","20","10379","1786","&#9728;","elianto","#f73b6a7A","-1","-1","1","0","[]","0","1","","","10379","16","0","4","lose","no-go","0"
"pit-trial","134","1088744","0.0-20.0","battery-v0.2","","""event"",""trial"",""time""
""focus"",""0"",""1""
""fullscreenenter"",""1"",""4390""
","
","""event"",""trial"",""time""
""focus"",""0"",""1""
","""event"",""trial"",""time""
""fullscreenenter"",""1"",""4390""
","
","","","-1","","","20","10379","1786","&#9733;","elianto","#3366ff99","-1","-1","1","+10","[]","0","1","","","10379","17","2","2","win","no-go","0"
"pit-trial","135","1092333","0.0-21.0","battery-v0.2","","""event"",""trial"",""time""
""focus"",""0"",""1""
""fullscreenenter"",""1"",""4390""
","
","""event"",""trial"",""time""
""focus"",""0"",""1""
","""event"",""trial"",""time""
""fullscreenenter"",""1"",""4390""
","
","","","684","","","20","10379","1786","&#9730;","elianto","#3366ff99"," "," ","1","+10","[1572]","1","1","","","10379","18","1","1","win","go","0"
"pit-trial","136","1097208","0.0-22.0","battery-v0.2","","""event"",""trial"",""time""
""focus"",""0"",""1""
""fullscreenenter"",""1"",""4390""
","
","""event"",""trial"",""time""
""focus"",""0"",""1""
","""event"",""trial"",""time""
""fullscreenenter"",""1"",""4390""
","
","","","-1","","","20","10379","1786","&#9728;","elianto","#f73b6a7A","-1","-1","1","-10","[]","0","1","","","10379","19","0","4","lose","no-go","1"
"pit-trial","137","1100989","0.0-23.0","battery-v0.2","","""event"",""trial"",""time""
""focus"",""0"",""1""
""fullscreenenter"",""1"",""4390""
","
","""event"",""trial"",""time""
""focus"",""0"",""1""
","""event"",""trial"",""time""
""fullscreenenter"",""1"",""4390""
","
","","","858","","","20","10379","1786","&#9752;","elianto","#f73b6a7A"," "," ","1","-10","[1762]","1","1","","","10379","20","3","3","lose","go","1"
"pit-instructions","138","1115312","0.0-24.0","battery-v0.2","","""event"",""trial"",""time""
""focus"",""0"",""1""
""fullscreenenter"",""1"",""4390""
","
","""event"",""trial"",""time""
""focus"",""0"",""1""
","""event"",""trial"",""time""
""fullscreenenter"",""1"",""4390""
","
","","[{""page_index"":0,""viewing_time"":6564},{""page_index"":1,""viewing_time"":7757}]","14321","","","","","","","","","","","","","","","","","","","","","","","",""
"pit-trial","139","1118810","0.0-25.0","battery-v0.2","","""event"",""trial"",""time""
""focus"",""0"",""1""
""fullscreenenter"",""1"",""4390""
","
","""event"",""trial"",""time""
""focus"",""0"",""1""
","""event"",""trial"",""time""
""fullscreenenter"",""1"",""4390""
","
","","","581","","","20","10379","1786","l","elianto","#3366ff99"," "," ","1","+10","[1475]","1","2","","","10379","21","1","1","win","go","0"
"pit-trial","140","1122735","0.0-26.0","battery-v0.2","","""event"",""trial"",""time""
""focus"",""0"",""1""
""fullscreenenter"",""1"",""4390""
","
","""event"",""trial"",""time""
""focus"",""0"",""1""
","""event"",""trial"",""time""
""fullscreenenter"",""1"",""4390""
","
","","","1050","","","20","10379","1786","a","elianto","#f73b6a7A","-1"," ","0","-10","[1908]","1","2","","","10379","22","2","4","lose","no-go","0"
"pit-trial","141","1126401","0.0-27.0","battery-v0.2","","""event"",""trial"",""time""
""focus"",""0"",""1""
""fullscreenenter"",""1"",""4390""
","
","""event"",""trial"",""time""
""focus"",""0"",""1""
","""event"",""trial"",""time""
""fullscreenenter"",""1"",""4390""
","
","","","802","","","20","10379","1786","u","elianto","#f73b6a7A","-1"," ","0","0","[1659]","1","2","","","10379","23","0","4","lose","no-go","1"
"pit-trial","142","1130599","0.0-28.0","battery-v0.2","","""event"",""trial"",""time""
""focus"",""0"",""1""
""fullscreenenter"",""1"",""4390""
","
","""event"",""trial"",""time""
""focus"",""0"",""1""
","""event"",""trial"",""time""
""fullscreenenter"",""1"",""4390""
","
","","","1324","","","20","10379","1786","g","elianto","#f73b6a7A"," "," ","1","0","[2181]","1","2","","","10379","24","3","3","lose","go","0"
"pit-trial","143","1134540","0.0-29.0","battery-v0.2","","""event"",""trial"",""time""
""focus"",""0"",""1""
""fullscreenenter"",""1"",""4390""
","
","""event"",""trial"",""time""
""focus"",""0"",""1""
","""event"",""trial"",""time""
""fullscreenenter"",""1"",""4390""
","
","","","1068","","","20","10379","1786","u","elianto","#f73b6a7A","-1"," ","0","-10","[1929]","1","2","","","10379","25","0","4","lose","no-go","0"
"pit-trial","144","1138350","0.0-30.0","battery-v0.2","","""event"",""trial"",""time""
""focus"",""0"",""1""
""fullscreenenter"",""1"",""4390""
","
","""event"",""trial"",""time""
""focus"",""0"",""1""
","""event"",""trial"",""time""
""fullscreenenter"",""1"",""4390""
","
","","","952","","","20","10379","1786","l","elianto","#3366ff99"," "," ","1","0","[1803]","1","2","","","10379","26","1","1","win","go","1"
"pit-trial","145","1143225","0.0-31.0","battery-v0.2","","""event"",""trial"",""time""
""focus"",""0"",""1""
""fullscreenenter"",""1"",""4390""
","
","""event"",""trial"",""time""
""focus"",""0"",""1""
","""event"",""trial"",""time""
""fullscreenenter"",""1"",""4390""
","
","","","-1","","","20","10379","1786","a","elianto","#f73b6a7A","-1","-1","1","0","[]","0","2","","","10379","27","2","4","lose","no-go","0"
"pit-trial","146","1147315","0.0-32.0","battery-v0.2","","""event"",""trial"",""time""
""focus"",""0"",""1""
""fullscreenenter"",""1"",""4390""
","
","""event"",""trial"",""time""
""focus"",""0"",""1""
","""event"",""trial"",""time""
""fullscreenenter"",""1"",""4390""
","
","","","1217","","","20","10379","1786","g","elianto","#f73b6a7A"," "," ","1","0","[2074]","1","2","","","10379","28","3","3","lose","go","0"
"pit-trial","147","1152187","0.0-33.0","battery-v0.2","","""event"",""trial"",""time""
""focus"",""0"",""1""
""fullscreenenter"",""1"",""4390""
","
","""event"",""trial"",""time""
""focus"",""0"",""1""
","""event"",""trial"",""time""
""fullscreenenter"",""1"",""4390""
","
","","","-1","","","20","10379","1786","a","elianto","#f73b6a7A","-1","-1","1","0","[]","0","2","","","10379","29","2","4","lose","no-go","0"
"pit-trial","148","1156396","0.0-34.0","battery-v0.2","","""event"",""trial"",""time""
""focus"",""0"",""1""
""fullscreenenter"",""1"",""4390""
","
","""event"",""trial"",""time""
""focus"",""0"",""1""
","""event"",""trial"",""time""
""fullscreenenter"",""1"",""4390""
","
","","","1340","","","20","10379","1786","g","elianto","#f73b6a7A"," "," ","1","0","[2197]","1","2","","","10379","30","3","3","lose","go","0"
"pit-trial","149","1160987","0.0-35.0","battery-v0.2","","""event"",""trial"",""time""
""focus"",""0"",""1""
""fullscreenenter"",""1"",""4390""
","
","""event"",""trial"",""time""
""focus"",""0"",""1""
","""event"",""trial"",""time""
""fullscreenenter"",""1"",""4390""
","
","","","1730","","","20","10379","1786","u","elianto","#f73b6a7A","-1"," ","0","-10","[2583]","1","2","","","10379","31","0","4","lose","no-go","0"
"pit-trial","150","1164764","0.0-36.0","battery-v0.2","","""event"",""trial"",""time""
""focus"",""0"",""1""
""fullscreenenter"",""1"",""4390""
","
","""event"",""trial"",""time""
""focus"",""0"",""1""
","""event"",""trial"",""time""
""fullscreenenter"",""1"",""4390""
","
","","","862","","","20","10379","1786","l","elianto","#3366ff99"," "," ","1","+10","[1767]","1","2","","","10379","32","1","1","win","go","0"
"pit-trial","151","1169634","0.0-37.0","battery-v0.2","","""event"",""trial"",""time""
""focus"",""0"",""1""
""fullscreenenter"",""1"",""4390""
","
","""event"",""trial"",""time""
""focus"",""0"",""1""
","""event"",""trial"",""time""
""fullscreenenter"",""1"",""4390""
","
","","","-1","","","20","10379","1786","g","elianto","#f73b6a7A"," ","-1","0","-10","[]","0","2","","","10379","33","3","3","lose","go","0"
"pit-trial","152","1173283","0.0-38.0","battery-v0.2","","""event"",""trial"",""time""
""focus"",""0"",""1""
""fullscreenenter"",""1"",""4390""
","
","""event"",""trial"",""time""
""focus"",""0"",""1""
","""event"",""trial"",""time""
""fullscreenenter"",""1"",""4390""
","
","","","791","","","20","10379","1786","l","elianto","#3366ff99"," "," ","1","0","[1645]","1","2","","","10379","34","1","1","win","go","1"
"pit-trial","153","1177131","0.0-39.0","battery-v0.2","","""event"",""trial"",""time""
""focus"",""0"",""1""
""fullscreenenter"",""1"",""4390""
","
","""event"",""trial"",""time""
""focus"",""0"",""1""
","""event"",""trial"",""time""
""fullscreenenter"",""1"",""4390""
","
","","","979","","","20","10379","1786","u","elianto","#f73b6a7A","-1"," ","0","-10","[1835]","1","2","","","10379","35","0","4","lose","no-go","0"
"pit-trial","154","1181997","0.0-40.0","battery-v0.2","","""event"",""trial"",""time""
""focus"",""0"",""1""
""fullscreenenter"",""1"",""4390""
","
","""event"",""trial"",""time""
""focus"",""0"",""1""
","""event"",""trial"",""time""
""fullscreenenter"",""1"",""4390""
","
","","","-1","","","20","10379","1786","a","elianto","#f73b6a7A","-1","-1","1","0","[]","0","2","","","10379","36","2","4","lose","no-go","0"
"pit-trial","155","1185651","0.0-41.0","battery-v0.2","","""event"",""trial"",""time""
""focus"",""0"",""1""
""fullscreenenter"",""1"",""4390""
","
","""event"",""trial"",""time""
""focus"",""0"",""1""
","""event"",""trial"",""time""
""fullscreenenter"",""1"",""4390""
","
","","","779","","","20","10379","1786","l","elianto","#3366ff99"," "," ","1","0","[1635]","1","2","","","10379","37","1","1","win","go","1"
"pit-trial","156","1190507","0.0-42.0","battery-v0.2","","""event"",""trial"",""time""
""focus"",""0"",""1""
""fullscreenenter"",""1"",""4390""
","
","""event"",""trial"",""time""
""focus"",""0"",""1""
","""event"",""trial"",""time""
""fullscreenenter"",""1"",""4390""
","
","","","-1","","","20","10379","1786","a","elianto","#f73b6a7A","-1","-1","1","0","[]","0","2","","","10379","38","2","4","lose","no-go","0"
"pit-trial","157","1195379","0.0-43.0","battery-v0.2","","""event"",""trial"",""time""
""focus"",""0"",""1""
""fullscreenenter"",""1"",""4390""
","
","""event"",""trial"",""time""
""focus"",""0"",""1""
","""event"",""trial"",""time""
""fullscreenenter"",""1"",""4390""
","
","","","-1","","","20","10379","1786","u","elianto","#f73b6a7A","-1","-1","1","0","[]","0","2","","","10379","39","0","4","lose","no-go","0"
"pit-trial","158","1200254","0.0-44.0","battery-v0.2","","""event"",""trial"",""time""
""focus"",""0"",""1""
""fullscreenenter"",""1"",""4390""
","
","""event"",""trial"",""time""
""focus"",""0"",""1""
","""event"",""trial"",""time""
""fullscreenenter"",""1"",""4390""
","
","","","-1","","","20","10379","1786","g","elianto","#f73b6a7A"," ","-1","0","-10","[]","0","2","","","10379","40","3","3","lose","go","0"
"pit-trial","159","1205119","0.0-45.0","battery-v0.2","","""event"",""trial"",""time""
""focus"",""0"",""1""
""fullscreenenter"",""1"",""4390""
","
","""event"",""trial"",""time""
""focus"",""0"",""1""
","""event"",""trial"",""time""
""fullscreenenter"",""1"",""4390""
","
","","","-1","","","20","10379","1786","a","elianto","#f73b6a7A","-1","-1","1","-10","[]","0","2","","","10379","41","2","4","lose","no-go","1"
"pit-trial","160","1209994","0.0-46.0","battery-v0.2","","""event"",""trial"",""time""
""focus"",""0"",""1""
""fullscreenenter"",""1"",""4390""
","
","""event"",""trial"",""time""
""focus"",""0"",""1""
","""event"",""trial"",""time""
""fullscreenenter"",""1"",""4390""
","
","","","-1","","","20","10379","1786","g","elianto","#f73b6a7A"," ","-1","0","-10","[]","0","2","","","10379","42","3","3","lose","go","0"
"pit-trial","161","1213449","0.0-47.0","battery-v0.2","","""event"",""trial"",""time""
""focus"",""0"",""1""
""fullscreenenter"",""1"",""4390""
","
","""event"",""trial"",""time""
""focus"",""0"",""1""
","""event"",""trial"",""time""
""fullscreenenter"",""1"",""4390""
","
","","","557","","","20","10379","1786","l","elianto","#3366ff99"," "," ","1","+10","[1443]","1","2","","","10379","43","1","1","win","go","0"
"pit-trial","162","1218325","0.0-48.0","battery-v0.2","","""event"",""trial"",""time""
""focus"",""0"",""1""
""fullscreenenter"",""1"",""4390""
","
","""event"",""trial"",""time""
""focus"",""0"",""1""
","""event"",""trial"",""time""
""fullscreenenter"",""1"",""4390""
","
","","","-1","","","20","10379","1786","u","elianto","#f73b6a7A","-1","-1","1","0","[]","0","2","","","10379","44","0","4","lose","no-go","0"
"pit-trial","163","1223208","0.0-49.0","battery-v0.2","","""event"",""trial"",""time""
""focus"",""0"",""1""
""fullscreenenter"",""1"",""4390""
","
","""event"",""trial"",""time""
""focus"",""0"",""1""
","""event"",""trial"",""time""
""fullscreenenter"",""1"",""4390""
","
","","","-1","","","20","10379","1786","a","elianto","#f73b6a7A","-1","-1","1","0","[]","0","2","","","10379","45","2","4","lose","no-go","0"
"pit-trial","164","1228068","0.0-50.0","battery-v0.2","","""event"",""trial"",""time""
""focus"",""0"",""1""
""fullscreenenter"",""1"",""4390""
","
","""event"",""trial"",""time""
""focus"",""0"",""1""
","""event"",""trial"",""time""
""fullscreenenter"",""1"",""4390""
","
","","","-1","","","20","10379","1786","u","elianto","#f73b6a7A","-1","-1","1","0","[]","0","2","","","10379","46","0","4","lose","no-go","0"
"pit-trial","165","1232466","0.0-51.0","battery-v0.2","","""event"",""trial"",""time""
""focus"",""0"",""1""
""fullscreenenter"",""1"",""4390""
","
","""event"",""trial"",""time""
""focus"",""0"",""1""
","""event"",""trial"",""time""
""fullscreenenter"",""1"",""4390""
","
","","","1483","","","20","10379","1786","p","elianto","#3366ff99","-1"," ","0","0","[2388]","1","2","","","10379","47","4","2","win","no-go","0"
"pit-trial","166","1237311","0.0-52.0","battery-v0.2","","""event"",""trial"",""time""
""focus"",""0"",""1""
""fullscreenenter"",""1"",""4390""
","
","""event"",""trial"",""time""
""focus"",""0"",""1""
","""event"",""trial"",""time""
""fullscreenenter"",""1"",""4390""
","
","","","1977","","","20","10379","1786","g","elianto","#f73b6a7A"," "," ","1","-10","[2835]","1","2","","","10379","48","3","3","lose","go","1"
"pit-trial","167","1242225","0.0-53.0","battery-v0.2","","""event"",""trial"",""time""
""focus"",""0"",""1""
""fullscreenenter"",""1"",""4390""
","
","""event"",""trial"",""time""
""focus"",""0"",""1""
","""event"",""trial"",""time""
""fullscreenenter"",""1"",""4390""
","
","","","-1","","","20","10379","1786","p","elianto","#3366ff99","-1","-1","1","+10","[]","0","2","","","10379","49","4","2","win","no-go","0"
"pit-trial","168","1247096","0.0-54.0","battery-v0.2","","""event"",""trial"",""time""
""focus"",""0"",""1""
""fullscreenenter"",""1"",""4390""
","
","""event"",""trial"",""time""
""focus"",""0"",""1""
","""event"",""trial"",""time""
""fullscreenenter"",""1"",""4390""
","
","","","-1","","","20","10379","1786","u","elianto","#f73b6a7A","-1","-1","1","-10","[]","0","2","","","10379","50","0","4","lose","no-go","1"
"pit-trial","169","1251830","0.0-55.0","battery-v0.2","","""event"",""trial"",""time""
""focus"",""0"",""1""
""fullscreenenter"",""1"",""4390""
","
","""event"",""trial"",""time""
""focus"",""0"",""1""
","""event"",""trial"",""time""
""fullscreenenter"",""1"",""4390""
","
","","","1858","","","20","10379","1786","l","elianto","#3366ff99"," "," ","1","+10","[2718]","1","2","","","10379","51","1","1","win","go","0"
"pit-trial","170","1256699","0.0-56.0","battery-v0.2","","""event"",""trial"",""time""
""focus"",""0"",""1""
""fullscreenenter"",""1"",""4390""
","
","""event"",""trial"",""time""
""focus"",""0"",""1""
","""event"",""trial"",""time""
""fullscreenenter"",""1"",""4390""
","
","","","-1","","","20","10379","1786","g","elianto","#f73b6a7A"," ","-1","0","-10","[]","0","2","","","10379","52","3","3","lose","go","0"
"pit-trial","171","1261575","0.0-57.0","battery-v0.2","","""event"",""trial"",""time""
""focus"",""0"",""1""
""fullscreenenter"",""1"",""4390""
","
","""event"",""trial"",""time""
""focus"",""0"",""1""
","""event"",""trial"",""time""
""fullscreenenter"",""1"",""4390""
","
","","","-1","","","20","10379","1786","a","elianto","#f73b6a7A","-1","-1","1","0","[]","0","2","","","10379","53","2","4","lose","no-go","0"
"pit-trial","172","1266443","0.0-58.0","battery-v0.2","","""event"",""trial"",""time""
""focus"",""0"",""1""
""fullscreenenter"",""1"",""4390""
","
","""event"",""trial"",""time""
""focus"",""0"",""1""
","""event"",""trial"",""time""
""fullscreenenter"",""1"",""4390""
","
","","","-1","","","20","10379","1786","p","elianto","#3366ff99","-1","-1","1","0","[]","0","2","","","10379","54","4","2","win","no-go","1"
"pit-trial","173","1271307","0.0-59.0","battery-v0.2","","""event"",""trial"",""time""
""focus"",""0"",""1""
""fullscreenenter"",""1"",""4390""
","
","""event"",""trial"",""time""
""focus"",""0"",""1""
","""event"",""trial"",""time""
""fullscreenenter"",""1"",""4390""
","
","","","-1","","","20","10379","1786","u","elianto","#f73b6a7A","-1","-1","1","0","[]","0","2","","","10379","55","0","4","lose","no-go","0"
"pit-trial","174","1275147","0.0-60.0","battery-v0.2","","""event"",""trial"",""time""
""focus"",""0"",""1""
""fullscreenenter"",""1"",""4390""
","
","""event"",""trial"",""time""
""focus"",""0"",""1""
","""event"",""trial"",""time""
""fullscreenenter"",""1"",""4390""
","
","","","970","","","20","10379","1786","l","elianto","#3366ff99"," "," ","1","0","[1827]","1","2","","","10379","56","1","1","win","go","1"
"pit-trial","175","1280010","0.0-61.0","battery-v0.2","","""event"",""trial"",""time""
""focus"",""0"",""1""
""fullscreenenter"",""1"",""4390""
","
","""event"",""trial"",""time""
""focus"",""0"",""1""
","""event"",""trial"",""time""
""fullscreenenter"",""1"",""4390""
","
","","","-1","","","20","10379","1786","u","elianto","#f73b6a7A","-1","-1","1","0","[]","0","2","","","10379","57","0","4","lose","no-go","0"
"pit-trial","176","1284178","0.0-62.0","battery-v0.2","","""event"",""trial"",""time""
""focus"",""0"",""1""
""fullscreenenter"",""1"",""4390""
","
","""event"",""trial"",""time""
""focus"",""0"",""1""
","""event"",""trial"",""time""
""fullscreenenter"",""1"",""4390""
","
","","","1303","","","20","10379","1786","l","elianto","#3366ff99"," "," ","1","+10","[2160]","1","2","","","10379","58","1","1","win","go","0"
"pit-trial","177","1287604","0.0-63.0","battery-v0.2","","""event"",""trial"",""time""
""focus"",""0"",""1""
""fullscreenenter"",""1"",""4390""
","
","""event"",""trial"",""time""
""focus"",""0"",""1""
","""event"",""trial"",""time""
""fullscreenenter"",""1"",""4390""
","
","","","561","","","20","10379","1786","g","elianto","#f73b6a7A"," "," ","1","0","[1418]","1","2","","","10379","59","3","3","lose","go","0"
"pit-trial","178","1292477","0.0-64.0","battery-v0.2","","""event"",""trial"",""time""
""focus"",""0"",""1""
""fullscreenenter"",""1"",""4390""
","
","""event"",""trial"",""time""
""focus"",""0"",""1""
","""event"",""trial"",""time""
""fullscreenenter"",""1"",""4390""
","
","","","-1","","","20","10379","1786","p","elianto","#3366ff99","-1","-1","1","+10","[]","0","2","","","10379","60","4","2","win","no-go","0"
"pit-trial","179","1296206","0.0-65.0","battery-v0.2","","""event"",""trial"",""time""
""focus"",""0"",""1""
""fullscreenenter"",""1"",""4390""
","
","""event"",""trial"",""time""
""focus"",""0"",""1""
","""event"",""trial"",""time""
""fullscreenenter"",""1"",""4390""
","
","","","831","","","20","10379","1786","l","elianto","#3366ff99"," "," ","1","+10","[1720]","1","2","","","10379","61","1","1","win","go","0"
"pit-trial","180","1301083","0.0-66.0","battery-v0.2","","""event"",""trial"",""time""
""focus"",""0"",""1""
""fullscreenenter"",""1"",""4390""
","
","""event"",""trial"",""time""
""focus"",""0"",""1""
","""event"",""trial"",""time""
""fullscreenenter"",""1"",""4390""
","
","","","-1","","","20","10379","1786","p","elianto","#3366ff99","-1","-1","1","0","[]","0","2","","","10379","62","4","2","win","no-go","1"
"pit-trial","181","1305947","0.0-67.0","battery-v0.2","","""event"",""trial"",""time""
""focus"",""0"",""1""
""fullscreenenter"",""1"",""4390""
","
","""event"",""trial"",""time""
""focus"",""0"",""1""
","""event"",""trial"",""time""
""fullscreenenter"",""1"",""4390""
","
","","","-1","","","20","10379","1786","a","elianto","#f73b6a7A","-1","-1","1","-10","[]","0","2","","","10379","63","2","4","lose","no-go","1"
"pit-trial","182","1310104","0.0-68.0","battery-v0.2","","""event"",""trial"",""time""
""focus"",""0"",""1""
""fullscreenenter"",""1"",""4390""
","
","""event"",""trial"",""time""
""focus"",""0"",""1""
","""event"",""trial"",""time""
""fullscreenenter"",""1"",""4390""
","
","","","1259","","","20","10379","1786","g","elianto","#f73b6a7A"," "," ","1","0","[2143]","1","2","","","10379","64","3","3","lose","go","0"
"pit-trial","183","1314366","0.0-69.0","battery-v0.2","","""event"",""trial"",""time""
""focus"",""0"",""1""
""fullscreenenter"",""1"",""4390""
","
","""event"",""trial"",""time""
""focus"",""0"",""1""
","""event"",""trial"",""time""
""fullscreenenter"",""1"",""4390""
","
","","","1344","","","20","10379","1786","g","elianto","#f73b6a7A"," "," ","1","0","[2249]","1","2","","","10379","65","3","3","lose","go","0"
"pit-trial","184","1318156","0.0-70.0","battery-v0.2","","""event"",""trial"",""time""
""focus"",""0"",""1""
""fullscreenenter"",""1"",""4390""
","
","""event"",""trial"",""time""
""focus"",""0"",""1""
","""event"",""trial"",""time""
""fullscreenenter"",""1"",""4390""
","
","","","923","","","20","10379","1786","l","elianto","#3366ff99"," "," ","1","+10","[1779]","1","2","","","10379","66","1","1","win","go","0"
"pit-trial","185","1323028","0.0-71.0","battery-v0.2","","""event"",""trial"",""time""
""focus"",""0"",""1""
""fullscreenenter"",""1"",""4390""
","
","""event"",""trial"",""time""
""focus"",""0"",""1""
","""event"",""trial"",""time""
""fullscreenenter"",""1"",""4390""
","
","","","-1","","","20","10379","1786","a","elianto","#f73b6a7A","-1","-1","1","0","[]","0","2","","","10379","67","2","4","lose","no-go","0"
"pit-trial","186","1327908","0.0-72.0","battery-v0.2","","""event"",""trial"",""time""
""focus"",""0"",""1""
""fullscreenenter"",""1"",""4390""
","
","""event"",""trial"",""time""
""focus"",""0"",""1""
","""event"",""trial"",""time""
""fullscreenenter"",""1"",""4390""
","
","","","-1","","","20","10379","1786","p","elianto","#3366ff99","-1","-1","1","+10","[]","0","2","","","10379","68","4","2","win","no-go","0"
"pit-trial","187","1332785","0.0-73.0","battery-v0.2","","""event"",""trial"",""time""
""focus"",""0"",""1""
""fullscreenenter"",""1"",""4390""
","
","""event"",""trial"",""time""
""focus"",""0"",""1""
","""event"",""trial"",""time""
""fullscreenenter"",""1"",""4390""
","
","","","-1","","","20","10379","1786","p","elianto","#3366ff99","-1","-1","1","+10","[]","0","2","","","10379","69","4","2","win","no-go","0"
"pit-trial","188","1336318","0.0-74.0","battery-v0.2","","""event"",""trial"",""time""
""focus"",""0"",""1""
""fullscreenenter"",""1"",""4390""
","
","""event"",""trial"",""time""
""focus"",""0"",""1""
","""event"",""trial"",""time""
""fullscreenenter"",""1"",""4390""
","
","","","675","","","20","10379","1786","g","elianto","#f73b6a7A"," "," ","1","-10","[1529]","1","2","","","10379","70","3","3","lose","go","1"
"pit-trial","189","1340547","0.0-75.0","battery-v0.2","","""event"",""trial"",""time""
""focus"",""0"",""1""
""fullscreenenter"",""1"",""4390""
","
","""event"",""trial"",""time""
""focus"",""0"",""1""
","""event"",""trial"",""time""
""fullscreenenter"",""1"",""4390""
","
","","","1371","","","20","10379","1786","s","elianto","#3366ff99"," "," ","1","0","[2224]","1","2","","","10379","71","5","1","win","go","1"
"pit-trial","190","1344343","0.0-76.0","battery-v0.2","","""event"",""trial"",""time""
""focus"",""0"",""1""
""fullscreenenter"",""1"",""4390""
","
","""event"",""trial"",""time""
""focus"",""0"",""1""
","""event"",""trial"",""time""
""fullscreenenter"",""1"",""4390""
","
","","","902","","","20","10379","1786","l","elianto","#3366ff99"," "," ","1","+10","[1759]","1","2","","","10379","72","1","1","win","go","0"
"pit-trial","191","1347885","0.0-77.0","battery-v0.2","","""event"",""trial"",""time""
""focus"",""0"",""1""
""fullscreenenter"",""1"",""4390""
","
","""event"",""trial"",""time""
""focus"",""0"",""1""
","""event"",""trial"",""time""
""fullscreenenter"",""1"",""4390""
","
","","","681","","","20","10379","1786","s","elianto","#3366ff99"," "," ","1","0","[1535]","1","2","","","10379","73","5","1","win","go","1"
"pit-trial","192","1351691","0.0-78.0","battery-v0.2","","""event"",""trial"",""time""
""focus"",""0"",""1""
""fullscreenenter"",""1"",""4390""
","
","""event"",""trial"",""time""
""focus"",""0"",""1""
","""event"",""trial"",""time""
""fullscreenenter"",""1"",""4390""
","
","","","929","","","20","10379","1786","l","elianto","#3366ff99"," "," ","1","+10","[1789]","1","2","","","10379","74","1","1","win","go","0"
"pit-trial","193","1355535","0.0-79.0","battery-v0.2","","""event"",""trial"",""time""
""focus"",""0"",""1""
""fullscreenenter"",""1"",""4390""
","
","""event"",""trial"",""time""
""focus"",""0"",""1""
","""event"",""trial"",""time""
""fullscreenenter"",""1"",""4390""
","
","","","981","","","20","10379","1786","g","elianto","#f73b6a7A"," "," ","1","0","[1837]","1","2","","","10379","75","3","3","lose","go","0"
"pit-trial","194","1360401","0.0-80.0","battery-v0.2","","""event"",""trial"",""time""
""focus"",""0"",""1""
""fullscreenenter"",""1"",""4390""
","
","""event"",""trial"",""time""
""focus"",""0"",""1""
","""event"",""trial"",""time""
""fullscreenenter"",""1"",""4390""
","
","","","-1","","","20","10379","1786","p","elianto","#3366ff99","-1","-1","1","0","[]","0","2","","","10379","76","4","2","win","no-go","1"
"pit-trial","195","1365273","0.0-81.0","battery-v0.2","","""event"",""trial"",""time""
""focus"",""0"",""1""
""fullscreenenter"",""1"",""4390""
","
","""event"",""trial"",""time""
""focus"",""0"",""1""
","""event"",""trial"",""time""
""fullscreenenter"",""1"",""4390""
","
","","","-1","","","20","10379","1786","p","elianto","#3366ff99","-1","-1","1","0","[]","0","2","","","10379","77","4","2","win","no-go","1"
"pit-trial","196","1369274","0.0-82.0","battery-v0.2","","""event"",""trial"",""time""
""focus"",""0"",""1""
""fullscreenenter"",""1"",""4390""
","
","""event"",""trial"",""time""
""focus"",""0"",""1""
","""event"",""trial"",""time""
""fullscreenenter"",""1"",""4390""
","
","","","1090","","","20","10379","1786","g","elianto","#f73b6a7A"," "," ","1","0","[1994]","1","2","","","10379","78","3","3","lose","go","0"
"pit-trial","197","1373283","0.0-83.0","battery-v0.2","","""event"",""trial"",""time""
""focus"",""0"",""1""
""fullscreenenter"",""1"",""4390""
","
","""event"",""trial"",""time""
""focus"",""0"",""1""
","""event"",""trial"",""time""
""fullscreenenter"",""1"",""4390""
","
","","","1139","","","20","10379","1786","w","elianto","#f73b6a7A","-1"," ","0","-10","[1992]","1","2","","","10379","79","6","4","lose","no-go","0"
"pit-trial","198","1378156","0.0-84.0","battery-v0.2","","""event"",""trial"",""time""
""focus"",""0"",""1""
""fullscreenenter"",""1"",""4390""
","
","""event"",""trial"",""time""
""focus"",""0"",""1""
","""event"",""trial"",""time""
""fullscreenenter"",""1"",""4390""
","
","","","-1","","","20","10379","1786","s","elianto","#3366ff99"," ","-1","0","0","[]","0","2","","","10379","80","5","1","win","go","0"
"pit-trial","199","1383022","0.0-85.0","battery-v0.2","","""event"",""trial"",""time""
""focus"",""0"",""1""
""fullscreenenter"",""1"",""4390""
","
","""event"",""trial"",""time""
""focus"",""0"",""1""
","""event"",""trial"",""time""
""fullscreenenter"",""1"",""4390""
","
","","","-1","","","20","10379","1786","s","elianto","#3366ff99"," ","-1","0","0","[]","0","2","","","10379","81","5","1","win","go","0"
"pit-trial","200","1387874","0.0-86.0","battery-v0.2","","""event"",""trial"",""time""
""focus"",""0"",""1""
""fullscreenenter"",""1"",""4390""
","
","""event"",""trial"",""time""
""focus"",""0"",""1""
","""event"",""trial"",""time""
""fullscreenenter"",""1"",""4390""
","
","","","-1","","","20","10379","1786","e","elianto","#f73b6a7A"," ","-1","0","-10","[]","0","2","","","10379","82","7","3","lose","go","0"
"pit-trial","201","1392747","0.0-87.0","battery-v0.2","","""event"",""trial"",""time""
""focus"",""0"",""1""
""fullscreenenter"",""1"",""4390""
","
","""event"",""trial"",""time""
""focus"",""0"",""1""
","""event"",""trial"",""time""
""fullscreenenter"",""1"",""4390""
","
","","","-1","","","20","10379","1786","p","elianto","#3366ff99","-1","-1","1","0","[]","0","2","","","10379","83","4","2","win","no-go","1"
"pit-trial","202","1396994","0.0-88.0","battery-v0.2","","""event"",""trial"",""time""
""focus"",""0"",""1""
""fullscreenenter"",""1"",""4390""
","
","""event"",""trial"",""time""
""focus"",""0"",""1""
","""event"",""trial"",""time""
""fullscreenenter"",""1"",""4390""
","
","","","1385","","","20","10379","1786","w","elianto","#f73b6a7A","-1"," ","0","-10","[2237]","1","2","","","10379","84","6","4","lose","no-go","0"
"pit-trial","203","1401870","0.0-89.0","battery-v0.2","","""event"",""trial"",""time""
""focus"",""0"",""1""
""fullscreenenter"",""1"",""4390""
","
","""event"",""trial"",""time""
""focus"",""0"",""1""
","""event"",""trial"",""time""
""fullscreenenter"",""1"",""4390""
","
","","","-1","","","20","10379","1786","w","elianto","#f73b6a7A","-1","-1","1","0","[]","0","2","","","10379","85","6","4","lose","no-go","0"
"pit-trial","204","1406739","0.0-90.0","battery-v0.2","","""event"",""trial"",""time""
""focus"",""0"",""1""
""fullscreenenter"",""1"",""4390""
","
","""event"",""trial"",""time""
""focus"",""0"",""1""
","""event"",""trial"",""time""
""fullscreenenter"",""1"",""4390""
","
","","","-1","","","20","10379","1786","p","elianto","#3366ff99","-1","-1","1","+10","[]","0","2","","","10379","86","4","2","win","no-go","0"
"pit-trial","205","1411612","0.0-91.0","battery-v0.2","","""event"",""trial"",""time""
""focus"",""0"",""1""
""fullscreenenter"",""1"",""4390""
","
","""event"",""trial"",""time""
""focus"",""0"",""1""
","""event"",""trial"",""time""
""fullscreenenter"",""1"",""4390""
","
","","","-1","","","20","10379","1786","s","elianto","#3366ff99"," ","-1","0","0","[]","0","2","","","10379","87","5","1","win","go","0"
"pit-trial","206","1416480","0.0-92.0","battery-v0.2","","""event"",""trial"",""time""
""focus"",""0"",""1""
""fullscreenenter"",""1"",""4390""
","
","""event"",""trial"",""time""
""focus"",""0"",""1""
","""event"",""trial"",""time""
""fullscreenenter"",""1"",""4390""
","
","","","-1","","","20","10379","1786","e","elianto","#f73b6a7A"," ","-1","0","-10","[]","0","2","","","10379","88","7","3","lose","go","0"
"pit-trial","207","1420217","0.0-93.0","battery-v0.2","","""event"",""trial"",""time""
""focus"",""0"",""1""
""fullscreenenter"",""1"",""4390""
","
","""event"",""trial"",""time""
""focus"",""0"",""1""
","""event"",""trial"",""time""
""fullscreenenter"",""1"",""4390""
","
","","","866","","","20","10379","1786","e","elianto","#f73b6a7A"," "," ","1","0","[1721]","1","2","","","10379","89","7","3","lose","go","0"
"pit-trial","208","1425091","0.0-94.0","battery-v0.2","","""event"",""trial"",""time""
""focus"",""0"",""1""
""fullscreenenter"",""1"",""4390""
","
","""event"",""trial"",""time""
""focus"",""0"",""1""
","""event"",""trial"",""time""
""fullscreenenter"",""1"",""4390""
","
","","","-1","","","20","10379","1786","w","elianto","#f73b6a7A","-1","-1","1","0","[]","0","2","","","10379","90","6","4","lose","no-go","0"
"pit-trial","209","1429103","0.0-95.0","battery-v0.2","","""event"",""trial"",""time""
""focus"",""0"",""1""
""fullscreenenter"",""1"",""4390""
","
","""event"",""trial"",""time""
""focus"",""0"",""1""
","""event"",""trial"",""time""
""fullscreenenter"",""1"",""4390""
","
","","","1141","","","20","10379","1786","s","elianto","#3366ff99"," "," ","1","+10","[1995]","1","2","","","10379","91","5","1","win","go","0"
"pit-trial","210","1433971","0.0-96.0","battery-v0.2","","""event"",""trial"",""time""
""focus"",""0"",""1""
""fullscreenenter"",""1"",""4390""
","
","""event"",""trial"",""time""
""focus"",""0"",""1""
","""event"",""trial"",""time""
""fullscreenenter"",""1"",""4390""
","
","","","-1","","","20","10379","1786","p","elianto","#3366ff99","-1","-1","1","+10","[]","0","2","","","10379","92","4","2","win","no-go","0"
"pit-trial","211","1437906","0.0-97.0","battery-v0.2","","""event"",""trial"",""time""
""focus"",""0"",""1""
""fullscreenenter"",""1"",""4390""
","
","""event"",""trial"",""time""
""focus"",""0"",""1""
","""event"",""trial"",""time""
""fullscreenenter"",""1"",""4390""
","
","","","1070","","","20","10379","1786","d","elianto","#3366ff99","-1"," ","0","+10","[1924]","1","2","","","10379","93","8","2","win","no-go","1"
"pit-trial","212","1442763","0.0-98.0","battery-v0.2","","""event"",""trial"",""time""
""focus"",""0"",""1""
""fullscreenenter"",""1"",""4390""
","
","""event"",""trial"",""time""
""focus"",""0"",""1""
","""event"",""trial"",""time""
""fullscreenenter"",""1"",""4390""
","
","","","-1","","","20","10379","1786","w","elianto","#f73b6a7A","-1","-1","1","0","[]","0","2","","","10379","94","6","4","lose","no-go","0"
"pit-trial","213","1446940","0.0-99.0","battery-v0.2","","""event"",""trial"",""time""
""focus"",""0"",""1""
""fullscreenenter"",""1"",""4390""
","
","""event"",""trial"",""time""
""focus"",""0"",""1""
","""event"",""trial"",""time""
""fullscreenenter"",""1"",""4390""
","
","","","1319","","","20","10379","1786","s","elianto","#3366ff99"," "," ","1","+10","[2172]","1","2","","","10379","95","5","1","win","go","0"
"pit-trial","214","1451240","0.0-100.0","battery-v0.2","","""event"",""trial"",""time""
""focus"",""0"",""1""
""fullscreenenter"",""1"",""4390""
","
","""event"",""trial"",""time""
""focus"",""0"",""1""
","""event"",""trial"",""time""
""fullscreenenter"",""1"",""4390""
","
","","","1432","","","20","10379","1786","e","elianto","#f73b6a7A"," "," ","1","0","[2288]","1","2","","","10379","96","7","3","lose","go","0"
"pit-trial","215","1456116","0.0-101.0","battery-v0.2","","""event"",""trial"",""time""
""focus"",""0"",""1""
""fullscreenenter"",""1"",""4390""
","
","""event"",""trial"",""time""
""focus"",""0"",""1""
","""event"",""trial"",""time""
""fullscreenenter"",""1"",""4390""
","
","","","-1","","","20","10379","1786","w","elianto","#f73b6a7A","-1","-1","1","0","[]","0","2","","","10379","97","6","4","lose","no-go","0"
"pit-trial","216","1460038","0.0-102.0","battery-v0.2","","""event"",""trial"",""time""
""focus"",""0"",""1""
""fullscreenenter"",""1"",""4390""
","
","""event"",""trial"",""time""
""focus"",""0"",""1""
","""event"",""trial"",""time""
""fullscreenenter"",""1"",""4390""
","
","","","1059","","","20","10379","1786","s","elianto","#3366ff99"," "," ","1","0","[1913]","1","2","","","10379","98","5","1","win","go","1"
"pit-trial","217","1464015","0.0-103.0","battery-v0.2","","""event"",""trial"",""time""
""focus"",""0"",""1""
""fullscreenenter"",""1"",""4390""
","
","""event"",""trial"",""time""
""focus"",""0"",""1""
","""event"",""trial"",""time""
""fullscreenenter"",""1"",""4390""
","
","","","1104","","","20","10379","1786","e","elianto","#f73b6a7A"," "," ","1","-10","[1961]","1","2","","","10379","99","7","3","lose","go","1"
"pit-trial","218","1468876","0.0-104.0","battery-v0.2","","""event"",""trial"",""time""
""focus"",""0"",""1""
""fullscreenenter"",""1"",""4390""
","
","""event"",""trial"",""time""
""focus"",""0"",""1""
","""event"",""trial"",""time""
""fullscreenenter"",""1"",""4390""
","
","","","-1","","","20","10379","1786","d","elianto","#3366ff99","-1","-1","1","0","[]","0","2","","","10379","100","8","2","win","no-go","1"
"pit-trial","219","1472481","0.0-105.0","battery-v0.2","","""event"",""trial"",""time""
""focus"",""0"",""1""
""fullscreenenter"",""1"",""4390""
","
","""event"",""trial"",""time""
""focus"",""0"",""1""
","""event"",""trial"",""time""
""fullscreenenter"",""1"",""4390""
","
","","","742","","","20","10379","1786","d","elianto","#3366ff99","-1"," ","0","0","[1594]","1","2","","","10379","101","8","2","win","no-go","0"
"pit-trial","220","1476427","0.0-106.0","battery-v0.2","","""event"",""trial"",""time""
""focus"",""0"",""1""
""fullscreenenter"",""1"",""4390""
","
","""event"",""trial"",""time""
""focus"",""0"",""1""
","""event"",""trial"",""time""
""fullscreenenter"",""1"",""4390""
","
","","","1070","","","20","10379","1786","j","elianto","#3366ff99","-1"," ","0","0","[1928]","1","2","","","10379","102","9","2","win","no-go","0"
"pit-trial","221","1480207","0.0-107.0","battery-v0.2","","""event"",""trial"",""time""
""focus"",""0"",""1""
""fullscreenenter"",""1"",""4390""
","
","""event"",""trial"",""time""
""focus"",""0"",""1""
","""event"",""trial"",""time""
""fullscreenenter"",""1"",""4390""
","
","","","909","","","20","10379","1786","s","elianto","#3366ff99"," "," ","1","+10","[1769]","1","2","","","10379","103","5","1","win","go","0"
"pit-trial","222","1485077","0.0-108.0","battery-v0.2","","""event"",""trial"",""time""
""focus"",""0"",""1""
""fullscreenenter"",""1"",""4390""
","
","""event"",""trial"",""time""
""focus"",""0"",""1""
","""event"",""trial"",""time""
""fullscreenenter"",""1"",""4390""
","
","","","-1","","","20","10379","1786","w","elianto","#f73b6a7A","-1","-1","1","0","[]","0","2","","","10379","104","6","4","lose","no-go","0"
"pit-trial","223","1489279","0.0-109.0","battery-v0.2","","""event"",""trial"",""time""
""focus"",""0"",""1""
""fullscreenenter"",""1"",""4390""
","
","""event"",""trial"",""time""
""focus"",""0"",""1""
","""event"",""trial"",""time""
""fullscreenenter"",""1"",""4390""
","
","","","1335","","","20","10379","1786","j","elianto","#3366ff99","-1"," ","0","+10","[2191]","1","2","","","10379","105","9","2","win","no-go","1"
"pit-trial","224","1494143","0.0-110.0","battery-v0.2","","""event"",""trial"",""time""
""focus"",""0"",""1""
""fullscreenenter"",""1"",""4390""
","
","""event"",""trial"",""time""
""focus"",""0"",""1""
","""event"",""trial"",""time""
""fullscreenenter"",""1"",""4390""
","
","","","-1","","","20","10379","1786","d","elianto","#3366ff99","-1","-1","1","+10","[]","0","2","","","10379","106","8","2","win","no-go","0"
"pit-trial","225","1499018","0.0-111.0","battery-v0.2","","""event"",""trial"",""time""
""focus"",""0"",""1""
""fullscreenenter"",""1"",""4390""
","
","""event"",""trial"",""time""
""focus"",""0"",""1""
","""event"",""trial"",""time""
""fullscreenenter"",""1"",""4390""
","
","","","-1","","","20","10379","1786","w","elianto","#f73b6a7A","-1","-1","1","0","[]","0","2","","","10379","107","6","4","lose","no-go","0"
"pit-trial","226","1502774","0.0-112.0","battery-v0.2","","""event"",""trial"",""time""
""focus"",""0"",""1""
""fullscreenenter"",""1"",""4390""
","
","""event"",""trial"",""time""
""focus"",""0"",""1""
","""event"",""trial"",""time""
""fullscreenenter"",""1"",""4390""
","
","","","881","","","20","10379","1786","s","elianto","#3366ff99"," "," ","1","+10","[1738]","1","2","","","10379","108","5","1","win","go","0"
"pit-trial","227","1507648","0.0-113.0","battery-v0.2","","""event"",""trial"",""time""
""focus"",""0"",""1""
""fullscreenenter"",""1"",""4390""
","
","""event"",""trial"",""time""
""focus"",""0"",""1""
","""event"",""trial"",""time""
""fullscreenenter"",""1"",""4390""
","
","","","-1","","","20","10379","1786","j","elianto","#3366ff99","-1","-1","1","+10","[]","0","2","","","10379","109","9","2","win","no-go","0"
"pit-trial","228","1512503","0.0-114.0","battery-v0.2","","""event"",""trial"",""time""
""focus"",""0"",""1""
""fullscreenenter"",""1"",""4390""
","
","""event"",""trial"",""time""
""focus"",""0"",""1""
","""event"",""trial"",""time""
""fullscreenenter"",""1"",""4390""
","
","","","-1","","","20","10379","1786","w","elianto","#f73b6a7A","-1","-1","1","0","[]","0","2","","","10379","110","6","4","lose","no-go","0"
"pit-trial","229","1517375","0.0-115.0","battery-v0.2","","""event"",""trial"",""time""
""focus"",""0"",""1""
""fullscreenenter"",""1"",""4390""
","
","""event"",""trial"",""time""
""focus"",""0"",""1""
","""event"",""trial"",""time""
""fullscreenenter"",""1"",""4390""
","
","","","-1","","","20","10379","1786","d","elianto","#3366ff99","-1","-1","1","+10","[]","0","2","","","10379","111","8","2","win","no-go","0"
"pit-trial","230","1521119","0.0-116.0","battery-v0.2","","""event"",""trial"",""time""
""focus"",""0"",""1""
