"trial_type","trial_index","time_elapsed","internal_node_id","task_version","subject_id","interactions","blur_events","focus_events","fullscreenenter_events","fullscreenexit_events","success","view_history","rt","responses","num_errors","age","subject","participantId","rune","rune_set","hex","correct","choice","accuracy","outcome","keys","total_keys","block","practice","value","sub","trial","stimulus","robot","valence","action","sham"
"pavlovia","0","15","0.0-0.0","battery-v0.2","","""event"",""trial"",""time""
""focus"",""0"",""1""
""fullscreenenter"",""1"",""1440""
","
","""event"",""trial"",""time""
""focus"",""0"",""1""
","""event"",""trial"",""time""
""fullscreenenter"",""1"",""1440""
","
","","","","","","","","","","","","","","","","","","","","","","","","","","",""
"fullscreen","1","2238","0.0-1.0","battery-v0.2","","""event"",""trial"",""time""
""focus"",""0"",""1""
""fullscreenenter"",""1"",""1440""
","
","""event"",""trial"",""time""
""focus"",""0"",""1""
","""event"",""trial"",""time""
""fullscreenenter"",""1"",""1440""
","
","true","","","","","","","","","","","","","","","","","","","","","","","","","",""
"pit-instructions","2","6156","0.0-2.0-0.0","battery-v0.2","","""event"",""trial"",""time""
""focus"",""0"",""1""
""fullscreenenter"",""1"",""1440""
","
","""event"",""trial"",""time""
""focus"",""0"",""1""
","""event"",""trial"",""time""
""fullscreenenter"",""1"",""1440""
","
","","[{""page_index"":0,""viewing_time"":3916}]","3917","","","","","","","","","","","","","","","","","","","","","","","",""
"pit-comprehension","3","9728","0.0-2.0-1.0-0.0","battery-v0.2","","""event"",""trial"",""time""
""focus"",""0"",""1""
""fullscreenenter"",""1"",""1440""
","
","""event"",""trial"",""time""
""focus"",""0"",""1""
","""event"",""trial"",""time""
""fullscreenenter"",""1"",""1440""
","
","","","3567","[""shark""]","0","23","6214","783","","","","","","","","","","","","","","","","","","",""
"pit-instructions","4","13929","0.0-2.0-1.0-1.0","battery-v0.2","","""event"",""trial"",""time""
""focus"",""0"",""1""
""fullscreenenter"",""1"",""1440""
","
","""event"",""trial"",""time""
""focus"",""0"",""1""
","""event"",""trial"",""time""
""fullscreenenter"",""1"",""1440""
","
","","[{""page_index"":0,""viewing_time"":4196}]","4196","","","","","","","","","","","","","","","","","","","","","","","",""
"pit-comprehension","5","16978","0.0-2.0-2.0-0.0","battery-v0.2","","""event"",""trial"",""time""
""focus"",""0"",""1""
""fullscreenenter"",""1"",""1440""
","
","""event"",""trial"",""time""
""focus"",""0"",""1""
","""event"",""trial"",""time""
""fullscreenenter"",""1"",""1440""
","
","","","3044","[""tiger""]","0","23","6214","783","","","","","","","","","","","","","","","","","","",""
"pit-instructions","6","21785","0.0-2.0-2.0-1.0","battery-v0.2","","""event"",""trial"",""time""
""focus"",""0"",""1""
""fullscreenenter"",""1"",""1440""
","
","""event"",""trial"",""time""
""focus"",""0"",""1""
","""event"",""trial"",""time""
""fullscreenenter"",""1"",""1440""
","
","","[{""page_index"":0,""viewing_time"":4803}]","4804","","","","","","","","","","","","","","","","","","","","","","","",""
"pit-instructions","7","115269","0.0-2.0-3.0","battery-v0.2","","""event"",""trial"",""time""
""focus"",""0"",""1""
""fullscreenenter"",""1"",""1440""
","
","""event"",""trial"",""time""
""focus"",""0"",""1""
","""event"",""trial"",""time""
""fullscreenenter"",""1"",""1440""
","
","","[{""page_index"":0,""viewing_time"":7679},{""page_index"":1,""viewing_time"":5020},{""page_index"":2,""viewing_time"":6256},{""page_index"":3,""viewing_time"":7805},{""page_index"":4,""viewing_time"":5949},{""page_index"":5,""viewing_time"":5806},{""page_index"":6,""viewing_time"":7180},{""page_index"":7,""viewing_time"":7576},{""page_index"":8,""viewing_time"":7204},{""page_index"":9,""viewing_time"":5309},{""page_index"":10,""viewing_time"":7063},{""page_index"":11,""viewing_time"":8552},{""page_index"":12,""viewing_time"":6510},{""page_index"":13,""viewing_time"":5572}]","93481","","","","","","","","","","","","","","","","","","","","","","","",""
"pit-trial","8","119651","0.0-2.0-4.0-0.0","battery-v0.2","","""event"",""trial"",""time""
""focus"",""0"",""1""
""fullscreenenter"",""1"",""1440""
","
","""event"",""trial"",""time""
""focus"",""0"",""1""
","""event"",""trial"",""time""
""fullscreenenter"",""1"",""1440""
","
","","","1504","","","23","6214","783","&#9784;","elianto","#FFFFF080"," "," ","1","&#10004","[2366]","1","0","0","","","","","","","",""
"pit-trial","9","123709","0.0-2.0-4.1-0.1","battery-v0.2","","""event"",""trial"",""time""
""focus"",""0"",""1""
""fullscreenenter"",""1"",""1440""
","
","""event"",""trial"",""time""
""focus"",""0"",""1""
","""event"",""trial"",""time""
""fullscreenenter"",""1"",""1440""
","
","","","1187","","","23","6214","783","&#9784;","elianto","#FFFFF080"," "," ","1","&#10004","[2051]","1","0","0","","","","","","","",""
"pit-trial","10","127181","0.0-2.0-4.2-0.2","battery-v0.2","","""event"",""trial"",""time""
""focus"",""0"",""1""
""fullscreenenter"",""1"",""1440""
","
","""event"",""trial"",""time""
""focus"",""0"",""1""
","""event"",""trial"",""time""
""fullscreenenter"",""1"",""1440""
","
","","","597","","","23","6214","783","&#9784;","elianto","#FFFFF080"," "," ","1","&#10004","[1454]","1","0","0","","","","","","","",""
"pit-trial","11","130615","0.0-2.0-4.3-0.3","battery-v0.2","","""event"",""trial"",""time""
""focus"",""0"",""1""
""fullscreenenter"",""1"",""1440""
","
","""event"",""trial"",""time""
""focus"",""0"",""1""
","""event"",""trial"",""time""
""fullscreenenter"",""1"",""1440""
","
","","","572","","","23","6214","783","&#9784;","elianto","#FFFFF080"," "," ","1","&#10004","[1427]","1","0","0","","","","","","","",""
"pit-trial","12","133910","0.0-2.0-4.4-0.4","battery-v0.2","","""event"",""trial"",""time""
""focus"",""0"",""1""
""fullscreenenter"",""1"",""1440""
","
","""event"",""trial"",""time""
""focus"",""0"",""1""
","""event"",""trial"",""time""
""fullscreenenter"",""1"",""1440""
","
","","","429","","","23","6214","783","&#9784;","elianto","#FFFFF080"," "," ","1","&#10004","[1291]","1","0","0","","","","","","","",""
"pit-instructions","13","157580","0.0-2.0-5.0","battery-v0.2","","""event"",""trial"",""time""
""focus"",""0"",""1""
""fullscreenenter"",""1"",""1440""
","
","""event"",""trial"",""time""
""focus"",""0"",""1""
","""event"",""trial"",""time""
""fullscreenenter"",""1"",""1440""
","
","","[{""page_index"":0,""viewing_time"":5760},{""page_index"":1,""viewing_time"":6512},{""page_index"":2,""viewing_time"":4550},{""page_index"":3,""viewing_time"":6844}]","23666","","","","","","","","","","","","","","","","","","","","","","","",""
"pit-trial","14","162440","0.0-2.0-6.0-0.0","battery-v0.2","","""event"",""trial"",""time""
""focus"",""0"",""1""
""fullscreenenter"",""1"",""1440""
","
","""event"",""trial"",""time""
""focus"",""0"",""1""
","""event"",""trial"",""time""
""fullscreenenter"",""1"",""1440""
","
","","","-1","","","23","6214","783","&#9854;","elianto","#FFFFF080","-1","-1","1","&#10004","[]","0","0","1","","","","","","","",""
"pit-trial","15","167296","0.0-2.0-6.1-0.1","battery-v0.2","","""event"",""trial"",""time""
""focus"",""0"",""1""
""fullscreenenter"",""1"",""1440""
","
","""event"",""trial"",""time""
""focus"",""0"",""1""
","""event"",""trial"",""time""
""fullscreenenter"",""1"",""1440""
","
","","","-1","","","23","6214","783","&#9854;","elianto","#FFFFF080","-1","-1","1","&#10004","[]","0","0","1","","","","","","","",""
"pit-trial","16","172177","0.0-2.0-6.2-0.2","battery-v0.2","","""event"",""trial"",""time""
""focus"",""0"",""1""
""fullscreenenter"",""1"",""1440""
","
","""event"",""trial"",""time""
""focus"",""0"",""1""
","""event"",""trial"",""time""
""fullscreenenter"",""1"",""1440""
","
","","","-1","","","23","6214","783","&#9854;","elianto","#FFFFF080","-1","-1","1","&#10004","[]","0","0","1","","","","","","","",""
"pit-trial","17","177051","0.0-2.0-6.3-0.3","battery-v0.2","","""event"",""trial"",""time""
""focus"",""0"",""1""
""fullscreenenter"",""1"",""1440""
","
","""event"",""trial"",""time""
""focus"",""0"",""1""
","""event"",""trial"",""time""
""fullscreenenter"",""1"",""1440""
","
","","","-1","","","23","6214","783","&#9854;","elianto","#FFFFF080","-1","-1","1","&#10004","[]","0","0","1","","","","","","","",""
"pit-trial","18","181924","0.0-2.0-6.4-0.4","battery-v0.2","","""event"",""trial"",""time""
""focus"",""0"",""1""
""fullscreenenter"",""1"",""1440""
","
","""event"",""trial"",""time""
""focus"",""0"",""1""
","""event"",""trial"",""time""
""fullscreenenter"",""1"",""1440""
","
","","","-1","","","23","6214","783","&#9854;","elianto","#FFFFF080","-1","-1","1","&#10004","[]","0","0","1","","","","","","","",""
"pit-instructions","19","306873","0.0-2.0-7.0","battery-v0.2","","""event"",""trial"",""time""
""focus"",""0"",""1""
""fullscreenenter"",""1"",""1440""
","
","""event"",""trial"",""time""
""focus"",""0"",""1""
","""event"",""trial"",""time""
""fullscreenenter"",""1"",""1440""
","
","","[{""page_index"":0,""viewing_time"":6358},{""page_index"":1,""viewing_time"":6678},{""page_index"":2,""viewing_time"":5384},{""page_index"":3,""viewing_time"":9099},{""page_index"":4,""viewing_time"":5122},{""page_index"":5,""viewing_time"":5170},{""page_index"":6,""viewing_time"":5175},{""page_index"":7,""viewing_time"":7284},{""page_index"":8,""viewing_time"":6401},{""page_index"":9,""viewing_time"":5621},{""page_index"":10,""viewing_time"":6089},{""page_index"":11,""viewing_time"":6800},{""page_index"":12,""viewing_time"":7433},{""page_index"":13,""viewing_time"":9719},{""page_index"":14,""viewing_time"":8836},{""page_index"":15,""viewing_time"":7554},{""page_index"":16,""viewing_time"":6948},{""page_index"":17,""viewing_time"":9275}]","124946","","","","","","","","","","","","","","","","","","","","","","","",""
"pit-trial","20","311004","0.0-2.0-8.0-0.0","battery-v0.2","","""event"",""trial"",""time""
""focus"",""0"",""1""
""fullscreenenter"",""1"",""1440""
","
","""event"",""trial"",""time""
""focus"",""0"",""1""
","""event"",""trial"",""time""
""fullscreenenter"",""1"",""1440""
","
","","","1263","","","23","6214","783","&#9776;","elianto","#3366ff99"," "," ","1","+10","[2113]","1","0","1","","","","","","","",""
"pit-trial","21","314446","0.0-2.0-8.0-1.0","battery-v0.2","","""event"",""trial"",""time""
""focus"",""0"",""1""
""fullscreenenter"",""1"",""1440""
","
","""event"",""trial"",""time""
""focus"",""0"",""1""
","""event"",""trial"",""time""
""fullscreenenter"",""1"",""1440""
","
","","","583","","","23","6214","783","&#9776;","elianto","#3366ff99"," "," ","1","+10","[1438]","1","0","1","","","","","","","",""
"pit-trial","22","317791","0.0-2.0-8.0-2.0","battery-v0.2","","""event"",""trial"",""time""
""focus"",""0"",""1""
""fullscreenenter"",""1"",""1440""
","
","""event"",""trial"",""time""
""focus"",""0"",""1""
","""event"",""trial"",""time""
""fullscreenenter"",""1"",""1440""
","
","","","480","","","23","6214","783","&#9776;","elianto","#3366ff99"," "," ","1","+10","[1331]","1","0","1","","","","","","","",""
"pit-trial","23","321230","0.0-2.0-8.0-3.0","battery-v0.2","","""event"",""trial"",""time""
""focus"",""0"",""1""
""fullscreenenter"",""1"",""1440""
","
","""event"",""trial"",""time""
""focus"",""0"",""1""
","""event"",""trial"",""time""
""fullscreenenter"",""1"",""1440""
","
","","","575","","","23","6214","783","&#9776;","elianto","#3366ff99"," "," ","1","0","[1432]","1","0","1","","","","","","","",""
"pit-trial","24","324594","0.0-2.0-8.0-4.0","battery-v0.2","","""event"",""trial"",""time""
""focus"",""0"",""1""
""fullscreenenter"",""1"",""1440""
","
","""event"",""trial"",""time""
""focus"",""0"",""1""
","""event"",""trial"",""time""
""fullscreenenter"",""1"",""1440""
","
","","","491","","","23","6214","783","&#9776;","elianto","#3366ff99"," "," ","1","+10","[1348]","1","0","1","","","","","","","",""
"pit-trial","25","327955","0.0-2.0-8.1-0.1","battery-v0.2","","""event"",""trial"",""time""
""focus"",""0"",""1""
""fullscreenenter"",""1"",""1440""
","
","""event"",""trial"",""time""
""focus"",""0"",""1""
","""event"",""trial"",""time""
""fullscreenenter"",""1"",""1440""
","
","","","494","","","23","6214","783","&#9776;","elianto","#3366ff99"," "," ","1","+10","[1353]","1","0","1","","","","","","","",""
"pit-trial","26","331335","0.0-2.0-8.1-1.1","battery-v0.2","","""event"",""trial"",""time""
""focus"",""0"",""1""
""fullscreenenter"",""1"",""1440""
","
","""event"",""trial"",""time""
""focus"",""0"",""1""
","""event"",""trial"",""time""
""fullscreenenter"",""1"",""1440""
","
","","","516","","","23","6214","783","&#9776;","elianto","#3366ff99"," "," ","1","+10","[1367]","1","0","1","","","","","","","",""
"pit-trial","27","334712","0.0-2.0-8.1-2.1","battery-v0.2","","""event"",""trial"",""time""
""focus"",""0"",""1""
""fullscreenenter"",""1"",""1440""
","
","""event"",""trial"",""time""
""focus"",""0"",""1""
","""event"",""trial"",""time""
""fullscreenenter"",""1"",""1440""
","
","","","510","","","23","6214","783","&#9776;","elianto","#3366ff99"," "," ","1","+10","[1365]","1","0","1","","","","","","","",""
"pit-trial","28","338028","0.0-2.0-8.1-3.1","battery-v0.2","","""event"",""trial"",""time""
""focus"",""0"",""1""
""fullscreenenter"",""1"",""1440""
","
","""event"",""trial"",""time""
""focus"",""0"",""1""
","""event"",""trial"",""time""
""fullscreenenter"",""1"",""1440""
","
","","","445","","","23","6214","783","&#9776;","elianto","#3366ff99"," "," ","1","0","[1303]","1","0","1","","","","","","","",""
"pit-trial","29","341822","0.0-2.0-8.1-4.1","battery-v0.2","","""event"",""trial"",""time""
""focus"",""0"",""1""
""fullscreenenter"",""1"",""1440""
","
","""event"",""trial"",""time""
""focus"",""0"",""1""
","""event"",""trial"",""time""
""fullscreenenter"",""1"",""1440""
","
","","","926","","","23","6214","783","&#9776;","elianto","#3366ff99"," "," ","1","+10","[1792]","1","0","1","","","","","","","",""
"pit-trial","30","345942","0.0-2.0-8.2-0.2","battery-v0.2","","""event"",""trial"",""time""
""focus"",""0"",""1""
""fullscreenenter"",""1"",""1440""
","
","""event"",""trial"",""time""
""focus"",""0"",""1""
","""event"",""trial"",""time""
""fullscreenenter"",""1"",""1440""
","
","","","1253","","","23","6214","783","&#9776;","elianto","#3366ff99"," "," ","1","+10","[2112]","1","0","1","","","","","","","",""
"pit-trial","31","349258","0.0-2.0-8.2-1.2","battery-v0.2","","""event"",""trial"",""time""
""focus"",""0"",""1""
""fullscreenenter"",""1"",""1440""
","
","""event"",""trial"",""time""
""focus"",""0"",""1""
","""event"",""trial"",""time""
""fullscreenenter"",""1"",""1440""
","
","","","451","","","23","6214","783","&#9776;","elianto","#3366ff99"," "," ","1","+10","[1306]","1","0","1","","","","","","","",""
"pit-trial","32","352552","0.0-2.0-8.2-2.2","battery-v0.2","","""event"",""trial"",""time""
""focus"",""0"",""1""
""fullscreenenter"",""1"",""1440""
","
","""event"",""trial"",""time""
""focus"",""0"",""1""
","""event"",""trial"",""time""
""fullscreenenter"",""1"",""1440""
","
","","","424","","","23","6214","783","&#9776;","elianto","#3366ff99"," "," ","1","+10","[1281]","1","0","1","","","","","","","",""
"pit-trial","33","355808","0.0-2.0-8.2-3.2","battery-v0.2","","""event"",""trial"",""time""
""focus"",""0"",""1""
""fullscreenenter"",""1"",""1440""
","
","""event"",""trial"",""time""
""focus"",""0"",""1""
","""event"",""trial"",""time""
""fullscreenenter"",""1"",""1440""
","
","","","380","","","23","6214","783","&#9776;","elianto","#3366ff99"," "," ","1","0","[1238]","1","0","1","","","","","","","",""
"pit-trial","34","359172","0.0-2.0-8.2-4.2","battery-v0.2","","""event"",""trial"",""time""
""focus"",""0"",""1""
""fullscreenenter"",""1"",""1440""
","
","""event"",""trial"",""time""
""focus"",""0"",""1""
","""event"",""trial"",""time""
""fullscreenenter"",""1"",""1440""
","
","","","499","","","23","6214","783","&#9776;","elianto","#3366ff99"," "," ","1","+10","[1362]","1","0","1","","","","","","","",""
"call-function","35","359173","0.0-2.0-9.0","battery-v0.2","","""event"",""trial"",""time""
""focus"",""0"",""1""
""fullscreenenter"",""1"",""1440""
","
","""event"",""trial"",""time""
""focus"",""0"",""1""
","""event"",""trial"",""time""
""fullscreenenter"",""1"",""1440""
","
","","","","","","","","","","","","","","","","","","","","","","","","","","",""
"pit-instructions","36","407046","0.0-2.0-10.0","battery-v0.2","","""event"",""trial"",""time""
""focus"",""0"",""1""
""fullscreenenter"",""1"",""1440""
","
","""event"",""trial"",""time""
""focus"",""0"",""1""
","""event"",""trial"",""time""
""fullscreenenter"",""1"",""1440""
","
","","[{""page_index"":0,""viewing_time"":8293},{""page_index"":1,""viewing_time"":6510},{""page_index"":2,""viewing_time"":13798},{""page_index"":3,""viewing_time"":10682},{""page_index"":4,""viewing_time"":8590}]","47873","","","","","","","","","","","","","","","","","","","","","","","",""
"pit-trial","37","410514","0.0-2.0-11.0-0.0","battery-v0.2","","""event"",""trial"",""time""
""focus"",""0"",""1""
""fullscreenenter"",""1"",""1440""
","
","""event"",""trial"",""time""
""focus"",""0"",""1""
","""event"",""trial"",""time""
""fullscreenenter"",""1"",""1440""
","
","","","609","","","23","6214","783","&#9761;","elianto","#3366ff99","-1"," ","0","0","[1458]","1","0","2","","","","","","","",""
"pit-trial","38","413934","0.0-2.0-11.0-1.0","battery-v0.2","","""event"",""trial"",""time""
""focus"",""0"",""1""
""fullscreenenter"",""1"",""1440""
","
","""event"",""trial"",""time""
""focus"",""0"",""1""
","""event"",""trial"",""time""
""fullscreenenter"",""1"",""1440""
","
","","","544","","","23","6214","783","&#9761;","elianto","#3366ff99","-1"," ","0","0","[1405]","1","0","2","","","","","","","",""
"pit-trial","39","417238","0.0-2.0-11.0-2.0","battery-v0.2","","""event"",""trial"",""time""
""focus"",""0"",""1""
""fullscreenenter"",""1"",""1440""
","
","""event"",""trial"",""time""
""focus"",""0"",""1""
","""event"",""trial"",""time""
""fullscreenenter"",""1"",""1440""
","
","","","445","","","23","6214","783","&#9761;","elianto","#3366ff99","-1"," ","0","0","[1298]","1","0","2","","","","","","","",""
"pit-trial","40","420729","0.0-2.0-11.0-3.0","battery-v0.2","","""event"",""trial"",""time""
""focus"",""0"",""1""
""fullscreenenter"",""1"",""1440""
","
","""event"",""trial"",""time""
""focus"",""0"",""1""
","""event"",""trial"",""time""
""fullscreenenter"",""1"",""1440""
","
","","","628","","","23","6214","783","&#9761;","elianto","#3366ff99","-1"," ","0","+10","[1481]","1","0","2","","","","","","","",""
"pit-trial","41","424088","0.0-2.0-11.0-4.0","battery-v0.2","","""event"",""trial"",""time""
""focus"",""0"",""1""
""fullscreenenter"",""1"",""1440""
","
","""event"",""trial"",""time""
""focus"",""0"",""1""
","""event"",""trial"",""time""
""fullscreenenter"",""1"",""1440""
","
","","","497","","","23","6214","783","&#9761;","elianto","#3366ff99","-1"," ","0","0","[1354]","1","0","2","","","","","","","",""
"pit-trial","42","427377","0.0-2.0-11.1-0.1","battery-v0.2","","""event"",""trial"",""time""
""focus"",""0"",""1""
""fullscreenenter"",""1"",""1440""
","
","""event"",""trial"",""time""
""focus"",""0"",""1""
","""event"",""trial"",""time""
""fullscreenenter"",""1"",""1440""
","
","","","421","","","23","6214","783","&#9761;","elianto","#3366ff99","-1"," ","0","0","[1283]","1","0","2","","","","","","","",""
"pit-trial","43","430662","0.0-2.0-11.1-1.1","battery-v0.2","","""event"",""trial"",""time""
""focus"",""0"",""1""
""fullscreenenter"",""1"",""1440""
","
","""event"",""trial"",""time""
""focus"",""0"",""1""
","""event"",""trial"",""time""
""fullscreenenter"",""1"",""1440""
","
","","","414","","","23","6214","783","&#9761;","elianto","#3366ff99","-1"," ","0","0","[1273]","1","0","2","","","","","","","",""
"pit-trial","44","433548","0.0-2.0-11.1-2.1","battery-v0.2","","""event"",""trial"",""time""
""focus"",""0"",""1""
""fullscreenenter"",""1"",""1440""
","
","""event"",""trial"",""time""
""focus"",""0"",""1""
","""event"",""trial"",""time""
""fullscreenenter"",""1"",""1440""
","
","","","24","","","23","6214","783","&#9761;","elianto","#3366ff99","-1"," ","0","0","[877]","1","0","2","","","","","","","",""
"pit-trial","45","436798","0.0-2.0-11.1-3.1","battery-v0.2","","""event"",""trial"",""time""
""focus"",""0"",""1""
""fullscreenenter"",""1"",""1440""
","
","""event"",""trial"",""time""
""focus"",""0"",""1""
","""event"",""trial"",""time""
""fullscreenenter"",""1"",""1440""
","
","","","385","","","23","6214","783","&#9761;","elianto","#3366ff99","-1"," ","0","+10","[1248]","1","0","2","","","","","","","",""
"pit-trial","46","439849","0.0-2.0-11.1-4.1","battery-v0.2","","""event"",""trial"",""time""
""focus"",""0"",""1""
""fullscreenenter"",""1"",""1440""
","
","""event"",""trial"",""time""
""focus"",""0"",""1""
","""event"",""trial"",""time""
""fullscreenenter"",""1"",""1440""
","
","","","181","","","23","6214","783","&#9761;","elianto","#3366ff99","-1"," ","0","0","[1043]","1","0","2","","","","","","","",""
"pit-trial","47","442937","0.0-2.0-11.2-0.2","battery-v0.2","","""event"",""trial"",""time""
""focus"",""0"",""1""
""fullscreenenter"",""1"",""1440""
","
","""event"",""trial"",""time""
""focus"",""0"",""1""
","""event"",""trial"",""time""
""fullscreenenter"",""1"",""1440""
","
","","","213","","","23","6214","783","&#9761;","elianto","#3366ff99","-1"," ","0","0","[1075]","1","0","2","","","","","","","",""
"pit-trial","48","446227","0.0-2.0-11.2-1.2","battery-v0.2","","""event"",""trial"",""time""
""focus"",""0"",""1""
""fullscreenenter"",""1"",""1440""
","
","""event"",""trial"",""time""
""focus"",""0"",""1""
","""event"",""trial"",""time""
""fullscreenenter"",""1"",""1440""
","
","","","419","","","23","6214","783","&#9761;","elianto","#3366ff99","-1"," ","0","0","[1277]","1","0","2","","","","","","","",""
"pit-trial","49","449477","0.0-2.0-11.2-2.2","battery-v0.2","","""event"",""trial"",""time""
""focus"",""0"",""1""
""fullscreenenter"",""1"",""1440""
","
","""event"",""trial"",""time""
""focus"",""0"",""1""
","""event"",""trial"",""time""
""fullscreenenter"",""1"",""1440""
","
","","","387","","","23","6214","783","&#9761;","elianto","#3366ff99","-1"," ","0","0","[1238]","1","0","2","","","","","","","",""
"pit-trial","50","452641","0.0-2.0-11.2-3.2","battery-v0.2","","""event"",""trial"",""time""
""focus"",""0"",""1""
""fullscreenenter"",""1"",""1440""
","
","""event"",""trial"",""time""
""focus"",""0"",""1""
","""event"",""trial"",""time""
""fullscreenenter"",""1"",""1440""
","
","","","298","","","23","6214","783","&#9761;","elianto","#3366ff99","-1"," ","0","+10","[1159]","1","0","2","","","","","","","",""
"pit-trial","51","455878","0.0-2.0-11.2-4.2","battery-v0.2","","""event"",""trial"",""time""
""focus"",""0"",""1""
""fullscreenenter"",""1"",""1440""
","
","""event"",""trial"",""time""
""focus"",""0"",""1""
","""event"",""trial"",""time""
""fullscreenenter"",""1"",""1440""
","
","","","381","","","23","6214","783","&#9761;","elianto","#3366ff99","-1"," ","0","0","[1232]","1","0","2","","","","","","","",""
"pit-trial","52","458992","0.0-2.0-11.3-0.3","battery-v0.2","","""event"",""trial"",""time""
""focus"",""0"",""1""
""fullscreenenter"",""1"",""1440""
","
","""event"",""trial"",""time""
""focus"",""0"",""1""
","""event"",""trial"",""time""
""fullscreenenter"",""1"",""1440""
","
","","","242","","","23","6214","783","&#9761;","elianto","#3366ff99","-1"," ","0","0","[1105]","1","0","2","","","","","","","",""
"pit-trial","53","462008","0.0-2.0-11.3-1.3","battery-v0.2","","""event"",""trial"",""time""
""focus"",""0"",""1""
""fullscreenenter"",""1"",""1440""
","
","""event"",""trial"",""time""
""focus"",""0"",""1""
","""event"",""trial"",""time""
""fullscreenenter"",""1"",""1440""
","
","","","142","","","23","6214","783","&#9761;","elianto","#3366ff99","-1"," ","0","0","[1001]","1","0","2","","","","","","","",""
"pit-trial","54","465004","0.0-2.0-11.3-2.3","battery-v0.2","","""event"",""trial"",""time""
""focus"",""0"",""1""
""fullscreenenter"",""1"",""1440""
","
","""event"",""trial"",""time""
""focus"",""0"",""1""
","""event"",""trial"",""time""
""fullscreenenter"",""1"",""1440""
","
","","","133","","","23","6214","783","&#9761;","elianto","#3366ff99","-1"," ","0","0","[986]","1","0","2","","","","","","","",""
"pit-trial","55","468040","0.0-2.0-11.3-3.3","battery-v0.2","","""event"",""trial"",""time""
""focus"",""0"",""1""
""fullscreenenter"",""1"",""1440""
","
","""event"",""trial"",""time""
""focus"",""0"",""1""
","""event"",""trial"",""time""
""fullscreenenter"",""1"",""1440""
","
","","","178","","","23","6214","783","&#9761;","elianto","#3366ff99","-1"," ","0","+10","[1029]","1","0","2","","","","","","","",""
"pit-trial","56","471339","0.0-2.0-11.3-4.3","battery-v0.2","","""event"",""trial"",""time""
""focus"",""0"",""1""
""fullscreenenter"",""1"",""1440""
","
","""event"",""trial"",""time""
""focus"",""0"",""1""
","""event"",""trial"",""time""
""fullscreenenter"",""1"",""1440""
","
","","","432","","","23","6214","783","&#9761;","elianto","#3366ff99","-1"," ","0","0","[1284]","1","0","2","","","","","","","",""
"call-function","57","471340","0.0-2.0-12.0","battery-v0.2","","""event"",""trial"",""time""
""focus"",""0"",""1""
""fullscreenenter"",""1"",""1440""
","
","""event"",""trial"",""time""
""focus"",""0"",""1""
","""event"",""trial"",""time""
""fullscreenenter"",""1"",""1440""
","
","","","","","","","","","","","","","","","","","","","","","","","","","","",""
"pit-instructions","58","529713","0.0-2.0-13.0","battery-v0.2","","""event"",""trial"",""time""
""focus"",""0"",""1""
""fullscreenenter"",""1"",""1440""
","
","""event"",""trial"",""time""
""focus"",""0"",""1""
","""event"",""trial"",""time""
""fullscreenenter"",""1"",""1440""
","
","","[{""page_index"":0,""viewing_time"":30155},{""page_index"":1,""viewing_time"":6762},{""page_index"":2,""viewing_time"":3170},{""page_index"":3,""viewing_time"":10869},{""page_index"":4,""viewing_time"":7415}]","58372","","","","","","","","","","","","","","","","","","","","","","","",""
"pit-trial","59","534579","0.0-2.0-14.0-0.0","battery-v0.2","","""event"",""trial"",""time""
""focus"",""0"",""1""
""fullscreenenter"",""1"",""1440""
","
","""event"",""trial"",""time""
""focus"",""0"",""1""
","""event"",""trial"",""time""
""fullscreenenter"",""1"",""1440""
","
","","","-1","","","23","6214","783","&#9826;","elianto","#f73b6a7A","-1","-1","1","0","[3113]","1","0","3","","","","","","","",""
"pit-trial","60","537662","0.0-2.0-14.0-1.0","battery-v0.2","","""event"",""trial"",""time""
""focus"",""0"",""1""
""fullscreenenter"",""1"",""1440""
","
","""event"",""trial"",""time""
""focus"",""0"",""1""
","""event"",""trial"",""time""
""fullscreenenter"",""1"",""1440""
","
","","","226","","","23","6214","783","&#9826;","elianto","#f73b6a7A","-1"," ","0","-10","[1078]","1","0","3","","","","","","","",""
"pit-trial","61","542540","0.0-2.0-14.0-2.0","battery-v0.2","","""event"",""trial"",""time""
""focus"",""0"",""1""
""fullscreenenter"",""1"",""1440""
","
","""event"",""trial"",""time""
""focus"",""0"",""1""
","""event"",""trial"",""time""
""fullscreenenter"",""1"",""1440""
","
","","","-1","","","23","6214","783","&#9826;","elianto","#f73b6a7A","-1","-1","1","0","[]","0","0","3","","","","","","","",""
"pit-trial","62","547409","0.0-2.0-14.0-3.0","battery-v0.2","","""event"",""trial"",""time""
""focus"",""0"",""1""
""fullscreenenter"",""1"",""1440""
","
","""event"",""trial"",""time""
""focus"",""0"",""1""
","""event"",""trial"",""time""
""fullscreenenter"",""1"",""1440""
","
","","","-1","","","23","6214","783","&#9826;","elianto","#f73b6a7A","-1","-1","1","-10","[]","0","0","3","","","","","","","",""
"pit-trial","63","552285","0.0-2.0-14.0-4.0","battery-v0.2","","""event"",""trial"",""time""
""focus"",""0"",""1""
""fullscreenenter"",""1"",""1440""
","
","""event"",""trial"",""time""
""focus"",""0"",""1""
","""event"",""trial"",""time""
""fullscreenenter"",""1"",""1440""
","
","","","-1","","","23","6214","783","&#9826;","elianto","#f73b6a7A","-1","-1","1","0","[]","0","0","3","","","","","","","",""
"pit-trial","64","557151","0.0-2.0-14.1-0.1","battery-v0.2","","""event"",""trial"",""time""
""focus"",""0"",""1""
""fullscreenenter"",""1"",""1440""
","
","""event"",""trial"",""time""
""focus"",""0"",""1""
","""event"",""trial"",""time""
""fullscreenenter"",""1"",""1440""
","
","","","-1","","","23","6214","783","&#9826;","elianto","#f73b6a7A","-1","-1","1","0","[]","0","0","3","","","","","","","",""
"pit-trial","65","562020","0.0-2.0-14.1-1.1","battery-v0.2","","""event"",""trial"",""time""
""focus"",""0"",""1""
""fullscreenenter"",""1"",""1440""
","
","""event"",""trial"",""time""
""focus"",""0"",""1""
","""event"",""trial"",""time""
""fullscreenenter"",""1"",""1440""
","
","","","-1","","","23","6214","783","&#9826;","elianto","#f73b6a7A","-1","-1","1","0","[]","0","0","3","","","","","","","",""
"pit-trial","66","566881","0.0-2.0-14.1-2.1","battery-v0.2","","""event"",""trial"",""time""
""focus"",""0"",""1""
""fullscreenenter"",""1"",""1440""
","
","""event"",""trial"",""time""
""focus"",""0"",""1""
","""event"",""trial"",""time""
""fullscreenenter"",""1"",""1440""
","
","","","-1","","","23","6214","783","&#9826;","elianto","#f73b6a7A","-1","-1","1","0","[]","0","0","3","","","","","","","",""
"pit-trial","67","571751","0.0-2.0-14.1-3.1","battery-v0.2","","""event"",""trial"",""time""
""focus"",""0"",""1""
""fullscreenenter"",""1"",""1440""
","
","""event"",""trial"",""time""
""focus"",""0"",""1""
","""event"",""trial"",""time""
""fullscreenenter"",""1"",""1440""
","
","","","-1","","","23","6214","783","&#9826;","elianto","#f73b6a7A","-1","-1","1","-10","[]","0","0","3","","","","","","","",""
"pit-trial","68","576610","0.0-2.0-14.1-4.1","battery-v0.2","","""event"",""trial"",""time""
""focus"",""0"",""1""
""fullscreenenter"",""1"",""1440""
","
","""event"",""trial"",""time""
""focus"",""0"",""1""
","""event"",""trial"",""time""
""fullscreenenter"",""1"",""1440""
","
","","","-1","","","23","6214","783","&#9826;","elianto","#f73b6a7A","-1","-1","1","0","[]","0","0","3","","","","","","","",""
"pit-trial","69","581486","0.0-2.0-14.2-0.2","battery-v0.2","","""event"",""trial"",""time""
""focus"",""0"",""1""
""fullscreenenter"",""1"",""1440""
","
","""event"",""trial"",""time""
""focus"",""0"",""1""
","""event"",""trial"",""time""
""fullscreenenter"",""1"",""1440""
","
","","","-1","","","23","6214","783","&#9826;","elianto","#f73b6a7A","-1","-1","1","0","[]","0","0","3","","","","","","","",""
"pit-trial","70","586362","0.0-2.0-14.2-1.2","battery-v0.2","","""event"",""trial"",""time""
""focus"",""0"",""1""
""fullscreenenter"",""1"",""1440""
","
","""event"",""trial"",""time""
""focus"",""0"",""1""
","""event"",""trial"",""time""
""fullscreenenter"",""1"",""1440""
","
","","","-1","","","23","6214","783","&#9826;","elianto","#f73b6a7A","-1","-1","1","0","[]","0","0","3","","","","","","","",""
"pit-trial","71","591222","0.0-2.0-14.2-2.2","battery-v0.2","","""event"",""trial"",""time""
""focus"",""0"",""1""
""fullscreenenter"",""1"",""1440""
","
","""event"",""trial"",""time""
""focus"",""0"",""1""
","""event"",""trial"",""time""
""fullscreenenter"",""1"",""1440""
","
","","","-1","","","23","6214","783","&#9826;","elianto","#f73b6a7A","-1","-1","1","0","[]","0","0","3","","","","","","","",""
"pit-trial","72","596095","0.0-2.0-14.2-3.2","battery-v0.2","","""event"",""trial"",""time""
""focus"",""0"",""1""
""fullscreenenter"",""1"",""1440""
","
","""event"",""trial"",""time""
""focus"",""0"",""1""
","""event"",""trial"",""time""
""fullscreenenter"",""1"",""1440""
","
","","","-1","","","23","6214","783","&#9826;","elianto","#f73b6a7A","-1","-1","1","-10","[]","0","0","3","","","","","","","",""
"pit-trial","73","600956","0.0-2.0-14.2-4.2","battery-v0.2","","""event"",""trial"",""time""
""focus"",""0"",""1""
""fullscreenenter"",""1"",""1440""
","
","""event"",""trial"",""time""
""focus"",""0"",""1""
","""event"",""trial"",""time""
""fullscreenenter"",""1"",""1440""
","
","","","-1","","","23","6214","783","&#9826;","elianto","#f73b6a7A","-1","-1","1","0","[]","0","0","3","","","","","","","",""
"pit-trial","74","605825","0.0-2.0-14.3-0.3","battery-v0.2","","""event"",""trial"",""time""
""focus"",""0"",""1""
""fullscreenenter"",""1"",""1440""
","
","""event"",""trial"",""time""
""focus"",""0"",""1""
","""event"",""trial"",""time""
""fullscreenenter"",""1"",""1440""
","
","","","-1","","","23","6214","783","&#9826;","elianto","#f73b6a7A","-1","-1","1","0","[]","0","0","3","","","","","","","",""
"pit-trial","75","610701","0.0-2.0-14.3-1.3","battery-v0.2","","""event"",""trial"",""time""
""focus"",""0"",""1""
""fullscreenenter"",""1"",""1440""
","
","""event"",""trial"",""time""
""focus"",""0"",""1""
","""event"",""trial"",""time""
""fullscreenenter"",""1"",""1440""
","
","","","-1","","","23","6214","783","&#9826;","elianto","#f73b6a7A","-1","-1","1","0","[]","0","0","3","","","","","","","",""
"pit-trial","76","615572","0.0-2.0-14.3-2.3","battery-v0.2","","""event"",""trial"",""time""
""focus"",""0"",""1""
""fullscreenenter"",""1"",""1440""
","
","""event"",""trial"",""time""
""focus"",""0"",""1""
","""event"",""trial"",""time""
""fullscreenenter"",""1"",""1440""
","
","","","-1","","","23","6214","783","&#9826;","elianto","#f73b6a7A","-1","-1","1","0","[]","0","0","3","","","","","","","",""
"pit-trial","77","620442","0.0-2.0-14.3-3.3","battery-v0.2","","""event"",""trial"",""time""
""focus"",""0"",""1""
""fullscreenenter"",""1"",""1440""
","
","""event"",""trial"",""time""
""focus"",""0"",""1""
","""event"",""trial"",""time""
""fullscreenenter"",""1"",""1440""
","
","","","-1","","","23","6214","783","&#9826;","elianto","#f73b6a7A","-1","-1","1","-10","[]","0","0","3","","","","","","","",""
"pit-trial","78","625312","0.0-2.0-14.3-4.3","battery-v0.2","","""event"",""trial"",""time""
""focus"",""0"",""1""
""fullscreenenter"",""1"",""1440""
","
","""event"",""trial"",""time""
""focus"",""0"",""1""
","""event"",""trial"",""time""
""fullscreenenter"",""1"",""1440""
","
","","","-1","","","23","6214","783","&#9826;","elianto","#f73b6a7A","-1","-1","1","0","[]","0","0","3","","","","","","","",""
"call-function","79","625314","0.0-2.0-15.0","battery-v0.2","","""event"",""trial"",""time""
""focus"",""0"",""1""
""fullscreenenter"",""1"",""1440""
","
","""event"",""trial"",""time""
""focus"",""0"",""1""
","""event"",""trial"",""time""
""fullscreenenter"",""1"",""1440""
","
","","","","","","","","","","","","","","","","","","","","","","","","","","",""
"pit-instructions","80","667215","0.0-2.0-16.0","battery-v0.2","","""event"",""trial"",""time""
""focus"",""0"",""1""
""fullscreenenter"",""1"",""1440""
","
","""event"",""trial"",""time""
""focus"",""0"",""1""
","""event"",""trial"",""time""
""fullscreenenter"",""1"",""1440""
","
","","[{""page_index"":0,""viewing_time"":6637},{""page_index"":1,""viewing_time"":11611},{""page_index"":2,""viewing_time"":10857},{""page_index"":3,""viewing_time"":12794}]","41900","","","","","","","","","","","","","","","","","","","","","","","",""
"pit-trial","81","672074","0.0-2.0-17.0-0.0","battery-v0.2","","""event"",""trial"",""time""
""focus"",""0"",""1""
""fullscreenenter"",""1"",""1440""
","
","""event"",""trial"",""time""
""focus"",""0"",""1""
","""event"",""trial"",""time""
""fullscreenenter"",""1"",""1440""
","
","","","-1","","","23","6214","783","&#9789;","elianto","#f73b6a7A"," ","-1","0","-10","[]","0","0","4","","","","","","","",""
"pit-trial","82","676963","0.0-2.0-17.0-1.0","battery-v0.2","","""event"",""trial"",""time""
""focus"",""0"",""1""
""fullscreenenter"",""1"",""1440""
","
","""event"",""trial"",""time""
""focus"",""0"",""1""
","""event"",""trial"",""time""
""fullscreenenter"",""1"",""1440""
","
","","","-1","","","23","6214","783","&#9789;","elianto","#f73b6a7A"," ","-1","0","-10","[]","0","0","4","","","","","","","",""
"pit-trial","83","681853","0.0-2.0-17.0-2.0","battery-v0.2","","""event"",""trial"",""time""
""focus"",""0"",""1""
""fullscreenenter"",""1"",""1440""
","
","""event"",""trial"",""time""
""focus"",""0"",""1""
","""event"",""trial"",""time""
""fullscreenenter"",""1"",""1440""
","
","","","-1","","","23","6214","783","&#9789;","elianto","#f73b6a7A"," ","-1","0","-10","[]","0","0","4","","","","","","","",""
"pit-trial","84","686733","0.0-2.0-17.0-3.0","battery-v0.2","","""event"",""trial"",""time""
""focus"",""0"",""1""
""fullscreenenter"",""1"",""1440""
","
","""event"",""trial"",""time""
""focus"",""0"",""1""
","""event"",""trial"",""time""
""fullscreenenter"",""1"",""1440""
","
","","","-1","","","23","6214","783","&#9789;","elianto","#f73b6a7A"," ","-1","0","0","[]","0","0","4","","","","","","","",""
"pit-trial","85","691603","0.0-2.0-17.0-4.0","battery-v0.2","","""event"",""trial"",""time""
""focus"",""0"",""1""
""fullscreenenter"",""1"",""1440""
","
","""event"",""trial"",""time""
""focus"",""0"",""1""
","""event"",""trial"",""time""
""fullscreenenter"",""1"",""1440""
","
","","","-1","","","23","6214","783","&#9789;","elianto","#f73b6a7A"," ","-1","0","-10","[]","0","0","4","","","","","","","",""
"pit-trial","86","696463","0.0-2.0-17.1-0.1","battery-v0.2","","""event"",""trial"",""time""
""focus"",""0"",""1""
""fullscreenenter"",""1"",""1440""
","
","""event"",""trial"",""time""
""focus"",""0"",""1""
","""event"",""trial"",""time""
""fullscreenenter"",""1"",""1440""
","
","","","-1","","","23","6214","783","&#9789;","elianto","#f73b6a7A"," ","-1","0","-10","[]","0","0","4","","","","","","","",""
"pit-trial","87","701321","0.0-2.0-17.1-1.1","battery-v0.2","","""event"",""trial"",""time""
""focus"",""0"",""1""
""fullscreenenter"",""1"",""1440""
","
","""event"",""trial"",""time""
""focus"",""0"",""1""
","""event"",""trial"",""time""
""fullscreenenter"",""1"",""1440""
","
","","","-1","","","23","6214","783","&#9789;","elianto","#f73b6a7A"," ","-1","0","-10","[]","0","0","4","","","","","","","",""
"pit-trial","88","706188","0.0-2.0-17.1-2.1","battery-v0.2","","""event"",""trial"",""time""
""focus"",""0"",""1""
""fullscreenenter"",""1"",""1440""
","
","""event"",""trial"",""time""
""focus"",""0"",""1""
","""event"",""trial"",""time""
""fullscreenenter"",""1"",""1440""
","
","","","-1","","","23","6214","783","&#9789;","elianto","#f73b6a7A"," ","-1","0","-10","[]","0","0","4","","","","","","","",""
"pit-trial","89","711057","0.0-2.0-17.1-3.1","battery-v0.2","","""event"",""trial"",""time""
""focus"",""0"",""1""
""fullscreenenter"",""1"",""1440""
","
","""event"",""trial"",""time""
""focus"",""0"",""1""
","""event"",""trial"",""time""
""fullscreenenter"",""1"",""1440""
","
","","","-1","","","23","6214","783","&#9789;","elianto","#f73b6a7A"," ","-1","0","0","[]","0","0","4","","","","","","","",""
"pit-trial","90","715922","0.0-2.0-17.1-4.1","battery-v0.2","","""event"",""trial"",""time""
""focus"",""0"",""1""
""fullscreenenter"",""1"",""1440""
","
","""event"",""trial"",""time""
""focus"",""0"",""1""
","""event"",""trial"",""time""
""fullscreenenter"",""1"",""1440""
","
","","","-1","","","23","6214","783","&#9789;","elianto","#f73b6a7A"," ","-1","0","-10","[]","0","0","4","","","","","","","",""
"pit-trial","91","720792","0.0-2.0-17.2-0.2","battery-v0.2","","""event"",""trial"",""time""
""focus"",""0"",""1""
""fullscreenenter"",""1"",""1440""
","
","""event"",""trial"",""time""
""focus"",""0"",""1""
","""event"",""trial"",""time""
""fullscreenenter"",""1"",""1440""
","
","","","-1","","","23","6214","783","&#9789;","elianto","#f73b6a7A"," ","-1","0","-10","[]","0","0","4","","","","","","","",""
"pit-trial","92","725657","0.0-2.0-17.2-1.2","battery-v0.2","","""event"",""trial"",""time""
""focus"",""0"",""1""
""fullscreenenter"",""1"",""1440""
","
","""event"",""trial"",""time""
""focus"",""0"",""1""
","""event"",""trial"",""time""
""fullscreenenter"",""1"",""1440""
","
","","","-1","","","23","6214","783","&#9789;","elianto","#f73b6a7A"," ","-1","0","-10","[]","0","0","4","","","","","","","",""
"pit-trial","93","730532","0.0-2.0-17.2-2.2","battery-v0.2","","""event"",""trial"",""time""
""focus"",""0"",""1""
""fullscreenenter"",""1"",""1440""
","
","""event"",""trial"",""time""
""focus"",""0"",""1""
","""event"",""trial"",""time""
""fullscreenenter"",""1"",""1440""
","
","","","-1","","","23","6214","783","&#9789;","elianto","#f73b6a7A"," ","-1","0","-10","[]","0","0","4","","","","","","","",""
"pit-trial","94","735403","0.0-2.0-17.2-3.2","battery-v0.2","","""event"",""trial"",""time""
""focus"",""0"",""1""
""fullscreenenter"",""1"",""1440""
","
","""event"",""trial"",""time""
""focus"",""0"",""1""
","""event"",""trial"",""time""
""fullscreenenter"",""1"",""1440""
","
","","","-1","","","23","6214","783","&#9789;","elianto","#f73b6a7A"," ","-1","0","0","[]","0","0","4","","","","","","","",""
"pit-trial","95","740268","0.0-2.0-17.2-4.2","battery-v0.2","","""event"",""trial"",""time""
""focus"",""0"",""1""
""fullscreenenter"",""1"",""1440""
","
","""event"",""trial"",""time""
""focus"",""0"",""1""
","""event"",""trial"",""time""
""fullscreenenter"",""1"",""1440""
","
","","","-1","","","23","6214","783","&#9789;","elianto","#f73b6a7A"," ","-1","0","-10","[]","0","0","4","","","","","","","",""
"pit-trial","96","745142","0.0-2.0-17.3-0.3","battery-v0.2","","""event"",""trial"",""time""
""focus"",""0"",""1""
""fullscreenenter"",""1"",""1440""
","
","""event"",""trial"",""time""
""focus"",""0"",""1""
","""event"",""trial"",""time""
""fullscreenenter"",""1"",""1440""
","
","","","-1","","","23","6214","783","&#9789;","elianto","#f73b6a7A"," ","-1","0","-10","[]","0","0","4","","","","","","","",""
"pit-trial","97","750017","0.0-2.0-17.3-1.3","battery-v0.2","","""event"",""trial"",""time""
""focus"",""0"",""1""
""fullscreenenter"",""1"",""1440""
","
","""event"",""trial"",""time""
""focus"",""0"",""1""
","""event"",""trial"",""time""
""fullscreenenter"",""1"",""1440""
","
","","","-1","","","23","6214","783","&#9789;","elianto","#f73b6a7A"," ","-1","0","-10","[]","0","0","4","","","","","","","",""
"pit-trial","98","754893","0.0-2.0-17.3-2.3","battery-v0.2","","""event"",""trial"",""time""
""focus"",""0"",""1""
""fullscreenenter"",""1"",""1440""
","
","""event"",""trial"",""time""
""focus"",""0"",""1""
","""event"",""trial"",""time""
""fullscreenenter"",""1"",""1440""
","
","","","-1","","","23","6214","783","&#9789;","elianto","#f73b6a7A"," ","-1","0","-10","[]","0","0","4","","","","","","","",""
"pit-trial","99","759757","0.0-2.0-17.3-3.3","battery-v0.2","","""event"",""trial"",""time""
""focus"",""0"",""1""
""fullscreenenter"",""1"",""1440""
","
","""event"",""trial"",""time""
""focus"",""0"",""1""
","""event"",""trial"",""time""
""fullscreenenter"",""1"",""1440""
","
","","","-1","","","23","6214","783","&#9789;","elianto","#f73b6a7A"," ","-1","0","0","[]","0","0","4","","","","","","","",""
"pit-trial","100","764624","0.0-2.0-17.3-4.3","battery-v0.2","","""event"",""trial"",""time""
""focus"",""0"",""1""
""fullscreenenter"",""1"",""1440""
","
","""event"",""trial"",""time""
""focus"",""0"",""1""
","""event"",""trial"",""time""
""fullscreenenter"",""1"",""1440""
","
","","","-1","","","23","6214","783","&#9789;","elianto","#f73b6a7A"," ","-1","0","-10","[]","0","0","4","","","","","","","",""
"call-function","101","764626","0.0-2.0-18.0","battery-v0.2","","""event"",""trial"",""time""
""focus"",""0"",""1""
""fullscreenenter"",""1"",""1440""
","
","""event"",""trial"",""time""
""focus"",""0"",""1""
","""event"",""trial"",""time""
""fullscreenenter"",""1"",""1440""
","
","","","","","","","","","","","","","","","","","","","","","","","","","","",""
"pit-instructions","102","826660","0.0-2.0-19.0","battery-v0.2","","""event"",""trial"",""time""
""focus"",""0"",""1""
""fullscreenenter"",""1"",""1440""
","
","""event"",""trial"",""time""
""focus"",""0"",""1""
","""event"",""trial"",""time""
""fullscreenenter"",""1"",""1440""
","
","","[{""page_index"":0,""viewing_time"":7508},{""page_index"":1,""viewing_time"":5650},{""page_index"":2,""viewing_time"":10121},{""page_index"":3,""viewing_time"":6991},{""page_index"":4,""viewing_time"":6279},{""page_index"":5,""viewing_time"":11044},{""page_index"":6,""viewing_time"":4267},{""page_index"":7,""viewing_time"":6408},{""page_index"":8,""viewing_time"":3765}]","62033","","","","","","","","","","","","","","","","","","","","","","","",""
"pit-comprehension","103","831629","0.0-2.0-20.0-0.0","battery-v0.2","","""event"",""trial"",""time""
""focus"",""0"",""1""
""fullscreenenter"",""1"",""1440""
","
","""event"",""trial"",""time""
""focus"",""0"",""1""
","""event"",""trial"",""time""
""fullscreenenter"",""1"",""1440""
","
","","","4962","[""SPACE""]","0","23","6214","783","","","","","","","","","","","","","","","","","","",""
"pit-instructions","104","838415","0.0-2.0-20.0-1.0","battery-v0.2","","""event"",""trial"",""time""
""focus"",""0"",""1""
""fullscreenenter"",""1"",""1440""
","
","""event"",""trial"",""time""
""focus"",""0"",""1""
","""event"",""trial"",""time""
""fullscreenenter"",""1"",""1440""
","
","","[{""page_index"":0,""viewing_time"":6753}]","6754","","","","","","","","","","","","","","","","","","","","","","","",""
"pit-comprehension","105","843651","0.0-2.0-21.0-0.0","battery-v0.2","","""event"",""trial"",""time""
""focus"",""0"",""1""
""fullscreenenter"",""1"",""1440""
","
","""event"",""trial"",""time""
""focus"",""0"",""1""
","""event"",""trial"",""time""
""fullscreenenter"",""1"",""1440""
","
","","","5226","[""10""]","0","23","6214","783","","","","","","","","","","","","","","","","","","",""
"pit-instructions","106","848560","0.0-2.0-21.0-1.0","battery-v0.2","","""event"",""trial"",""time""
""focus"",""0"",""1""
""fullscreenenter"",""1"",""1440""
","
","""event"",""trial"",""time""
""focus"",""0"",""1""
","""event"",""trial"",""time""
""fullscreenenter"",""1"",""1440""
","
","","[{""page_index"":0,""viewing_time"":4875}]","4876","","","","","","","","","","","","","","","","","","","","","","","",""
"pit-comprehension","107","858713","0.0-2.0-22.0-0.0","battery-v0.2","","""event"",""trial"",""time""
""focus"",""0"",""1""
""fullscreenenter"",""1"",""1440""
","
","""event"",""trial"",""time""
""focus"",""0"",""1""
","""event"",""trial"",""time""
""fullscreenenter"",""1"",""1440""
","
","","","10145","[""-10""]","1","23","6214","783","","","","","","","","","","","","","","","","","","",""
"pit-instructions","108","865046","0.0-2.0-22.0-1.0","battery-v0.2","","""event"",""trial"",""time""
""focus"",""0"",""1""
""fullscreenenter"",""1"",""1440""
","
","""event"",""trial"",""time""
""focus"",""0"",""1""
","""event"",""trial"",""time""
""fullscreenenter"",""1"",""1440""
","
","","[{""page_index"":0,""viewing_time"":6300}]","6300","","","","","","","","","","","","","","","","","","","","","","","",""
"pit-instructions","109","866237","0.0-2.0-22.0-2.0-0.0","battery-v0.2","","""event"",""trial"",""time""
""focus"",""0"",""1""
""fullscreenenter"",""1"",""1440""
","
","""event"",""trial"",""time""
""focus"",""0"",""1""
","""event"",""trial"",""time""
""fullscreenenter"",""1"",""1440""
","
","","[{""page_index"":0,""viewing_time"":1187}]","1187","","","","","","","","","","","","","","","","","","","","","","","",""
"pit-comprehension","110","873013","0.0-2.0-22.1-0.1","battery-v0.2","","""event"",""trial"",""time""
""focus"",""0"",""1""
""fullscreenenter"",""1"",""1440""
","
","""event"",""trial"",""time""
""focus"",""0"",""1""
","""event"",""trial"",""time""
""fullscreenenter"",""1"",""1440""
","
","","","6767","[""0""]","0","23","6214","783","","","","","","","","","","","","","","","","","","",""
"pit-instructions","111","874842","0.0-2.0-22.1-1.1","battery-v0.2","","""event"",""trial"",""time""
""focus"",""0"",""1""
""fullscreenenter"",""1"",""1440""
","
","""event"",""trial"",""time""
""focus"",""0"",""1""
","""event"",""trial"",""time""
""fullscreenenter"",""1"",""1440""
","
","","[{""page_index"":0,""viewing_time"":1785}]","1786","","","","","","","","","","","","","","","","","","","","","","","",""
"pit-comprehension","112","883586","0.0-2.0-23.0-0.0","battery-v0.2","","""event"",""trial"",""time""
""focus"",""0"",""1""
""fullscreenenter"",""1"",""1440""
","
","""event"",""trial"",""time""
""focus"",""0"",""1""
","""event"",""trial"",""time""
""fullscreenenter"",""1"",""1440""
","
","","","8737","[""True""]","0","23","6214","783","","","","","","","","","","","","","","","","","","",""
"pit-instructions","113","885416","0.0-2.0-23.0-1.0","battery-v0.2","","""event"",""trial"",""time""
""focus"",""0"",""1""
""fullscreenenter"",""1"",""1440""
","
","""event"",""trial"",""time""
""focus"",""0"",""1""
","""event"",""trial"",""time""
""fullscreenenter"",""1"",""1440""
","
","","[{""page_index"":0,""viewing_time"":1796}]","1797","","","","","","","","","","","","","","","","","","","","","","","",""
"pit-comprehension","114","893102","0.0-2.0-24.0-0.0","battery-v0.2","","""event"",""trial"",""time""
""focus"",""0"",""1""
""fullscreenenter"",""1"",""1440""
","
","""event"",""trial"",""time""
""focus"",""0"",""1""
","""event"",""trial"",""time""
""fullscreenenter"",""1"",""1440""
","
","","","7680","[""True""]","0","23","6214","783","","","","","","","","","","","","","","","","","","",""
"pit-instructions","115","896796","0.0-2.0-24.0-1.0","battery-v0.2","","""event"",""trial"",""time""
""focus"",""0"",""1""
""fullscreenenter"",""1"",""1440""
","
","""event"",""trial"",""time""
""focus"",""0"",""1""
","""event"",""trial"",""time""
""fullscreenenter"",""1"",""1440""
","
","","[{""page_index"":0,""viewing_time"":3659}]","3659","","","","","","","","","","","","","","","","","","","","","","","",""
"pit-comprehension","116","903537","0.0-2.0-25.0-0.0","battery-v0.2","","""event"",""trial"",""time""
""focus"",""0"",""1""
""fullscreenenter"",""1"",""1440""
","
","""event"",""trial"",""time""
""focus"",""0"",""1""
","""event"",""trial"",""time""
""fullscreenenter"",""1"",""1440""
","
","","","6736","[""True""]","0","23","6214","783","","","","","","","","","","","","","","","","","","",""
"pit-instructions","117","906121","0.0-2.0-25.0-1.0","battery-v0.2","","""event"",""trial"",""time""
""focus"",""0"",""1""
""fullscreenenter"",""1"",""1440""
","
","""event"",""trial"",""time""
""focus"",""0"",""1""
","""event"",""trial"",""time""
""fullscreenenter"",""1"",""1440""
","
","","[{""page_index"":0,""viewing_time"":2543}]","2544","","","","","","","","","","","","","","","","","","","","","","","",""
"pit-comprehension","118","910877","0.0-2.0-26.0-0.0","battery-v0.2","","""event"",""trial"",""time""
""focus"",""0"",""1""
""fullscreenenter"",""1"",""1440""
","
","""event"",""trial"",""time""
""focus"",""0"",""1""
","""event"",""trial"",""time""
""fullscreenenter"",""1"",""1440""
","
","","","4748","[""False""]","0","23","6214","783","","","","","","","","","","","","","","","","","","",""
"pit-instructions","119","913015","0.0-2.0-26.0-1.0","battery-v0.2","","""event"",""trial"",""time""
""focus"",""0"",""1""
""fullscreenenter"",""1"",""1440""
","
","""event"",""trial"",""time""
""focus"",""0"",""1""
","""event"",""trial"",""time""
""fullscreenenter"",""1"",""1440""
","
","","[{""page_index"":0,""viewing_time"":2104}]","2105","","","","","","","","","","","","","","","","","","","","","","","",""
"pit-instructions","120","932301","0.0-3.0","battery-v0.2","","""event"",""trial"",""time""
""focus"",""0"",""1""
""fullscreenenter"",""1"",""1440""
","
","""event"",""trial"",""time""
""focus"",""0"",""1""
","""event"",""trial"",""time""
""fullscreenenter"",""1"",""1440""
","
","","[{""page_index"":0,""viewing_time"":3671},{""page_index"":1,""viewing_time"":8021},{""page_index"":2,""viewing_time"":7589}]","19282","","","","","","","","","","","","","","","","","","","","","","","",""
"pit-trial","121","935638","0.0-4.0","battery-v0.2","","""event"",""trial"",""time""
""focus"",""0"",""1""
""fullscreenenter"",""1"",""1440""
","
","""event"",""trial"",""time""
""focus"",""0"",""1""
","""event"",""trial"",""time""
""fullscreenenter"",""1"",""1440""
","
","","","459","","","23","6214","783","&#9730;","elianto","#3366ff99"," "," ","1","0","[1310]","1","1","","","6214","1","1","1","win","go","1"
"pit-trial","122","938830","0.0-5.0","battery-v0.2","","""event"",""trial"",""time""
""focus"",""0"",""1""
""fullscreenenter"",""1"",""1440""
","
","""event"",""trial"",""time""
""focus"",""0"",""1""
","""event"",""trial"",""time""
""fullscreenenter"",""1"",""1440""
","
","","","330","","","23","6214","783","&#9733;","elianto","#3366ff99","-1"," ","0","0","[1179]","1","1","","","6214","2","2","2","win","no-go","0"
"pit-trial","123","942925","0.0-6.0","battery-v0.2","","""event"",""trial"",""time""
""focus"",""0"",""1""
""fullscreenenter"",""1"",""1440""
","
","""event"",""trial"",""time""
""focus"",""0"",""1""
","""event"",""trial"",""time""
""fullscreenenter"",""1"",""1440""
","
","","","1233","","","23","6214","783","&#9752;","elianto","#f73b6a7A"," "," ","1","0","[2084]","1","1","","","6214","3","3","3","lose","go","0"
"pit-trial","124","946769","0.0-7.0","battery-v0.2","","""event"",""trial"",""time""
""focus"",""0"",""1""
""fullscreenenter"",""1"",""1440""
","
","""event"",""trial"",""time""
""focus"",""0"",""1""
","""event"",""trial"",""time""
""fullscreenenter"",""1"",""1440""
","
","","","969","","","23","6214","783","&#9728;","elianto","#f73b6a7A","-1"," ","0","-10","[1828]","1","1","","","6214","4","0","4","lose","no-go","0"
"pit-trial","125","951646","0.0-8.0","battery-v0.2","","""event"",""trial"",""time""
""focus"",""0"",""1""
""fullscreenenter"",""1"",""1440""
","
","""event"",""trial"",""time""
""focus"",""0"",""1""
","""event"",""trial"",""time""
""fullscreenenter"",""1"",""1440""
","
","","","-1","","","23","6214","783","&#9728;","elianto","#f73b6a7A","-1","-1","1","0","[]","0","1","","","6214","5","0","4","lose","no-go","0"
"pit-trial","126","955063","0.0-9.0","battery-v0.2","","""event"",""trial"",""time""
""focus"",""0"",""1""
""fullscreenenter"",""1"",""1440""
","
","""event"",""trial"",""time""
""focus"",""0"",""1""
","""event"",""trial"",""time""
""fullscreenenter"",""1"",""1440""
","
","","","560","","","23","6214","783","&#9733;","elianto","#3366ff99","-1"," ","0","0","[1414]","1","1","","","6214","6","2","2","win","no-go","0"
"pit-trial","127","959935","0.0-10.0","battery-v0.2","","""event"",""trial"",""time""
""focus"",""0"",""1""
""fullscreenenter"",""1"",""1440""
","
","""event"",""trial"",""time""
""focus"",""0"",""1""
","""event"",""trial"",""time""
""fullscreenenter"",""1"",""1440""
","
","","","-1","","","23","6214","783","&#9752;","elianto","#f73b6a7A"," ","-1","0","-10","[]","0","1","","","6214","7","3","3","lose","go","0"
"pit-trial","128","963203","0.0-11.0","battery-v0.2","","""event"",""trial"",""time""
""focus"",""0"",""1""
""fullscreenenter"",""1"",""1440""
","
","""event"",""trial"",""time""
""focus"",""0"",""1""
","""event"",""trial"",""time""
""fullscreenenter"",""1"",""1440""
","
","","","399","","","23","6214","783","&#9730;","elianto","#3366ff99"," "," ","1","+10","[1262]","1","1","","","6214","8","1","1","win","go","0"
"pit-trial","129","966554","0.0-12.0","battery-v0.2","","""event"",""trial"",""time""
""focus"",""0"",""1""
""fullscreenenter"",""1"",""1440""
","
","""event"",""trial"",""time""
""focus"",""0"",""1""
","""event"",""trial"",""time""
""fullscreenenter"",""1"",""1440""
","
","","","487","","","23","6214","783","&#9730;","elianto","#3366ff99"," "," ","1","+10","[1343]","1","1","","","6214","9","1","1","win","go","0"
"pit-trial","130","971420","0.0-13.0","battery-v0.2","","""event"",""trial"",""time""
""focus"",""0"",""1""
""fullscreenenter"",""1"",""1440""
","
","""event"",""trial"",""time""
""focus"",""0"",""1""
","""event"",""trial"",""time""
""fullscreenenter"",""1"",""1440""
","
","","","-1","","","23","6214","783","&#9728;","elianto","#f73b6a7A","-1","-1","1","0","[]","0","1","","","6214","10","0","4","lose","no-go","0"
"pit-trial","131","974856","0.0-14.0","battery-v0.2","","""event"",""trial"",""time""
""focus"",""0"",""1""
""fullscreenenter"",""1"",""1440""
","
","""event"",""trial"",""time""
""focus"",""0"",""1""
","""event"",""trial"",""time""
""fullscreenenter"",""1"",""1440""
","
","","","563","","","23","6214","783","&#9733;","elianto","#3366ff99","-1"," ","0","0","[1426]","1","1","","","6214","11","2","2","win","no-go","0"
"pit-trial","132","979725","0.0-15.0","battery-v0.2","","""event"",""trial"",""time""
""focus"",""0"",""1""
""fullscreenenter"",""1"",""1440""
","
","""event"",""trial"",""time""
""focus"",""0"",""1""
","""event"",""trial"",""time""
""fullscreenenter"",""1"",""1440""
","
","","","-1","","","23","6214","783","&#9752;","elianto","#f73b6a7A"," ","-1","0","0","[]","0","1","","","6214","12","3","3","lose","go","1"
"pit-trial","133","983085","0.0-16.0","battery-v0.2","","""event"",""trial"",""time""
""focus"",""0"",""1""
""fullscreenenter"",""1"",""1440""
","
","""event"",""trial"",""time""
""focus"",""0"",""1""
","""event"",""trial"",""time""
""fullscreenenter"",""1"",""1440""
","
","","","488","","","23","6214","783","&#9733;","elianto","#3366ff99","-1"," ","0","+10","[1349]","1","1","","","6214","13","2","2","win","no-go","1"
"pit-trial","134","987976","0.0-17.0","battery-v0.2","","""event"",""trial"",""time""
""focus"",""0"",""1""
""fullscreenenter"",""1"",""1440""
","
","""event"",""trial"",""time""
""focus"",""0"",""1""
","""event"",""trial"",""time""
""fullscreenenter"",""1"",""1440""
","
","","","-1","","","23","6214","783","&#9752;","elianto","#f73b6a7A"," ","-1","0","-10","[]","0","1","","","6214","14","3","3","lose","go","0"
"pit-trial","135","992845","0.0-18.0","battery-v0.2","","""event"",""trial"",""time""
""focus"",""0"",""1""
""fullscreenenter"",""1"",""1440""
","
","""event"",""trial"",""time""
""focus"",""0"",""1""
","""event"",""trial"",""time""
""fullscreenenter"",""1"",""1440""
","
","","","-1","","","23","6214","783","&#9728;","elianto","#f73b6a7A","-1","-1","1","0","[]","0","1","","","6214","15","0","4","lose","no-go","0"
"pit-trial","136","996186","0.0-19.0","battery-v0.2","","""event"",""trial"",""time""
""focus"",""0"",""1""
""fullscreenenter"",""1"",""1440""
","
","""event"",""trial"",""time""
""focus"",""0"",""1""
","""event"",""trial"",""time""
""fullscreenenter"",""1"",""1440""
","
","","","469","","","23","6214","783","&#9730;","elianto","#3366ff99"," "," ","1","+10","[1324]","1","1","","","6214","16","1","1","win","go","0"
"pit-trial","137","999561","0.0-20.0","battery-v0.2","","""event"",""trial"",""time""
""focus"",""0"",""1""
""fullscreenenter"",""1"",""1440""
","
","""event"",""trial"",""time""
""focus"",""0"",""1""
","""event"",""trial"",""time""
""fullscreenenter"",""1"",""1440""
","
","","","500","","","23","6214","783","&#9730;","elianto","#3366ff99"," "," ","1","+10","[1352]","1","1","","","6214","17","1","1","win","go","0"
"pit-trial","138","1004435","0.0-21.0","battery-v0.2","","""event"",""trial"",""time""
""focus"",""0"",""1""
""fullscreenenter"",""1"",""1440""
","
","""event"",""trial"",""time""
""focus"",""0"",""1""
","""event"",""trial"",""time""
""fullscreenenter"",""1"",""1440""
","
","","","-1","","","23","6214","783","&#9728;","elianto","#f73b6a7A","-1","-1","1","-10","[]","0","1","","","6214","18","0","4","lose","no-go","1"
"pit-trial","139","1007865","0.0-22.0","battery-v0.2","","""event"",""trial"",""time""
""focus"",""0"",""1""
""fullscreenenter"",""1"",""1440""
","
","""event"",""trial"",""time""
""focus"",""0"",""1""
","""event"",""trial"",""time""
""fullscreenenter"",""1"",""1440""
","
","","","554","","","23","6214","783","&#9733;","elianto","#3366ff99","-1"," ","0","0","[1414]","1","1","","","6214","19","2","2","win","no-go","0"
"pit-trial","140","1012736","0.0-23.0","battery-v0.2","","""event"",""trial"",""time""
""focus"",""0"",""1""
""fullscreenenter"",""1"",""1440""
","
","""event"",""trial"",""time""
""focus"",""0"",""1""
","""event"",""trial"",""time""
""fullscreenenter"",""1"",""1440""
","
","","","-1","","","23","6214","783","&#9752;","elianto","#f73b6a7A"," ","-1","0","0","[]","0","1","","","6214","20","3","3","lose","go","1"
"pit-instructions","141","1025039","0.0-24.0","battery-v0.2","","""event"",""trial"",""time""
""focus"",""0"",""1""
""fullscreenenter"",""1"",""1440""
","
","""event"",""trial"",""time""
""focus"",""0"",""1""
","""event"",""trial"",""time""
""fullscreenenter"",""1"",""1440""
","
","","[{""page_index"":0,""viewing_time"":5661},{""page_index"":1,""viewing_time"":6641}]","12302","","","","","","","","","","","","","","","","","","","","","","","",""
"pit-trial","142","1029915","0.0-25.0","battery-v0.2","","""event"",""trial"",""time""
""focus"",""0"",""1""
""fullscreenenter"",""1"",""1440""
","
","""event"",""trial"",""time""
""focus"",""0"",""1""
","""event"",""trial"",""time""
""fullscreenenter"",""1"",""1440""
","
","","","-1","","","23","6214","783","g","elianto","#f73b6a7A"," ","-1","0","0","[]","0","2","","","6214","21","3","3","lose","go","1"
"pit-trial","143","1034780","0.0-26.0","battery-v0.2","","""event"",""trial"",""time""
""focus"",""0"",""1""
""fullscreenenter"",""1"",""1440""
","
","""event"",""trial"",""time""
""focus"",""0"",""1""
","""event"",""trial"",""time""
""fullscreenenter"",""1"",""1440""
","
","","","-1","","","23","6214","783","a","elianto","#f73b6a7A","-1","-1","1","0","[]","0","2","","","6214","22","2","4","lose","no-go","0"
"pit-trial","144","1039655","0.0-27.0","battery-v0.2","","""event"",""trial"",""time""
""focus"",""0"",""1""
""fullscreenenter"",""1"",""1440""
","
","""event"",""trial"",""time""
""focus"",""0"",""1""
","""event"",""trial"",""time""
""fullscreenenter"",""1"",""1440""
","
","","","-1","","","23","6214","783","u","elianto","#f73b6a7A","-1","-1","1","0","[3681]","1","2","","","6214","23","0","4","lose","no-go","0"
"pit-trial","145","1043531","0.0-28.0","battery-v0.2","","""event"",""trial"",""time""
""focus"",""0"",""1""
""fullscreenenter"",""1"",""1440""
","
","""event"",""trial"",""time""
""focus"",""0"",""1""
","""event"",""trial"",""time""
""fullscreenenter"",""1"",""1440""
","
","","","1006","","","23","6214","783","l","elianto","#3366ff99"," "," ","1","+10","[1860]","1","2","","","6214","24","1","1","win","go","0"
"pit-trial","146","1048393","0.0-29.0","battery-v0.2","","""event"",""trial"",""time""
""focus"",""0"",""1""
""fullscreenenter"",""1"",""1440""
","
","""event"",""trial"",""time""
""focus"",""0"",""1""
","""event"",""trial"",""time""
""fullscreenenter"",""1"",""1440""
","
","","","-1","","","23","6214","783","u","elianto","#f73b6a7A","-1","-1","1","0","[]","0","2","","","6214","25","0","4","lose","no-go","0"
"pit-trial","147","1051793","0.0-30.0","battery-v0.2","","""event"",""trial"",""time""
""focus"",""0"",""1""
""fullscreenenter"",""1"",""1440""
","
","""event"",""trial"",""time""
""focus"",""0"",""1""
","""event"",""trial"",""time""
""fullscreenenter"",""1"",""1440""
","
","","","541","","","23","6214","783","l","elianto","#3366ff99"," "," ","1","+10","[1393]","1","2","","","6214","26","1","1","win","go","0"
"pit-trial","148","1056670","0.0-31.0","battery-v0.2","","""event"",""trial"",""time""
""focus"",""0"",""1""
""fullscreenenter"",""1"",""1440""
","
","""event"",""trial"",""time""
""focus"",""0"",""1""
","""event"",""trial"",""time""
""fullscreenenter"",""1"",""1440""
","
","","","-1","","","23","6214","783","a","elianto","#f73b6a7A","-1","-1","1","0","[]","0","2","","","6214","27","2","4","lose","no-go","0"
"pit-trial","149","1061540","0.0-32.0","battery-v0.2","","""event"",""trial"",""time""
""focus"",""0"",""1""
""fullscreenenter"",""1"",""1440""
","
","""event"",""trial"",""time""
""focus"",""0"",""1""
","""event"",""trial"",""time""
""fullscreenenter"",""1"",""1440""
","
","","","-1","","","23","6214","783","g","elianto","#f73b6a7A"," ","-1","0","-10","[]","0","2","","","6214","28","3","3","lose","go","0"
"pit-trial","150","1064979","0.0-33.0","battery-v0.2","","""event"",""trial"",""time""
""focus"",""0"",""1""
""fullscreenenter"",""1"",""1440""
","
","""event"",""trial"",""time""
""focus"",""0"",""1""
","""event"",""trial"",""time""
""fullscreenenter"",""1"",""1440""
","
","","","581","","","23","6214","783","l","elianto","#3366ff99"," "," ","1","+10","[1436]","1","2","","","6214","29","1","1","win","go","0"
"pit-trial","151","1069851","0.0-34.0","battery-v0.2","","""event"",""trial"",""time""
""focus"",""0"",""1""
""fullscreenenter"",""1"",""1440""
","
","""event"",""trial"",""time""
""focus"",""0"",""1""
","""event"",""trial"",""time""
""fullscreenenter"",""1"",""1440""
","
","","","-1","","","23","6214","783","g","elianto","#f73b6a7A"," ","-1","0","-10","[]","0","2","","","6214","30","3","3","lose","go","0"
"pit-trial","152","1074720","0.0-35.0","battery-v0.2","","""event"",""trial"",""time""
""focus"",""0"",""1""
""fullscreenenter"",""1"",""1440""
","
","""event"",""trial"",""time""
""focus"",""0"",""1""
","""event"",""trial"",""time""
""fullscreenenter"",""1"",""1440""
","
","","","-1","","","23","6214","783","a","elianto","#f73b6a7A","-1","-1","1","0","[]","0","2","","","6214","31","2","4","lose","no-go","0"
"pit-trial","153","1079585","0.0-36.0","battery-v0.2","","""event"",""trial"",""time""
""focus"",""0"",""1""
""fullscreenenter"",""1"",""1440""
","
","""event"",""trial"",""time""
""focus"",""0"",""1""
","""event"",""trial"",""time""
""fullscreenenter"",""1"",""1440""
","
","","","-1","","","23","6214","783","u","elianto","#f73b6a7A","-1","-1","1","0","[]","0","2","","","6214","32","0","4","lose","no-go","0"
"pit-trial","154","1084445","0.0-37.0","battery-v0.2","","""event"",""trial"",""time""
""focus"",""0"",""1""
""fullscreenenter"",""1"",""1440""
","
","""event"",""trial"",""time""
""focus"",""0"",""1""
","""event"",""trial"",""time""
""fullscreenenter"",""1"",""1440""
","
","","","-1","","","23","6214","783","u","elianto","#f73b6a7A","-1","-1","1","0","[]","0","2","","","6214","33","0","4","lose","no-go","0"
"pit-trial","155","1089308","0.0-38.0","battery-v0.2","","""event"",""trial"",""time""
""focus"",""0"",""1""
""fullscreenenter"",""1"",""1440""
","
","""event"",""trial"",""time""
""focus"",""0"",""1""
","""event"",""trial"",""time""
""fullscreenenter"",""1"",""1440""
","
","","","-1","","","23","6214","783","g","elianto","#f73b6a7A"," ","-1","0","-10","[]","0","2","","","6214","34","3","3","lose","go","0"
"pit-trial","156","1092731","0.0-39.0","battery-v0.2","","""event"",""trial"",""time""
""focus"",""0"",""1""
""fullscreenenter"",""1"",""1440""
","
","""event"",""trial"",""time""
""focus"",""0"",""1""
","""event"",""trial"",""time""
""fullscreenenter"",""1"",""1440""
","
","","","552","","","23","6214","783","l","elianto","#3366ff99"," "," ","1","+10","[1407]","1","2","","","6214","35","1","1","win","go","0"
"pit-trial","157","1097596","0.0-40.0","battery-v0.2","","""event"",""trial"",""time""
""focus"",""0"",""1""
""fullscreenenter"",""1"",""1440""
","
","""event"",""trial"",""time""
""focus"",""0"",""1""
","""event"",""trial"",""time""
""fullscreenenter"",""1"",""1440""
","
","","","-1","","","23","6214","783","a","elianto","#f73b6a7A","-1","-1","1","0","[]","0","2","","","6214","36","2","4","lose","no-go","0"
"pit-trial","158","1102487","0.0-41.0","battery-v0.2","","""event"",""trial"",""time""
""focus"",""0"",""1""
""fullscreenenter"",""1"",""1440""
","
","""event"",""trial"",""time""
""focus"",""0"",""1""
","""event"",""trial"",""time""
""fullscreenenter"",""1"",""1440""
","
","","","-1","","","23","6214","783","u","elianto","#f73b6a7A","-1","-1","1","0","[]","0","2","","","6214","37","0","4","lose","no-go","0"
"pit-trial","159","1107357","0.0-42.0","battery-v0.2","","""event"",""trial"",""time""
""focus"",""0"",""1""
""fullscreenenter"",""1"",""1440""
","
","""event"",""trial"",""time""
""focus"",""0"",""1""
","""event"",""trial"",""time""
""fullscreenenter"",""1"",""1440""
","
","","","-1","","","23","6214","783","a","elianto","#f73b6a7A","-1","-1","1","-10","[]","0","2","","","6214","38","2","4","lose","no-go","1"
"pit-trial","160","1110717","0.0-43.0","battery-v0.2","","""event"",""trial"",""time""
""focus"",""0"",""1""
""fullscreenenter"",""1"",""1440""
","
","""event"",""trial"",""time""
""focus"",""0"",""1""
","""event"",""trial"",""time""
""fullscreenenter"",""1"",""1440""
","
","","","494","","","23","6214","783","l","elianto","#3366ff99"," "," ","1","+10","[1350]","1","2","","","6214","39","1","1","win","go","0"
"pit-trial","161","1115588","0.0-44.0","battery-v0.2","","""event"",""trial"",""time""
""focus"",""0"",""1""
""fullscreenenter"",""1"",""1440""
","
","""event"",""trial"",""time""
""focus"",""0"",""1""
","""event"",""trial"",""time""
""fullscreenenter"",""1"",""1440""
","
","","","-1","","","23","6214","783","g","elianto","#f73b6a7A"," ","-1","0","-10","[]","0","2","","","6214","40","3","3","lose","go","0"
"pit-trial","162","1120466","0.0-45.0","battery-v0.2","","""event"",""trial"",""time""
""focus"",""0"",""1""
""fullscreenenter"",""1"",""1440""
","
","""event"",""trial"",""time""
""focus"",""0"",""1""
","""event"",""trial"",""time""
""fullscreenenter"",""1"",""1440""
","
","","","-1","","","23","6214","783","a","elianto","#f73b6a7A","-1","-1","1","0","[]","0","2","","","6214","41","2","4","lose","no-go","0"
"pit-trial","163","1125347","0.0-46.0","battery-v0.2","","""event"",""trial"",""time""
""focus"",""0"",""1""
""fullscreenenter"",""1"",""1440""
","
","""event"",""trial"",""time""
""focus"",""0"",""1""
","""event"",""trial"",""time""
""fullscreenenter"",""1"",""1440""
","
","","","-1","","","23","6214","783","g","elianto","#f73b6a7A"," ","-1","0","-10","[]","0","2","","","6214","42","3","3","lose","go","0"
"pit-trial","164","1130206","0.0-47.0","battery-v0.2","","""event"",""trial"",""time""
""focus"",""0"",""1""
""fullscreenenter"",""1"",""1440""
","
","""event"",""trial"",""time""
""focus"",""0"",""1""
","""event"",""trial"",""time""
""fullscreenenter"",""1"",""1440""
","
","","","-1","","","23","6214","783","u","elianto","#f73b6a7A","-1","-1","1","0","[]","0","2","","","6214","43","0","4","lose","no-go","0"
"pit-trial","165","1133836","0.0-48.0","battery-v0.2","","""event"",""trial"",""time""
""focus"",""0"",""1""
""fullscreenenter"",""1"",""1440""
","
","""event"",""trial"",""time""
""focus"",""0"",""1""
","""event"",""trial"",""time""
""fullscreenenter"",""1"",""1440""
","
","","","760","","","23","6214","783","l","elianto","#3366ff99"," "," ","1","+10","[1617]","1","2","","","6214","44","1","1","win","go","0"
"pit-trial","166","1137310","0.0-49.0","battery-v0.2","","""event"",""trial"",""time""
""focus"",""0"",""1""
""fullscreenenter"",""1"",""1440""
","
","""event"",""trial"",""time""
""focus"",""0"",""1""
","""event"",""trial"",""time""
""fullscreenenter"",""1"",""1440""
","
","","","610","","","23","6214","783","p","elianto","#3366ff99","-1"," ","0","0","[1461]","1","2","","","6214","45","4","2","win","no-go","0"
"pit-trial","167","1142197","0.0-50.0","battery-v0.2","","""event"",""trial"",""time""
""focus"",""0"",""1""
""fullscreenenter"",""1"",""1440""
","
","""event"",""trial"",""time""
""focus"",""0"",""1""
","""event"",""trial"",""time""
""fullscreenenter"",""1"",""1440""
","
","","","-1","","","23","6214","783","a","elianto","#f73b6a7A","-1","-1","1","-10","[]","0","2","","","6214","46","2","4","lose","no-go","1"
"pit-trial","168","1147062","0.0-51.0","battery-v0.2","","""event"",""trial"",""time""
""focus"",""0"",""1""
""fullscreenenter"",""1"",""1440""
","
","""event"",""trial"",""time""
""focus"",""0"",""1""
","""event"",""trial"",""time""
""fullscreenenter"",""1"",""1440""
","
","","","-1","","","23","6214","783","g","elianto","#f73b6a7A"," ","-1","0","-10","[]","0","2","","","6214","47","3","3","lose","go","0"
"pit-trial","169","1151931","0.0-52.0","battery-v0.2","","""event"",""trial"",""time""
""focus"",""0"",""1""
""fullscreenenter"",""1"",""1440""
","
","""event"",""trial"",""time""
""focus"",""0"",""1""
","""event"",""trial"",""time""
""fullscreenenter"",""1"",""1440""
","
","","","-1","","","23","6214","783","u","elianto","#f73b6a7A","-1","-1","1","0","[]","0","2","","","6214","48","0","4","lose","no-go","0"
"pit-trial","170","1156803","0.0-53.0","battery-v0.2","","""event"",""trial"",""time""
""focus"",""0"",""1""
""fullscreenenter"",""1"",""1440""
","
","""event"",""trial"",""time""
""focus"",""0"",""1""
","""event"",""trial"",""time""
""fullscreenenter"",""1"",""1440""
","
","","","-1","","","23","6214","783","g","elianto","#f73b6a7A"," ","-1","0","-10","[]","0","2","","","6214","49","3","3","lose","go","0"
"pit-trial","171","1160286","0.0-54.0","battery-v0.2","","""event"",""trial"",""time""
""focus"",""0"",""1""
""fullscreenenter"",""1"",""1440""
","
","""event"",""trial"",""time""
""focus"",""0"",""1""
","""event"",""trial"",""time""
""fullscreenenter"",""1"",""1440""
","
","","","604","","","23","6214","783","p","elianto","#3366ff99","-1"," ","0","0","[1469]","1","2","","","6214","50","4","2","win","no-go","0"
"pit-trial","172","1165157","0.0-55.0","battery-v0.2","","""event"",""trial"",""time""
""focus"",""0"",""1""
""fullscreenenter"",""1"",""1440""
","
","""event"",""trial"",""time""
""focus"",""0"",""1""
","""event"",""trial"",""time""
""fullscreenenter"",""1"",""1440""
","
","","","-1","","","23","6214","783","u","elianto","#f73b6a7A","-1","-1","1","0","[]","0","2","","","6214","51","0","4","lose","no-go","0"
"pit-trial","173","1168596","0.0-56.0","battery-v0.2","","""event"",""trial"",""time""
""focus"",""0"",""1""
""fullscreenenter"",""1"",""1440""
","
","""event"",""trial"",""time""
""focus"",""0"",""1""
","""event"",""trial"",""time""
""fullscreenenter"",""1"",""1440""
","
","","","577","","","23","6214","783","l","elianto","#3366ff99"," "," ","1","+10","[1435]","1","2","","","6214","52","1","1","win","go","0"
"pit-trial","174","1172003","0.0-57.0","battery-v0.2","","""event"",""trial"",""time""
""focus"",""0"",""1""
""fullscreenenter"",""1"",""1440""
","
","""event"",""trial"",""time""
""focus"",""0"",""1""
","""event"",""trial"",""time""
""fullscreenenter"",""1"",""1440""
","
","","","535","","","23","6214","783","p","elianto","#3366ff99","-1"," ","0","0","[1391]","1","2","","","6214","53","4","2","win","no-go","0"
"pit-trial","175","1176887","0.0-58.0","battery-v0.2","","""event"",""trial"",""time""
""focus"",""0"",""1""
""fullscreenenter"",""1"",""1440""
","
","""event"",""trial"",""time""
""focus"",""0"",""1""
","""event"",""trial"",""time""
""fullscreenenter"",""1"",""1440""
","
","","","-1","","","23","6214","783","a","elianto","#f73b6a7A","-1","-1","1","0","[]","0","2","","","6214","54","2","4","lose","no-go","0"
"pit-trial","176","1181777","0.0-59.0","battery-v0.2","","""event"",""trial"",""time""
""focus"",""0"",""1""
""fullscreenenter"",""1"",""1440""
","
","""event"",""trial"",""time""
""focus"",""0"",""1""
","""event"",""trial"",""time""
""fullscreenenter"",""1"",""1440""
","
","","","-1","","","23","6214","783","u","elianto","#f73b6a7A","-1","-1","1","0","[]","0","2","","","6214","55","0","4","lose","no-go","0"
"pit-trial","177","1185125","0.0-60.0","battery-v0.2","","""event"",""trial"",""time""
""focus"",""0"",""1""
""fullscreenenter"",""1"",""1440""
","
","""event"",""trial"",""time""
""focus"",""0"",""1""
","""event"",""trial"",""time""
""fullscreenenter"",""1"",""1440""
","
","","","481","","","23","6214","783","l","elianto","#3366ff99"," "," ","1","0","[1339]","1","2","","","6214","56","1","1","win","go","1"
"pit-trial","178","1190001","0.0-61.0","battery-v0.2","","""event"",""trial"",""time""
""focus"",""0"",""1""
""fullscreenenter"",""1"",""1440""
","
","""event"",""trial"",""time""
""focus"",""0"",""1""
","""event"",""trial"",""time""
""fullscreenenter"",""1"",""1440""
","
","","","-1","","","23","6214","783","u","elianto","#f73b6a7A","-1","-1","1","0","[]","0","2","","","6214","57","0","4","lose","no-go","0"
"pit-trial","179","1193464","0.0-62.0","battery-v0.2","","""event"",""trial"",""time""
""focus"",""0"",""1""
""fullscreenenter"",""1"",""1440""
","
","""event"",""trial"",""time""
""focus"",""0"",""1""
","""event"",""trial"",""time""
""fullscreenenter"",""1"",""1440""
","
","","","594","","","23","6214","783","l","elianto","#3366ff99"," "," ","1","+10","[1450]","1","2","","","6214","58","1","1","win","go","0"
"pit-trial","180","1196986","0.0-63.0","battery-v0.2","","""event"",""trial"",""time""
""focus"",""0"",""1""
""fullscreenenter"",""1"",""1440""
","
","""event"",""trial"",""time""
""focus"",""0"",""1""
","""event"",""trial"",""time""
""fullscreenenter"",""1"",""1440""
","
","","","656","","","23","6214","783","p","elianto","#3366ff99","-1"," ","0","0","[1511]","1","2","","","6214","59","4","2","win","no-go","0"
"pit-trial","181","1201841","0.0-64.0","battery-v0.2","","""event"",""trial"",""time""
""focus"",""0"",""1""
""fullscreenenter"",""1"",""1440""
","
","""event"",""trial"",""time""
""focus"",""0"",""1""
","""event"",""trial"",""time""
""fullscreenenter"",""1"",""1440""
","
","","","-1","","","23","6214","783","g","elianto","#f73b6a7A"," ","-1","0","-10","[]","0","2","","","6214","60","3","3","lose","go","0"
"pit-trial","182","1206704","0.0-65.0","battery-v0.2","","""event"",""trial"",""time""
""focus"",""0"",""1""
""fullscreenenter"",""1"",""1440""
","
","""event"",""trial"",""time""
""focus"",""0"",""1""
","""event"",""trial"",""time""
""fullscreenenter"",""1"",""1440""
","
","","","-1","","","23","6214","783","g","elianto","#f73b6a7A"," ","-1","0","-10","[]","0","2","","","6214","61","3","3","lose","go","0"
"pit-trial","183","1210065","0.0-66.0","battery-v0.2","","""event"",""trial"",""time""
""focus"",""0"",""1""
""fullscreenenter"",""1"",""1440""
","
","""event"",""trial"",""time""
""focus"",""0"",""1""
","""event"",""trial"",""time""
""fullscreenenter"",""1"",""1440""
","
","","","489","","","23","6214","783","p","elianto","#3366ff99","-1"," ","0","0","[1345]","1","2","","","6214","62","4","2","win","no-go","0"
"pit-trial","184","1213472","0.0-67.0","battery-v0.2","","""event"",""trial"",""time""
""focus"",""0"",""1""
""fullscreenenter"",""1"",""1440""
","
","""event"",""trial"",""time""
""focus"",""0"",""1""
","""event"",""trial"",""time""
""fullscreenenter"",""1"",""1440""
","
","","","545","","","23","6214","783","l","elianto","#3366ff99"," "," ","1","+10","[1397]","1","2","","","6214","63","1","1","win","go","0"
"pit-trial","185","1218341","0.0-68.0","battery-v0.2","","""event"",""trial"",""time""
""focus"",""0"",""1""
""fullscreenenter"",""1"",""1440""
","
","""event"",""trial"",""time""
""focus"",""0"",""1""
","""event"",""trial"",""time""
""fullscreenenter"",""1"",""1440""
","
","","","-1","","","23","6214","783","a","elianto","#f73b6a7A","-1","-1","1","-10","[]","0","2","","","6214","64","2","4","lose","no-go","1"
"pit-trial","186","1221762","0.0-69.0","battery-v0.2","","""event"",""trial"",""time""
""focus"",""0"",""1""
""fullscreenenter"",""1"",""1440""
","
","""event"",""trial"",""time""
""focus"",""0"",""1""
","""event"",""trial"",""time""
""fullscreenenter"",""1"",""1440""
","
","","","543","","","23","6214","783","l","elianto","#3366ff99"," "," ","1","+10","[1408]","1","2","","","6214","65","1","1","win","go","0"
"pit-trial","187","1226628","0.0-70.0","battery-v0.2","","""event"",""trial"",""time""
""focus"",""0"",""1""
""fullscreenenter"",""1"",""1440""
","
","""event"",""trial"",""time""
""focus"",""0"",""1""
","""event"",""trial"",""time""
""fullscreenenter"",""1"",""1440""
","
","","","-1","","","23","6214","783","g","elianto","#f73b6a7A"," ","-1","0","-10","[]","0","2","","","6214","66","3","3","lose","go","0"
"pit-trial","188","1230052","0.0-71.0","battery-v0.2","","""event"",""trial"",""time""
""focus"",""0"",""1""
""fullscreenenter"",""1"",""1440""
","
","""event"",""trial"",""time""
""focus"",""0"",""1""
","""event"",""trial"",""time""
""fullscreenenter"",""1"",""1440""
","
","","","564","","","23","6214","783","p","elianto","#3366ff99","-1"," ","0","0","[1414]","1","2","","","6214","67","4","2","win","no-go","0"
"pit-trial","189","1234906","0.0-72.0","battery-v0.2","","""event"",""trial"",""time""
""focus"",""0"",""1""
""fullscreenenter"",""1"",""1440""
","
","""event"",""trial"",""time""
""focus"",""0"",""1""
","""event"",""trial"",""time""
""fullscreenenter"",""1"",""1440""
","
","","","-1","","","23","6214","783","a","elianto","#f73b6a7A","-1","-1","1","0","[]","0","2","","","6214","68","2","4","lose","no-go","0"
"pit-trial","190","1238301","0.0-73.0","battery-v0.2","","""event"",""trial"",""time""
""focus"",""0"",""1""
""fullscreenenter"",""1"",""1440""
","
","""event"",""trial"",""time""
""focus"",""0"",""1""
","""event"",""trial"",""time""
""fullscreenenter"",""1"",""1440""
","
","","","528","","","23","6214","783","p","elianto","#3366ff99","-1"," ","0","0","[1385]","1","2","","","6214","69","4","2","win","no-go","0"
"pit-trial","191","1243178","0.0-74.0","battery-v0.2","","""event"",""trial"",""time""
""focus"",""0"",""1""
""fullscreenenter"",""1"",""1440""
","
","""event"",""trial"",""time""
""focus"",""0"",""1""
","""event"",""trial"",""time""
""fullscreenenter"",""1"",""1440""
","
","","","-1","","","23","6214","783","g","elianto","#f73b6a7A"," ","-1","0","-10","[]","0","2","","","6214","70","3","3","lose","go","0"
"pit-trial","192","1246591","0.0-75.0","battery-v0.2","","""event"",""trial"",""time""
""focus"",""0"",""1""
""fullscreenenter"",""1"",""1440""
","
","""event"",""trial"",""time""
""focus"",""0"",""1""
","""event"",""trial"",""time""
""fullscreenenter"",""1"",""1440""
","
","","","534","","","23","6214","783","l","elianto","#3366ff99"," "," ","1","+10","[1395]","1","2","","","6214","71","1","1","win","go","0"
"pit-trial","193","1249927","0.0-76.0","battery-v0.2","","""event"",""trial"",""time""
""focus"",""0"",""1""
""fullscreenenter"",""1"",""1440""
","
","""event"",""trial"",""time""
""focus"",""0"",""1""
","""event"",""trial"",""time""
""fullscreenenter"",""1"",""1440""
","
","","","466","","","23","6214","783","s","elianto","#3366ff99"," "," ","1","+10","[1330]","1","2","","","6214","72","5","1","win","go","0"
"pit-trial","194","1253287","0.0-77.0","battery-v0.2","","""event"",""trial"",""time""
""focus"",""0"",""1""
""fullscreenenter"",""1"",""1440""
","
","""event"",""trial"",""time""
""focus"",""0"",""1""
","""event"",""trial"",""time""
""fullscreenenter"",""1"",""1440""
","
","","","493","","","23","6214","783","p","elianto","#3366ff99","-1"," ","0","0","[1353]","1","2","","","6214","73","4","2","win","no-go","0"
"pit-trial","195","1256612","0.0-78.0","battery-v0.2","","""event"",""trial"",""time""
""focus"",""0"",""1""
""fullscreenenter"",""1"",""1440""
","
","""event"",""trial"",""time""
""focus"",""0"",""1""
","""event"",""trial"",""time""
""fullscreenenter"",""1"",""1440""
","
","","","451","","","23","6214","783","l","elianto","#3366ff99"," "," ","1","+10","[1313]","1","2","","","6214","74","1","1","win","go","0"
"pit-trial","196","1261487","0.0-79.0","battery-v0.2","","""event"",""trial"",""time""
""focus"",""0"",""1""
""fullscreenenter"",""1"",""1440""
","
","""event"",""trial"",""time""
""focus"",""0"",""1""
","""event"",""trial"",""time""
""fullscreenenter"",""1"",""1440""
","
","","","-1","","","23","6214","783","g","elianto","#f73b6a7A"," ","-1","0","-10","[]","0","2","","","6214","75","3","3","lose","go","0"
"pit-trial","197","1264856","0.0-80.0","battery-v0.2","","""event"",""trial"",""time""
""focus"",""0"",""1""
""fullscreenenter"",""1"",""1440""
","
","""event"",""trial"",""time""
""focus"",""0"",""1""
","""event"",""trial"",""time""
""fullscreenenter"",""1"",""1440""
","
","","","485","","","23","6214","783","s","elianto","#3366ff99"," "," ","1","+10","[1353]","1","2","","","6214","76","5","1","win","go","0"
"pit-trial","198","1268591","0.0-81.0","battery-v0.2","","""event"",""trial"",""time""
""focus"",""0"",""1""
""fullscreenenter"",""1"",""1440""
","
","""event"",""trial"",""time""
""focus"",""0"",""1""
","""event"",""trial"",""time""
""fullscreenenter"",""1"",""1440""
","
","","","864","","","23","6214","783","s","elianto","#3366ff99"," "," ","1","0","[1718]","1","2","","","6214","77","5","1","win","go","1"
"pit-trial","199","1273451","0.0-82.0","battery-v0.2","","""event"",""trial"",""time""
""focus"",""0"",""1""
""fullscreenenter"",""1"",""1440""
","
","""event"",""trial"",""time""
""focus"",""0"",""1""
","""event"",""trial"",""time""
""fullscreenenter"",""1"",""1440""
","
","","","-1","","","23","6214","783","g","elianto","#f73b6a7A"," ","-1","0","-10","[]","0","2","","","6214","78","3","3","lose","go","0"
"pit-trial","200","1276826","0.0-83.0","battery-v0.2","","""event"",""trial"",""time""
""focus"",""0"",""1""
""fullscreenenter"",""1"",""1440""
","
","""event"",""trial"",""time""
""focus"",""0"",""1""
","""event"",""trial"",""time""
""fullscreenenter"",""1"",""1440""
","
","","","507","","","23","6214","783","p","elianto","#3366ff99","-1"," ","0","+10","[1364]","1","2","","","6214","79","4","2","win","no-go","1"
"pit-trial","201","1281687","0.0-84.0","battery-v0.2","","""event"",""trial"",""time""
""focus"",""0"",""1""
""fullscreenenter"",""1"",""1440""
","
","""event"",""trial"",""time""
""focus"",""0"",""1""
","""event"",""trial"",""time""
""fullscreenenter"",""1"",""1440""
","
","","","-1","","","23","6214","783","w","elianto","#f73b6a7A","-1","-1","1","-10","[]","0","2","","","6214","80","6","4","lose","no-go","1"
"pit-trial","202","1286559","0.0-85.0","battery-v0.2","","""event"",""trial"",""time""
""focus"",""0"",""1""
""fullscreenenter"",""1"",""1440""
","
","""event"",""trial"",""time""
""focus"",""0"",""1""
","""event"",""trial"",""time""
""fullscreenenter"",""1"",""1440""
","
","","","-1","","","23","6214","783","e","elianto","#f73b6a7A"," ","-1","0","-10","[]","0","2","","","6214","81","7","3","lose","go","0"
"pit-trial","203","1291438","0.0-86.0","battery-v0.2","","""event"",""trial"",""time""
""focus"",""0"",""1""
""fullscreenenter"",""1"",""1440""
","
","""event"",""trial"",""time""
""focus"",""0"",""1""
","""event"",""trial"",""time""
""fullscreenenter"",""1"",""1440""
","
","","","-1","","","23","6214","783","w","elianto","#f73b6a7A","-1","-1","1","0","[]","0","2","","","6214","82","6","4","lose","no-go","0"
"pit-trial","204","1294849","0.0-87.0","battery-v0.2","","""event"",""trial"",""time""
""focus"",""0"",""1""
""fullscreenenter"",""1"",""1440""
","
","""event"",""trial"",""time""
""focus"",""0"",""1""
","""event"",""trial"",""time""
""fullscreenenter"",""1"",""1440""
","
","","","551","","","23","6214","783","p","elianto","#3366ff99","-1"," ","0","0","[1405]","1","2","","","6214","83","4","2","win","no-go","0"
"pit-trial","205","1299267","0.0-88.0","battery-v0.2","","""event"",""trial"",""time""
""focus"",""0"",""1""
""fullscreenenter"",""1"",""1440""
","
","""event"",""trial"",""time""
""focus"",""0"",""1""
","""event"",""trial"",""time""
""fullscreenenter"",""1"",""1440""
","
","","","1547","","","23","6214","783","s","elianto","#3366ff99"," "," ","1","+10","[2406]","1","2","","","6214","84","5","1","win","go","0"
"pit-trial","206","1304133","0.0-89.0","battery-v0.2","","""event"",""trial"",""time""
""focus"",""0"",""1""
""fullscreenenter"",""1"",""1440""
","
","""event"",""trial"",""time""
""focus"",""0"",""1""
","""event"",""trial"",""time""
""fullscreenenter"",""1"",""1440""
","
","","","-1","","","23","6214","783","w","elianto","#f73b6a7A","-1","-1","1","-10","[]","0","2","","","6214","85","6","4","lose","no-go","1"
"pit-trial","207","1307562","0.0-90.0","battery-v0.2","","""event"",""trial"",""time""
""focus"",""0"",""1""
""fullscreenenter"",""1"",""1440""
","
","""event"",""trial"",""time""
""focus"",""0"",""1""
","""event"",""trial"",""time""
""fullscreenenter"",""1"",""1440""
","
","","","556","","","23","6214","783","p","elianto","#3366ff99","-1"," ","0","0","[1414]","1","2","","","6214","86","4","2","win","no-go","0"
"pit-trial","208","1312432","0.0-91.0","battery-v0.2","","""event"",""trial"",""time""
""focus"",""0"",""1""
""fullscreenenter"",""1"",""1440""
","
","""event"",""trial"",""time""
""focus"",""0"",""1""
","""event"",""trial"",""time""
""fullscreenenter"",""1"",""1440""
","
","","","-1","","","23","6214","783","e","elianto","#f73b6a7A"," ","-1","0","-10","[]","0","2","","","6214","87","7","3","lose","go","0"
"pit-trial","209","1316440","0.0-92.0","battery-v0.2","","""event"",""trial"",""time""
""focus"",""0"",""1""
""fullscreenenter"",""1"",""1440""
","
","""event"",""trial"",""time""
""focus"",""0"",""1""
","""event"",""trial"",""time""
""fullscreenenter"",""1"",""1440""
","
","","","1135","","","23","6214","783","s","elianto","#3366ff99"," "," ","1","+10","[2001]","1","2","","","6214","88","5","1","win","go","0"
"pit-trial","210","1321300","0.0-93.0","battery-v0.2","","""event"",""trial"",""time""
""focus"",""0"",""1""
""fullscreenenter"",""1"",""1440""
","
","""event"",""trial"",""time""
""focus"",""0"",""1""
","""event"",""trial"",""time""
""fullscreenenter"",""1"",""1440""
","
","","","-1","","","23","6214","783","e","elianto","#f73b6a7A"," ","-1","0","-10","[]","0","2","","","6214","89","7","3","lose","go","0"
"pit-trial","211","1324664","0.0-94.0","battery-v0.2","","""event"",""trial"",""time""
""focus"",""0"",""1""
""fullscreenenter"",""1"",""1440""
","
","""event"",""trial"",""time""
""focus"",""0"",""1""
","""event"",""trial"",""time""
""fullscreenenter"",""1"",""1440""
","
","","","505","","","23","6214","783","s","elianto","#3366ff99"," "," ","1","+10","[1358]","1","2","","","6214","90","5","1","win","go","0"
"pit-trial","212","1329540","0.0-95.0","battery-v0.2","","""event"",""trial"",""time""
""focus"",""0"",""1""
""fullscreenenter"",""1"",""1440""
","
","""event"",""trial"",""time""
""focus"",""0"",""1""
","""event"",""trial"",""time""
""fullscreenenter"",""1"",""1440""
","
","","","-1","","","23","6214","783","w","elianto","#f73b6a7A","-1","-1","1","0","[]","0","2","","","6214","91","6","4","lose","no-go","0"
"pit-trial","213","1332921","0.0-96.0","battery-v0.2","","""event"",""trial"",""time""
""focus"",""0"",""1""
""fullscreenenter"",""1"",""1440""
","
","""event"",""trial"",""time""
""focus"",""0"",""1""
","""event"",""trial"",""time""
""fullscreenenter"",""1"",""1440""
","
","","","519","","","23","6214","783","p","elianto","#3366ff99","-1"," ","0","0","[1373]","1","2","","","6214","92","4","2","win","no-go","0"
"pit-trial","214","1337785","0.0-97.0","battery-v0.2","","""event"",""trial"",""time""
""focus"",""0"",""1""
""fullscreenenter"",""1"",""1440""
","
","""event"",""trial"",""time""
""focus"",""0"",""1""
","""event"",""trial"",""time""
""fullscreenenter"",""1"",""1440""
","
","","","-1","","","23","6214","783","e","elianto","#f73b6a7A"," ","-1","0","0","[]","0","2","","","6214","93","7","3","lose","go","1"
"pit-trial","215","1342653","0.0-98.0","battery-v0.2","","""event"",""trial"",""time""
""focus"",""0"",""1""
""fullscreenenter"",""1"",""1440""
","
","""event"",""trial"",""time""
""focus"",""0"",""1""
","""event"",""trial"",""time""
""fullscreenenter"",""1"",""1440""
","
","","","-1","","","23","6214","783","w","elianto","#f73b6a7A","-1","-1","1","0","[]","0","2","","","6214","94","6","4","lose","no-go","0"
"pit-trial","216","1346029","0.0-99.0","battery-v0.2","","""event"",""trial"",""time""
""focus"",""0"",""1""
""fullscreenenter"",""1"",""1440""
","
","""event"",""trial"",""time""
""focus"",""0"",""1""
","""event"",""trial"",""time""
""fullscreenenter"",""1"",""1440""
","
","","","514","","","23","6214","783","s","elianto","#3366ff99"," "," ","1","+10","[1366]","1","2","","","6214","95","5","1","win","go","0"
"pit-trial","217","1349543","0.0-100.0","battery-v0.2","","""event"",""trial"",""time""
""focus"",""0"",""1""
""fullscreenenter"",""1"",""1440""
","
","""event"",""trial"",""time""
""focus"",""0"",""1""
","""event"",""trial"",""time""
""fullscreenenter"",""1"",""1440""
","
","","","643","","","23","6214","783","d","elianto","#3366ff99","-1"," ","0","0","[1509]","1","2","","","6214","96","8","2","win","no-go","0"
"pit-trial","218","1354414","0.0-101.0","battery-v0.2","","""event"",""trial"",""time""
""focus"",""0"",""1""
""fullscreenenter"",""1"",""1440""
","
","""event"",""trial"",""time""
""focus"",""0"",""1""
","""event"",""trial"",""time""
""fullscreenenter"",""1"",""1440""
","
","","","-1","","","23","6214","783","e","elianto","#f73b6a7A"," ","-1","0","-10","[]","0","2","","","6214","97","7","3","lose","go","0"
"pit-trial","219","1357769","0.0-102.0","battery-v0.2","","""event"",""trial"",""time""
""focus"",""0"",""1""
""fullscreenenter"",""1"",""1440""
","
","""event"",""trial"",""time""
""focus"",""0"",""1""
","""event"",""trial"",""time""
""fullscreenenter"",""1"",""1440""
","
","","","471","","","23","6214","783","s","elianto","#3366ff99"," "," ","1","+10","[1339]","1","2","","","6214","98","5","1","win","go","0"
"pit-trial","220","1362643","0.0-103.0","battery-v0.2","","""event"",""trial"",""time""
""focus"",""0"",""1""
""fullscreenenter"",""1"",""1440""
","
","""event"",""trial"",""time""
""focus"",""0"",""1""
","""event"",""trial"",""time""
""fullscreenenter"",""1"",""1440""
","
","","","-1","","","23","6214","783","w","elianto","#f73b6a7A","-1","-1","1","0","[]","0","2","","","6214","99","6","4","lose","no-go","0"
"pit-trial","221","1366029","0.0-104.0","battery-v0.2","","""event"",""trial"",""time""
""focus"",""0"",""1""
""fullscreenenter"",""1"",""1440""
","
","""event"",""trial"",""time""
""focus"",""0"",""1""
","""event"",""trial"",""time""
""fullscreenenter"",""1"",""1440""
","
","","","513","","","23","6214","783","d","elianto","#3366ff99","-1"," ","0","0","[1368]","1","2","","","6214","100","8","2","win","no-go","0"
"pit-trial","222","1369384","0.0-105.0","battery-v0.2","","""event"",""trial"",""time""
""focus"",""0"",""1""
""fullscreenenter"",""1"",""1440""
","
","""event"",""trial"",""time""
""focus"",""0"",""1""
","""event"",""trial"",""time""
""fullscreenenter"",""1"",""1440""
","
","","","491","","","23","6214","783","s","elianto","#3366ff99"," "," ","1","0","[1353]","1","2","","","6214","101","5","1","win","go","1"
"pit-trial","223","1372820","0.0-106.0","battery-v0.2","","""event"",""trial"",""time""
""focus"",""0"",""1""
""fullscreenenter"",""1"",""1440""
","
","""event"",""trial"",""time""
""focus"",""0"",""1""
","""event"",""trial"",""time""
""fullscreenenter"",""1"",""1440""
","
","","","565","","","23","6214","783","d","elianto","#3366ff99","-1"," ","0","0","[1430]","1","2","","","6214","102","8","2","win","no-go","0"
"pit-trial","224","1377699","0.0-107.0","battery-v0.2","","""event"",""trial"",""time""
""focus"",""0"",""1""
""fullscreenenter"",""1"",""1440""
","
","""event"",""trial"",""time""
""focus"",""0"",""1""
","""event"",""trial"",""time""
""fullscreenenter"",""1"",""1440""
","
","","","-1","","","23","6214","783","w","elianto","#f73b6a7A","-1","-1","1","0","[]","0","2","","","6214","103","6","4","lose","no-go","0"
"pit-trial","225","1381754","0.0-108.0","battery-v0.2","","""event"",""trial"",""time""
""focus"",""0"",""1""
""fullscreenenter"",""1"",""1440""
","
","""event"",""trial"",""time""
""focus"",""0"",""1""
","""event"",""trial"",""time""
""fullscreenenter"",""1"",""1440""
","
","","","1189","","","23","6214","783","j","elianto","#3366ff99","-1"," ","0","0","[2041]","1","2","","","6214","104","9","2","win","no-go","0"
"pit-trial","226","1386614","0.0-109.0","battery-v0.2","","""event"",""trial"",""time""
""focus"",""0"",""1""
""fullscreenenter"",""1"",""1440""
","
","""event"",""trial"",""time""
""focus"",""0"",""1""
","""event"",""trial"",""time""
""fullscreenenter"",""1"",""1440""
","
","","","-1","","","23","6214","783","w","elianto","#f73b6a7A","-1","-1","1","0","[]","0","2","","","6214","105","6","4","lose","no-go","0"
"pit-trial","227","1389949","0.0-110.0","battery-v0.2","","""event"",""trial"",""time""
""focus"",""0"",""1""
""fullscreenenter"",""1"",""1440""
","
","""event"",""trial"",""time""
""focus"",""0"",""1""
","""event"",""trial"",""time""
""fullscreenenter"",""1"",""1440""
","
","","","459","","","23","6214","783","d","elianto","#3366ff99","-1"," ","0","0","[1314]","1","2","","","6214","106","8","2","win","no-go","0"
"pit-trial","228","1393249","0.0-111.0","battery-v0.2","","""event"",""trial"",""time""
""focus"",""0"",""1""
""fullscreenenter"",""1"",""1440""
","
","""event"",""trial"",""time""
""focus"",""0"",""1""
","""event"",""trial"",""time""
""fullscreenenter"",""1"",""1440""
","
","","","440","","","23","6214","783","s","elianto","#3366ff99"," "," ","1","+10","[1296]","1","2","","","6214","107","5","1","win","go","0"
"pit-trial","229","1396669","0.0-112.0","battery-v0.2","","""event"",""trial"",""time""
""focus"",""0"",""1""
""fullscreenenter"",""1"",""1440""
","
","""event"",""trial"",""time""
""focus"",""0"",""1""
","""event"",""trial"",""time""
""fullscreenenter"",""1"",""1440""
","
","","","552","","","23","6214","783","j","elianto","#3366ff99","-1"," ","0","+10","[1410]","1","2","","","6214","108","9","2","win","no-go","1"
"pit-trial","230","1401560","0.0-113.0","battery-v0.2","","""event"",""trial"",""time""
""focus"",""0"",""1""
""fullscreenenter"",""1"",""1440""
","
","""event"",""trial"",""time""
""focus"",""0"",""1""
","""event"",""trial"",""time""
""fullscreenenter"",""1"",""1440""
","
","","","-1","","","23","6214","783","w","elianto","#f73b6a7A","-1","-1","1","-10","[]","0","2","","","6214","109","6","4","lose","no-go","1"
"pit-trial","231","1405070","0.0-114.0","battery-v0.2","","""event"",""trial"",""time""
""focus"",""0"",""1""
""fullscreenenter"",""1"",""1440""
","
","""event"",""trial"",""time""
""focus"",""0"",""1""
","""event"",""trial"",""time""
""fullscreenenter"",""1"",""1440""
","
