"trial_type","trial_index","time_elapsed","internal_node_id","task_version","subject_id","interactions","blur_events","focus_events","fullscreenenter_events","fullscreenexit_events","success","view_history","rt","responses","num_errors","age","subject","participantId","rune","rune_set","hex","correct","choice","accuracy","outcome","keys","total_keys","block","practice","value","sub","trial","stimulus","robot","valence","action","sham"
"pavlovia","0","8","0.0-0.0","battery-v0.2","","""event"",""trial"",""time""
""fullscreenenter"",""1"",""1623""
","
","
","""event"",""trial"",""time""
""fullscreenenter"",""1"",""1623""
","
","","","","","","","","","","","","","","","","","","","","","","","","","","",""
"fullscreen","1","2613","0.0-1.0","battery-v0.2","","""event"",""trial"",""time""
""fullscreenenter"",""1"",""1623""
","
","
","""event"",""trial"",""time""
""fullscreenenter"",""1"",""1623""
","
","true","","","","","","","","","","","","","","","","","","","","","","","","","",""
"pit-instructions","2","9140","0.0-2.0-0.0","battery-v0.2","","""event"",""trial"",""time""
""fullscreenenter"",""1"",""1623""
","
","
","""event"",""trial"",""time""
""fullscreenenter"",""1"",""1623""
","
","","[{""page_index"":0,""viewing_time"":6518.400000035763}]","6519.700000047684","","","","","","","","","","","","","","","","","","","","","","","",""
"pit-comprehension","3","11098","0.0-2.0-1.0-0.0","battery-v0.2","","""event"",""trial"",""time""
""fullscreenenter"",""1"",""1623""
","
","
","""event"",""trial"",""time""
""fullscreenenter"",""1"",""1623""
","
","","","1948.300000011921","[""shark""]","0","16","10987","1188","","","","","","","","","","","","","","","","","","",""
"pit-instructions","4","12279","0.0-2.0-1.0-1.0","battery-v0.2","","""event"",""trial"",""time""
""fullscreenenter"",""1"",""1623""
","
","
","""event"",""trial"",""time""
""fullscreenenter"",""1"",""1623""
","
","","[{""page_index"":0,""viewing_time"":1169.800000011921}]","1170","","","","","","","","","","","","","","","","","","","","","","","",""
"pit-comprehension","5","14046","0.0-2.0-2.0-0.0","battery-v0.2","","""event"",""trial"",""time""
""fullscreenenter"",""1"",""1623""
","
","
","""event"",""trial"",""time""
""fullscreenenter"",""1"",""1623""
","
","","","1763.800000011921","[""tiger""]","0","16","10987","1188","","","","","","","","","","","","","","","","","","",""
"pit-instructions","6","14538","0.0-2.0-2.0-1.0","battery-v0.2","","""event"",""trial"",""time""
""fullscreenenter"",""1"",""1623""
","
","
","""event"",""trial"",""time""
""fullscreenenter"",""1"",""1623""
","
","","[{""page_index"":0,""viewing_time"":487.5999999642372}]","488.5","","","","","","","","","","","","","","","","","","","","","","","",""
"pit-instructions","7","120154","0.0-2.0-3.0","battery-v0.2","","""event"",""trial"",""time""
""fullscreenenter"",""1"",""1623""
","
","
","""event"",""trial"",""time""
""fullscreenenter"",""1"",""1623""
","
","","[{""page_index"":0,""viewing_time"":10577.199999988079},{""page_index"":1,""viewing_time"":7608.5},{""page_index"":2,""viewing_time"":7557.600000023842},{""page_index"":3,""viewing_time"":6232.599999964237},{""page_index"":4,""viewing_time"":7548.699999988079},{""page_index"":5,""viewing_time"":6760.900000035763},{""page_index"":6,""viewing_time"":7942.899999976158},{""page_index"":7,""viewing_time"":7042.600000023842},{""page_index"":8,""viewing_time"":6291.5},{""page_index"":9,""viewing_time"":9001.599999964237},{""page_index"":10,""viewing_time"":7506.800000011921},{""page_index"":11,""viewing_time"":7525.100000023842},{""page_index"":12,""viewing_time"":6524.399999976158},{""page_index"":13,""viewing_time"":7487.100000023842}]","105608.59999996424","","","","","","","","","","","","","","","","","","","","","","","",""
"pit-trial","8","123390","0.0-2.0-4.0-0.0","battery-v0.2","","""event"",""trial"",""time""
""fullscreenenter"",""1"",""1623""
","
","
","""event"",""trial"",""time""
""fullscreenenter"",""1"",""1623""
","
","","","378","","","16","10987","1188","&#9784;","elianto","#FFFFF080"," "," ","1","&#10004","[1228.3999999761581]","1","0","0","","","","","","","",""
"pit-trial","9","126641","0.0-2.0-4.1-0.1","battery-v0.2","","""event"",""trial"",""time""
""fullscreenenter"",""1"",""1623""
","
","
","""event"",""trial"",""time""
""fullscreenenter"",""1"",""1623""
","
","","","389","","","16","10987","1188","&#9784;","elianto","#FFFFF080"," "," ","1","&#10004","[1241.9000000357628,1799.6000000238419,2726.400000035763,2901.7000000476837]","4","0","0","","","","","","","",""
"pit-trial","10","129882","0.0-2.0-4.2-0.2","battery-v0.2","","""event"",""trial"",""time""
""fullscreenenter"",""1"",""1623""
","
","
","""event"",""trial"",""time""
""fullscreenenter"",""1"",""1623""
","
","","","385","","","16","10987","1188","&#9784;","elianto","#FFFFF080"," "," ","1","&#10004","[1235.199999988079]","1","0","0","","","","","","","",""
"pit-trial","11","133275","0.0-2.0-4.3-0.3","battery-v0.2","","""event"",""trial"",""time""
""fullscreenenter"",""1"",""1623""
","
","
","""event"",""trial"",""time""
""fullscreenenter"",""1"",""1623""
","
","","","536","","","16","10987","1188","&#9784;","elianto","#FFFFF080"," "," ","1","&#10004","[1386.0999999642372]","1","0","0","","","","","","","",""
"pit-trial","12","136915","0.0-2.0-4.4-0.4","battery-v0.2","","""event"",""trial"",""time""
""fullscreenenter"",""1"",""1623""
","
","
","""event"",""trial"",""time""
""fullscreenenter"",""1"",""1623""
","
","","","785.3999999761581","","","16","10987","1188","&#9784;","elianto","#FFFFF080"," "," ","1","&#10004","[1635.5999999642372]","1","0","0","","","","","","","",""
"pit-instructions","13","164873","0.0-2.0-5.0","battery-v0.2","","""event"",""trial"",""time""
""fullscreenenter"",""1"",""1623""
","
","
","""event"",""trial"",""time""
""fullscreenenter"",""1"",""1623""
","
","","[{""page_index"":0,""viewing_time"":12401.399999976158},{""page_index"":1,""viewing_time"":5873.5},{""page_index"":2,""viewing_time"":4185.900000035763},{""page_index"":3,""viewing_time"":5488.699999988079}]","27950.399999976158","","","","","","","","","","","","","","","","","","","","","","","",""
"pit-trial","14","169729","0.0-2.0-6.0-0.0","battery-v0.2","","""event"",""trial"",""time""
""fullscreenenter"",""1"",""1623""
","
","
","""event"",""trial"",""time""
""fullscreenenter"",""1"",""1623""
","
","","","-1","","","16","10987","1188","&#9854;","elianto","#FFFFF080","-1","-1","1","&#10004","[]","0","0","1","","","","","","","",""
"pit-trial","15","174586","0.0-2.0-6.1-0.1","battery-v0.2","","""event"",""trial"",""time""
""fullscreenenter"",""1"",""1623""
","
","
","""event"",""trial"",""time""
""fullscreenenter"",""1"",""1623""
","
","","","-1","","","16","10987","1188","&#9854;","elianto","#FFFFF080","-1","-1","1","&#10004","[]","0","0","1","","","","","","","",""
"pit-trial","16","179440","0.0-2.0-6.2-0.2","battery-v0.2","","""event"",""trial"",""time""
""fullscreenenter"",""1"",""1623""
","
","
","""event"",""trial"",""time""
""fullscreenenter"",""1"",""1623""
","
","","","-1","","","16","10987","1188","&#9854;","elianto","#FFFFF080","-1","-1","1","&#10004","[]","0","0","1","","","","","","","",""
"pit-trial","17","184296","0.0-2.0-6.3-0.3","battery-v0.2","","""event"",""trial"",""time""
""fullscreenenter"",""1"",""1623""
","
","
","""event"",""trial"",""time""
""fullscreenenter"",""1"",""1623""
","
","","","-1","","","16","10987","1188","&#9854;","elianto","#FFFFF080","-1","-1","1","&#10004","[]","0","0","1","","","","","","","",""
"pit-trial","18","189154","0.0-2.0-6.4-0.4","battery-v0.2","","""event"",""trial"",""time""
""fullscreenenter"",""1"",""1623""
","
","
","""event"",""trial"",""time""
""fullscreenenter"",""1"",""1623""
","
","","","-1","","","16","10987","1188","&#9854;","elianto","#FFFFF080","-1","-1","1","&#10004","[]","0","0","1","","","","","","","",""
"pit-instructions","19","449269","0.0-2.0-7.0","battery-v0.2","","""event"",""trial"",""time""
""fullscreenenter"",""1"",""1623""
","
","
","""event"",""trial"",""time""
""fullscreenenter"",""1"",""1623""
","
","","[{""page_index"":0,""viewing_time"":5847.600000023842},{""page_index"":1,""viewing_time"":6620},{""page_index"":2,""viewing_time"":6694.5},{""page_index"":3,""viewing_time"":12303.299999952316},{""page_index"":4,""viewing_time"":27834.600000023842},{""page_index"":5,""viewing_time"":13249.399999976158},{""page_index"":6,""viewing_time"":19283.400000035763},{""page_index"":7,""viewing_time"":11537.300000011921},{""page_index"":8,""viewing_time"":45504.59999996424},{""page_index"":9,""viewing_time"":10334.800000011921},{""page_index"":10,""viewing_time"":9111.699999988079},{""page_index"":11,""viewing_time"":8950.300000011921},{""page_index"":12,""viewing_time"":15070.800000011921},{""page_index"":13,""viewing_time"":25533.399999976158},{""page_index"":14,""viewing_time"":17950.80000001192},{""page_index"":15,""viewing_time"":9552.300000011921},{""page_index"":16,""viewing_time"":7042.800000011921},{""page_index"":17,""viewing_time"":7687.399999976158}]","260109.89999997616","","","","","","","","","","","","","","","","","","","","","","","",""
"pit-trial","20","452523","0.0-2.0-8.0-0.0","battery-v0.2","","""event"",""trial"",""time""
""fullscreenenter"",""1"",""1623""
","
","
","""event"",""trial"",""time""
""fullscreenenter"",""1"",""1623""
","
","","","398.89999997615814","","","16","10987","1188","&#9776;","elianto","#3366ff99"," "," ","1","+10","[1249]","1","0","1","","","","","","","",""
"pit-trial","21","455618","0.0-2.0-8.0-1.0","battery-v0.2","","""event"",""trial"",""time""
""fullscreenenter"",""1"",""1623""
","
","
","""event"",""trial"",""time""
""fullscreenenter"",""1"",""1623""
","
","","","241.80000001192093","","","16","10987","1188","&#9776;","elianto","#3366ff99"," "," ","1","+10","[1091.9000000357628]","1","0","1","","","","","","","",""
"pit-trial","22","458943","0.0-2.0-8.0-2.0","battery-v0.2","","""event"",""trial"",""time""
""fullscreenenter"",""1"",""1623""
","
","
","""event"",""trial"",""time""
""fullscreenenter"",""1"",""1623""
","
","","","469.9000000357628","","","16","10987","1188","&#9776;","elianto","#3366ff99"," "," ","1","+10","[1319.9000000357628]","1","0","1","","","","","","","",""
"pit-trial","23","462223","0.0-2.0-8.0-3.0","battery-v0.2","","""event"",""trial"",""time""
""fullscreenenter"",""1"",""1623""
","
","
","""event"",""trial"",""time""
""fullscreenenter"",""1"",""1623""
","
","","","423.5","","","16","10987","1188","&#9776;","elianto","#3366ff99"," "," ","1","0","[1274.5]","1","0","1","","","","","","","",""
"pit-trial","24","465517","0.0-2.0-8.0-4.0","battery-v0.2","","""event"",""trial"",""time""
""fullscreenenter"",""1"",""1623""
","
","
","""event"",""trial"",""time""
""fullscreenenter"",""1"",""1623""
","
","","","439.89999997615814","","","16","10987","1188","&#9776;","elianto","#3366ff99"," "," ","1","+10","[1290.199999988079]","1","0","1","","","","","","","",""
"pit-trial","25","468772","0.0-2.0-8.1-0.1","battery-v0.2","","""event"",""trial"",""time""
""fullscreenenter"",""1"",""1623""
","
","
","""event"",""trial"",""time""
""fullscreenenter"",""1"",""1623""
","
","","","397.5","","","16","10987","1188","&#9776;","elianto","#3366ff99"," "," ","1","+10","[1247.800000011921]","1","0","1","","","","","","","",""
"pit-trial","26","472016","0.0-2.0-8.1-1.1","battery-v0.2","","""event"",""trial"",""time""
""fullscreenenter"",""1"",""1623""
","
","
","""event"",""trial"",""time""
""fullscreenenter"",""1"",""1623""
","
","","","388.30000001192093","","","16","10987","1188","&#9776;","elianto","#3366ff99"," "," ","1","+10","[1238.699999988079]","1","0","1","","","","","","","",""
"pit-trial","27","475247","0.0-2.0-8.1-2.1","battery-v0.2","","""event"",""trial"",""time""
""fullscreenenter"",""1"",""1623""
","
","
","""event"",""trial"",""time""
""fullscreenenter"",""1"",""1623""
","
","","","376","","","16","10987","1188","&#9776;","elianto","#3366ff99"," "," ","1","+10","[1226.300000011921]","1","0","1","","","","","","","",""
"pit-trial","28","478279","0.0-2.0-8.1-3.1","battery-v0.2","","""event"",""trial"",""time""
""fullscreenenter"",""1"",""1623""
","
","
","""event"",""trial"",""time""
""fullscreenenter"",""1"",""1623""
","
","","","176.89999997615814","","","16","10987","1188","&#9776;","elianto","#3366ff99"," "," ","1","0","[1027]","1","0","1","","","","","","","",""
"pit-trial","29","481351","0.0-2.0-8.1-4.1","battery-v0.2","","""event"",""trial"",""time""
""fullscreenenter"",""1"",""1623""
","
","
","""event"",""trial"",""time""
""fullscreenenter"",""1"",""1623""
","
","","","219.5","","","16","10987","1188","&#9776;","elianto","#3366ff99"," "," ","1","+10","[1069.6000000238419]","1","0","1","","","","","","","",""
"pit-trial","30","484611","0.0-2.0-8.2-0.2","battery-v0.2","","""event"",""trial"",""time""
""fullscreenenter"",""1"",""1623""
","
","
","""event"",""trial"",""time""
""fullscreenenter"",""1"",""1623""
","
","","","404.5999999642372","","","16","10987","1188","&#9776;","elianto","#3366ff99"," "," ","1","+10","[1254.7000000476837]","1","0","1","","","","","","","",""
"pit-trial","31","487886","0.0-2.0-8.2-1.2","battery-v0.2","","""event"",""trial"",""time""
""fullscreenenter"",""1"",""1623""
","
","
","""event"",""trial"",""time""
""fullscreenenter"",""1"",""1623""
","
","","","419.89999997615814","","","16","10987","1188","&#9776;","elianto","#3366ff99"," "," ","1","+10","[1269.9000000357628]","1","0","1","","","","","","","",""
"pit-trial","32","491233","0.0-2.0-8.2-2.2","battery-v0.2","","""event"",""trial"",""time""
""fullscreenenter"",""1"",""1623""
","
","
","""event"",""trial"",""time""
""fullscreenenter"",""1"",""1623""
","
","","","491.7000000476837","","","16","10987","1188","&#9776;","elianto","#3366ff99"," "," ","1","+10","[1341.699999988079]","1","0","1","","","","","","","",""
"pit-trial","33","494513","0.0-2.0-8.2-3.2","battery-v0.2","","""event"",""trial"",""time""
""fullscreenenter"",""1"",""1623""
","
","
","""event"",""trial"",""time""
""fullscreenenter"",""1"",""1623""
","
","","","424.4000000357628","","","16","10987","1188","&#9776;","elianto","#3366ff99"," "," ","1","0","[1274.5999999642372]","1","0","1","","","","","","","",""
"pit-trial","34","497788","0.0-2.0-8.2-4.2","battery-v0.2","","""event"",""trial"",""time""
""fullscreenenter"",""1"",""1623""
","
","
","""event"",""trial"",""time""
""fullscreenenter"",""1"",""1623""
","
","","","419.80000001192093","","","16","10987","1188","&#9776;","elianto","#3366ff99"," "," ","1","+10","[1269.8999999761581]","1","0","1","","","","","","","",""
"call-function","35","497792","0.0-2.0-9.0","battery-v0.2","","""event"",""trial"",""time""
""fullscreenenter"",""1"",""1623""
","
","
","""event"",""trial"",""time""
""fullscreenenter"",""1"",""1623""
","
","","","","","","","","","","","","","","","","","","","","","","","","","","",""
"pit-instructions","36","539199","0.0-2.0-10.0","battery-v0.2","","""event"",""trial"",""time""
""fullscreenenter"",""1"",""1623""
","
","
","""event"",""trial"",""time""
""fullscreenenter"",""1"",""1623""
","
","","[{""page_index"":0,""viewing_time"":6870.699999988079},{""page_index"":1,""viewing_time"":7104.099999964237},{""page_index"":2,""viewing_time"":9401.800000011921},{""page_index"":3,""viewing_time"":10583.5},{""page_index"":4,""viewing_time"":7445.400000035763}]","41406.5","","","","","","","","","","","","","","","","","","","","","","","",""
"pit-trial","37","542279","0.0-2.0-11.0-0.0","battery-v0.2","","""event"",""trial"",""time""
""fullscreenenter"",""1"",""1623""
","
","
","""event"",""trial"",""time""
""fullscreenenter"",""1"",""1623""
","
","","","226.20000004768372","","","16","10987","1188","&#9761;","elianto","#3366ff99","-1"," ","0","0","[1076.7000000476837]","1","0","2","","","","","","","",""
"pit-trial","38","545295","0.0-2.0-11.0-1.0","battery-v0.2","","""event"",""trial"",""time""
""fullscreenenter"",""1"",""1623""
","
","
","""event"",""trial"",""time""
""fullscreenenter"",""1"",""1623""
","
","","","161.30000001192093","","","16","10987","1188","&#9761;","elianto","#3366ff99","-1"," ","0","0","[1011.4000000357628]","1","0","2","","","","","","","",""
"pit-trial","39","550148","0.0-2.0-11.0-2.0","battery-v0.2","","""event"",""trial"",""time""
""fullscreenenter"",""1"",""1623""
","
","
","""event"",""trial"",""time""
""fullscreenenter"",""1"",""1623""
","
","","","-1","","","16","10987","1188","&#9761;","elianto","#3366ff99","-1","-1","1","+10","[]","0","0","2","","","","","","","",""
"pit-trial","40","555003","0.0-2.0-11.0-3.0","battery-v0.2","","""event"",""trial"",""time""
""fullscreenenter"",""1"",""1623""
","
","
","""event"",""trial"",""time""
""fullscreenenter"",""1"",""1623""
","
","","","-1","","","16","10987","1188","&#9761;","elianto","#3366ff99","-1","-1","1","0","[]","0","0","2","","","","","","","",""
"pit-trial","41","559858","0.0-2.0-11.0-4.0","battery-v0.2","","""event"",""trial"",""time""
""fullscreenenter"",""1"",""1623""
","
","
","""event"",""trial"",""time""
""fullscreenenter"",""1"",""1623""
","
","","","-1","","","16","10987","1188","&#9761;","elianto","#3366ff99","-1","-1","1","+10","[]","0","0","2","","","","","","","",""
"pit-trial","42","564714","0.0-2.0-11.1-0.1","battery-v0.2","","""event"",""trial"",""time""
""fullscreenenter"",""1"",""1623""
","
","
","""event"",""trial"",""time""
""fullscreenenter"",""1"",""1623""
","
","","","-1","","","16","10987","1188","&#9761;","elianto","#3366ff99","-1","-1","1","+10","[]","0","0","2","","","","","","","",""
"pit-trial","43","569570","0.0-2.0-11.1-1.1","battery-v0.2","","""event"",""trial"",""time""
""fullscreenenter"",""1"",""1623""
","
","
","""event"",""trial"",""time""
""fullscreenenter"",""1"",""1623""
","
","","","-1","","","16","10987","1188","&#9761;","elianto","#3366ff99","-1","-1","1","+10","[]","0","0","2","","","","","","","",""
"pit-trial","44","574425","0.0-2.0-11.1-2.1","battery-v0.2","","""event"",""trial"",""time""
""fullscreenenter"",""1"",""1623""
","
","
","""event"",""trial"",""time""
""fullscreenenter"",""1"",""1623""
","
","","","-1","","","16","10987","1188","&#9761;","elianto","#3366ff99","-1","-1","1","+10","[]","0","0","2","","","","","","","",""
"pit-trial","45","579281","0.0-2.0-11.1-3.1","battery-v0.2","","""event"",""trial"",""time""
""fullscreenenter"",""1"",""1623""
","
","
","""event"",""trial"",""time""
""fullscreenenter"",""1"",""1623""
","
","","","-1","","","16","10987","1188","&#9761;","elianto","#3366ff99","-1","-1","1","0","[]","0","0","2","","","","","","","",""
"pit-trial","46","584136","0.0-2.0-11.1-4.1","battery-v0.2","","""event"",""trial"",""time""
""fullscreenenter"",""1"",""1623""
","
","
","""event"",""trial"",""time""
""fullscreenenter"",""1"",""1623""
","
","","","-1","","","16","10987","1188","&#9761;","elianto","#3366ff99","-1","-1","1","+10","[]","0","0","2","","","","","","","",""
"pit-trial","47","588991","0.0-2.0-11.2-0.2","battery-v0.2","","""event"",""trial"",""time""
""fullscreenenter"",""1"",""1623""
","
","
","""event"",""trial"",""time""
""fullscreenenter"",""1"",""1623""
","
","","","-1","","","16","10987","1188","&#9761;","elianto","#3366ff99","-1","-1","1","+10","[]","0","0","2","","","","","","","",""
"pit-trial","48","593846","0.0-2.0-11.2-1.2","battery-v0.2","","""event"",""trial"",""time""
""fullscreenenter"",""1"",""1623""
","
","
","""event"",""trial"",""time""
""fullscreenenter"",""1"",""1623""
","
","","","-1","","","16","10987","1188","&#9761;","elianto","#3366ff99","-1","-1","1","+10","[]","0","0","2","","","","","","","",""
"pit-trial","49","598701","0.0-2.0-11.2-2.2","battery-v0.2","","""event"",""trial"",""time""
""fullscreenenter"",""1"",""1623""
","
","
","""event"",""trial"",""time""
""fullscreenenter"",""1"",""1623""
","
","","","-1","","","16","10987","1188","&#9761;","elianto","#3366ff99","-1","-1","1","+10","[]","0","0","2","","","","","","","",""
"pit-trial","50","603556","0.0-2.0-11.2-3.2","battery-v0.2","","""event"",""trial"",""time""
""fullscreenenter"",""1"",""1623""
","
","
","""event"",""trial"",""time""
""fullscreenenter"",""1"",""1623""
","
","","","-1","","","16","10987","1188","&#9761;","elianto","#3366ff99","-1","-1","1","0","[]","0","0","2","","","","","","","",""
"pit-trial","51","608412","0.0-2.0-11.2-4.2","battery-v0.2","","""event"",""trial"",""time""
""fullscreenenter"",""1"",""1623""
","
","
","""event"",""trial"",""time""
""fullscreenenter"",""1"",""1623""
","
","","","-1","","","16","10987","1188","&#9761;","elianto","#3366ff99","-1","-1","1","+10","[]","0","0","2","","","","","","","",""
"pit-trial","52","613268","0.0-2.0-11.3-0.3","battery-v0.2","","""event"",""trial"",""time""
""fullscreenenter"",""1"",""1623""
","
","
","""event"",""trial"",""time""
""fullscreenenter"",""1"",""1623""
","
","","","-1","","","16","10987","1188","&#9761;","elianto","#3366ff99","-1","-1","1","+10","[]","0","0","2","","","","","","","",""
"pit-trial","53","618123","0.0-2.0-11.3-1.3","battery-v0.2","","""event"",""trial"",""time""
""fullscreenenter"",""1"",""1623""
","
","
","""event"",""trial"",""time""
""fullscreenenter"",""1"",""1623""
","
","","","-1","","","16","10987","1188","&#9761;","elianto","#3366ff99","-1","-1","1","+10","[]","0","0","2","","","","","","","",""
"pit-trial","54","622978","0.0-2.0-11.3-2.3","battery-v0.2","","""event"",""trial"",""time""
""fullscreenenter"",""1"",""1623""
","
","
","""event"",""trial"",""time""
""fullscreenenter"",""1"",""1623""
","
","","","-1","","","16","10987","1188","&#9761;","elianto","#3366ff99","-1","-1","1","+10","[]","0","0","2","","","","","","","",""
"pit-trial","55","627832","0.0-2.0-11.3-3.3","battery-v0.2","","""event"",""trial"",""time""
""fullscreenenter"",""1"",""1623""
","
","
","""event"",""trial"",""time""
""fullscreenenter"",""1"",""1623""
","
","","","-1","","","16","10987","1188","&#9761;","elianto","#3366ff99","-1","-1","1","0","[]","0","0","2","","","","","","","",""
"pit-trial","56","632688","0.0-2.0-11.3-4.3","battery-v0.2","","""event"",""trial"",""time""
""fullscreenenter"",""1"",""1623""
","
","
","""event"",""trial"",""time""
""fullscreenenter"",""1"",""1623""
","
","","","-1","","","16","10987","1188","&#9761;","elianto","#3366ff99","-1","-1","1","+10","[]","0","0","2","","","","","","","",""
"call-function","57","632691","0.0-2.0-12.0","battery-v0.2","","""event"",""trial"",""time""
""fullscreenenter"",""1"",""1623""
","
","
","""event"",""trial"",""time""
""fullscreenenter"",""1"",""1623""
","
","","","","","","","","","","","","","","","","","","","","","","","","","","",""
"pit-instructions","58","669155","0.0-2.0-13.0","battery-v0.2","","""event"",""trial"",""time""
""fullscreenenter"",""1"",""1623""
","
","
","""event"",""trial"",""time""
""fullscreenenter"",""1"",""1623""
","
","","[{""page_index"":0,""viewing_time"":6686.100000023842},{""page_index"":1,""viewing_time"":8141.600000023842},{""page_index"":2,""viewing_time"":4501},{""page_index"":3,""viewing_time"":11058.699999988079},{""page_index"":4,""viewing_time"":6075.099999964237}]","36463.60000002384","","","","","","","","","","","","","","","","","","","","","","","",""
"pit-trial","59","672332","0.0-2.0-14.0-0.0","battery-v0.2","","""event"",""trial"",""time""
""fullscreenenter"",""1"",""1623""
","
","
","""event"",""trial"",""time""
""fullscreenenter"",""1"",""1623""
","
","","","321.7999999523163","","","16","10987","1188","&#9826;","elianto","#f73b6a7A","-1"," ","0","-10","[1172]","1","0","3","","","","","","","",""
"pit-trial","60","675435","0.0-2.0-14.0-1.0","battery-v0.2","","""event"",""trial"",""time""
""fullscreenenter"",""1"",""1623""
","
","
","""event"",""trial"",""time""
""fullscreenenter"",""1"",""1623""
","
","","","246.9000000357628","","","16","10987","1188","&#9826;","elianto","#f73b6a7A","-1"," ","0","-10","[1099.1000000238419]","1","0","3","","","","","","","",""
"pit-trial","61","680290","0.0-2.0-14.0-2.0","battery-v0.2","","""event"",""trial"",""time""
""fullscreenenter"",""1"",""1623""
","
","
","""event"",""trial"",""time""
""fullscreenenter"",""1"",""1623""
","
","","","-1","","","16","10987","1188","&#9826;","elianto","#f73b6a7A","-1","-1","1","0","[]","0","0","3","","","","","","","",""
"pit-trial","62","685145","0.0-2.0-14.0-3.0","battery-v0.2","","""event"",""trial"",""time""
""fullscreenenter"",""1"",""1623""
","
","
","""event"",""trial"",""time""
""fullscreenenter"",""1"",""1623""
","
","","","-1","","","16","10987","1188","&#9826;","elianto","#f73b6a7A","-1","-1","1","-10","[]","0","0","3","","","","","","","",""
"pit-trial","63","690001","0.0-2.0-14.0-4.0","battery-v0.2","","""event"",""trial"",""time""
""fullscreenenter"",""1"",""1623""
","
","
","""event"",""trial"",""time""
""fullscreenenter"",""1"",""1623""
","
","","","-1","","","16","10987","1188","&#9826;","elianto","#f73b6a7A","-1","-1","1","0","[]","0","0","3","","","","","","","",""
"pit-trial","64","694858","0.0-2.0-14.1-0.1","battery-v0.2","","""event"",""trial"",""time""
""fullscreenenter"",""1"",""1623""
","
","
","""event"",""trial"",""time""
""fullscreenenter"",""1"",""1623""
","
","","","-1","","","16","10987","1188","&#9826;","elianto","#f73b6a7A","-1","-1","1","0","[]","0","0","3","","","","","","","",""
"pit-trial","65","699714","0.0-2.0-14.1-1.1","battery-v0.2","","""event"",""trial"",""time""
""fullscreenenter"",""1"",""1623""
","
","
","""event"",""trial"",""time""
""fullscreenenter"",""1"",""1623""
","
","","","-1","","","16","10987","1188","&#9826;","elianto","#f73b6a7A","-1","-1","1","0","[]","0","0","3","","","","","","","",""
"pit-trial","66","704573","0.0-2.0-14.1-2.1","battery-v0.2","","""event"",""trial"",""time""
""fullscreenenter"",""1"",""1623""
","
","
","""event"",""trial"",""time""
""fullscreenenter"",""1"",""1623""
","
","","","-1","","","16","10987","1188","&#9826;","elianto","#f73b6a7A","-1","-1","1","0","[]","0","0","3","","","","","","","",""
"pit-trial","67","709428","0.0-2.0-14.1-3.1","battery-v0.2","","""event"",""trial"",""time""
""fullscreenenter"",""1"",""1623""
","
","
","""event"",""trial"",""time""
""fullscreenenter"",""1"",""1623""
","
","","","-1","","","16","10987","1188","&#9826;","elianto","#f73b6a7A","-1","-1","1","-10","[]","0","0","3","","","","","","","",""
"pit-trial","68","714283","0.0-2.0-14.1-4.1","battery-v0.2","","""event"",""trial"",""time""
""fullscreenenter"",""1"",""1623""
","
","
","""event"",""trial"",""time""
""fullscreenenter"",""1"",""1623""
","
","","","-1","","","16","10987","1188","&#9826;","elianto","#f73b6a7A","-1","-1","1","0","[]","0","0","3","","","","","","","",""
"pit-trial","69","719140","0.0-2.0-14.2-0.2","battery-v0.2","","""event"",""trial"",""time""
""fullscreenenter"",""1"",""1623""
","
","
","""event"",""trial"",""time""
""fullscreenenter"",""1"",""1623""
","
","","","-1","","","16","10987","1188","&#9826;","elianto","#f73b6a7A","-1","-1","1","0","[]","0","0","3","","","","","","","",""
"pit-trial","70","723995","0.0-2.0-14.2-1.2","battery-v0.2","","""event"",""trial"",""time""
""fullscreenenter"",""1"",""1623""
","
","
","""event"",""trial"",""time""
""fullscreenenter"",""1"",""1623""
","
","","","-1","","","16","10987","1188","&#9826;","elianto","#f73b6a7A","-1","-1","1","0","[]","0","0","3","","","","","","","",""
"pit-trial","71","728849","0.0-2.0-14.2-2.2","battery-v0.2","","""event"",""trial"",""time""
""fullscreenenter"",""1"",""1623""
","
","
","""event"",""trial"",""time""
""fullscreenenter"",""1"",""1623""
","
","","","-1","","","16","10987","1188","&#9826;","elianto","#f73b6a7A","-1","-1","1","0","[]","0","0","3","","","","","","","",""
"pit-trial","72","733704","0.0-2.0-14.2-3.2","battery-v0.2","","""event"",""trial"",""time""
""fullscreenenter"",""1"",""1623""
","
","
","""event"",""trial"",""time""
""fullscreenenter"",""1"",""1623""
","
","","","-1","","","16","10987","1188","&#9826;","elianto","#f73b6a7A","-1","-1","1","-10","[]","0","0","3","","","","","","","",""
"pit-trial","73","738560","0.0-2.0-14.2-4.2","battery-v0.2","","""event"",""trial"",""time""
""fullscreenenter"",""1"",""1623""
","
","
","""event"",""trial"",""time""
""fullscreenenter"",""1"",""1623""
","
","","","-1","","","16","10987","1188","&#9826;","elianto","#f73b6a7A","-1","-1","1","0","[]","0","0","3","","","","","","","",""
"pit-trial","74","743416","0.0-2.0-14.3-0.3","battery-v0.2","","""event"",""trial"",""time""
""fullscreenenter"",""1"",""1623""
","
","
","""event"",""trial"",""time""
""fullscreenenter"",""1"",""1623""
","
","","","-1","","","16","10987","1188","&#9826;","elianto","#f73b6a7A","-1","-1","1","0","[]","0","0","3","","","","","","","",""
"pit-trial","75","748271","0.0-2.0-14.3-1.3","battery-v0.2","","""event"",""trial"",""time""
""fullscreenenter"",""1"",""1623""
","
","
","""event"",""trial"",""time""
""fullscreenenter"",""1"",""1623""
","
","","","-1","","","16","10987","1188","&#9826;","elianto","#f73b6a7A","-1","-1","1","0","[]","0","0","3","","","","","","","",""
"pit-trial","76","753126","0.0-2.0-14.3-2.3","battery-v0.2","","""event"",""trial"",""time""
""fullscreenenter"",""1"",""1623""
","
","
","""event"",""trial"",""time""
""fullscreenenter"",""1"",""1623""
","
","","","-1","","","16","10987","1188","&#9826;","elianto","#f73b6a7A","-1","-1","1","0","[]","0","0","3","","","","","","","",""
"pit-trial","77","757981","0.0-2.0-14.3-3.3","battery-v0.2","","""event"",""trial"",""time""
""fullscreenenter"",""1"",""1623""
","
","
","""event"",""trial"",""time""
""fullscreenenter"",""1"",""1623""
","
","","","-1","","","16","10987","1188","&#9826;","elianto","#f73b6a7A","-1","-1","1","-10","[]","0","0","3","","","","","","","",""
"pit-trial","78","762836","0.0-2.0-14.3-4.3","battery-v0.2","","""event"",""trial"",""time""
""fullscreenenter"",""1"",""1623""
","
","
","""event"",""trial"",""time""
""fullscreenenter"",""1"",""1623""
","
","","","-1","","","16","10987","1188","&#9826;","elianto","#f73b6a7A","-1","-1","1","0","[]","0","0","3","","","","","","","",""
"call-function","79","762838","0.0-2.0-15.0","battery-v0.2","","""event"",""trial"",""time""
""fullscreenenter"",""1"",""1623""
","
","
","""event"",""trial"",""time""
""fullscreenenter"",""1"",""1623""
","
","","","","","","","","","","","","","","","","","","","","","","","","","","",""
"pit-instructions","80","789726","0.0-2.0-16.0","battery-v0.2","","""event"",""trial"",""time""
""fullscreenenter"",""1"",""1623""
","
","
","""event"",""trial"",""time""
""fullscreenenter"",""1"",""1623""
","
","","[{""page_index"":0,""viewing_time"":7348.599999964237},{""page_index"":1,""viewing_time"":8928.600000023842},{""page_index"":2,""viewing_time"":4987},{""page_index"":3,""viewing_time"":5621.5}]","26886.69999998808","","","","","","","","","","","","","","","","","","","","","","","",""
"pit-trial","81","792787","0.0-2.0-17.0-0.0","battery-v0.2","","""event"",""trial"",""time""
""fullscreenenter"",""1"",""1623""
","
","
","""event"",""trial"",""time""
""fullscreenenter"",""1"",""1623""
","
","","","205.69999998807907","","","16","10987","1188","&#9789;","elianto","#f73b6a7A"," "," ","1","0","[1058.199999988079]","1","0","4","","","","","","","",""
"pit-trial","82","796112","0.0-2.0-17.0-1.0","battery-v0.2","","""event"",""trial"",""time""
""fullscreenenter"",""1"",""1623""
","
","
","""event"",""trial"",""time""
""fullscreenenter"",""1"",""1623""
","
","","","469.39999997615814","","","16","10987","1188","&#9789;","elianto","#f73b6a7A"," "," ","1","0","[646,1319.6000000238419]","2","0","4","","","","","","","",""
"pit-trial","83","800966","0.0-2.0-17.0-2.0","battery-v0.2","","""event"",""trial"",""time""
""fullscreenenter"",""1"",""1623""
","
","
","""event"",""trial"",""time""
""fullscreenenter"",""1"",""1623""
","
","","","-1","","","16","10987","1188","&#9789;","elianto","#f73b6a7A"," ","-1","0","-10","[]","0","0","4","","","","","","","",""
"pit-trial","84","804081","0.0-2.0-17.0-3.0","battery-v0.2","","""event"",""trial"",""time""
""fullscreenenter"",""1"",""1623""
","
","
","""event"",""trial"",""time""
""fullscreenenter"",""1"",""1623""
","
","","","261","","","16","10987","1188","&#9789;","elianto","#f73b6a7A"," "," ","1","-10","[1111.2000000476837]","1","0","4","","","","","","","",""
"pit-trial","85","808106","0.0-2.0-17.0-4.0","battery-v0.2","","""event"",""trial"",""time""
""fullscreenenter"",""1"",""1623""
","
","
","""event"",""trial"",""time""
""fullscreenenter"",""1"",""1623""
","
","","","1169.800000011921","","","16","10987","1188","&#9789;","elianto","#f73b6a7A"," "," ","1","0","[844.4000000357628,2019.9000000357628]","2","0","4","","","","","","","",""
"pit-trial","86","811372","0.0-2.0-17.1-0.1","battery-v0.2","","""event"",""trial"",""time""
""fullscreenenter"",""1"",""1623""
","
","
","""event"",""trial"",""time""
""fullscreenenter"",""1"",""1623""
","
","","","407.39999997615814","","","16","10987","1188","&#9789;","elianto","#f73b6a7A"," "," ","1","0","[1260.4000000357628]","1","0","4","","","","","","","",""
"pit-trial","87","816226","0.0-2.0-17.1-1.1","battery-v0.2","","""event"",""trial"",""time""
""fullscreenenter"",""1"",""1623""
","
","
","""event"",""trial"",""time""
""fullscreenenter"",""1"",""1623""
","
","","","-1","","","16","10987","1188","&#9789;","elianto","#f73b6a7A"," ","-1","0","-10","[]","0","0","4","","","","","","","",""
"pit-trial","88","819481","0.0-2.0-17.1-2.1","battery-v0.2","","""event"",""trial"",""time""
""fullscreenenter"",""1"",""1623""
","
","
","""event"",""trial"",""time""
""fullscreenenter"",""1"",""1623""
","
","","","398.69999998807907","","","16","10987","1188","&#9789;","elianto","#f73b6a7A"," "," ","1","0","[1248.800000011921]","1","0","4","","","","","","","",""
"pit-trial","89","824337","0.0-2.0-17.1-3.1","battery-v0.2","","""event"",""trial"",""time""
""fullscreenenter"",""1"",""1623""
","
","
","""event"",""trial"",""time""
""fullscreenenter"",""1"",""1623""
","
","","","-1","","","16","10987","1188","&#9789;","elianto","#f73b6a7A"," ","-1","0","0","[]","0","0","4","","","","","","","",""
"pit-trial","90","829192","0.0-2.0-17.1-4.1","battery-v0.2","","""event"",""trial"",""time""
""fullscreenenter"",""1"",""1623""
","
","
","""event"",""trial"",""time""
""fullscreenenter"",""1"",""1623""
","
","","","-1","","","16","10987","1188","&#9789;","elianto","#f73b6a7A"," ","-1","0","-10","[]","0","0","4","","","","","","","",""
"pit-trial","91","832270","0.0-2.0-17.2-0.2","battery-v0.2","","""event"",""trial"",""time""
""fullscreenenter"",""1"",""1623""
","
","
","""event"",""trial"",""time""
""fullscreenenter"",""1"",""1623""
","
","","","223.39999997615814","","","16","10987","1188","&#9789;","elianto","#f73b6a7A"," "," ","1","0","[1073.6000000238419]","1","0","4","","","","","","","",""
"pit-trial","92","835578","0.0-2.0-17.2-1.2","battery-v0.2","","""event"",""trial"",""time""
""fullscreenenter"",""1"",""1623""
","
","
","""event"",""trial"",""time""
""fullscreenenter"",""1"",""1623""
","
","","","452.5999999642372","","","16","10987","1188","&#9789;","elianto","#f73b6a7A"," "," ","1","0","[1302.800000011921]","1","0","4","","","","","","","",""
"pit-trial","93","840433","0.0-2.0-17.2-2.2","battery-v0.2","","""event"",""trial"",""time""
""fullscreenenter"",""1"",""1623""
","
","
","""event"",""trial"",""time""
""fullscreenenter"",""1"",""1623""
","
","","","-1","","","16","10987","1188","&#9789;","elianto","#f73b6a7A"," ","-1","0","-10","[]","0","0","4","","","","","","","",""
"pit-trial","94","843734","0.0-2.0-17.2-3.2","battery-v0.2","","""event"",""trial"",""time""
""fullscreenenter"",""1"",""1623""
","
","
","""event"",""trial"",""time""
""fullscreenenter"",""1"",""1623""
","
","","","446.5","","","16","10987","1188","&#9789;","elianto","#f73b6a7A"," "," ","1","-10","[1296.199999988079]","1","0","4","","","","","","","",""
"pit-trial","95","847022","0.0-2.0-17.2-4.2","battery-v0.2","","""event"",""trial"",""time""
""fullscreenenter"",""1"",""1623""
","
","
","""event"",""trial"",""time""
""fullscreenenter"",""1"",""1623""
","
","","","434.5","","","16","10987","1188","&#9789;","elianto","#f73b6a7A"," "," ","1","0","[1284.699999988079]","1","0","4","","","","","","","",""
"pit-trial","96","850508","0.0-2.0-17.3-0.3","battery-v0.2","","""event"",""trial"",""time""
""fullscreenenter"",""1"",""1623""
","
","
","""event"",""trial"",""time""
""fullscreenenter"",""1"",""1623""
","
","","","630.3000000119209","","","16","10987","1188","&#9789;","elianto","#f73b6a7A"," "," ","1","0","[1480.3999999761581]","1","0","4","","","","","","","",""
"pit-trial","97","855363","0.0-2.0-17.3-1.3","battery-v0.2","","""event"",""trial"",""time""
""fullscreenenter"",""1"",""1623""
","
","
","""event"",""trial"",""time""
""fullscreenenter"",""1"",""1623""
","
","","","-1","","","16","10987","1188","&#9789;","elianto","#f73b6a7A"," ","-1","0","-10","[]","0","0","4","","","","","","","",""
"pit-trial","98","860219","0.0-2.0-17.3-2.3","battery-v0.2","","""event"",""trial"",""time""
""fullscreenenter"",""1"",""1623""
","
","
","""event"",""trial"",""time""
""fullscreenenter"",""1"",""1623""
","
","","","-1","","","16","10987","1188","&#9789;","elianto","#f73b6a7A"," ","-1","0","-10","[]","0","0","4","","","","","","","",""
"pit-trial","99","865074","0.0-2.0-17.3-3.3","battery-v0.2","","""event"",""trial"",""time""
""fullscreenenter"",""1"",""1623""
","
","
","""event"",""trial"",""time""
""fullscreenenter"",""1"",""1623""
","
","","","-1","","","16","10987","1188","&#9789;","elianto","#f73b6a7A"," ","-1","0","0","[]","0","0","4","","","","","","","",""
"pit-trial","100","869929","0.0-2.0-17.3-4.3","battery-v0.2","","""event"",""trial"",""time""
""fullscreenenter"",""1"",""1623""
","
","
","""event"",""trial"",""time""
""fullscreenenter"",""1"",""1623""
","
","","","-1","","","16","10987","1188","&#9789;","elianto","#f73b6a7A"," ","-1","0","-10","[]","0","0","4","","","","","","","",""
"call-function","101","869933","0.0-2.0-18.0","battery-v0.2","","""event"",""trial"",""time""
""fullscreenenter"",""1"",""1623""
","
","
","""event"",""trial"",""time""
""fullscreenenter"",""1"",""1623""
","
","","","","","","","","","","","","","","","","","","","","","","","","","","",""
"pit-instructions","102","1008274","0.0-2.0-19.0","battery-v0.2","","""event"",""trial"",""time""
""fullscreenenter"",""1"",""1623""
","
","
","""event"",""trial"",""time""
""fullscreenenter"",""1"",""1623""
","
","","[{""page_index"":0,""viewing_time"":6978.100000023842},{""page_index"":1,""viewing_time"":5198.099999964237},{""page_index"":2,""viewing_time"":10173.699999988079},{""page_index"":3,""viewing_time"":8611.400000035763},{""page_index"":4,""viewing_time"":14163.199999988079},{""page_index"":5,""viewing_time"":9225.5},{""page_index"":6,""viewing_time"":75768.69999998808},{""page_index"":7,""viewing_time"":4327.199999988079},{""page_index"":8,""viewing_time"":3894}]","138341.19999998808","","","","","","","","","","","","","","","","","","","","","","","",""
"pit-comprehension","103","1015405","0.0-2.0-20.0-0.0","battery-v0.2","","""event"",""trial"",""time""
""fullscreenenter"",""1"",""1623""
","
","
","""event"",""trial"",""time""
""fullscreenenter"",""1"",""1623""
","
","","","7121.699999988079","[""SPACE""]","0","16","10987","1188","","","","","","","","","","","","","","","","","","",""
"pit-instructions","104","1017540","0.0-2.0-20.0-1.0","battery-v0.2","","""event"",""trial"",""time""
""fullscreenenter"",""1"",""1623""
","
","
","""event"",""trial"",""time""
""fullscreenenter"",""1"",""1623""
","
","","[{""page_index"":0,""viewing_time"":2112.199999988079}]","2113.300000011921","","","","","","","","","","","","","","","","","","","","","","","",""
"pit-comprehension","105","1021906","0.0-2.0-21.0-0.0","battery-v0.2","","""event"",""trial"",""time""
""fullscreenenter"",""1"",""1623""
","
","
","""event"",""trial"",""time""
""fullscreenenter"",""1"",""1623""
","
","","","4358.200000047684","[""10""]","0","16","10987","1188","","","","","","","","","","","","","","","","","","",""
"pit-instructions","106","1027706","0.0-2.0-21.0-1.0","battery-v0.2","","""event"",""trial"",""time""
""fullscreenenter"",""1"",""1623""
","
","
","""event"",""trial"",""time""
""fullscreenenter"",""1"",""1623""
","
","","[{""page_index"":0,""viewing_time"":5777.699999988079}]","5778.599999964237","","","","","","","","","","","","","","","","","","","","","","","",""
"pit-comprehension","107","1034071","0.0-2.0-22.0-0.0","battery-v0.2","","""event"",""trial"",""time""
""fullscreenenter"",""1"",""1623""
","
","
","""event"",""trial"",""time""
""fullscreenenter"",""1"",""1623""
","
","","","6360.199999988079","[""0""]","0","16","10987","1188","","","","","","","","","","","","","","","","","","",""
"pit-instructions","108","1035586","0.0-2.0-22.0-1.0","battery-v0.2","","""event"",""trial"",""time""
""fullscreenenter"",""1"",""1623""
","
","
","""event"",""trial"",""time""
""fullscreenenter"",""1"",""1623""
","
","","[{""page_index"":0,""viewing_time"":1484.800000011921}]","1485.7000000476837","","","","","","","","","","","","","","","","","","","","","","","",""
"pit-comprehension","109","1044157","0.0-2.0-23.0-0.0","battery-v0.2","","""event"",""trial"",""time""
""fullscreenenter"",""1"",""1623""
","
","
","""event"",""trial"",""time""
""fullscreenenter"",""1"",""1623""
","
","","","8566.5","[""True""]","0","16","10987","1188","","","","","","","","","","","","","","","","","","",""
"pit-instructions","110","1045651","0.0-2.0-23.0-1.0","battery-v0.2","","""event"",""trial"",""time""
""fullscreenenter"",""1"",""1623""
","
","
","""event"",""trial"",""time""
""fullscreenenter"",""1"",""1623""
","
","","[{""page_index"":0,""viewing_time"":1464.2000000476837}]","1464.9000000357628","","","","","","","","","","","","","","","","","","","","","","","",""
"pit-comprehension","111","1053170","0.0-2.0-24.0-0.0","battery-v0.2","","""event"",""trial"",""time""
""fullscreenenter"",""1"",""1623""
","
","
","""event"",""trial"",""time""
""fullscreenenter"",""1"",""1623""
","
","","","7512.199999988079","[""True""]","0","16","10987","1188","","","","","","","","","","","","","","","","","","",""
"pit-instructions","112","1057376","0.0-2.0-24.0-1.0","battery-v0.2","","""event"",""trial"",""time""
""fullscreenenter"",""1"",""1623""
","
","
","""event"",""trial"",""time""
""fullscreenenter"",""1"",""1623""
","
","","[{""page_index"":0,""viewing_time"":4174.099999964237}]","4174.899999976158","","","","","","","","","","","","","","","","","","","","","","","",""
"pit-comprehension","113","1063781","0.0-2.0-25.0-0.0","battery-v0.2","","""event"",""trial"",""time""
""fullscreenenter"",""1"",""1623""
","
","
","""event"",""trial"",""time""
""fullscreenenter"",""1"",""1623""
","
","","","6399.5","[""True""]","0","16","10987","1188","","","","","","","","","","","","","","","","","","",""
"pit-instructions","114","1065236","0.0-2.0-25.0-1.0","battery-v0.2","","""event"",""trial"",""time""
""fullscreenenter"",""1"",""1623""
","
","
","""event"",""trial"",""time""
""fullscreenenter"",""1"",""1623""
","
","","[{""page_index"":0,""viewing_time"":1429.1000000238419}]","1429.800000011921","","","","","","","","","","","","","","","","","","","","","","","",""
"pit-comprehension","115","1069884","0.0-2.0-26.0-0.0","battery-v0.2","","""event"",""trial"",""time""
""fullscreenenter"",""1"",""1623""
","
","
","""event"",""trial"",""time""
""fullscreenenter"",""1"",""1623""
","
","","","4643.5","[""False""]","0","16","10987","1188","","","","","","","","","","","","","","","","","","",""
"pit-instructions","116","1071260","0.0-2.0-26.0-1.0","battery-v0.2","","""event"",""trial"",""time""
""fullscreenenter"",""1"",""1623""
","
","
","""event"",""trial"",""time""
""fullscreenenter"",""1"",""1623""
","
","","[{""page_index"":0,""viewing_time"":1344.800000011921}]","1345.5999999642372","","","","","","","","","","","","","","","","","","","","","","","",""
"pit-instructions","117","1088906","0.0-3.0","battery-v0.2","","""event"",""trial"",""time""
""fullscreenenter"",""1"",""1623""
","
","
","""event"",""trial"",""time""
""fullscreenenter"",""1"",""1623""
","
","","[{""page_index"":0,""viewing_time"":3877.900000035763},{""page_index"":1,""viewing_time"":5902},{""page_index"":2,""viewing_time"":7860.5}]","17641.100000023842","","","","","","","","","","","","","","","","","","","","","","","",""
"pit-trial","118","1092193","0.0-4.0","battery-v0.2","","""event"",""trial"",""time""
""fullscreenenter"",""1"",""1623""
","
","
","""event"",""trial"",""time""
""fullscreenenter"",""1"",""1623""
","
","","","428.30000001192093","","","16","10987","1188","&#9733;","elianto","#3366ff99","-1"," ","0","+10","[1281.6000000238419]","1","1","","","10987","1","2","2","win","no-go","1"
"pit-trial","119","1095494","0.0-5.0","battery-v0.2","","""event"",""trial"",""time""
""fullscreenenter"",""1"",""1623""
","
","
","""event"",""trial"",""time""
""fullscreenenter"",""1"",""1623""
","
","","","445.89999997615814","","","16","10987","1188","&#9730;","elianto","#3366ff99"," "," ","1","+10","[1296]","1","1","","","10987","2","1","1","win","go","0"
"pit-trial","120","1100349","0.0-6.0","battery-v0.2","","""event"",""trial"",""time""
""fullscreenenter"",""1"",""1623""
","
","
","""event"",""trial"",""time""
""fullscreenenter"",""1"",""1623""
","
","","","-1","","","16","10987","1188","&#9752;","elianto","#f73b6a7A"," ","-1","0","-10","[]","0","1","","","10987","3","3","3","lose","go","0"
"pit-trial","121","1103821","0.0-7.0","battery-v0.2","","""event"",""trial"",""time""
""fullscreenenter"",""1"",""1623""
","
","
","""event"",""trial"",""time""
""fullscreenenter"",""1"",""1623""
","
","","","617.0999999642372","","","16","10987","1188","&#9728;","elianto","#f73b6a7A","-1"," ","0","-10","[1467.2999999523163]","1","1","","","10987","4","0","4","lose","no-go","0"
"pit-trial","122","1107218","0.0-8.0","battery-v0.2","","""event"",""trial"",""time""
""fullscreenenter"",""1"",""1623""
","
","
","""event"",""trial"",""time""
""fullscreenenter"",""1"",""1623""
","
","","","541.8999999761581","","","16","10987","1188","&#9728;","elianto","#f73b6a7A","-1"," ","0","0","[1392]","1","1","","","10987","5","0","4","lose","no-go","1"
"pit-trial","123","1112072","0.0-9.0","battery-v0.2","","""event"",""trial"",""time""
""fullscreenenter"",""1"",""1623""
","
","
","""event"",""trial"",""time""
""fullscreenenter"",""1"",""1623""
","
","","","-1","","","16","10987","1188","&#9752;","elianto","#f73b6a7A"," ","-1","0","0","[]","0","1","","","10987","6","3","3","lose","go","1"
"pit-trial","124","1115087","0.0-10.0","battery-v0.2","","""event"",""trial"",""time""
""fullscreenenter"",""1"",""1623""
","
","
","""event"",""trial"",""time""
""fullscreenenter"",""1"",""1623""
","
","","","156.5","","","16","10987","1188","&#9733;","elianto","#3366ff99","-1"," ","0","+10","[1009.8999999761581]","1","1","","","10987","7","2","2","win","no-go","1"
"pit-trial","125","1118441","0.0-11.0","battery-v0.2","","""event"",""trial"",""time""
""fullscreenenter"",""1"",""1623""
","
","
","""event"",""trial"",""time""
""fullscreenenter"",""1"",""1623""
","
","","","498.9000000357628","","","16","10987","1188","&#9730;","elianto","#3366ff99"," "," ","1","+10","[1349]","1","1","","","10987","8","1","1","win","go","0"
"pit-trial","126","1121678","0.0-12.0","battery-v0.2","","""event"",""trial"",""time""
""fullscreenenter"",""1"",""1623""
","
","
","""event"",""trial"",""time""
""fullscreenenter"",""1"",""1623""
","
","","","381.19999998807907","","","16","10987","1188","&#9730;","elianto","#3366ff99"," "," ","1","0","[1232.3999999761581]","1","1","","","10987","9","1","1","win","go","1"
"pit-trial","127","1124963","0.0-13.0","battery-v0.2","","""event"",""trial"",""time""
""fullscreenenter"",""1"",""1623""
","
","
","""event"",""trial"",""time""
""fullscreenenter"",""1"",""1623""
","
","","","429.2000000476837","","","16","10987","1188","&#9728;","elianto","#f73b6a7A","-1"," ","0","-10","[1279.5]","1","1","","","10987","10","0","4","lose","no-go","0"
"pit-trial","128","1128463","0.0-14.0","battery-v0.2","","""event"",""trial"",""time""
""fullscreenenter"",""1"",""1623""
","
","
","""event"",""trial"",""time""
""fullscreenenter"",""1"",""1623""
","
","","","645.1999999880791","","","16","10987","1188","&#9733;","elianto","#3366ff99","-1"," ","0","0","[1495.3999999761581]","1","1","","","10987","11","2","2","win","no-go","0"
"pit-trial","129","1133319","0.0-15.0","battery-v0.2","","""event"",""trial"",""time""
""fullscreenenter"",""1"",""1623""
","
","
","""event"",""trial"",""time""
""fullscreenenter"",""1"",""1623""
","
","","","-1","","","16","10987","1188","&#9752;","elianto","#f73b6a7A"," ","-1","0","-10","[]","0","1","","","10987","12","3","3","lose","go","0"
"pit-trial","130","1136681","0.0-16.0","battery-v0.2","","""event"",""trial"",""time""
""fullscreenenter"",""1"",""1623""
","
","
","""event"",""trial"",""time""
""fullscreenenter"",""1"",""1623""
","
","","","507.5","","","16","10987","1188","&#9730;","elianto","#3366ff99"," "," ","1","+10","[1357.699999988079]","1","1","","","10987","13","1","1","win","go","0"
"pit-trial","131","1139996","0.0-17.0","battery-v0.2","","""event"",""trial"",""time""
""fullscreenenter"",""1"",""1623""
","
","
","""event"",""trial"",""time""
""fullscreenenter"",""1"",""1623""
","
","","","458.69999998807907","","","16","10987","1188","&#9733;","elianto","#3366ff99","-1"," ","0","0","[1309]","1","1","","","10987","14","2","2","win","no-go","0"
"pit-trial","132","1144851","0.0-18.0","battery-v0.2","","""event"",""trial"",""time""
""fullscreenenter"",""1"",""1623""
","
","
","""event"",""trial"",""time""
""fullscreenenter"",""1"",""1623""
","
","","","-1","","","16","10987","1188","&#9728;","elianto","#f73b6a7A","-1","-1","1","0","[]","0","1","","","10987","15","0","4","lose","no-go","0"
"pit-trial","133","1149706","0.0-19.0","battery-v0.2","","""event"",""trial"",""time""
""fullscreenenter"",""1"",""1623""
","
","
","""event"",""trial"",""time""
""fullscreenenter"",""1"",""1623""
","
","","","-1","","","16","10987","1188","&#9752;","elianto","#f73b6a7A"," ","-1","0","-10","[]","0","1","","","10987","16","3","3","lose","go","0"
"pit-trial","134","1153125","0.0-20.0","battery-v0.2","","""event"",""trial"",""time""
""fullscreenenter"",""1"",""1623""
","
","
","""event"",""trial"",""time""
""fullscreenenter"",""1"",""1623""
","
","","","562.1999999880791","","","16","10987","1188","&#9733;","elianto","#3366ff99","-1"," ","0","+10","[1413.699999988079,2096.5,2163.600000023842]","3","1","","","10987","17","2","2","win","no-go","1"
"pit-trial","135","1156500","0.0-21.0","battery-v0.2","","""event"",""trial"",""time""
""fullscreenenter"",""1"",""1623""
","
","
","""event"",""trial"",""time""
""fullscreenenter"",""1"",""1623""
","
","","","520","","","16","10987","1188","&#9730;","elianto","#3366ff99"," "," ","1","+10","[1370]","1","1","","","10987","18","1","1","win","go","0"
"pit-trial","136","1161355","0.0-22.0","battery-v0.2","","""event"",""trial"",""time""
""fullscreenenter"",""1"",""1623""
","
","
","""event"",""trial"",""time""
""fullscreenenter"",""1"",""1623""
","
","","","-1","","","16","10987","1188","&#9728;","elianto","#f73b6a7A","-1","-1","1","0","[]","0","1","","","10987","19","0","4","lose","no-go","0"
"pit-trial","137","1166211","0.0-23.0","battery-v0.2","","""event"",""trial"",""time""
""fullscreenenter"",""1"",""1623""
","
","
","""event"",""trial"",""time""
""fullscreenenter"",""1"",""1623""
","
","","","-1","","","16","10987","1188","&#9752;","elianto","#f73b6a7A"," ","-1","0","-10","[]","0","1","","","10987","20","3","3","lose","go","0"
"pit-instructions","138","1178656","0.0-24.0","battery-v0.2","","""event"",""trial"",""time""
""fullscreenenter"",""1"",""1623""
","
","
","""event"",""trial"",""time""
""fullscreenenter"",""1"",""1623""
","
","","[{""page_index"":0,""viewing_time"":5898.600000023842},{""page_index"":1,""viewing_time"":6543.600000023842}]","12442.400000035763","","","","","","","","","","","","","","","","","","","","","","","",""
"pit-trial","139","1183511","0.0-25.0","battery-v0.2","","""event"",""trial"",""time""
""fullscreenenter"",""1"",""1623""
","
","
","""event"",""trial"",""time""
""fullscreenenter"",""1"",""1623""
","
","","","-1","","","16","10987","1188","w","elianto","#f73b6a7A","-1","-1","1","-10","[]","0","2","","","10987","21","3","4","lose","no-go","1"
"pit-trial","140","1188347","0.0-26.0","battery-v0.2","","""event"",""trial"",""time""
""fullscreenenter"",""1"",""1623""
","
","
","""event"",""trial"",""time""
""fullscreenenter"",""1"",""1623""
","
","","","1981.300000011921","","","16","10987","1188","j","elianto","#f73b6a7A"," "," ","1","0","[2831.600000023842]","1","2","","","10987","22","0","3","lose","go","0"
"pit-trial","141","1192252","0.0-27.0","battery-v0.2","","""event"",""trial"",""time""
""fullscreenenter"",""1"",""1623""
","
","
","""event"",""trial"",""time""
""fullscreenenter"",""1"",""1623""
","
","","","1049.3999999761581","","","16","10987","1188","e","elianto","#f73b6a7A"," "," ","1","0","[1899.800000011921]","1","2","","","10987","23","2","3","lose","go","0"
"pit-trial","142","1195708","0.0-28.0","battery-v0.2","","""event"",""trial"",""time""
""fullscreenenter"",""1"",""1623""
","
","
","""event"",""trial"",""time""
""fullscreenenter"",""1"",""1623""
","
","","","597.8999999761581","","","16","10987","1188","d","elianto","#3366ff99","-1"," ","0","0","[1451]","1","2","","","10987","24","1","2","win","no-go","0"
"pit-trial","143","1200564","0.0-29.0","battery-v0.2","","""event"",""trial"",""time""
""fullscreenenter"",""1"",""1623""
","
","
","""event"",""trial"",""time""
""fullscreenenter"",""1"",""1623""
","
","","","-1","","","16","10987","1188","e","elianto","#f73b6a7A"," ","-1","0","-10","[]","0","2","","","10987","25","2","3","lose","go","0"
"pit-trial","144","1203697","0.0-30.0","battery-v0.2","","""event"",""trial"",""time""
""fullscreenenter"",""1"",""1623""
","
","
","""event"",""trial"",""time""
""fullscreenenter"",""1"",""1623""
","
","","","279","","","16","10987","1188","d","elianto","#3366ff99","-1"," ","0","0","[1129.0999999642372]","1","2","","","10987","26","1","2","win","no-go","0"
"pit-trial","145","1207513","0.0-31.0","battery-v0.2","","""event"",""trial"",""time""
""fullscreenenter"",""1"",""1623""
","
","
","""event"",""trial"",""time""
""fullscreenenter"",""1"",""1623""
","
","","","959.5999999642372","","","16","10987","1188","j","elianto","#f73b6a7A"," "," ","1","0","[1810.199999988079]","1","2","","","10987","27","0","3","lose","go","0"
"pit-trial","146","1212368","0.0-32.0","battery-v0.2","","""event"",""trial"",""time""
""fullscreenenter"",""1"",""1623""
","
","
","""event"",""trial"",""time""
""fullscreenenter"",""1"",""1623""
","
","","","-1","","","16","10987","1188","w","elianto","#f73b6a7A","-1","-1","1","0","[]","0","2","","","10987","28","3","4","lose","no-go","0"
"pit-trial","147","1217225","0.0-33.0","battery-v0.2","","""event"",""trial"",""time""
""fullscreenenter"",""1"",""1623""
","
","
","""event"",""trial"",""time""
""fullscreenenter"",""1"",""1623""
","
","","","-1","","","16","10987","1188","e","elianto","#f73b6a7A"," ","-1","0","-10","[]","0","2","","","10987","29","2","3","lose","go","0"
"pit-trial","148","1222081","0.0-34.0","battery-v0.2","","""event"",""trial"",""time""
""fullscreenenter"",""1"",""1623""
","
","
","""event"",""trial"",""time""
""fullscreenenter"",""1"",""1623""
","
","","","-1","","","16","10987","1188","w","elianto","#f73b6a7A","-1","-1","1","0","[]","0","2","","","10987","30","3","4","lose","no-go","0"
"pit-trial","149","1226938","0.0-35.0","battery-v0.2","","""event"",""trial"",""time""
""fullscreenenter"",""1"",""1623""
","
","
","""event"",""trial"",""time""
""fullscreenenter"",""1"",""1623""
","
","","","-1","","","16","10987","1188","j","elianto","#f73b6a7A"," ","-1","0","-10","[]","0","2","","","10987","31","0","3","lose","go","0"
"pit-trial","150","1230322","0.0-36.0","battery-v0.2","","""event"",""trial"",""time""
""fullscreenenter"",""1"",""1623""
","
","
","""event"",""trial"",""time""
""fullscreenenter"",""1"",""1623""
","
","","","529.0999999642372","","","16","10987","1188","d","elianto","#3366ff99","-1"," ","0","+10","[1379.300000011921]","1","2","","","10987","32","1","2","win","no-go","1"
"pit-trial","151","1233941","0.0-37.0","battery-v0.2","","""event"",""trial"",""time""
""fullscreenenter"",""1"",""1623""
","
","
","""event"",""trial"",""time""
""fullscreenenter"",""1"",""1623""
","
","","","763.5999999642372","","","16","10987","1188","d","elianto","#3366ff99","-1"," ","0","0","[1613.800000011921]","1","2","","","10987","33","1","2","win","no-go","0"
"pit-trial","152","1238797","0.0-38.0","battery-v0.2","","""event"",""trial"",""time""
""fullscreenenter"",""1"",""1623""
","
","
","""event"",""trial"",""time""
""fullscreenenter"",""1"",""1623""
","
","","","-1","","","16","10987","1188","j","elianto","#f73b6a7A"," ","-1","0","-10","[]","0","2","","","10987","34","0","3","lose","go","0"
"pit-trial","153","1243652","0.0-39.0","battery-v0.2","","""event"",""trial"",""time""
""fullscreenenter"",""1"",""1623""
","
","
","""event"",""trial"",""time""
""fullscreenenter"",""1"",""1623""
","
","","","-1","","","16","10987","1188","e","elianto","#f73b6a7A"," ","-1","0","0","[]","0","2","","","10987","35","2","3","lose","go","1"
"pit-trial","154","1248507","0.0-40.0","battery-v0.2","","""event"",""trial"",""time""
""fullscreenenter"",""1"",""1623""
","
","
","""event"",""trial"",""time""
""fullscreenenter"",""1"",""1623""
","
","","","-1","","","16","10987","1188","w","elianto","#f73b6a7A","-1","-1","1","0","[3274.600000023842]","1","2","","","10987","36","3","4","lose","no-go","0"
"pit-trial","155","1253362","0.0-41.0","battery-v0.2","","""event"",""trial"",""time""
""fullscreenenter"",""1"",""1623""
","
","
","""event"",""trial"",""time""
""fullscreenenter"",""1"",""1623""
","
","","","-1","","","16","10987","1188","j","elianto","#f73b6a7A"," ","-1","0","0","[]","0","2","","","10987","37","0","3","lose","go","1"
"pit-trial","156","1256675","0.0-42.0","battery-v0.2","","""event"",""trial"",""time""
""fullscreenenter"",""1"",""1623""
","
","
","""event"",""trial"",""time""
""fullscreenenter"",""1"",""1623""
","
","","","456.89999997615814","","","16","10987","1188","e","elianto","#f73b6a7A"," "," ","1","0","[1307]","1","2","","","10987","38","2","3","lose","go","0"
"pit-trial","157","1259983","0.0-43.0","battery-v0.2","","""event"",""trial"",""time""
""fullscreenenter"",""1"",""1623""
","
","
","""event"",""trial"",""time""
""fullscreenenter"",""1"",""1623""
","
","","","454.19999998807907","","","16","10987","1188","d","elianto","#3366ff99","-1"," ","0","0","[1304.300000011921]","1","2","","","10987","39","1","2","win","no-go","0"
"pit-trial","158","1264838","0.0-44.0","battery-v0.2","","""event"",""trial"",""time""
""fullscreenenter"",""1"",""1623""
","
","
","""event"",""trial"",""time""
""fullscreenenter"",""1"",""1623""
","
","","","-1","","","16","10987","1188","w","elianto","#f73b6a7A","-1","-1","1","0","[]","0","2","","","10987","40","3","4","lose","no-go","0"
"pit-trial","159","1269694","0.0-45.0","battery-v0.2","","""event"",""trial"",""time""
""fullscreenenter"",""1"",""1623""
","
","
","""event"",""trial"",""time""
""fullscreenenter"",""1"",""1623""
","
","","","-1","","","16","10987","1188","j","elianto","#f73b6a7A"," ","-1","0","-10","[]","0","2","","","10987","41","0","3","lose","go","0"
"pit-trial","160","1273435","0.0-46.0","battery-v0.2","","""event"",""trial"",""time""
""fullscreenenter"",""1"",""1623""
","
","
","""event"",""trial"",""time""
""fullscreenenter"",""1"",""1623""
","
","","","886.8000000119209","","","16","10987","1188","w","elianto","#f73b6a7A","-1"," ","0","0","[1737]","1","2","","","10987","42","3","4","lose","no-go","1"
"pit-trial","161","1276966","0.0-47.0","battery-v0.2","","""event"",""trial"",""time""
""fullscreenenter"",""1"",""1623""
","
","
","""event"",""trial"",""time""
""fullscreenenter"",""1"",""1623""
","
","","","676.6999999880791","","","16","10987","1188","d","elianto","#3366ff99","-1"," ","0","0","[1526.800000011921]","1","2","","","10987","43","1","2","win","no-go","0"
"pit-trial","162","1281132","0.0-48.0","battery-v0.2","","""event"",""trial"",""time""
""fullscreenenter"",""1"",""1623""
","
","
","""event"",""trial"",""time""
""fullscreenenter"",""1"",""1623""
","
","","","1306.699999988079","","","16","10987","1188","e","elianto","#f73b6a7A"," "," ","1","0","[2159.900000035763]","1","2","","","10987","44","2","3","lose","go","0"
"pit-trial","163","1284658","0.0-49.0","battery-v0.2","","""event"",""trial"",""time""
""fullscreenenter"",""1"",""1623""
","
","
","""event"",""trial"",""time""
""fullscreenenter"",""1"",""1623""
","
","","","670.3000000119209","","","16","10987","1188","e","elianto","#f73b6a7A"," "," ","1","0","[1521]","1","2","","","10987","45","2","3","lose","go","0"
"pit-trial","164","1289513","0.0-50.0","battery-v0.2","","""event"",""trial"",""time""
""fullscreenenter"",""1"",""1623""
","
","
","""event"",""trial"",""time""
""fullscreenenter"",""1"",""1623""
","
","","","-1","","","16","10987","1188","j","elianto","#f73b6a7A"," ","-1","0","-10","[]","0","2","","","10987","46","0","3","lose","go","0"
"pit-trial","165","1292826","0.0-51.0","battery-v0.2","","""event"",""trial"",""time""
""fullscreenenter"",""1"",""1623""
","
","
","""event"",""trial"",""time""
""fullscreenenter"",""1"",""1623""
","
","","","454.89999997615814","","","16","10987","1188","d","elianto","#3366ff99","-1"," ","0","0","[1308.1000000238419]","1","2","","","10987","47","1","2","win","no-go","0"
"pit-trial","166","1296804","0.0-52.0","battery-v0.2","","""event"",""trial"",""time""
""fullscreenenter"",""1"",""1623""
","
","
","""event"",""trial"",""time""
""fullscreenenter"",""1"",""1623""
","
","","","1122.3999999761581","","","16","10987","1188","w","elianto","#f73b6a7A","-1"," ","0","-10","[1972.6000000238419]","1","2","","","10987","48","3","4","lose","no-go","0"
"pit-trial","167","1300256","0.0-53.0","battery-v0.2","","""event"",""trial"",""time""
""fullscreenenter"",""1"",""1623""
","
","
","""event"",""trial"",""time""
""fullscreenenter"",""1"",""1623""
","
","","","597.3000000119209","","","16","10987","1188","j","elianto","#f73b6a7A"," "," ","1","0","[1447.5]","1","2","","","10987","49","0","3","lose","go","0"
"pit-trial","168","1305112","0.0-54.0","battery-v0.2","","""event"",""trial"",""time""
""fullscreenenter"",""1"",""1623""
","
","
","""event"",""trial"",""time""
""fullscreenenter"",""1"",""1623""
","
","","","-1","","","16","10987","1188","w","elianto","#f73b6a7A","-1","-1","1","0","[]","0","2","","","10987","50","3","4","lose","no-go","0"
"pit-trial","169","1308499","0.0-55.0","battery-v0.2","","""event"",""trial"",""time""
""fullscreenenter"",""1"",""1623""
","
","
","""event"",""trial"",""time""
""fullscreenenter"",""1"",""1623""
","
","","","529.5","","","16","10987","1188","d","elianto","#3366ff99","-1"," ","0","0","[1381.7999999523163]","1","2","","","10987","51","1","2","win","no-go","0"
"pit-trial","170","1313355","0.0-56.0","battery-v0.2","","""event"",""trial"",""time""
""fullscreenenter"",""1"",""1623""
","
","
","""event"",""trial"",""time""
""fullscreenenter"",""1"",""1623""
","
","","","-1","","","16","10987","1188","e","elianto","#f73b6a7A"," ","-1","0","0","[]","0","2","","","10987","52","2","3","lose","go","1"
"pit-trial","171","1316719","0.0-57.0","battery-v0.2","","""event"",""trial"",""time""
""fullscreenenter"",""1"",""1623""
","
","
","""event"",""trial"",""time""
""fullscreenenter"",""1"",""1623""
","
","","","508.19999998807907","","","16","10987","1188","d","elianto","#3366ff99","-1"," ","0","0","[1358.3999999761581]","1","2","","","10987","53","1","2","win","no-go","0"
"pit-trial","172","1320647","0.0-58.0","battery-v0.2","","""event"",""trial"",""time""
""fullscreenenter"",""1"",""1623""
","
","
","""event"",""trial"",""time""
""fullscreenenter"",""1"",""1623""
","
","","","1072.800000011921","","","16","10987","1188","w","elianto","#f73b6a7A","-1"," ","0","0","[1922.8999999761581]","1","2","","","10987","54","3","4","lose","no-go","1"
"pit-trial","173","1325503","0.0-59.0","battery-v0.2","","""event"",""trial"",""time""
""fullscreenenter"",""1"",""1623""
","
","
","""event"",""trial"",""time""
""fullscreenenter"",""1"",""1623""
","
","","","-1","","","16","10987","1188","j","elianto","#f73b6a7A"," ","-1","0","-10","[]","0","2","","","10987","55","0","3","lose","go","0"
"pit-trial","174","1328929","0.0-60.0","battery-v0.2","","""event"",""trial"",""time""
""fullscreenenter"",""1"",""1623""
","
","
","""event"",""trial"",""time""
""fullscreenenter"",""1"",""1623""
","
","","","570.7999999523163","","","16","10987","1188","e","elianto","#f73b6a7A"," "," ","1","0","[1421.0999999642372,2855.5]","2","2","","","10987","56","2","3","lose","go","0"
"pit-trial","175","1333785","0.0-61.0","battery-v0.2","","""event"",""trial"",""time""
""fullscreenenter"",""1"",""1623""
","
","
","""event"",""trial"",""time""
""fullscreenenter"",""1"",""1623""
","
","","","-1","","","16","10987","1188","j","elianto","#f73b6a7A"," ","-1","0","0","[]","0","2","","","10987","57","0","3","lose","go","1"
"pit-trial","176","1337124","0.0-62.0","battery-v0.2","","""event"",""trial"",""time""
""fullscreenenter"",""1"",""1623""
","
","
","""event"",""trial"",""time""
""fullscreenenter"",""1"",""1623""
","
","","","483.60000002384186","","","16","10987","1188","e","elianto","#f73b6a7A"," "," ","1","0","[1333.9000000357628]","1","2","","","10987","58","2","3","lose","go","0"
"pit-trial","177","1340475","0.0-63.0","battery-v0.2","","""event"",""trial"",""time""
""fullscreenenter"",""1"",""1623""
","
","
","""event"",""trial"",""time""
""fullscreenenter"",""1"",""1623""
","
","","","496","","","16","10987","1188","s","elianto","#3366ff99"," "," ","1","0","[1346.300000011921]","1","2","","","10987","59","4","1","win","go","1"
"pit-trial","178","1345329","0.0-64.0","battery-v0.2","","""event"",""trial"",""time""
""fullscreenenter"",""1"",""1623""
","
","
","""event"",""trial"",""time""
""fullscreenenter"",""1"",""1623""
","
","","","-1","","","16","10987","1188","w","elianto","#f73b6a7A","-1","-1","1","-10","[]","0","2","","","10987","60","3","4","lose","no-go","1"
"pit-trial","179","1350185","0.0-65.0","battery-v0.2","","""event"",""trial"",""time""
""fullscreenenter"",""1"",""1623""
","
","
","""event"",""trial"",""time""
""fullscreenenter"",""1"",""1623""
","
","","","-1","","","16","10987","1188","w","elianto","#f73b6a7A","-1","-1","1","0","[]","0","2","","","10987","61","3","4","lose","no-go","0"
"pit-trial","180","1353508","0.0-66.0","battery-v0.2","","""event"",""trial"",""time""
""fullscreenenter"",""1"",""1623""
","
","
","""event"",""trial"",""time""
""fullscreenenter"",""1"",""1623""
","
","","","467.5999999642372","","","16","10987","1188","s","elianto","#3366ff99"," "," ","1","+10","[1318]","1","2","","","10987","62","4","1","win","go","0"
"pit-trial","181","1357384","0.0-67.0","battery-v0.2","","""event"",""trial"",""time""
""fullscreenenter"",""1"",""1623""
","
","
","""event"",""trial"",""time""
""fullscreenenter"",""1"",""1623""
","
","","","1020.1999999880791","","","16","10987","1188","e","elianto","#f73b6a7A"," "," ","1","0","[1870.4000000357628]","1","2","","","10987","63","2","3","lose","go","0"
"pit-trial","182","1360819","0.0-68.0","battery-v0.2","","""event"",""trial"",""time""
""fullscreenenter"",""1"",""1623""
","
","
","""event"",""trial"",""time""
""fullscreenenter"",""1"",""1623""
","
","","","580.4000000357628","","","16","10987","1188","d","elianto","#3366ff99","-1"," ","0","+10","[1430.6000000238419]","1","2","","","10987","64","1","2","win","no-go","1"
"pit-trial","183","1364408","0.0-69.0","battery-v0.2","","""event"",""trial"",""time""
""fullscreenenter"",""1"",""1623""
","
","
","""event"",""trial"",""time""
""fullscreenenter"",""1"",""1623""
","
","","","732.3999999761581","","","16","10987","1188","s","elianto","#3366ff99"," "," ","1","+10","[1582.7999999523163]","1","2","","","10987","65","4","1","win","go","0"
"pit-trial","184","1367762","0.0-70.0","battery-v0.2","","""event"",""trial"",""time""
""fullscreenenter"",""1"",""1623""
","
","
","""event"",""trial"",""time""
""fullscreenenter"",""1"",""1623""
","
","","","496.5","","","16","10987","1188","d","elianto","#3366ff99","-1"," ","0","0","[1348.7000000476837]","1","2","","","10987","66","1","2","win","no-go","0"
"pit-trial","185","1371125","0.0-71.0","battery-v0.2","","""event"",""trial"",""time""
""fullscreenenter"",""1"",""1623""
","
","
","""event"",""trial"",""time""
""fullscreenenter"",""1"",""1623""
","
","","","507.69999998807907","","","16","10987","1188","p","elianto","#3366ff99","-1"," ","0","0","[1357.7999999523163]","1","2","","","10987","67","5","2","win","no-go","0"
"pit-trial","186","1375049","0.0-72.0","battery-v0.2","","""event"",""trial"",""time""
""fullscreenenter"",""1"",""1623""
","
","
","""event"",""trial"",""time""
""fullscreenenter"",""1"",""1623""
","
","","","1066.199999988079","","","16","10987","1188","w","elianto","#f73b6a7A","-1"," ","0","0","[1918.3999999761581]","1","2","","","10987","68","3","4","lose","no-go","1"
"pit-trial","187","1378528","0.0-73.0","battery-v0.2","","""event"",""trial"",""time""
""fullscreenenter"",""1"",""1623""
","
","
","""event"",""trial"",""time""
""fullscreenenter"",""1"",""1623""
","
","","","623.8999999761581","","","16","10987","1188","e","elianto","#f73b6a7A"," "," ","1","0","[1474]","1","2","","","10987","69","2","3","lose","go","0"
"pit-trial","188","1382088","0.0-74.0","battery-v0.2","","""event"",""trial"",""time""
""fullscreenenter"",""1"",""1623""
","
","
","""event"",""trial"",""time""
""fullscreenenter"",""1"",""1623""
","
","","","704.7000000476837","","","16","10987","1188","d","elianto","#3366ff99","-1"," ","0","+10","[1554.800000011921]","1","2","","","10987","70","1","2","win","no-go","1"
"pit-trial","189","1385634","0.0-75.0","battery-v0.2","","""event"",""trial"",""time""
""fullscreenenter"",""1"",""1623""
","
","
","""event"",""trial"",""time""
""fullscreenenter"",""1"",""1623""
","
","","","691.3000000119209","","","16","10987","1188","s","elianto","#3366ff99"," "," ","1","+10","[1541.6000000238419]","1","2","","","10987","71","4","1","win","go","0"
"pit-trial","190","1388990","0.0-76.0","battery-v0.2","","""event"",""trial"",""time""
""fullscreenenter"",""1"",""1623""
","
","
","""event"",""trial"",""time""
""fullscreenenter"",""1"",""1623""
","
","","","499.89999997615814","","","16","10987","1188","p","elianto","#3366ff99","-1"," ","0","0","[1350.199999988079]","1","2","","","10987","72","5","2","win","no-go","0"
"pit-trial","191","1392872","0.0-77.0","battery-v0.2","","""event"",""trial"",""time""
""fullscreenenter"",""1"",""1623""
","
","
","""event"",""trial"",""time""
""fullscreenenter"",""1"",""1623""
","
","","","1027.199999988079","","","16","10987","1188","s","elianto","#3366ff99"," "," ","1","+10","[1877.300000011921]","1","2","","","10987","73","4","1","win","go","0"
"pit-trial","192","1396698","0.0-78.0","battery-v0.2","","""event"",""trial"",""time""
""fullscreenenter"",""1"",""1623""
","
","
","""event"",""trial"",""time""
""fullscreenenter"",""1"",""1623""
","
","","","970.4000000357628","","","16","10987","1188","p","elianto","#3366ff99","-1"," ","0","0","[1820.6000000238419]","1","2","","","10987","74","5","2","win","no-go","0"
"pit-trial","193","1400178","0.0-79.0","battery-v0.2","","""event"",""trial"",""time""
""fullscreenenter"",""1"",""1623""
","
","
","""event"",""trial"",""time""
""fullscreenenter"",""1"",""1623""
","
","","","624.9000000357628","","","16","10987","1188","d","elianto","#3366ff99","-1"," ","0","+10","[1475.2000000476837]","1","2","","","10987","75","1","2","win","no-go","1"
"pit-trial","194","1403852","0.0-80.0","battery-v0.2","","""event"",""trial"",""time""
""fullscreenenter"",""1"",""1623""
","
","
","""event"",""trial"",""time""
""fullscreenenter"",""1"",""1623""
","
","","","819.4000000357628","","","16","10987","1188","w","elianto","#f73b6a7A","-1"," ","0","-10","[1669.5]","1","2","","","10987","76","3","4","lose","no-go","0"
"pit-trial","195","1407227","0.0-81.0","battery-v0.2","","""event"",""trial"",""time""
""fullscreenenter"",""1"",""1623""
","
","
","""event"",""trial"",""time""
""fullscreenenter"",""1"",""1623""
","
","","","520","","","16","10987","1188","w","elianto","#f73b6a7A","-1"," ","0","-10","[1370]","1","2","","","10987","77","3","4","lose","no-go","0"
"pit-trial","196","1410592","0.0-82.0","battery-v0.2","","""event"",""trial"",""time""
""fullscreenenter"",""1"",""1623""
","
","
","""event"",""trial"",""time""
""fullscreenenter"",""1"",""1623""
","
","","","509.39999997615814","","","16","10987","1188","p","elianto","#3366ff99","-1"," ","0","0","[1359.5]","1","2","","","10987","78","5","2","win","no-go","0"
"pit-trial","197","1413923","0.0-83.0","battery-v0.2","","""event"",""trial"",""time""
""fullscreenenter"",""1"",""1623""
","
","
","""event"",""trial"",""time""
""fullscreenenter"",""1"",""1623""
","
","","","471.5999999642372","","","16","10987","1188","s","elianto","#3366ff99"," "," ","1","+10","[1326.8999999761581]","1","2","","","10987","79","4","1","win","go","0"
"pit-trial","198","1417222","0.0-84.0","battery-v0.2","","""event"",""trial"",""time""
""fullscreenenter"",""1"",""1623""
","
","
","""event"",""trial"",""time""
""fullscreenenter"",""1"",""1623""
","
","","","441.19999998807907","","","16","10987","1188","s","elianto","#3366ff99"," "," ","1","+10","[1293.5]","1","2","","","10987","80","4","1","win","go","0"
"pit-trial","199","1420583","0.0-85.0","battery-v0.2","","""event"",""trial"",""time""
""fullscreenenter"",""1"",""1623""
","
","
","""event"",""trial"",""time""
""fullscreenenter"",""1"",""1623""
","
","","","502.9000000357628","","","16","10987","1188","p","elianto","#3366ff99","-1"," ","0","0","[1356.300000011921]","1","2","","","10987","81","5","2","win","no-go","0"
"pit-trial","200","1423531","0.0-86.0","battery-v0.2","","""event"",""trial"",""time""
""fullscreenenter"",""1"",""1623""
","
","
","""event"",""trial"",""time""
""fullscreenenter"",""1"",""1623""
","
","","","92.60000002384186","","","16","10987","1188","a","elianto","#f73b6a7A","-1"," ","0","-10","[942.8000000119209]","1","2","","","10987","82","7","4","lose","no-go","0"
"pit-trial","201","1426881","0.0-87.0","battery-v0.2","","""event"",""trial"",""time""
""fullscreenenter"",""1"",""1623""
","
","
","""event"",""trial"",""time""
""fullscreenenter"",""1"",""1623""
","
","","","495.7000000476837","","","16","10987","1188","s","elianto","#3366ff99"," "," ","1","+10","[1345.800000011921]","1","2","","","10987","83","4","1","win","go","0"
"pit-trial","202","1431736","0.0-88.0","battery-v0.2","","""event"",""trial"",""time""
""fullscreenenter"",""1"",""1623""
","
","
","""event"",""trial"",""time""
""fullscreenenter"",""1"",""1623""
","
","","","-1","","","16","10987","1188","w","elianto","#f73b6a7A","-1","-1","1","0","[]","0","2","","","10987","84","3","4","lose","no-go","0"
"pit-trial","203","1435827","0.0-89.0","battery-v0.2","","""event"",""trial"",""time""
""fullscreenenter"",""1"",""1623""
","
","
","""event"",""trial"",""time""
""fullscreenenter"",""1"",""1623""
","
","","","1235.699999988079","","","16","10987","1188","g","elianto","#f73b6a7A"," "," ","1","-10","[2086]","1","2","","","10987","85","6","3","lose","go","1"
"pit-trial","204","1439178","0.0-90.0","battery-v0.2","","""event"",""trial"",""time""
""fullscreenenter"",""1"",""1623""
","
","
","""event"",""trial"",""time""
""fullscreenenter"",""1"",""1623""
","
","","","496.69999998807907","","","16","10987","1188","s","elianto","#3366ff99"," "," ","1","+10","[1346.9000000357628]","1","2","","","10987","86","4","1","win","go","0"
"pit-trial","205","1444034","0.0-91.0","battery-v0.2","","""event"",""trial"",""time""
""fullscreenenter"",""1"",""1623""
","
","
","""event"",""trial"",""time""
""fullscreenenter"",""1"",""1623""
","
","","","-1","","","16","10987","1188","a","elianto","#f73b6a7A","-1","-1","1","-10","[]","0","2","","","10987","87","7","4","lose","no-go","1"
"pit-trial","206","1447346","0.0-92.0","battery-v0.2","","""event"",""trial"",""time""
""fullscreenenter"",""1"",""1623""
","
","
","""event"",""trial"",""time""
""fullscreenenter"",""1"",""1623""
","
","","","456.89999997615814","","","16","10987","1188","p","elianto","#3366ff99","-1"," ","0","0","[1307.1000000238419]","1","2","","","10987","88","5","2","win","no-go","0"
"pit-trial","207","1452201","0.0-93.0","battery-v0.2","","""event"",""trial"",""time""
""fullscreenenter"",""1"",""1623""
","
","
","""event"",""trial"",""time""
""fullscreenenter"",""1"",""1623""
","
","","","-1","","","16","10987","1188","a","elianto","#f73b6a7A","-1","-1","1","0","[]","0","2","","","10987","89","7","4","lose","no-go","0"
"pit-trial","208","1455544","0.0-94.0","battery-v0.2","","""event"",""trial"",""time""
""fullscreenenter"",""1"",""1623""
","
","
","""event"",""trial"",""time""
""fullscreenenter"",""1"",""1623""
","
","","","488.19999998807907","","","16","10987","1188","s","elianto","#3366ff99"," "," ","1","+10","[1338.4000000357628]","1","2","","","10987","90","4","1","win","go","0"
"pit-trial","209","1460399","0.0-95.0","battery-v0.2","","""event"",""trial"",""time""
""fullscreenenter"",""1"",""1623""
","
","
","""event"",""trial"",""time""
""fullscreenenter"",""1"",""1623""
","
","","","-1","","","16","10987","1188","g","elianto","#f73b6a7A"," ","-1","0","-10","[]","0","2","","","10987","91","6","3","lose","go","0"
"pit-trial","210","1463718","0.0-96.0","battery-v0.2","","""event"",""trial"",""time""
""fullscreenenter"",""1"",""1623""
","
","
","""event"",""trial"",""time""
""fullscreenenter"",""1"",""1623""
","
","","","463.19999998807907","","","16","10987","1188","p","elianto","#3366ff99","-1"," ","0","0","[1313.5]","1","2","","","10987","92","5","2","win","no-go","0"
"pit-trial","211","1468574","0.0-97.0","battery-v0.2","","""event"",""trial"",""time""
""fullscreenenter"",""1"",""1623""
","
","
","""event"",""trial"",""time""
""fullscreenenter"",""1"",""1623""
","
","","","-1","","","16","10987","1188","g","elianto","#f73b6a7A"," ","-1","0","-10","[]","0","2","","","10987","93","6","3","lose","go","0"
"pit-trial","212","1472014","0.0-98.0","battery-v0.2","","""event"",""trial"",""time""
""fullscreenenter"",""1"",""1623""
","
","
","""event"",""trial"",""time""
""fullscreenenter"",""1"",""1623""
","
","","","585.7000000476837","","","16","10987","1188","p","elianto","#3366ff99","-1"," ","0","+10","[1435.699999988079]","1","2","","","10987","94","5","2","win","no-go","1"
"pit-trial","213","1475443","0.0-99.0","battery-v0.2","","""event"",""trial"",""time""
""fullscreenenter"",""1"",""1623""
","
","
","""event"",""trial"",""time""
""fullscreenenter"",""1"",""1623""
","
","","","574.7000000476837","","","16","10987","1188","l","elianto","#3366ff99"," "," ","1","+10","[1425]","1","2","","","10987","95","8","1","win","go","0"
"pit-trial","214","1480299","0.0-100.0","battery-v0.2","","""event"",""trial"",""time""
""fullscreenenter"",""1"",""1623""
","
","
","""event"",""trial"",""time""
""fullscreenenter"",""1"",""1623""
","
","","","-1","","","16","10987","1188","a","elianto","#f73b6a7A","-1","-1","1","0","[]","0","2","","","10987","96","7","4","lose","no-go","0"
"pit-trial","215","1485155","0.0-101.0","battery-v0.2","","""event"",""trial"",""time""
""fullscreenenter"",""1"",""1623""
","
","
","""event"",""trial"",""time""
""fullscreenenter"",""1"",""1623""
","
","","","-1","","","16","10987","1188","g","elianto","#f73b6a7A"," ","-1","0","-10","[]","0","2","","","10987","97","6","3","lose","go","0"
"pit-trial","216","1488499","0.0-102.0","battery-v0.2","","""event"",""trial"",""time""
""fullscreenenter"",""1"",""1623""
","
","
","""event"",""trial"",""time""
""fullscreenenter"",""1"",""1623""
","
","","","488.19999998807907","","","16","10987","1188","p","elianto","#3366ff99","-1"," ","0","+10","[1338.199999988079]","1","2","","","10987","98","5","2","win","no-go","1"
"pit-trial","217","1491764","0.0-103.0","battery-v0.2","","""event"",""trial"",""time""
""fullscreenenter"",""1"",""1623""
","
","
","""event"",""trial"",""time""
""fullscreenenter"",""1"",""1623""
","
","","","409.69999998807907","","","16","10987","1188","l","elianto","#3366ff99"," "," ","1","+10","[1260]","1","2","","","10987","99","8","1","win","go","0"
"pit-trial","218","1496620","0.0-104.0","battery-v0.2","","""event"",""trial"",""time""
""fullscreenenter"",""1"",""1623""
","
","
","""event"",""trial"",""time""
""fullscreenenter"",""1"",""1623""
","
","","","-1","","","16","10987","1188","a","elianto","#f73b6a7A","-1","-1","1","0","[]","0","2","","","10987","100","7","4","lose","no-go","0"
"pit-trial","219","1500163","0.0-105.0","battery-v0.2","","""event"",""trial"",""time""
""fullscreenenter"",""1"",""1623""
","
","
","""event"",""trial"",""time""
""fullscreenenter"",""1"",""1623""
","
","","","687.1999999880791","","","16","10987","1188","u","elianto","#3366ff99"," "," ","1","0","[1538.199999988079]","1","2","","","10987","101","9","1","win","go","1"
"pit-trial","220","1503788","0.0-106.0","battery-v0.2","","""event"",""trial"",""time""
""fullscreenenter"",""1"",""1623""
","
","
","""event"",""trial"",""time""
""fullscreenenter"",""1"",""1623""
","
","","","769.8000000119209","","","16","10987","1188","p","elianto","#3366ff99","-1"," ","0","+10","[1620.0999999642372]","1","2","","","10987","102","5","2","win","no-go","1"
"pit-trial","221","1508645","0.0-107.0","battery-v0.2","","""event"",""trial"",""time""
""fullscreenenter"",""1"",""1623""
","
","
","""event"",""trial"",""time""
""fullscreenenter"",""1"",""1623""
","
","","","-1","","","16","10987","1188","a","elianto","#f73b6a7A","-1","-1","1","0","[]","0","2","","","10987","103","7","4","lose","no-go","0"
"pit-trial","222","1512015","0.0-108.0","battery-v0.2","","""event"",""trial"",""time""
""fullscreenenter"",""1"",""1623""
","
","
","""event"",""trial"",""time""
""fullscreenenter"",""1"",""1623""
","
","","","515.2999999523163","","","16","10987","1188","l","elianto","#3366ff99"," "," ","1","0","[1365.5]","1","2","","","10987","104","8","1","win","go","1"
"pit-trial","223","1515366","0.0-109.0","battery-v0.2","","""event"",""trial"",""time""
""fullscreenenter"",""1"",""1623""
","
","
","""event"",""trial"",""time""
""fullscreenenter"",""1"",""1623""
","
","","","495","","","16","10987","1188","u","elianto","#3366ff99"," "," ","1","+10","[1345.3999999761581]","1","2","","","10987","105","9","1","win","go","0"
"pit-trial","224","1520222","0.0-110.0","battery-v0.2","","""event"",""trial"",""time""
""fullscreenenter"",""1"",""1623""
","
","
","""event"",""trial"",""time""
""fullscreenenter"",""1"",""1623""
","
","","","-1","","","16","10987","1188","g","elianto","#f73b6a7A"," ","-1","0","0","[]","0","2","","","10987","106","6","3","lose","go","1"
"pit-trial","225","1523666","0.0-111.0","battery-v0.2","","""event"",""trial"",""time""
""fullscreenenter"",""1"",""1623""
","
","
","""event"",""trial"",""time""
""fullscreenenter"",""1"",""1623""
","
","","","589.1999999880791","","","16","10987","1188","s","elianto","#3366ff99"," "," ","1","+10","[1439.2000000476837]","1","2","","","10987","107","4","1","win","go","0"
"pit-trial","226","1527168","0.0-112.0","battery-v0.2","","""event"",""trial"",""time""
""fullscreenenter"",""1"",""1623""
","
","
","""event"",""trial"",""time""
""fullscreenenter"",""1"",""1623""
","
","","","644.0999999642372","","","16","10987","1188","l","elianto","#3366ff99"," "," ","1","+10","[1497.1000000238419]","1","2","","","10987","108","8","1","win","go","0"
"pit-trial","227","1531487","0.0-113.0","battery-v0.2","","""event"",""trial"",""time""
""fullscreenenter"",""1"",""1623""
","
","
","""event"",""trial"",""time""
""fullscreenenter"",""1"",""1623""
","
","","","1464.1000000238419","","","16","10987","1188","u","elianto","#3366ff99"," "," ","1","+10","[2314.300000011921]","1","2","","","10987","109","9","1","win","go","0"
"pit-trial","228","1534845","0.0-114.0","battery-v0.2","","""event"",""trial"",""time""
""fullscreenenter"",""1"",""1623""
","
","
","""event"",""trial"",""time""
""fullscreenenter"",""1"",""1623""
","
","","","502.69999998807907","","","16","10987","1188","l","elianto","#3366ff99"," "," ","1","0","[715.1000000238419,1352.8999999761581]","2","2","","","10987","110","8","1","win","go","1"
"pit-trial","229","1538094","0.0-115.0","battery-v0.2","","""event"",""trial"",""time""
""fullscreenenter"",""1"",""1623""
","
","
","""event"",""trial"",""time""
""fullscreenenter"",""1"",""1623""
","
","","","394.30000001192093","","","16","10987","1188","p","elianto","#3366ff99","-1"," ","0","0","[1244.3999999761581]","1","2","","","10987","111","5","2","win","no-go","0"
"pit-trial","230","1541013","0.0-116.0","battery-v0.2","","""event"",""trial"",""time""
""fullscreenenter"",""1"",""1623""
","
","
","""event"",""trial"",""time""
""fullscreenenter"",""1"",""1623""
","
","","","63.80000001192093","","","16","10987","1188","g","elianto","#f73b6a7A"," "," ","1","0","[914.3000000119209]","1","2","","","10987","112","6","3","lose","go","0"
"pit-trial","231","1544306","0.0-117.0","battery-v0.2","","""event"",""trial"",""time""
""fullscreenenter"",""1"",""1623""
","
","
","""event"",""trial"",""time""
""fullscreenenter"",""1"",""1623""
","
","","","437.69999998807907","","","16","10987","1188","u","elianto","#3366ff99"," "," ","1","+10","[1287.7999999523163]","1","2","","","10987","113","9","1","win","go","0"
"pit-trial","232","1547549","0.0-118.0","battery-v0.2","","""event"",""trial"",""time""
""fullscreenenter"",""1"",""1623""
","
","
","""event"",""trial"",""time""
""fullscreenenter"",""1"",""1623""
","
","","","387","","","16","10987","1188","g","elianto","#f73b6a7A"," "," ","1","0","[1237.199999988079]","1","2","","","10987","114","6","3","lose","go","0"
"pit-trial","233","1550953","0.0-119.0","battery-v0.2","","""event"",""trial"",""time""
""fullscreenenter"",""1"",""1623""
","
","
","""event"",""trial"",""time""
""fullscreenenter"",""1"",""1623""
","
","","","545.8000000119209","","","16","10987","1188","l","elianto","#3366ff99"," "," ","1","+10","[1398]","1","2","","","10987","115","8","1","win","go","0"
"pit-trial","234","1554188","0.0-120.0","battery-v0.2","","""event"",""trial"",""time""
""fullscreenenter"",""1"",""1623""
","
","
","""event"",""trial"",""time""
""fullscreenenter"",""1"",""1623""
","
","","","380.4000000357628","","","16","10987","1188","p","elianto","#3366ff99","-1"," ","0","0","[1230.5]","1","2","","","10987","116","5","2","win","no-go","0"
"pit-trial","235","1557447","0.0-121.0","battery-v0.2","","""event"",""trial"",""time""
""fullscreenenter"",""1"",""1623""
","
","
","""event"",""trial"",""time""
""fullscreenenter"",""1"",""1623""
","
","","","403.39999997615814","","","16","10987","1188","u","elianto","#3366ff99"," "," ","1","0","[1253.5999999642372]","1","2","","","10987","117","9","1","win","go","1"
"pit-trial","236","1560700","0.0-122.0","battery-v0.2","","""event"",""trial"",""time""
""fullscreenenter"",""1"",""1623""
","
","
","""event"",""trial"",""time""
""fullscreenenter"",""1"",""1623""
","
","","","397.9000000357628","","","16","10987","1188","l","elianto","#3366ff99"," "," ","1","+10","[1248]","1","2","","","10987","118","8","1","win","go","0"
"pit-trial","237","1563763","0.0-123.0","battery-v0.2","","""event"",""trial"",""time""
""fullscreenenter"",""1"",""1623""
","
","
","""event"",""trial"",""time""
""fullscreenenter"",""1"",""1623""
","
","","","205.80000001192093","","","16","10987","1188","p","elianto","#3366ff99","-1"," ","0","0","[1057.7000000476837]","1","2","","","10987","119","5","2","win","no-go","0"
"pit-trial","238","1566919","0.0-124.0","battery-v0.2","","""event"",""trial"",""time""
""fullscreenenter"",""1"",""1623""
","
","
","""event"",""trial"",""time""
""fullscreenenter"",""1"",""1623""
","
","","","300.39999997615814","","","16","10987","1188","g","elianto","#f73b6a7A"," "," ","1","0","[1150.5]","1","2","","","10987","120","6","3","lose","go","0"
"pit-trial","239","1570253","0.0-125.0","battery-v0.2","","""event"",""trial"",""time""
""fullscreenenter"",""1"",""1623""
","
","
","""event"",""trial"",""time""
""fullscreenenter"",""1"",""1623""
","
","","","479.19999998807907","","","16","10987","1188","u","elianto","#3366ff99"," "," ","1","+10","[1329.4000000357628]","1","2","","","10987","121","9","1","win","go","0"
"pit-trial","240","1573819","0.0-126.0","battery-v0.2","","""event"",""trial"",""time""
""fullscreenenter"",""1"",""1623""
","
","
","""event"",""trial"",""time""
""fullscreenenter"",""1"",""1623""
","
","","","710.1999999880791","","","16","10987","1188","l","elianto","#3366ff99"," "," ","1","+10","[1560.3999999761581]","1","2","","","10987","122","8","1","win","go","0"
"pit-trial","241","1578001","0.0-127.0","battery-v0.2","","""event"",""trial"",""time""
""fullscreenenter"",""1"",""1623""
","
","
","""event"",""trial"",""time""
""fullscreenenter"",""1"",""1623""
","
","","","1328.2000000476837","","","16","10987","1188","a","elianto","#f73b6a7A","-1"," ","0","-10","[2178.300000011921]","1","2","","","10987","123","7","4","lose","no-go","0"
"pit-trial","242","1581470","0.0-128.0","battery-v0.2","","""event"",""trial"",""time""
""fullscreenenter"",""1"",""1623""
","
","
","""event"",""trial"",""time""
""fullscreenenter"",""1"",""1623""
","
","","","614.9000000357628","","","16","10987","1188","g","elianto","#f73b6a7A"," "," ","1","0","[1465.5999999642372]","1","2","","","10987","124","6","3","lose","go","0"
"pit-trial","243","1584795","0.0-129.0","battery-v0.2","","""event"",""trial"",""time""
""fullscreenenter"",""1"",""1623""
","
","
","""event"",""trial"",""time""
""fullscreenenter"",""1"",""1623""
","
","","","469.9000000357628","","","16","10987","1188","u","elianto","#3366ff99"," "," ","1","+10","[1320.1000000238419]","1","2","","","10987","125","9","1","win","go","0"
"pit-trial","244","1587798","0.0-130.0","battery-v0.2","","""event"",""trial"",""time""
""fullscreenenter"",""1"",""1623""
","
","
","""event"",""trial"",""time""
""fullscreenenter"",""1"",""1623""
","
","","","147.39999997615814","","","16","10987","1188","g","elianto","#f73b6a7A"," "," ","1","0","[997.6999999880791]","1","2","","","10987","126","6","3","lose","go","0"
"pit-trial","245","1591105","0.0-131.0","battery-v0.2","","""event"",""trial"",""time""
""fullscreenenter"",""1"",""1623""
","
","
","""event"",""trial"",""time""
""fullscreenenter"",""1"",""1623""
","
","","","450.80000001192093","","","16","10987","1188","l","elianto","#3366ff99"," "," ","1","+10","[1302]","1","2","","","10987","127","8","1","win","go","0"
"pit-trial","246","1595960","0.0-132.0","battery-v0.2","","""event"",""trial"",""time""
""fullscreenenter"",""1"",""1623""
","
","
","""event"",""trial"",""time""
""fullscreenenter"",""1"",""1623""
","
","","","-1","","","16","10987","1188","a","elianto","#f73b6a7A","-1","-1","1","0","[]","0","2","","","10987","128","7","4","lose","no-go","0"
"pit-trial","247","1599717","0.0-133.0","battery-v0.2","","""event"",""trial"",""time""
""fullscreenenter"",""1"",""1623""
","
","
","""event"",""trial"",""time""
""fullscreenenter"",""1"",""1623""
","
","","","901.6999999880791","","","16","10987","1188","g","elianto","#f73b6a7A"," "," ","1","0","[1752.199999988079]","1","2","","","10987","129","6","3","lose","go","0"
"pit-trial","248","1603940","0.0-134.0","battery-v0.2","","""event"",""trial"",""time""
""fullscreenenter"",""1"",""1623""
","
","
","""event"",""trial"",""time""
""fullscreenenter"",""1"",""1623""
","
","","","1367.800000011921","","","16","10987","1188","l","elianto","#3366ff99"," "," ","1","+10","[2217.599999964237]","1","2","","","10987","130","8","1","win","go","0"
"pit-trial","249","1607337","0.0-135.0","battery-v0.2","","""event"",""trial"",""time""
""fullscreenenter"",""1"",""1623""
","
","
","""event"",""trial"",""time""
""fullscreenenter"",""1"",""1623""
","
","","","541.5","","","16","10987","1188","u","elianto","#3366ff99"," "," ","1","0","[1391.699999988079]","1","2","","","10987","131","9","1","win","go","1"
"pit-trial","250","1612192","0.0-136.0","battery-v0.2","","""event"",""trial"",""time""
""fullscreenenter"",""1"",""1623""
","
","
","""event"",""trial"",""time""
""fullscreenenter"",""1"",""1623""
","
","","","-1","","","16","10987","1188","a","elianto","#f73b6a7A","-1","-1","1","0","[]","0","2","","","10987","132","7","4","lose","no-go","0"
"pit-trial","251","1615623","0.0-137.0","battery-v0.2","","""event"",""trial"",""time""
""fullscreenenter"",""1"",""1623""
","
","
","""event"",""trial"",""time""
""fullscreenenter"",""1"",""1623""
","
","","","575.5","","","16","10987","1188","a","elianto","#f73b6a7A","-1"," ","0","-10","[1425.6000000238419]","1","2","","","10987","133","7","4","lose","no-go","0"
"pit-trial","252","1618946","0.0-138.0","battery-v0.2","","""event"",""trial"",""time""
""fullscreenenter"",""1"",""1623""
","
","
","""event"",""trial"",""time""
""fullscreenenter"",""1"",""1623""
","
","","","467.5","","","16","10987","1188","u","elianto","#3366ff99"," "," ","1","+10","[1317.8999999761581]","1","2","","","10987","134","9","1","win","go","0"
"pit-trial","253","1622646","0.0-139.0","battery-v0.2","","""event"",""trial"",""time""
""fullscreenenter"",""1"",""1623""
","
","
","""event"",""trial"",""time""
""fullscreenenter"",""1"",""1623""
","
","","","843","","","16","10987","1188","g","elianto","#f73b6a7A"," "," ","1","0","[1695.199999988079]","1","2","","","10987","135","6","3","lose","go","0"
"pit-trial","254","1626053","0.0-140.0","battery-v0.2","","""event"",""trial"",""time""
""fullscreenenter"",""1"",""1623""
","
","
","""event"",""trial"",""time""
""fullscreenenter"",""1"",""1623""
","
","","","549.0999999642372","","","16","10987","1188","l","elianto","#3366ff99"," "," ","1","0","[1402.0999999642372]","1","2","","","10987","136","8","1","win","go","1"
"pit-trial","255","1629842","0.0-141.0","battery-v0.2","","""event"",""trial"",""time""
""fullscreenenter"",""1"",""1623""
","
","
","""event"",""trial"",""time""
""fullscreenenter"",""1"",""1623""
","
","","","932","","","16","10987","1188","g","elianto","#f73b6a7A"," "," ","1","0","[1782.6000000238419]","1","2","","","10987","137","6","3","lose","go","0"
"pit-trial","256","1634698","0.0-142.0","battery-v0.2","","""event"",""trial"",""time""
""fullscreenenter"",""1"",""1623""
","
","
","""event"",""trial"",""time""
""fullscreenenter"",""1"",""1623""
","
","","","-1","","","16","10987","1188","a","elianto","#f73b6a7A","-1","-1","1","-10","[848.1999999880791]","1","2","","","10987","138","7","4","lose","no-go","1"
"pit-trial","257","1637938","0.0-143.0","battery-v0.2","","""event"",""trial"",""time""
""fullscreenenter"",""1"",""1623""
","
","
","""event"",""trial"",""time""
""fullscreenenter"",""1"",""1623""
","
","","","385.5","","","16","10987","1188","u","elianto","#3366ff99"," "," ","1","+10","[1235.5]","1","2","","","10987","139","9","1","win","go","0"
"pit-trial","258","1641287","0.0-144.0","battery-v0.2","","""event"",""trial"",""time""
""fullscreenenter"",""1"",""1623""
","
","
","""event"",""trial"",""time""
""fullscreenenter"",""1"",""1623""
","
","","","493.2000000476837","","","16","10987","1188","l","elianto","#3366ff99"," "," ","1","+10","[1343.300000011921]","1","2","","","10987","140","8","1","win","go","0"
"pit-instructions","259","1754272","0.0-145.0","battery-v0.2","","""event"",""trial"",""time""
""fullscreenenter"",""1"",""1623""
","
","
","""event"",""trial"",""time""
""fullscreenenter"",""1"",""1623""
","
","","[{""page_index"":0,""viewing_time"":104250.90000003576},{""page_index"":1,""viewing_time"":8730}]","112981.80000001192","","","","","","","","","","","","","","","","","","","","","","","",""
"pit-trial","260","1757556","0.0-146.0","battery-v0.2","","""event"",""trial"",""time""
""fullscreenenter"",""1"",""1623""
","
","
","""event"",""trial"",""time""
""fullscreenenter"",""1"",""1623""
","
","","","427","","","16","10987","1188","f","elianto","#3366ff99"," "," ","1","0","[1278.199999988079]","1","3","","","10987","141","1","1","win","go","1"
"pit-trial","261","1760805","0.0-147.0","battery-v0.2","","""event"",""trial"",""time""
""fullscreenenter"",""1"",""1623""
","
","
","""event"",""trial"",""time""
""fullscreenenter"",""1"",""1623""
","
","","","393.80000001192093","","","16","10987","1188","n","elianto","#f73b6a7A","-1"," ","0","-10","[1243.800000011921]","1","3","","","10987","142","0","4","lose","no-go","0"
"pit-trial","262","1764621","0.0-148.0","battery-v0.2","","""event"",""trial"",""time""
""fullscreenenter"",""1"",""1623""
","
","
","""event"",""trial"",""time""
""fullscreenenter"",""1"",""1623""
","
","","","959.4000000357628","","","16","10987","1188","b","elianto","#f73b6a7A"," "," ","1","-10","[1811]","1","3","","","10987","143","3","3","lose","go","1"
"pit-trial","263","1769476","0.0-149.0","battery-v0.2","","""event"",""trial"",""time""
""fullscreenenter"",""1"",""1623""
","
","
","""event"",""trial"",""time""
""fullscreenenter"",""1"",""1623""
","
","","","-1","","","16","10987","1188","t","elianto","#f73b6a7A","-1","-1","1","0","[]","0","3","","","10987","144","2","4","lose","no-go","0"
"pit-trial","264","1774331","0.0-150.0","battery-v0.2","","""event"",""trial"",""time""
""fullscreenenter"",""1"",""1623""
","
","
","""event"",""trial"",""time""
""fullscreenenter"",""1"",""1623""
","
","","","-1","","","16","10987","1188","n","elianto","#f73b6a7A","-1","-1","1","0","[]","0","3","","","10987","145","0","4","lose","no-go","0"
"pit-trial","265","1777985","0.0-151.0","battery-v0.2","","""event"",""trial"",""time""
""fullscreenenter"",""1"",""1623""
","
","
","""event"",""trial"",""time""
""fullscreenenter"",""1"",""1623""
","
