"trial_type","trial_index","time_elapsed","internal_node_id","task_version","subject_id","interactions","blur_events","focus_events","fullscreenenter_events","fullscreenexit_events","success","view_history","rt","responses","num_errors","age","subject","participantId","rune","rune_set","hex","correct","choice","accuracy","outcome","keys","total_keys","block","practice","value","sub","trial","stimulus","robot","valence","action","sham"
"pavlovia","0","7","0.0-0.0","battery-v0.2","","""event"",""trial"",""time""
""fullscreenenter"",""1"",""1409""
""fullscreenenter"",""1"",""1410""
","
","
","""event"",""trial"",""time""
""fullscreenenter"",""1"",""1409""
""fullscreenenter"",""1"",""1410""
","
","","","","","","","","","","","","","","","","","","","","","","","","","","",""
"fullscreen","1","2379","0.0-1.0","battery-v0.2","","""event"",""trial"",""time""
""fullscreenenter"",""1"",""1409""
""fullscreenenter"",""1"",""1410""
","
","
","""event"",""trial"",""time""
""fullscreenenter"",""1"",""1409""
""fullscreenenter"",""1"",""1410""
","
","true","","","","","","","","","","","","","","","","","","","","","","","","","",""
"pit-instructions","2","5908","0.0-2.0-0.0","battery-v0.2","","""event"",""trial"",""time""
""fullscreenenter"",""1"",""1409""
""fullscreenenter"",""1"",""1410""
","
","
","""event"",""trial"",""time""
""fullscreenenter"",""1"",""1409""
""fullscreenenter"",""1"",""1410""
","
","","[{""page_index"":0,""viewing_time"":3519}]","3520","","","","","","","","","","","","","","","","","","","","","","","",""
"pit-comprehension","3","9025","0.0-2.0-1.0-0.0","battery-v0.2","","""event"",""trial"",""time""
""fullscreenenter"",""1"",""1409""
""fullscreenenter"",""1"",""1410""
","
","
","""event"",""trial"",""time""
""fullscreenenter"",""1"",""1409""
""fullscreenenter"",""1"",""1410""
","
","","","3059","[""shark""]","0","25","11351","2517","","","","","","","","","","","","","","","","","","",""
"pit-instructions","4","12294","0.0-2.0-1.0-1.0","battery-v0.2","","""event"",""trial"",""time""
""fullscreenenter"",""1"",""1409""
""fullscreenenter"",""1"",""1410""
","
","
","""event"",""trial"",""time""
""fullscreenenter"",""1"",""1409""
""fullscreenenter"",""1"",""1410""
","
","","[{""page_index"":0,""viewing_time"":3264.000000000002}]","3265","","","","","","","","","","","","","","","","","","","","","","","",""
"pit-comprehension","5","14416","0.0-2.0-2.0-0.0","battery-v0.2","","""event"",""trial"",""time""
""fullscreenenter"",""1"",""1409""
""fullscreenenter"",""1"",""1410""
","
","
","""event"",""trial"",""time""
""fullscreenenter"",""1"",""1409""
""fullscreenenter"",""1"",""1410""
","
","","","2115","[""tiger""]","0","25","11351","2517","","","","","","","","","","","","","","","","","","",""
"pit-instructions","6","15177","0.0-2.0-2.0-1.0","battery-v0.2","","""event"",""trial"",""time""
""fullscreenenter"",""1"",""1409""
""fullscreenenter"",""1"",""1410""
","
","
","""event"",""trial"",""time""
""fullscreenenter"",""1"",""1409""
""fullscreenenter"",""1"",""1410""
","
","","[{""page_index"":0,""viewing_time"":756}]","757","","","","","","","","","","","","","","","","","","","","","","","",""
"pit-instructions","7","146365","0.0-2.0-3.0","battery-v0.2","","""event"",""trial"",""time""
""fullscreenenter"",""1"",""1409""
""fullscreenenter"",""1"",""1410""
","
","
","""event"",""trial"",""time""
""fullscreenenter"",""1"",""1409""
""fullscreenenter"",""1"",""1410""
","
","","[{""page_index"":0,""viewing_time"":10043},{""page_index"":1,""viewing_time"":6899},{""page_index"":2,""viewing_time"":7185},{""page_index"":3,""viewing_time"":5666},{""page_index"":4,""viewing_time"":6067},{""page_index"":5,""viewing_time"":6316},{""page_index"":6,""viewing_time"":6477},{""page_index"":7,""viewing_time"":19949},{""page_index"":8,""viewing_time"":18041},{""page_index"":9,""viewing_time"":10117},{""page_index"":10,""viewing_time"":7549},{""page_index"":11,""viewing_time"":7535},{""page_index"":12,""viewing_time"":9524},{""page_index"":13,""viewing_time"":9808.00000000003}]","131177","","","","","","","","","","","","","","","","","","","","","","","",""
"pit-trial","8","149730","0.0-2.0-4.0-0.0","battery-v0.2","","""event"",""trial"",""time""
""fullscreenenter"",""1"",""1409""
""fullscreenenter"",""1"",""1410""
","
","
","""event"",""trial"",""time""
""fullscreenenter"",""1"",""1409""
""fullscreenenter"",""1"",""1410""
","
","","","507.0000000000291","","","25","11351","2517","&#9784;","elianto","#FFFFF080"," "," ","1","&#10004","[1358.000000000029]","1","0","0","","","","","","","",""
"pit-trial","9","153263","0.0-2.0-4.1-0.1","battery-v0.2","","""event"",""trial"",""time""
""fullscreenenter"",""1"",""1409""
""fullscreenenter"",""1"",""1410""
","
","
","""event"",""trial"",""time""
""fullscreenenter"",""1"",""1409""
""fullscreenenter"",""1"",""1410""
","
","","","673","","","25","11351","2517","&#9784;","elianto","#FFFFF080"," "," ","1","&#10004","[1524]","1","0","0","","","","","","","",""
"pit-trial","10","156581","0.0-2.0-4.2-0.2","battery-v0.2","","""event"",""trial"",""time""
""fullscreenenter"",""1"",""1409""
""fullscreenenter"",""1"",""1410""
","
","
","""event"",""trial"",""time""
""fullscreenenter"",""1"",""1409""
""fullscreenenter"",""1"",""1410""
","
","","","456.0000000000291","","","25","11351","2517","&#9784;","elianto","#FFFFF080"," "," ","1","&#10004","[1307.000000000029]","1","0","0","","","","","","","",""
"pit-trial","11","160030","0.0-2.0-4.3-0.3","battery-v0.2","","""event"",""trial"",""time""
""fullscreenenter"",""1"",""1409""
""fullscreenenter"",""1"",""1410""
","
","
","""event"",""trial"",""time""
""fullscreenenter"",""1"",""1409""
""fullscreenenter"",""1"",""1410""
","
","","","590","","","25","11351","2517","&#9784;","elianto","#FFFFF080"," "," ","1","&#10004","[1441]","1","0","0","","","","","","","",""
"pit-trial","12","163438","0.0-2.0-4.4-0.4","battery-v0.2","","""event"",""trial"",""time""
""fullscreenenter"",""1"",""1409""
""fullscreenenter"",""1"",""1410""
","
","
","""event"",""trial"",""time""
""fullscreenenter"",""1"",""1409""
""fullscreenenter"",""1"",""1410""
","
","","","549","","","25","11351","2517","&#9784;","elianto","#FFFFF080"," "," ","1","&#10004","[1400]","1","0","0","","","","","","","",""
"pit-instructions","13","186209","0.0-2.0-5.0","battery-v0.2","","""event"",""trial"",""time""
""fullscreenenter"",""1"",""1409""
""fullscreenenter"",""1"",""1410""
","
","
","""event"",""trial"",""time""
""fullscreenenter"",""1"",""1409""
""fullscreenenter"",""1"",""1410""
","
","","[{""page_index"":0,""viewing_time"":6980},{""page_index"":1,""viewing_time"":5757},{""page_index"":2,""viewing_time"":4725},{""page_index"":3,""viewing_time"":5300}]","22763.00000000003","","","","","","","","","","","","","","","","","","","","","","","",""
"pit-trial","14","191064","0.0-2.0-6.0-0.0","battery-v0.2","","""event"",""trial"",""time""
""fullscreenenter"",""1"",""1409""
""fullscreenenter"",""1"",""1410""
","
","
","""event"",""trial"",""time""
""fullscreenenter"",""1"",""1409""
""fullscreenenter"",""1"",""1410""
","
","","","-1","","","25","11351","2517","&#9854;","elianto","#FFFFF080","-1","-1","1","&#10004","[]","0","0","1","","","","","","","",""
"pit-trial","15","195924","0.0-2.0-6.1-0.1","battery-v0.2","","""event"",""trial"",""time""
""fullscreenenter"",""1"",""1409""
""fullscreenenter"",""1"",""1410""
","
","
","""event"",""trial"",""time""
""fullscreenenter"",""1"",""1409""
""fullscreenenter"",""1"",""1410""
","
","","","-1","","","25","11351","2517","&#9854;","elianto","#FFFFF080","-1","-1","1","&#10004","[]","0","0","1","","","","","","","",""
"pit-trial","16","200783","0.0-2.0-6.2-0.2","battery-v0.2","","""event"",""trial"",""time""
""fullscreenenter"",""1"",""1409""
""fullscreenenter"",""1"",""1410""
","
","
","""event"",""trial"",""time""
""fullscreenenter"",""1"",""1409""
""fullscreenenter"",""1"",""1410""
","
","","","-1","","","25","11351","2517","&#9854;","elianto","#FFFFF080","-1","-1","1","&#10004","[]","0","0","1","","","","","","","",""
"pit-trial","17","205643","0.0-2.0-6.3-0.3","battery-v0.2","","""event"",""trial"",""time""
""fullscreenenter"",""1"",""1409""
""fullscreenenter"",""1"",""1410""
","
","
","""event"",""trial"",""time""
""fullscreenenter"",""1"",""1409""
""fullscreenenter"",""1"",""1410""
","
","","","-1","","","25","11351","2517","&#9854;","elianto","#FFFFF080","-1","-1","1","&#10004","[]","0","0","1","","","","","","","",""
"pit-trial","18","210503","0.0-2.0-6.4-0.4","battery-v0.2","","""event"",""trial"",""time""
""fullscreenenter"",""1"",""1409""
""fullscreenenter"",""1"",""1410""
","
","
","""event"",""trial"",""time""
""fullscreenenter"",""1"",""1409""
""fullscreenenter"",""1"",""1410""
","
","","","-1","","","25","11351","2517","&#9854;","elianto","#FFFFF080","-1","-1","1","&#10004","[]","0","0","1","","","","","","","",""
"pit-instructions","19","531069","0.0-2.0-7.0","battery-v0.2","","""event"",""trial"",""time""
""fullscreenenter"",""1"",""1409""
""fullscreenenter"",""1"",""1410""
","
","
","""event"",""trial"",""time""
""fullscreenenter"",""1"",""1409""
""fullscreenenter"",""1"",""1410""
","
","","[{""page_index"":0,""viewing_time"":7746.000000000029},{""page_index"":1,""viewing_time"":12757.99999999997},{""page_index"":2,""viewing_time"":21283},{""page_index"":3,""viewing_time"":10267},{""page_index"":4,""viewing_time"":6226},{""page_index"":5,""viewing_time"":7257},{""page_index"":6,""viewing_time"":5667},{""page_index"":7,""viewing_time"":8842},{""page_index"":8,""viewing_time"":7441},{""page_index"":9,""viewing_time"":9801},{""page_index"":10,""viewing_time"":7483},{""page_index"":11,""viewing_time"":7333},{""page_index"":12,""viewing_time"":8533},{""page_index"":13,""viewing_time"":9884},{""page_index"":14,""viewing_time"":8367},{""page_index"":15,""viewing_time"":6599},{""page_index"":16,""viewing_time"":19717},{""page_index"":17,""viewing_time"":155352}]","320556","","","","","","","","","","","","","","","","","","","","","","","",""
"pit-trial","20","535128","0.0-2.0-8.0-0.0","battery-v0.2","","""event"",""trial"",""time""
""fullscreenenter"",""1"",""1409""
""fullscreenenter"",""1"",""1410""
","
","
","""event"",""trial"",""time""
""fullscreenenter"",""1"",""1409""
""fullscreenenter"",""1"",""1410""
","
","","","1204","","","25","11351","2517","&#9776;","elianto","#3366ff99"," "," ","1","+10","[2054]","1","0","1","","","","","","","",""
"pit-trial","21","538678","0.0-2.0-8.0-1.0","battery-v0.2","","""event"",""trial"",""time""
""fullscreenenter"",""1"",""1409""
""fullscreenenter"",""1"",""1410""
","
","
","""event"",""trial"",""time""
""fullscreenenter"",""1"",""1409""
""fullscreenenter"",""1"",""1410""
","
","","","689","","","25","11351","2517","&#9776;","elianto","#3366ff99"," "," ","1","+10","[1542]","1","0","1","","","","","","","",""
"pit-trial","22","542314","0.0-2.0-8.0-2.0","battery-v0.2","","""event"",""trial"",""time""
""fullscreenenter"",""1"",""1409""
""fullscreenenter"",""1"",""1410""
","
","
","""event"",""trial"",""time""
""fullscreenenter"",""1"",""1409""
""fullscreenenter"",""1"",""1410""
","
","","","775.9999999998836","","","25","11351","2517","&#9776;","elianto","#3366ff99"," "," ","1","+10","[1628]","1","0","1","","","","","","","",""
"pit-trial","23","546917","0.0-2.0-8.0-3.0","battery-v0.2","","""event"",""trial"",""time""
""fullscreenenter"",""1"",""1409""
""fullscreenenter"",""1"",""1410""
","
","
","""event"",""trial"",""time""
""fullscreenenter"",""1"",""1409""
""fullscreenenter"",""1"",""1410""
","
","","","1745","","","25","11351","2517","&#9776;","elianto","#3366ff99"," "," ","1","0","[2596]","1","0","1","","","","","","","",""
"pit-trial","24","550178","0.0-2.0-8.0-4.0","battery-v0.2","","""event"",""trial"",""time""
""fullscreenenter"",""1"",""1409""
""fullscreenenter"",""1"",""1410""
","
","
","""event"",""trial"",""time""
""fullscreenenter"",""1"",""1409""
""fullscreenenter"",""1"",""1410""
","
","","","403","","","25","11351","2517","&#9776;","elianto","#3366ff99"," "," ","1","+10","[1254,2455]","2","0","1","","","","","","","",""
"pit-trial","25","553398","0.0-2.0-8.1-0.1","battery-v0.2","","""event"",""trial"",""time""
""fullscreenenter"",""1"",""1409""
""fullscreenenter"",""1"",""1410""
","
","
","""event"",""trial"",""time""
""fullscreenenter"",""1"",""1409""
""fullscreenenter"",""1"",""1410""
","
","","","359.9999999998836","","","25","11351","2517","&#9776;","elianto","#3366ff99"," "," ","1","+10","[1212]","1","0","1","","","","","","","",""
"pit-trial","26","556715","0.0-2.0-8.1-1.1","battery-v0.2","","""event"",""trial"",""time""
""fullscreenenter"",""1"",""1409""
""fullscreenenter"",""1"",""1410""
","
","
","""event"",""trial"",""time""
""fullscreenenter"",""1"",""1409""
""fullscreenenter"",""1"",""1410""
","
","","","457","","","25","11351","2517","&#9776;","elianto","#3366ff99"," "," ","1","+10","[1308]","1","0","1","","","","","","","",""
"pit-trial","27","560619","0.0-2.0-8.1-2.1","battery-v0.2","","""event"",""trial"",""time""
""fullscreenenter"",""1"",""1409""
""fullscreenenter"",""1"",""1410""
","
","
","""event"",""trial"",""time""
""fullscreenenter"",""1"",""1409""
""fullscreenenter"",""1"",""1410""
","
","","","1047","","","25","11351","2517","&#9776;","elianto","#3366ff99"," "," ","1","+10","[1897]","1","0","1","","","","","","","",""
"pit-trial","28","563906","0.0-2.0-8.1-3.1","battery-v0.2","","""event"",""trial"",""time""
""fullscreenenter"",""1"",""1409""
""fullscreenenter"",""1"",""1410""
","
","
","""event"",""trial"",""time""
""fullscreenenter"",""1"",""1409""
""fullscreenenter"",""1"",""1410""
","
","","","428","","","25","11351","2517","&#9776;","elianto","#3366ff99"," "," ","1","0","[1279]","1","0","1","","","","","","","",""
"pit-trial","29","567219","0.0-2.0-8.1-4.1","battery-v0.2","","""event"",""trial"",""time""
""fullscreenenter"",""1"",""1409""
""fullscreenenter"",""1"",""1410""
","
","
","""event"",""trial"",""time""
""fullscreenenter"",""1"",""1409""
""fullscreenenter"",""1"",""1410""
","
","","","454.9999999998836","","","25","11351","2517","&#9776;","elianto","#3366ff99"," "," ","1","+10","[1305.9999999998836]","1","0","1","","","","","","","",""
"pit-trial","30","570489","0.0-2.0-8.2-0.2","battery-v0.2","","""event"",""trial"",""time""
""fullscreenenter"",""1"",""1409""
""fullscreenenter"",""1"",""1410""
","
","
","""event"",""trial"",""time""
""fullscreenenter"",""1"",""1409""
""fullscreenenter"",""1"",""1410""
","
","","","410","","","25","11351","2517","&#9776;","elianto","#3366ff99"," "," ","1","+10","[1261]","1","0","1","","","","","","","",""
"pit-trial","31","573792","0.0-2.0-8.2-1.2","battery-v0.2","","""event"",""trial"",""time""
""fullscreenenter"",""1"",""1409""
""fullscreenenter"",""1"",""1410""
","
","
","""event"",""trial"",""time""
""fullscreenenter"",""1"",""1409""
""fullscreenenter"",""1"",""1410""
","
","","","445","","","25","11351","2517","&#9776;","elianto","#3366ff99"," "," ","1","+10","[1296]","1","0","1","","","","","","","",""
"pit-trial","32","577067","0.0-2.0-8.2-2.2","battery-v0.2","","""event"",""trial"",""time""
""fullscreenenter"",""1"",""1409""
""fullscreenenter"",""1"",""1410""
","
","
","""event"",""trial"",""time""
""fullscreenenter"",""1"",""1409""
""fullscreenenter"",""1"",""1410""
","
","","","416","","","25","11351","2517","&#9776;","elianto","#3366ff99"," "," ","1","+10","[1267]","1","0","1","","","","","","","",""
"pit-trial","33","580310","0.0-2.0-8.2-3.2","battery-v0.2","","""event"",""trial"",""time""
""fullscreenenter"",""1"",""1409""
""fullscreenenter"",""1"",""1410""
","
","
","""event"",""trial"",""time""
""fullscreenenter"",""1"",""1409""
""fullscreenenter"",""1"",""1410""
","
","","","385","","","25","11351","2517","&#9776;","elianto","#3366ff99"," "," ","1","0","[1235]","1","0","1","","","","","","","",""
"pit-trial","34","583437","0.0-2.0-8.2-4.2","battery-v0.2","","""event"",""trial"",""time""
""fullscreenenter"",""1"",""1409""
""fullscreenenter"",""1"",""1410""
","
","
","""event"",""trial"",""time""
""fullscreenenter"",""1"",""1409""
""fullscreenenter"",""1"",""1410""
","
","","","271","","","25","11351","2517","&#9776;","elianto","#3366ff99"," "," ","1","+10","[1121]","1","0","1","","","","","","","",""
"call-function","35","583443","0.0-2.0-9.0","battery-v0.2","","""event"",""trial"",""time""
""fullscreenenter"",""1"",""1409""
""fullscreenenter"",""1"",""1410""
""blur"",""36"",""1242213""
""focus"",""36"",""1248407""
""blur"",""36"",""1439558""
""focus"",""36"",""1464527""
","""event"",""trial"",""time""
""blur"",""36"",""1242213""
""blur"",""36"",""1439558""
","""event"",""trial"",""time""
""focus"",""36"",""1248407""
""focus"",""36"",""1464527""
","""event"",""trial"",""time""
""fullscreenenter"",""1"",""1409""
""fullscreenenter"",""1"",""1410""
","
","","","","","","","","","","","","","","","","","","","","","","","","","","",""
"pit-instructions","36","1466507","0.0-2.0-10.0","battery-v0.2","","""event"",""trial"",""time""
""fullscreenenter"",""1"",""1409""
""fullscreenenter"",""1"",""1410""
""blur"",""36"",""1242213""
""focus"",""36"",""1248407""
""blur"",""36"",""1439558""
""focus"",""36"",""1464527""
","""event"",""trial"",""time""
""blur"",""36"",""1242213""
""blur"",""36"",""1439558""
","""event"",""trial"",""time""
""focus"",""36"",""1248407""
""focus"",""36"",""1464527""
","""event"",""trial"",""time""
""fullscreenenter"",""1"",""1409""
""fullscreenenter"",""1"",""1410""
","
","","[{""page_index"":0,""viewing_time"":44202},{""page_index"":1,""viewing_time"":13073},{""page_index"":2,""viewing_time"":16784.000000000116},{""page_index"":3,""viewing_time"":30882.999999999884},{""page_index"":4,""viewing_time"":778116}]","883060","","","","","","","","","","","","","","","","","","","","","","","",""
"pit-trial","37","1471367","0.0-2.0-11.0-0.0","battery-v0.2","","""event"",""trial"",""time""
""fullscreenenter"",""1"",""1409""
""fullscreenenter"",""1"",""1410""
""blur"",""36"",""1242213""
""focus"",""36"",""1248407""
""blur"",""36"",""1439558""
""focus"",""36"",""1464527""
","""event"",""trial"",""time""
""blur"",""36"",""1242213""
""blur"",""36"",""1439558""
","""event"",""trial"",""time""
""focus"",""36"",""1248407""
""focus"",""36"",""1464527""
","""event"",""trial"",""time""
""fullscreenenter"",""1"",""1409""
""fullscreenenter"",""1"",""1410""
","
","","","-1","","","25","11351","2517","&#9761;","elianto","#3366ff99","-1","-1","1","+10","[]","0","0","2","","","","","","","",""
"pit-trial","38","1474891","0.0-2.0-11.0-1.0","battery-v0.2","","""event"",""trial"",""time""
""fullscreenenter"",""1"",""1409""
""fullscreenenter"",""1"",""1410""
""blur"",""36"",""1242213""
""focus"",""36"",""1248407""
""blur"",""36"",""1439558""
""focus"",""36"",""1464527""
","""event"",""trial"",""time""
""blur"",""36"",""1242213""
""blur"",""36"",""1439558""
","""event"",""trial"",""time""
""focus"",""36"",""1248407""
""focus"",""36"",""1464527""
","""event"",""trial"",""time""
""fullscreenenter"",""1"",""1409""
""fullscreenenter"",""1"",""1410""
","
","","","664","","","25","11351","2517","&#9761;","elianto","#3366ff99","-1"," ","0","0","[1515]","1","0","2","","","","","","","",""
"pit-trial","39","1478232","0.0-2.0-11.0-2.0","battery-v0.2","","""event"",""trial"",""time""
""fullscreenenter"",""1"",""1409""
""fullscreenenter"",""1"",""1410""
""blur"",""36"",""1242213""
""focus"",""36"",""1248407""
""blur"",""36"",""1439558""
""focus"",""36"",""1464527""
","""event"",""trial"",""time""
""blur"",""36"",""1242213""
""blur"",""36"",""1439558""
","""event"",""trial"",""time""
""focus"",""36"",""1248407""
""focus"",""36"",""1464527""
","""event"",""trial"",""time""
""fullscreenenter"",""1"",""1409""
""fullscreenenter"",""1"",""1410""
","
","","","481","","","25","11351","2517","&#9761;","elianto","#3366ff99","-1"," ","0","0","[1332]","1","0","2","","","","","","","",""
"pit-trial","40","1481587","0.0-2.0-11.0-3.0","battery-v0.2","","""event"",""trial"",""time""
""fullscreenenter"",""1"",""1409""
""fullscreenenter"",""1"",""1410""
""blur"",""36"",""1242213""
""focus"",""36"",""1248407""
""blur"",""36"",""1439558""
""focus"",""36"",""1464527""
","""event"",""trial"",""time""
""blur"",""36"",""1242213""
""blur"",""36"",""1439558""
","""event"",""trial"",""time""
""focus"",""36"",""1248407""
""focus"",""36"",""1464527""
","""event"",""trial"",""time""
""fullscreenenter"",""1"",""1409""
""fullscreenenter"",""1"",""1410""
","
","","","496","","","25","11351","2517","&#9761;","elianto","#3366ff99","-1"," ","0","+10","[1347]","1","0","2","","","","","","","",""
"pit-trial","41","1484948","0.0-2.0-11.0-4.0","battery-v0.2","","""event"",""trial"",""time""
""fullscreenenter"",""1"",""1409""
""fullscreenenter"",""1"",""1410""
""blur"",""36"",""1242213""
""focus"",""36"",""1248407""
""blur"",""36"",""1439558""
""focus"",""36"",""1464527""
","""event"",""trial"",""time""
""blur"",""36"",""1242213""
""blur"",""36"",""1439558""
","""event"",""trial"",""time""
""focus"",""36"",""1248407""
""focus"",""36"",""1464527""
","""event"",""trial"",""time""
""fullscreenenter"",""1"",""1409""
""fullscreenenter"",""1"",""1410""
","
","","","501","","","25","11351","2517","&#9761;","elianto","#3366ff99","-1"," ","0","0","[1352]","1","0","2","","","","","","","",""
"pit-trial","42","1488228","0.0-2.0-11.1-0.1","battery-v0.2","","""event"",""trial"",""time""
""fullscreenenter"",""1"",""1409""
""fullscreenenter"",""1"",""1410""
""blur"",""36"",""1242213""
""focus"",""36"",""1248407""
""blur"",""36"",""1439558""
""focus"",""36"",""1464527""
","""event"",""trial"",""time""
""blur"",""36"",""1242213""
""blur"",""36"",""1439558""
","""event"",""trial"",""time""
""focus"",""36"",""1248407""
""focus"",""36"",""1464527""
","""event"",""trial"",""time""
""fullscreenenter"",""1"",""1409""
""fullscreenenter"",""1"",""1410""
","
","","","418.00000000023283","","","25","11351","2517","&#9761;","elianto","#3366ff99","-1"," ","0","0","[1270.0000000002328]","1","0","2","","","","","","","",""
"pit-trial","43","1491496","0.0-2.0-11.1-1.1","battery-v0.2","","""event"",""trial"",""time""
""fullscreenenter"",""1"",""1409""
""fullscreenenter"",""1"",""1410""
""blur"",""36"",""1242213""
""focus"",""36"",""1248407""
""blur"",""36"",""1439558""
""focus"",""36"",""1464527""
","""event"",""trial"",""time""
""blur"",""36"",""1242213""
""blur"",""36"",""1439558""
","""event"",""trial"",""time""
""focus"",""36"",""1248407""
""focus"",""36"",""1464527""
","""event"",""trial"",""time""
""fullscreenenter"",""1"",""1409""
""fullscreenenter"",""1"",""1410""
","
","","","409","","","25","11351","2517","&#9761;","elianto","#3366ff99","-1"," ","0","0","[1261]","1","0","2","","","","","","","",""
"pit-trial","44","1494681","0.0-2.0-11.1-2.1","battery-v0.2","","""event"",""trial"",""time""
""fullscreenenter"",""1"",""1409""
""fullscreenenter"",""1"",""1410""
""blur"",""36"",""1242213""
""focus"",""36"",""1248407""
""blur"",""36"",""1439558""
""focus"",""36"",""1464527""
","""event"",""trial"",""time""
""blur"",""36"",""1242213""
""blur"",""36"",""1439558""
","""event"",""trial"",""time""
""focus"",""36"",""1248407""
""focus"",""36"",""1464527""
","""event"",""trial"",""time""
""fullscreenenter"",""1"",""1409""
""fullscreenenter"",""1"",""1410""
","
","","","327","","","25","11351","2517","&#9761;","elianto","#3366ff99","-1"," ","0","0","[1178]","1","0","2","","","","","","","",""
"pit-trial","45","1497935","0.0-2.0-11.1-3.1","battery-v0.2","","""event"",""trial"",""time""
""fullscreenenter"",""1"",""1409""
""fullscreenenter"",""1"",""1410""
""blur"",""36"",""1242213""
""focus"",""36"",""1248407""
""blur"",""36"",""1439558""
""focus"",""36"",""1464527""
","""event"",""trial"",""time""
""blur"",""36"",""1242213""
""blur"",""36"",""1439558""
","""event"",""trial"",""time""
""focus"",""36"",""1248407""
""focus"",""36"",""1464527""
","""event"",""trial"",""time""
""fullscreenenter"",""1"",""1409""
""fullscreenenter"",""1"",""1410""
","
","","","392","","","25","11351","2517","&#9761;","elianto","#3366ff99","-1"," ","0","+10","[1244.9999999997672]","1","0","2","","","","","","","",""
"pit-trial","46","1501161","0.0-2.0-11.1-4.1","battery-v0.2","","""event"",""trial"",""time""
""fullscreenenter"",""1"",""1409""
""fullscreenenter"",""1"",""1410""
""blur"",""36"",""1242213""
""focus"",""36"",""1248407""
""blur"",""36"",""1439558""
""focus"",""36"",""1464527""
","""event"",""trial"",""time""
""blur"",""36"",""1242213""
""blur"",""36"",""1439558""
","""event"",""trial"",""time""
""focus"",""36"",""1248407""
""focus"",""36"",""1464527""
","""event"",""trial"",""time""
""fullscreenenter"",""1"",""1409""
""fullscreenenter"",""1"",""1410""
","
","","","368","","","25","11351","2517","&#9761;","elianto","#3366ff99","-1"," ","0","0","[1219]","1","0","2","","","","","","","",""
"pit-trial","47","1504375","0.0-2.0-11.2-0.2","battery-v0.2","","""event"",""trial"",""time""
""fullscreenenter"",""1"",""1409""
""fullscreenenter"",""1"",""1410""
""blur"",""36"",""1242213""
""focus"",""36"",""1248407""
""blur"",""36"",""1439558""
""focus"",""36"",""1464527""
","""event"",""trial"",""time""
""blur"",""36"",""1242213""
""blur"",""36"",""1439558""
","""event"",""trial"",""time""
""focus"",""36"",""1248407""
""focus"",""36"",""1464527""
","""event"",""trial"",""time""
""fullscreenenter"",""1"",""1409""
""fullscreenenter"",""1"",""1410""
","
","","","354","","","25","11351","2517","&#9761;","elianto","#3366ff99","-1"," ","0","0","[1205]","1","0","2","","","","","","","",""
"pit-trial","48","1507572","0.0-2.0-11.2-1.2","battery-v0.2","","""event"",""trial"",""time""
""fullscreenenter"",""1"",""1409""
""fullscreenenter"",""1"",""1410""
""blur"",""36"",""1242213""
""focus"",""36"",""1248407""
""blur"",""36"",""1439558""
""focus"",""36"",""1464527""
","""event"",""trial"",""time""
""blur"",""36"",""1242213""
""blur"",""36"",""1439558""
","""event"",""trial"",""time""
""focus"",""36"",""1248407""
""focus"",""36"",""1464527""
","""event"",""trial"",""time""
""fullscreenenter"",""1"",""1409""
""fullscreenenter"",""1"",""1410""
","
","","","339","","","25","11351","2517","&#9761;","elianto","#3366ff99","-1"," ","0","0","[1189]","1","0","2","","","","","","","",""
"pit-trial","49","1510767","0.0-2.0-11.2-2.2","battery-v0.2","","""event"",""trial"",""time""
""fullscreenenter"",""1"",""1409""
""fullscreenenter"",""1"",""1410""
""blur"",""36"",""1242213""
""focus"",""36"",""1248407""
""blur"",""36"",""1439558""
""focus"",""36"",""1464527""
","""event"",""trial"",""time""
""blur"",""36"",""1242213""
""blur"",""36"",""1439558""
","""event"",""trial"",""time""
""focus"",""36"",""1248407""
""focus"",""36"",""1464527""
","""event"",""trial"",""time""
""fullscreenenter"",""1"",""1409""
""fullscreenenter"",""1"",""1410""
","
","","","336.99999999976717","","","25","11351","2517","&#9761;","elianto","#3366ff99","-1"," ","0","0","[1188]","1","0","2","","","","","","","",""
"pit-trial","50","1513943","0.0-2.0-11.2-3.2","battery-v0.2","","""event"",""trial"",""time""
""fullscreenenter"",""1"",""1409""
""fullscreenenter"",""1"",""1410""
""blur"",""36"",""1242213""
""focus"",""36"",""1248407""
""blur"",""36"",""1439558""
""focus"",""36"",""1464527""
","""event"",""trial"",""time""
""blur"",""36"",""1242213""
""blur"",""36"",""1439558""
","""event"",""trial"",""time""
""focus"",""36"",""1248407""
""focus"",""36"",""1464527""
","""event"",""trial"",""time""
""fullscreenenter"",""1"",""1409""
""fullscreenenter"",""1"",""1410""
","
","","","317","","","25","11351","2517","&#9761;","elianto","#3366ff99","-1"," ","0","+10","[1166.9999999997672]","1","0","2","","","","","","","",""
"pit-trial","51","1517184","0.0-2.0-11.2-4.2","battery-v0.2","","""event"",""trial"",""time""
""fullscreenenter"",""1"",""1409""
""fullscreenenter"",""1"",""1410""
""blur"",""36"",""1242213""
""focus"",""36"",""1248407""
""blur"",""36"",""1439558""
""focus"",""36"",""1464527""
","""event"",""trial"",""time""
""blur"",""36"",""1242213""
""blur"",""36"",""1439558""
","""event"",""trial"",""time""
""focus"",""36"",""1248407""
""focus"",""36"",""1464527""
","""event"",""trial"",""time""
""fullscreenenter"",""1"",""1409""
""fullscreenenter"",""1"",""1410""
","
","","","382","","","25","11351","2517","&#9761;","elianto","#3366ff99","-1"," ","0","0","[1233]","1","0","2","","","","","","","",""
"pit-trial","52","1520403","0.0-2.0-11.3-0.3","battery-v0.2","","""event"",""trial"",""time""
""fullscreenenter"",""1"",""1409""
""fullscreenenter"",""1"",""1410""
""blur"",""36"",""1242213""
""focus"",""36"",""1248407""
""blur"",""36"",""1439558""
""focus"",""36"",""1464527""
","""event"",""trial"",""time""
""blur"",""36"",""1242213""
""blur"",""36"",""1439558""
","""event"",""trial"",""time""
""focus"",""36"",""1248407""
""focus"",""36"",""1464527""
","""event"",""trial"",""time""
""fullscreenenter"",""1"",""1409""
""fullscreenenter"",""1"",""1410""
","
","","","361","","","25","11351","2517","&#9761;","elianto","#3366ff99","-1"," ","0","0","[1211]","1","0","2","","","","","","","",""
"pit-trial","53","1523597","0.0-2.0-11.3-1.3","battery-v0.2","","""event"",""trial"",""time""
""fullscreenenter"",""1"",""1409""
""fullscreenenter"",""1"",""1410""
""blur"",""36"",""1242213""
""focus"",""36"",""1248407""
""blur"",""36"",""1439558""
""focus"",""36"",""1464527""
","""event"",""trial"",""time""
""blur"",""36"",""1242213""
""blur"",""36"",""1439558""
","""event"",""trial"",""time""
""focus"",""36"",""1248407""
""focus"",""36"",""1464527""
","""event"",""trial"",""time""
""fullscreenenter"",""1"",""1409""
""fullscreenenter"",""1"",""1410""
","
","","","336","","","25","11351","2517","&#9761;","elianto","#3366ff99","-1"," ","0","0","[1186.9999999997672]","1","0","2","","","","","","","",""
"pit-trial","54","1526754","0.0-2.0-11.3-2.3","battery-v0.2","","""event"",""trial"",""time""
""fullscreenenter"",""1"",""1409""
""fullscreenenter"",""1"",""1410""
""blur"",""36"",""1242213""
""focus"",""36"",""1248407""
""blur"",""36"",""1439558""
""focus"",""36"",""1464527""
","""event"",""trial"",""time""
""blur"",""36"",""1242213""
""blur"",""36"",""1439558""
","""event"",""trial"",""time""
""focus"",""36"",""1248407""
""focus"",""36"",""1464527""
","""event"",""trial"",""time""
""fullscreenenter"",""1"",""1409""
""fullscreenenter"",""1"",""1410""
","
","","","299","","","25","11351","2517","&#9761;","elianto","#3366ff99","-1"," ","0","0","[1149]","1","0","2","","","","","","","",""
"pit-trial","55","1529863","0.0-2.0-11.3-3.3","battery-v0.2","","""event"",""trial"",""time""
""fullscreenenter"",""1"",""1409""
""fullscreenenter"",""1"",""1410""
""blur"",""36"",""1242213""
""focus"",""36"",""1248407""
""blur"",""36"",""1439558""
""focus"",""36"",""1464527""
","""event"",""trial"",""time""
""blur"",""36"",""1242213""
""blur"",""36"",""1439558""
","""event"",""trial"",""time""
""focus"",""36"",""1248407""
""focus"",""36"",""1464527""
","""event"",""trial"",""time""
""fullscreenenter"",""1"",""1409""
""fullscreenenter"",""1"",""1410""
","
","","","250","","","25","11351","2517","&#9761;","elianto","#3366ff99","-1"," ","0","+10","[1101.0000000002328]","1","0","2","","","","","","","",""
"pit-trial","56","1533030","0.0-2.0-11.3-4.3","battery-v0.2","","""event"",""trial"",""time""
""fullscreenenter"",""1"",""1409""
""fullscreenenter"",""1"",""1410""
""blur"",""36"",""1242213""
""focus"",""36"",""1248407""
""blur"",""36"",""1439558""
""focus"",""36"",""1464527""
","""event"",""trial"",""time""
""blur"",""36"",""1242213""
""blur"",""36"",""1439558""
","""event"",""trial"",""time""
""focus"",""36"",""1248407""
""focus"",""36"",""1464527""
","""event"",""trial"",""time""
""fullscreenenter"",""1"",""1409""
""fullscreenenter"",""1"",""1410""
","
","","","308","","","25","11351","2517","&#9761;","elianto","#3366ff99","-1"," ","0","0","[1159]","1","0","2","","","","","","","",""
"call-function","57","1533034","0.0-2.0-12.0","battery-v0.2","","""event"",""trial"",""time""
""fullscreenenter"",""1"",""1409""
""fullscreenenter"",""1"",""1410""
""blur"",""36"",""1242213""
""focus"",""36"",""1248407""
""blur"",""36"",""1439558""
""focus"",""36"",""1464527""
","""event"",""trial"",""time""
""blur"",""36"",""1242213""
""blur"",""36"",""1439558""
","""event"",""trial"",""time""
""focus"",""36"",""1248407""
""focus"",""36"",""1464527""
","""event"",""trial"",""time""
""fullscreenenter"",""1"",""1409""
""fullscreenenter"",""1"",""1410""
","
","","","","","","","","","","","","","","","","","","","","","","","","","","",""
"pit-instructions","58","1584607","0.0-2.0-13.0","battery-v0.2","","""event"",""trial"",""time""
""fullscreenenter"",""1"",""1409""
""fullscreenenter"",""1"",""1410""
""blur"",""36"",""1242213""
""focus"",""36"",""1248407""
""blur"",""36"",""1439558""
""focus"",""36"",""1464527""
","""event"",""trial"",""time""
""blur"",""36"",""1242213""
""blur"",""36"",""1439558""
","""event"",""trial"",""time""
""focus"",""36"",""1248407""
""focus"",""36"",""1464527""
","""event"",""trial"",""time""
""fullscreenenter"",""1"",""1409""
""fullscreenenter"",""1"",""1410""
","
","","[{""page_index"":0,""viewing_time"":6954},{""page_index"":1,""viewing_time"":21917},{""page_index"":2,""viewing_time"":4459},{""page_index"":3,""viewing_time"":11568},{""page_index"":4,""viewing_time"":6672}]","51571","","","","","","","","","","","","","","","","","","","","","","","",""
"pit-trial","59","1589463","0.0-2.0-14.0-0.0","battery-v0.2","","""event"",""trial"",""time""
""fullscreenenter"",""1"",""1409""
""fullscreenenter"",""1"",""1410""
""blur"",""36"",""1242213""
""focus"",""36"",""1248407""
""blur"",""36"",""1439558""
""focus"",""36"",""1464527""
","""event"",""trial"",""time""
""blur"",""36"",""1242213""
""blur"",""36"",""1439558""
","""event"",""trial"",""time""
""focus"",""36"",""1248407""
""focus"",""36"",""1464527""
","""event"",""trial"",""time""
""fullscreenenter"",""1"",""1409""
""fullscreenenter"",""1"",""1410""
","
","","","-1","","","25","11351","2517","&#9826;","elianto","#f73b6a7A","-1","-1","1","0","[]","0","0","3","","","","","","","",""
"pit-trial","60","1593703","0.0-2.0-14.0-1.0","battery-v0.2","","""event"",""trial"",""time""
""fullscreenenter"",""1"",""1409""
""fullscreenenter"",""1"",""1410""
""blur"",""36"",""1242213""
""focus"",""36"",""1248407""
""blur"",""36"",""1439558""
""focus"",""36"",""1464527""
","""event"",""trial"",""time""
""blur"",""36"",""1242213""
""blur"",""36"",""1439558""
","""event"",""trial"",""time""
""focus"",""36"",""1248407""
""focus"",""36"",""1464527""
","""event"",""trial"",""time""
""fullscreenenter"",""1"",""1409""
""fullscreenenter"",""1"",""1410""
","
","","","1382","","","25","11351","2517","&#9826;","elianto","#f73b6a7A","-1"," ","0","-10","[2233]","1","0","3","","","","","","","",""
"pit-trial","61","1597352","0.0-2.0-14.0-2.0","battery-v0.2","","""event"",""trial"",""time""
""fullscreenenter"",""1"",""1409""
""fullscreenenter"",""1"",""1410""
""blur"",""36"",""1242213""
""focus"",""36"",""1248407""
""blur"",""36"",""1439558""
""focus"",""36"",""1464527""
","""event"",""trial"",""time""
""blur"",""36"",""1242213""
""blur"",""36"",""1439558""
","""event"",""trial"",""time""
""focus"",""36"",""1248407""
""focus"",""36"",""1464527""
","""event"",""trial"",""time""
""fullscreenenter"",""1"",""1409""
""fullscreenenter"",""1"",""1410""
","
","","","790","","","25","11351","2517","&#9826;","elianto","#f73b6a7A","-1"," ","0","-10","[1640]","1","0","3","","","","","","","",""
"pit-trial","62","1602210","0.0-2.0-14.0-3.0","battery-v0.2","","""event"",""trial"",""time""
""fullscreenenter"",""1"",""1409""
""fullscreenenter"",""1"",""1410""
""blur"",""36"",""1242213""
""focus"",""36"",""1248407""
""blur"",""36"",""1439558""
""focus"",""36"",""1464527""
","""event"",""trial"",""time""
""blur"",""36"",""1242213""
""blur"",""36"",""1439558""
","""event"",""trial"",""time""
""focus"",""36"",""1248407""
""focus"",""36"",""1464527""
","""event"",""trial"",""time""
""fullscreenenter"",""1"",""1409""
""fullscreenenter"",""1"",""1410""
","
","","","-1","","","25","11351","2517","&#9826;","elianto","#f73b6a7A","-1","-1","1","-10","[]","0","0","3","","","","","","","",""
"pit-trial","63","1607070","0.0-2.0-14.0-4.0","battery-v0.2","","""event"",""trial"",""time""
""fullscreenenter"",""1"",""1409""
""fullscreenenter"",""1"",""1410""
""blur"",""36"",""1242213""
""focus"",""36"",""1248407""
""blur"",""36"",""1439558""
""focus"",""36"",""1464527""
","""event"",""trial"",""time""
""blur"",""36"",""1242213""
""blur"",""36"",""1439558""
","""event"",""trial"",""time""
""focus"",""36"",""1248407""
""focus"",""36"",""1464527""
","""event"",""trial"",""time""
""fullscreenenter"",""1"",""1409""
""fullscreenenter"",""1"",""1410""
","
","","","-1","","","25","11351","2517","&#9826;","elianto","#f73b6a7A","-1","-1","1","0","[]","0","0","3","","","","","","","",""
"pit-trial","64","1611930","0.0-2.0-14.1-0.1","battery-v0.2","","""event"",""trial"",""time""
""fullscreenenter"",""1"",""1409""
""fullscreenenter"",""1"",""1410""
""blur"",""36"",""1242213""
""focus"",""36"",""1248407""
""blur"",""36"",""1439558""
""focus"",""36"",""1464527""
","""event"",""trial"",""time""
""blur"",""36"",""1242213""
""blur"",""36"",""1439558""
","""event"",""trial"",""time""
""focus"",""36"",""1248407""
""focus"",""36"",""1464527""
","""event"",""trial"",""time""
""fullscreenenter"",""1"",""1409""
""fullscreenenter"",""1"",""1410""
","
","","","-1","","","25","11351","2517","&#9826;","elianto","#f73b6a7A","-1","-1","1","0","[]","0","0","3","","","","","","","",""
"pit-trial","65","1616788","0.0-2.0-14.1-1.1","battery-v0.2","","""event"",""trial"",""time""
""fullscreenenter"",""1"",""1409""
""fullscreenenter"",""1"",""1410""
""blur"",""36"",""1242213""
""focus"",""36"",""1248407""
""blur"",""36"",""1439558""
""focus"",""36"",""1464527""
","""event"",""trial"",""time""
""blur"",""36"",""1242213""
""blur"",""36"",""1439558""
","""event"",""trial"",""time""
""focus"",""36"",""1248407""
""focus"",""36"",""1464527""
","""event"",""trial"",""time""
""fullscreenenter"",""1"",""1409""
""fullscreenenter"",""1"",""1410""
","
","","","-1","","","25","11351","2517","&#9826;","elianto","#f73b6a7A","-1","-1","1","0","[]","0","0","3","","","","","","","",""
"pit-trial","66","1621647","0.0-2.0-14.1-2.1","battery-v0.2","","""event"",""trial"",""time""
""fullscreenenter"",""1"",""1409""
""fullscreenenter"",""1"",""1410""
""blur"",""36"",""1242213""
""focus"",""36"",""1248407""
""blur"",""36"",""1439558""
""focus"",""36"",""1464527""
","""event"",""trial"",""time""
""blur"",""36"",""1242213""
""blur"",""36"",""1439558""
","""event"",""trial"",""time""
""focus"",""36"",""1248407""
""focus"",""36"",""1464527""
","""event"",""trial"",""time""
""fullscreenenter"",""1"",""1409""
""fullscreenenter"",""1"",""1410""
","
","","","-1","","","25","11351","2517","&#9826;","elianto","#f73b6a7A","-1","-1","1","0","[]","0","0","3","","","","","","","",""
"pit-trial","67","1626507","0.0-2.0-14.1-3.1","battery-v0.2","","""event"",""trial"",""time""
""fullscreenenter"",""1"",""1409""
""fullscreenenter"",""1"",""1410""
""blur"",""36"",""1242213""
""focus"",""36"",""1248407""
""blur"",""36"",""1439558""
""focus"",""36"",""1464527""
","""event"",""trial"",""time""
""blur"",""36"",""1242213""
""blur"",""36"",""1439558""
","""event"",""trial"",""time""
""focus"",""36"",""1248407""
""focus"",""36"",""1464527""
","""event"",""trial"",""time""
""fullscreenenter"",""1"",""1409""
""fullscreenenter"",""1"",""1410""
","
","","","-1","","","25","11351","2517","&#9826;","elianto","#f73b6a7A","-1","-1","1","-10","[]","0","0","3","","","","","","","",""
"pit-trial","68","1631367","0.0-2.0-14.1-4.1","battery-v0.2","","""event"",""trial"",""time""
""fullscreenenter"",""1"",""1409""
""fullscreenenter"",""1"",""1410""
""blur"",""36"",""1242213""
""focus"",""36"",""1248407""
""blur"",""36"",""1439558""
""focus"",""36"",""1464527""
","""event"",""trial"",""time""
""blur"",""36"",""1242213""
""blur"",""36"",""1439558""
","""event"",""trial"",""time""
""focus"",""36"",""1248407""
""focus"",""36"",""1464527""
","""event"",""trial"",""time""
""fullscreenenter"",""1"",""1409""
""fullscreenenter"",""1"",""1410""
","
","","","-1","","","25","11351","2517","&#9826;","elianto","#f73b6a7A","-1","-1","1","0","[]","0","0","3","","","","","","","",""
"pit-trial","69","1636226","0.0-2.0-14.2-0.2","battery-v0.2","","""event"",""trial"",""time""
""fullscreenenter"",""1"",""1409""
""fullscreenenter"",""1"",""1410""
""blur"",""36"",""1242213""
""focus"",""36"",""1248407""
""blur"",""36"",""1439558""
""focus"",""36"",""1464527""
","""event"",""trial"",""time""
""blur"",""36"",""1242213""
""blur"",""36"",""1439558""
","""event"",""trial"",""time""
""focus"",""36"",""1248407""
""focus"",""36"",""1464527""
","""event"",""trial"",""time""
""fullscreenenter"",""1"",""1409""
""fullscreenenter"",""1"",""1410""
","
","","","-1","","","25","11351","2517","&#9826;","elianto","#f73b6a7A","-1","-1","1","0","[]","0","0","3","","","","","","","",""
"pit-trial","70","1641085","0.0-2.0-14.2-1.2","battery-v0.2","","""event"",""trial"",""time""
""fullscreenenter"",""1"",""1409""
""fullscreenenter"",""1"",""1410""
""blur"",""36"",""1242213""
""focus"",""36"",""1248407""
""blur"",""36"",""1439558""
""focus"",""36"",""1464527""
","""event"",""trial"",""time""
""blur"",""36"",""1242213""
""blur"",""36"",""1439558""
","""event"",""trial"",""time""
""focus"",""36"",""1248407""
""focus"",""36"",""1464527""
","""event"",""trial"",""time""
""fullscreenenter"",""1"",""1409""
""fullscreenenter"",""1"",""1410""
","
","","","-1","","","25","11351","2517","&#9826;","elianto","#f73b6a7A","-1","-1","1","0","[]","0","0","3","","","","","","","",""
"pit-trial","71","1645943","0.0-2.0-14.2-2.2","battery-v0.2","","""event"",""trial"",""time""
""fullscreenenter"",""1"",""1409""
""fullscreenenter"",""1"",""1410""
""blur"",""36"",""1242213""
""focus"",""36"",""1248407""
""blur"",""36"",""1439558""
""focus"",""36"",""1464527""
","""event"",""trial"",""time""
""blur"",""36"",""1242213""
""blur"",""36"",""1439558""
","""event"",""trial"",""time""
""focus"",""36"",""1248407""
""focus"",""36"",""1464527""
","""event"",""trial"",""time""
""fullscreenenter"",""1"",""1409""
""fullscreenenter"",""1"",""1410""
","
","","","-1","","","25","11351","2517","&#9826;","elianto","#f73b6a7A","-1","-1","1","0","[]","0","0","3","","","","","","","",""
"pit-trial","72","1650801","0.0-2.0-14.2-3.2","battery-v0.2","","""event"",""trial"",""time""
""fullscreenenter"",""1"",""1409""
""fullscreenenter"",""1"",""1410""
""blur"",""36"",""1242213""
""focus"",""36"",""1248407""
""blur"",""36"",""1439558""
""focus"",""36"",""1464527""
","""event"",""trial"",""time""
""blur"",""36"",""1242213""
""blur"",""36"",""1439558""
","""event"",""trial"",""time""
""focus"",""36"",""1248407""
""focus"",""36"",""1464527""
","""event"",""trial"",""time""
""fullscreenenter"",""1"",""1409""
""fullscreenenter"",""1"",""1410""
","
","","","-1","","","25","11351","2517","&#9826;","elianto","#f73b6a7A","-1","-1","1","-10","[]","0","0","3","","","","","","","",""
"pit-trial","73","1655659","0.0-2.0-14.2-4.2","battery-v0.2","","""event"",""trial"",""time""
""fullscreenenter"",""1"",""1409""
""fullscreenenter"",""1"",""1410""
""blur"",""36"",""1242213""
""focus"",""36"",""1248407""
""blur"",""36"",""1439558""
""focus"",""36"",""1464527""
","""event"",""trial"",""time""
""blur"",""36"",""1242213""
""blur"",""36"",""1439558""
","""event"",""trial"",""time""
""focus"",""36"",""1248407""
""focus"",""36"",""1464527""
","""event"",""trial"",""time""
""fullscreenenter"",""1"",""1409""
""fullscreenenter"",""1"",""1410""
","
","","","-1","","","25","11351","2517","&#9826;","elianto","#f73b6a7A","-1","-1","1","0","[]","0","0","3","","","","","","","",""
"pit-trial","74","1660517","0.0-2.0-14.3-0.3","battery-v0.2","","""event"",""trial"",""time""
""fullscreenenter"",""1"",""1409""
""fullscreenenter"",""1"",""1410""
""blur"",""36"",""1242213""
""focus"",""36"",""1248407""
""blur"",""36"",""1439558""
""focus"",""36"",""1464527""
","""event"",""trial"",""time""
""blur"",""36"",""1242213""
""blur"",""36"",""1439558""
","""event"",""trial"",""time""
""focus"",""36"",""1248407""
""focus"",""36"",""1464527""
","""event"",""trial"",""time""
""fullscreenenter"",""1"",""1409""
""fullscreenenter"",""1"",""1410""
","
","","","-1","","","25","11351","2517","&#9826;","elianto","#f73b6a7A","-1","-1","1","0","[]","0","0","3","","","","","","","",""
"pit-trial","75","1665378","0.0-2.0-14.3-1.3","battery-v0.2","","""event"",""trial"",""time""
""fullscreenenter"",""1"",""1409""
""fullscreenenter"",""1"",""1410""
""blur"",""36"",""1242213""
""focus"",""36"",""1248407""
""blur"",""36"",""1439558""
""focus"",""36"",""1464527""
","""event"",""trial"",""time""
""blur"",""36"",""1242213""
""blur"",""36"",""1439558""
","""event"",""trial"",""time""
""focus"",""36"",""1248407""
""focus"",""36"",""1464527""
","""event"",""trial"",""time""
""fullscreenenter"",""1"",""1409""
""fullscreenenter"",""1"",""1410""
","
","","","-1","","","25","11351","2517","&#9826;","elianto","#f73b6a7A","-1","-1","1","0","[]","0","0","3","","","","","","","",""
"pit-trial","76","1670237","0.0-2.0-14.3-2.3","battery-v0.2","","""event"",""trial"",""time""
""fullscreenenter"",""1"",""1409""
""fullscreenenter"",""1"",""1410""
""blur"",""36"",""1242213""
""focus"",""36"",""1248407""
""blur"",""36"",""1439558""
""focus"",""36"",""1464527""
","""event"",""trial"",""time""
""blur"",""36"",""1242213""
""blur"",""36"",""1439558""
","""event"",""trial"",""time""
""focus"",""36"",""1248407""
""focus"",""36"",""1464527""
","""event"",""trial"",""time""
""fullscreenenter"",""1"",""1409""
""fullscreenenter"",""1"",""1410""
","
","","","-1","","","25","11351","2517","&#9826;","elianto","#f73b6a7A","-1","-1","1","0","[]","0","0","3","","","","","","","",""
"pit-trial","77","1675095","0.0-2.0-14.3-3.3","battery-v0.2","","""event"",""trial"",""time""
""fullscreenenter"",""1"",""1409""
""fullscreenenter"",""1"",""1410""
""blur"",""36"",""1242213""
""focus"",""36"",""1248407""
""blur"",""36"",""1439558""
""focus"",""36"",""1464527""
","""event"",""trial"",""time""
""blur"",""36"",""1242213""
""blur"",""36"",""1439558""
","""event"",""trial"",""time""
""focus"",""36"",""1248407""
""focus"",""36"",""1464527""
","""event"",""trial"",""time""
""fullscreenenter"",""1"",""1409""
""fullscreenenter"",""1"",""1410""
","
","","","-1","","","25","11351","2517","&#9826;","elianto","#f73b6a7A","-1","-1","1","-10","[]","0","0","3","","","","","","","",""
"pit-trial","78","1679954","0.0-2.0-14.3-4.3","battery-v0.2","","""event"",""trial"",""time""
""fullscreenenter"",""1"",""1409""
""fullscreenenter"",""1"",""1410""
""blur"",""36"",""1242213""
""focus"",""36"",""1248407""
""blur"",""36"",""1439558""
""focus"",""36"",""1464527""
","""event"",""trial"",""time""
""blur"",""36"",""1242213""
""blur"",""36"",""1439558""
","""event"",""trial"",""time""
""focus"",""36"",""1248407""
""focus"",""36"",""1464527""
","""event"",""trial"",""time""
""fullscreenenter"",""1"",""1409""
""fullscreenenter"",""1"",""1410""
","
","","","-1","","","25","11351","2517","&#9826;","elianto","#f73b6a7A","-1","-1","1","0","[]","0","0","3","","","","","","","",""
"call-function","79","1679959","0.0-2.0-15.0","battery-v0.2","","""event"",""trial"",""time""
""fullscreenenter"",""1"",""1409""
""fullscreenenter"",""1"",""1410""
""blur"",""36"",""1242213""
""focus"",""36"",""1248407""
""blur"",""36"",""1439558""
""focus"",""36"",""1464527""
","""event"",""trial"",""time""
""blur"",""36"",""1242213""
""blur"",""36"",""1439558""
","""event"",""trial"",""time""
""focus"",""36"",""1248407""
""focus"",""36"",""1464527""
","""event"",""trial"",""time""
""fullscreenenter"",""1"",""1409""
""fullscreenenter"",""1"",""1410""
","
","","","","","","","","","","","","","","","","","","","","","","","","","","",""
"pit-instructions","80","1707759","0.0-2.0-16.0","battery-v0.2","","""event"",""trial"",""time""
""fullscreenenter"",""1"",""1409""
""fullscreenenter"",""1"",""1410""
""blur"",""36"",""1242213""
""focus"",""36"",""1248407""
""blur"",""36"",""1439558""
""focus"",""36"",""1464527""
","""event"",""trial"",""time""
""blur"",""36"",""1242213""
""blur"",""36"",""1439558""
","""event"",""trial"",""time""
""focus"",""36"",""1248407""
""focus"",""36"",""1464527""
","""event"",""trial"",""time""
""fullscreenenter"",""1"",""1409""
""fullscreenenter"",""1"",""1410""
","
","","[{""page_index"":0,""viewing_time"":7481},{""page_index"":1,""viewing_time"":8310},{""page_index"":2,""viewing_time"":6157},{""page_index"":3,""viewing_time"":5850}]","27799","","","","","","","","","","","","","","","","","","","","","","","",""
"pit-trial","81","1712615","0.0-2.0-17.0-0.0","battery-v0.2","","""event"",""trial"",""time""
""fullscreenenter"",""1"",""1409""
""fullscreenenter"",""1"",""1410""
""blur"",""36"",""1242213""
""focus"",""36"",""1248407""
""blur"",""36"",""1439558""
""focus"",""36"",""1464527""
","""event"",""trial"",""time""
""blur"",""36"",""1242213""
""blur"",""36"",""1439558""
","""event"",""trial"",""time""
""focus"",""36"",""1248407""
""focus"",""36"",""1464527""
","""event"",""trial"",""time""
""fullscreenenter"",""1"",""1409""
""fullscreenenter"",""1"",""1410""
","
","","","-1","","","25","11351","2517","&#9789;","elianto","#f73b6a7A"," ","-1","0","-10","[]","0","0","4","","","","","","","",""
"pit-trial","82","1717474","0.0-2.0-17.0-1.0","battery-v0.2","","""event"",""trial"",""time""
""fullscreenenter"",""1"",""1409""
""fullscreenenter"",""1"",""1410""
""blur"",""36"",""1242213""
""focus"",""36"",""1248407""
""blur"",""36"",""1439558""
""focus"",""36"",""1464527""
","""event"",""trial"",""time""
""blur"",""36"",""1242213""
""blur"",""36"",""1439558""
","""event"",""trial"",""time""
""focus"",""36"",""1248407""
""focus"",""36"",""1464527""
","""event"",""trial"",""time""
""fullscreenenter"",""1"",""1409""
""fullscreenenter"",""1"",""1410""
","
","","","-1","","","25","11351","2517","&#9789;","elianto","#f73b6a7A"," ","-1","0","-10","[]","0","0","4","","","","","","","",""
"pit-trial","83","1722333","0.0-2.0-17.0-2.0","battery-v0.2","","""event"",""trial"",""time""
""fullscreenenter"",""1"",""1409""
""fullscreenenter"",""1"",""1410""
""blur"",""36"",""1242213""
""focus"",""36"",""1248407""
""blur"",""36"",""1439558""
""focus"",""36"",""1464527""
","""event"",""trial"",""time""
""blur"",""36"",""1242213""
""blur"",""36"",""1439558""
","""event"",""trial"",""time""
""focus"",""36"",""1248407""
""focus"",""36"",""1464527""
","""event"",""trial"",""time""
""fullscreenenter"",""1"",""1409""
""fullscreenenter"",""1"",""1410""
","
","","","-1","","","25","11351","2517","&#9789;","elianto","#f73b6a7A"," ","-1","0","-10","[]","0","0","4","","","","","","","",""
"pit-trial","84","1727193","0.0-2.0-17.0-3.0","battery-v0.2","","""event"",""trial"",""time""
""fullscreenenter"",""1"",""1409""
""fullscreenenter"",""1"",""1410""
""blur"",""36"",""1242213""
""focus"",""36"",""1248407""
""blur"",""36"",""1439558""
""focus"",""36"",""1464527""
","""event"",""trial"",""time""
""blur"",""36"",""1242213""
""blur"",""36"",""1439558""
","""event"",""trial"",""time""
""focus"",""36"",""1248407""
""focus"",""36"",""1464527""
","""event"",""trial"",""time""
""fullscreenenter"",""1"",""1409""
""fullscreenenter"",""1"",""1410""
","
","","","-1","","","25","11351","2517","&#9789;","elianto","#f73b6a7A"," ","-1","0","0","[]","0","0","4","","","","","","","",""
"pit-trial","85","1732052","0.0-2.0-17.0-4.0","battery-v0.2","","""event"",""trial"",""time""
""fullscreenenter"",""1"",""1409""
""fullscreenenter"",""1"",""1410""
""blur"",""36"",""1242213""
""focus"",""36"",""1248407""
""blur"",""36"",""1439558""
""focus"",""36"",""1464527""
","""event"",""trial"",""time""
""blur"",""36"",""1242213""
""blur"",""36"",""1439558""
","""event"",""trial"",""time""
""focus"",""36"",""1248407""
""focus"",""36"",""1464527""
","""event"",""trial"",""time""
""fullscreenenter"",""1"",""1409""
""fullscreenenter"",""1"",""1410""
","
","","","-1","","","25","11351","2517","&#9789;","elianto","#f73b6a7A"," ","-1","0","-10","[]","0","0","4","","","","","","","",""
"pit-trial","86","1736913","0.0-2.0-17.1-0.1","battery-v0.2","","""event"",""trial"",""time""
""fullscreenenter"",""1"",""1409""
""fullscreenenter"",""1"",""1410""
""blur"",""36"",""1242213""
""focus"",""36"",""1248407""
""blur"",""36"",""1439558""
""focus"",""36"",""1464527""
","""event"",""trial"",""time""
""blur"",""36"",""1242213""
""blur"",""36"",""1439558""
","""event"",""trial"",""time""
""focus"",""36"",""1248407""
""focus"",""36"",""1464527""
","""event"",""trial"",""time""
""fullscreenenter"",""1"",""1409""
""fullscreenenter"",""1"",""1410""
","
","","","-1","","","25","11351","2517","&#9789;","elianto","#f73b6a7A"," ","-1","0","-10","[]","0","0","4","","","","","","","",""
"pit-trial","87","1741772","0.0-2.0-17.1-1.1","battery-v0.2","","""event"",""trial"",""time""
""fullscreenenter"",""1"",""1409""
""fullscreenenter"",""1"",""1410""
""blur"",""36"",""1242213""
""focus"",""36"",""1248407""
""blur"",""36"",""1439558""
""focus"",""36"",""1464527""
","""event"",""trial"",""time""
""blur"",""36"",""1242213""
""blur"",""36"",""1439558""
","""event"",""trial"",""time""
""focus"",""36"",""1248407""
""focus"",""36"",""1464527""
","""event"",""trial"",""time""
""fullscreenenter"",""1"",""1409""
""fullscreenenter"",""1"",""1410""
","
","","","-1","","","25","11351","2517","&#9789;","elianto","#f73b6a7A"," ","-1","0","-10","[]","0","0","4","","","","","","","",""
"pit-trial","88","1746631","0.0-2.0-17.1-2.1","battery-v0.2","","""event"",""trial"",""time""
""fullscreenenter"",""1"",""1409""
""fullscreenenter"",""1"",""1410""
""blur"",""36"",""1242213""
""focus"",""36"",""1248407""
""blur"",""36"",""1439558""
""focus"",""36"",""1464527""
","""event"",""trial"",""time""
""blur"",""36"",""1242213""
""blur"",""36"",""1439558""
","""event"",""trial"",""time""
""focus"",""36"",""1248407""
""focus"",""36"",""1464527""
","""event"",""trial"",""time""
""fullscreenenter"",""1"",""1409""
""fullscreenenter"",""1"",""1410""
","
","","","-1","","","25","11351","2517","&#9789;","elianto","#f73b6a7A"," ","-1","0","-10","[]","0","0","4","","","","","","","",""
"pit-trial","89","1751490","0.0-2.0-17.1-3.1","battery-v0.2","","""event"",""trial"",""time""
""fullscreenenter"",""1"",""1409""
""fullscreenenter"",""1"",""1410""
""blur"",""36"",""1242213""
""focus"",""36"",""1248407""
""blur"",""36"",""1439558""
""focus"",""36"",""1464527""
","""event"",""trial"",""time""
""blur"",""36"",""1242213""
""blur"",""36"",""1439558""
","""event"",""trial"",""time""
""focus"",""36"",""1248407""
""focus"",""36"",""1464527""
","""event"",""trial"",""time""
""fullscreenenter"",""1"",""1409""
""fullscreenenter"",""1"",""1410""
","
","","","-1","","","25","11351","2517","&#9789;","elianto","#f73b6a7A"," ","-1","0","0","[]","0","0","4","","","","","","","",""
"pit-trial","90","1756349","0.0-2.0-17.1-4.1","battery-v0.2","","""event"",""trial"",""time""
""fullscreenenter"",""1"",""1409""
""fullscreenenter"",""1"",""1410""
""blur"",""36"",""1242213""
""focus"",""36"",""1248407""
""blur"",""36"",""1439558""
""focus"",""36"",""1464527""
","""event"",""trial"",""time""
""blur"",""36"",""1242213""
""blur"",""36"",""1439558""
","""event"",""trial"",""time""
""focus"",""36"",""1248407""
""focus"",""36"",""1464527""
","""event"",""trial"",""time""
""fullscreenenter"",""1"",""1409""
""fullscreenenter"",""1"",""1410""
","
","","","-1","","","25","11351","2517","&#9789;","elianto","#f73b6a7A"," ","-1","0","-10","[]","0","0","4","","","","","","","",""
"pit-trial","91","1761209","0.0-2.0-17.2-0.2","battery-v0.2","","""event"",""trial"",""time""
""fullscreenenter"",""1"",""1409""
""fullscreenenter"",""1"",""1410""
""blur"",""36"",""1242213""
""focus"",""36"",""1248407""
""blur"",""36"",""1439558""
""focus"",""36"",""1464527""
","""event"",""trial"",""time""
""blur"",""36"",""1242213""
""blur"",""36"",""1439558""
","""event"",""trial"",""time""
""focus"",""36"",""1248407""
""focus"",""36"",""1464527""
","""event"",""trial"",""time""
""fullscreenenter"",""1"",""1409""
""fullscreenenter"",""1"",""1410""
","
","","","-1","","","25","11351","2517","&#9789;","elianto","#f73b6a7A"," ","-1","0","-10","[]","0","0","4","","","","","","","",""
"pit-trial","92","1766069","0.0-2.0-17.2-1.2","battery-v0.2","","""event"",""trial"",""time""
""fullscreenenter"",""1"",""1409""
""fullscreenenter"",""1"",""1410""
""blur"",""36"",""1242213""
""focus"",""36"",""1248407""
""blur"",""36"",""1439558""
""focus"",""36"",""1464527""
","""event"",""trial"",""time""
""blur"",""36"",""1242213""
""blur"",""36"",""1439558""
","""event"",""trial"",""time""
""focus"",""36"",""1248407""
""focus"",""36"",""1464527""
","""event"",""trial"",""time""
""fullscreenenter"",""1"",""1409""
""fullscreenenter"",""1"",""1410""
","
","","","-1","","","25","11351","2517","&#9789;","elianto","#f73b6a7A"," ","-1","0","-10","[]","0","0","4","","","","","","","",""
"pit-trial","93","1770927","0.0-2.0-17.2-2.2","battery-v0.2","","""event"",""trial"",""time""
""fullscreenenter"",""1"",""1409""
""fullscreenenter"",""1"",""1410""
""blur"",""36"",""1242213""
""focus"",""36"",""1248407""
""blur"",""36"",""1439558""
""focus"",""36"",""1464527""
","""event"",""trial"",""time""
""blur"",""36"",""1242213""
""blur"",""36"",""1439558""
","""event"",""trial"",""time""
""focus"",""36"",""1248407""
""focus"",""36"",""1464527""
","""event"",""trial"",""time""
""fullscreenenter"",""1"",""1409""
""fullscreenenter"",""1"",""1410""
","
","","","-1","","","25","11351","2517","&#9789;","elianto","#f73b6a7A"," ","-1","0","-10","[]","0","0","4","","","","","","","",""
"pit-trial","94","1775784","0.0-2.0-17.2-3.2","battery-v0.2","","""event"",""trial"",""time""
""fullscreenenter"",""1"",""1409""
""fullscreenenter"",""1"",""1410""
""blur"",""36"",""1242213""
""focus"",""36"",""1248407""
""blur"",""36"",""1439558""
""focus"",""36"",""1464527""
","""event"",""trial"",""time""
""blur"",""36"",""1242213""
""blur"",""36"",""1439558""
","""event"",""trial"",""time""
""focus"",""36"",""1248407""
""focus"",""36"",""1464527""
","""event"",""trial"",""time""
""fullscreenenter"",""1"",""1409""
""fullscreenenter"",""1"",""1410""
","
","","","-1","","","25","11351","2517","&#9789;","elianto","#f73b6a7A"," ","-1","0","0","[]","0","0","4","","","","","","","",""
"pit-trial","95","1780642","0.0-2.0-17.2-4.2","battery-v0.2","","""event"",""trial"",""time""
""fullscreenenter"",""1"",""1409""
""fullscreenenter"",""1"",""1410""
""blur"",""36"",""1242213""
""focus"",""36"",""1248407""
""blur"",""36"",""1439558""
""focus"",""36"",""1464527""
","""event"",""trial"",""time""
""blur"",""36"",""1242213""
""blur"",""36"",""1439558""
","""event"",""trial"",""time""
""focus"",""36"",""1248407""
""focus"",""36"",""1464527""
","""event"",""trial"",""time""
""fullscreenenter"",""1"",""1409""
""fullscreenenter"",""1"",""1410""
","
","","","-1","","","25","11351","2517","&#9789;","elianto","#f73b6a7A"," ","-1","0","-10","[]","0","0","4","","","","","","","",""
"pit-trial","96","1785501","0.0-2.0-17.3-0.3","battery-v0.2","","""event"",""trial"",""time""
""fullscreenenter"",""1"",""1409""
""fullscreenenter"",""1"",""1410""
""blur"",""36"",""1242213""
""focus"",""36"",""1248407""
""blur"",""36"",""1439558""
""focus"",""36"",""1464527""
","""event"",""trial"",""time""
""blur"",""36"",""1242213""
""blur"",""36"",""1439558""
","""event"",""trial"",""time""
""focus"",""36"",""1248407""
""focus"",""36"",""1464527""
","""event"",""trial"",""time""
""fullscreenenter"",""1"",""1409""
""fullscreenenter"",""1"",""1410""
","
","","","-1","","","25","11351","2517","&#9789;","elianto","#f73b6a7A"," ","-1","0","-10","[]","0","0","4","","","","","","","",""
"pit-trial","97","1790360","0.0-2.0-17.3-1.3","battery-v0.2","","""event"",""trial"",""time""
""fullscreenenter"",""1"",""1409""
""fullscreenenter"",""1"",""1410""
""blur"",""36"",""1242213""
""focus"",""36"",""1248407""
""blur"",""36"",""1439558""
""focus"",""36"",""1464527""
","""event"",""trial"",""time""
""blur"",""36"",""1242213""
""blur"",""36"",""1439558""
","""event"",""trial"",""time""
""focus"",""36"",""1248407""
""focus"",""36"",""1464527""
","""event"",""trial"",""time""
""fullscreenenter"",""1"",""1409""
""fullscreenenter"",""1"",""1410""
","
","","","-1","","","25","11351","2517","&#9789;","elianto","#f73b6a7A"," ","-1","0","-10","[]","0","0","4","","","","","","","",""
"pit-trial","98","1795219","0.0-2.0-17.3-2.3","battery-v0.2","","""event"",""trial"",""time""
""fullscreenenter"",""1"",""1409""
""fullscreenenter"",""1"",""1410""
""blur"",""36"",""1242213""
""focus"",""36"",""1248407""
""blur"",""36"",""1439558""
""focus"",""36"",""1464527""
","""event"",""trial"",""time""
""blur"",""36"",""1242213""
""blur"",""36"",""1439558""
","""event"",""trial"",""time""
""focus"",""36"",""1248407""
""focus"",""36"",""1464527""
","""event"",""trial"",""time""
""fullscreenenter"",""1"",""1409""
""fullscreenenter"",""1"",""1410""
","
","","","-1","","","25","11351","2517","&#9789;","elianto","#f73b6a7A"," ","-1","0","-10","[]","0","0","4","","","","","","","",""
"pit-trial","99","1800077","0.0-2.0-17.3-3.3","battery-v0.2","","""event"",""trial"",""time""
""fullscreenenter"",""1"",""1409""
""fullscreenenter"",""1"",""1410""
""blur"",""36"",""1242213""
""focus"",""36"",""1248407""
""blur"",""36"",""1439558""
""focus"",""36"",""1464527""
","""event"",""trial"",""time""
""blur"",""36"",""1242213""
""blur"",""36"",""1439558""
","""event"",""trial"",""time""
""focus"",""36"",""1248407""
""focus"",""36"",""1464527""
","""event"",""trial"",""time""
""fullscreenenter"",""1"",""1409""
""fullscreenenter"",""1"",""1410""
","
","","","-1","","","25","11351","2517","&#9789;","elianto","#f73b6a7A"," ","-1","0","0","[]","0","0","4","","","","","","","",""
"pit-trial","100","1804937","0.0-2.0-17.3-4.3","battery-v0.2","","""event"",""trial"",""time""
""fullscreenenter"",""1"",""1409""
""fullscreenenter"",""1"",""1410""
""blur"",""36"",""1242213""
""focus"",""36"",""1248407""
""blur"",""36"",""1439558""
""focus"",""36"",""1464527""
","""event"",""trial"",""time""
""blur"",""36"",""1242213""
""blur"",""36"",""1439558""
","""event"",""trial"",""time""
""focus"",""36"",""1248407""
""focus"",""36"",""1464527""
","""event"",""trial"",""time""
""fullscreenenter"",""1"",""1409""
""fullscreenenter"",""1"",""1410""
","
","","","-1","","","25","11351","2517","&#9789;","elianto","#f73b6a7A"," ","-1","0","-10","[]","0","0","4","","","","","","","",""
"call-function","101","1804942","0.0-2.0-18.0","battery-v0.2","","""event"",""trial"",""time""
""fullscreenenter"",""1"",""1409""
""fullscreenenter"",""1"",""1410""
""blur"",""36"",""1242213""
""focus"",""36"",""1248407""
""blur"",""36"",""1439558""
""focus"",""36"",""1464527""
","""event"",""trial"",""time""
""blur"",""36"",""1242213""
""blur"",""36"",""1439558""
","""event"",""trial"",""time""
""focus"",""36"",""1248407""
""focus"",""36"",""1464527""
","""event"",""trial"",""time""
""fullscreenenter"",""1"",""1409""
""fullscreenenter"",""1"",""1410""
","
","","","","","","","","","","","","","","","","","","","","","","","","","","",""
"pit-instructions","102","1882552","0.0-2.0-19.0","battery-v0.2","","""event"",""trial"",""time""
""fullscreenenter"",""1"",""1409""
""fullscreenenter"",""1"",""1410""
""blur"",""36"",""1242213""
""focus"",""36"",""1248407""
""blur"",""36"",""1439558""
""focus"",""36"",""1464527""
","""event"",""trial"",""time""
""blur"",""36"",""1242213""
""blur"",""36"",""1439558""
","""event"",""trial"",""time""
""focus"",""36"",""1248407""
""focus"",""36"",""1464527""
","""event"",""trial"",""time""
""fullscreenenter"",""1"",""1409""
""fullscreenenter"",""1"",""1410""
","
","","[{""page_index"":0,""viewing_time"":7984},{""page_index"":1,""viewing_time"":6633},{""page_index"":2,""viewing_time"":14660},{""page_index"":3,""viewing_time"":7607},{""page_index"":4,""viewing_time"":13756.000000000233},{""page_index"":5,""viewing_time"":8459.999999999767},{""page_index"":6,""viewing_time"":7550.000000000233},{""page_index"":7,""viewing_time"":6317},{""page_index"":8,""viewing_time"":4640.999999999767}]","77609","","","","","","","","","","","","","","","","","","","","","","","",""
"pit-comprehension","103","1887305","0.0-2.0-20.0-0.0","battery-v0.2","","""event"",""trial"",""time""
""fullscreenenter"",""1"",""1409""
""fullscreenenter"",""1"",""1410""
""blur"",""36"",""1242213""
""focus"",""36"",""1248407""
""blur"",""36"",""1439558""
""focus"",""36"",""1464527""
","""event"",""trial"",""time""
""blur"",""36"",""1242213""
""blur"",""36"",""1439558""
","""event"",""trial"",""time""
""focus"",""36"",""1248407""
""focus"",""36"",""1464527""
","""event"",""trial"",""time""
""fullscreenenter"",""1"",""1409""
""fullscreenenter"",""1"",""1410""
","
","","","4749","[""SPACE""]","0","25","11351","2517","","","","","","","","","","","","","","","","","","",""
"pit-instructions","104","1890177","0.0-2.0-20.0-1.0","battery-v0.2","","""event"",""trial"",""time""
""fullscreenenter"",""1"",""1409""
""fullscreenenter"",""1"",""1410""
""blur"",""36"",""1242213""
""focus"",""36"",""1248407""
""blur"",""36"",""1439558""
""focus"",""36"",""1464527""
","""event"",""trial"",""time""
""blur"",""36"",""1242213""
""blur"",""36"",""1439558""
","""event"",""trial"",""time""
""focus"",""36"",""1248407""
""focus"",""36"",""1464527""
","""event"",""trial"",""time""
""fullscreenenter"",""1"",""1409""
""fullscreenenter"",""1"",""1410""
","
","","[{""page_index"":0,""viewing_time"":2839}]","2840","","","","","","","","","","","","","","","","","","","","","","","",""
"pit-comprehension","105","1894797","0.0-2.0-21.0-0.0","battery-v0.2","","""event"",""trial"",""time""
""fullscreenenter"",""1"",""1409""
""fullscreenenter"",""1"",""1410""
""blur"",""36"",""1242213""
""focus"",""36"",""1248407""
""blur"",""36"",""1439558""
""focus"",""36"",""1464527""
","""event"",""trial"",""time""
""blur"",""36"",""1242213""
""blur"",""36"",""1439558""
","""event"",""trial"",""time""
""focus"",""36"",""1248407""
""focus"",""36"",""1464527""
","""event"",""trial"",""time""
""fullscreenenter"",""1"",""1409""
""fullscreenenter"",""1"",""1410""
","
","","","4616.999999999767","[""10""]","0","25","11351","2517","","","","","","","","","","","","","","","","","","",""
"pit-instructions","106","1896694","0.0-2.0-21.0-1.0","battery-v0.2","","""event"",""trial"",""time""
""fullscreenenter"",""1"",""1409""
""fullscreenenter"",""1"",""1410""
""blur"",""36"",""1242213""
""focus"",""36"",""1248407""
""blur"",""36"",""1439558""
""focus"",""36"",""1464527""
","""event"",""trial"",""time""
""blur"",""36"",""1242213""
""blur"",""36"",""1439558""
","""event"",""trial"",""time""
""focus"",""36"",""1248407""
""focus"",""36"",""1464527""
","""event"",""trial"",""time""
""fullscreenenter"",""1"",""1409""
""fullscreenenter"",""1"",""1410""
","
","","[{""page_index"":0,""viewing_time"":1864}]","1865","","","","","","","","","","","","","","","","","","","","","","","",""
"pit-comprehension","107","1908747","0.0-2.0-22.0-0.0","battery-v0.2","","""event"",""trial"",""time""
""fullscreenenter"",""1"",""1409""
""fullscreenenter"",""1"",""1410""
""blur"",""36"",""1242213""
""focus"",""36"",""1248407""
""blur"",""36"",""1439558""
""focus"",""36"",""1464527""
","""event"",""trial"",""time""
""blur"",""36"",""1242213""
""blur"",""36"",""1439558""
","""event"",""trial"",""time""
""focus"",""36"",""1248407""
""focus"",""36"",""1464527""
","""event"",""trial"",""time""
""fullscreenenter"",""1"",""1409""
""fullscreenenter"",""1"",""1410""
","
","","","12049","[""0""]","0","25","11351","2517","","","","","","","","","","","","","","","","","","",""
"pit-instructions","108","1911587","0.0-2.0-22.0-1.0","battery-v0.2","","""event"",""trial"",""time""
""fullscreenenter"",""1"",""1409""
""fullscreenenter"",""1"",""1410""
""blur"",""36"",""1242213""
""focus"",""36"",""1248407""
""blur"",""36"",""1439558""
""focus"",""36"",""1464527""
","""event"",""trial"",""time""
""blur"",""36"",""1242213""
""blur"",""36"",""1439558""
","""event"",""trial"",""time""
""focus"",""36"",""1248407""
""focus"",""36"",""1464527""
","""event"",""trial"",""time""
""fullscreenenter"",""1"",""1409""
""fullscreenenter"",""1"",""1410""
","
","","[{""page_index"":0,""viewing_time"":2806}]","2806","","","","","","","","","","","","","","","","","","","","","","","",""
"pit-comprehension","109","1920039","0.0-2.0-23.0-0.0","battery-v0.2","","""event"",""trial"",""time""
""fullscreenenter"",""1"",""1409""
""fullscreenenter"",""1"",""1410""
""blur"",""36"",""1242213""
""focus"",""36"",""1248407""
""blur"",""36"",""1439558""
""focus"",""36"",""1464527""
","""event"",""trial"",""time""
""blur"",""36"",""1242213""
""blur"",""36"",""1439558""
","""event"",""trial"",""time""
""focus"",""36"",""1248407""
""focus"",""36"",""1464527""
","""event"",""trial"",""time""
""fullscreenenter"",""1"",""1409""
""fullscreenenter"",""1"",""1410""
","
","","","8449","[""False""]","1","25","11351","2517","","","","","","","","","","","","","","","","","","",""
"pit-instructions","110","1927911","0.0-2.0-23.0-1.0","battery-v0.2","","""event"",""trial"",""time""
""fullscreenenter"",""1"",""1409""
""fullscreenenter"",""1"",""1410""
""blur"",""36"",""1242213""
""focus"",""36"",""1248407""
""blur"",""36"",""1439558""
""focus"",""36"",""1464527""
","""event"",""trial"",""time""
""blur"",""36"",""1242213""
""blur"",""36"",""1439558""
","""event"",""trial"",""time""
""focus"",""36"",""1248407""
""focus"",""36"",""1464527""
","""event"",""trial"",""time""
""fullscreenenter"",""1"",""1409""
""fullscreenenter"",""1"",""1410""
","
","","[{""page_index"":0,""viewing_time"":7838.000000000233}]","7839","","","","","","","","","","","","","","","","","","","","","","","",""
"pit-instructions","111","1929777","0.0-2.0-23.0-2.0-0.0","battery-v0.2","","""event"",""trial"",""time""
""fullscreenenter"",""1"",""1409""
""fullscreenenter"",""1"",""1410""
""blur"",""36"",""1242213""
""focus"",""36"",""1248407""
""blur"",""36"",""1439558""
""focus"",""36"",""1464527""
","""event"",""trial"",""time""
""blur"",""36"",""1242213""
""blur"",""36"",""1439558""
","""event"",""trial"",""time""
""focus"",""36"",""1248407""
""focus"",""36"",""1464527""
","""event"",""trial"",""time""
""fullscreenenter"",""1"",""1409""
""fullscreenenter"",""1"",""1410""
","
","","[{""page_index"":0,""viewing_time"":1862.0000000002328}]","1863","","","","","","","","","","","","","","","","","","","","","","","",""
"pit-comprehension","112","1940256","0.0-2.0-23.1-0.1","battery-v0.2","","""event"",""trial"",""time""
""fullscreenenter"",""1"",""1409""
""fullscreenenter"",""1"",""1410""
""blur"",""36"",""1242213""
""focus"",""36"",""1248407""
""blur"",""36"",""1439558""
""focus"",""36"",""1464527""
","""event"",""trial"",""time""
""blur"",""36"",""1242213""
""blur"",""36"",""1439558""
","""event"",""trial"",""time""
""focus"",""36"",""1248407""
""focus"",""36"",""1464527""
","""event"",""trial"",""time""
""fullscreenenter"",""1"",""1409""
""fullscreenenter"",""1"",""1410""
","
","","","10473.000000000233","[""True""]","0","25","11351","2517","","","","","","","","","","","","","","","","","","",""
"pit-instructions","113","1949003","0.0-2.0-23.1-1.1","battery-v0.2","","""event"",""trial"",""time""
""fullscreenenter"",""1"",""1409""
""fullscreenenter"",""1"",""1410""
""blur"",""36"",""1242213""
""focus"",""36"",""1248407""
""blur"",""36"",""1439558""
""focus"",""36"",""1464527""
","""event"",""trial"",""time""
""blur"",""36"",""1242213""
""blur"",""36"",""1439558""
","""event"",""trial"",""time""
""focus"",""36"",""1248407""
""focus"",""36"",""1464527""
","""event"",""trial"",""time""
""fullscreenenter"",""1"",""1409""
""fullscreenenter"",""1"",""1410""
","
","","[{""page_index"":0,""viewing_time"":8711}]","8712","","","","","","","","","","","","","","","","","","","","","","","",""
"pit-comprehension","114","1956472","0.0-2.0-24.0-0.0","battery-v0.2","","""event"",""trial"",""time""
""fullscreenenter"",""1"",""1409""
""fullscreenenter"",""1"",""1410""
""blur"",""36"",""1242213""
""focus"",""36"",""1248407""
""blur"",""36"",""1439558""
""focus"",""36"",""1464527""
","""event"",""trial"",""time""
""blur"",""36"",""1242213""
""blur"",""36"",""1439558""
","""event"",""trial"",""time""
""focus"",""36"",""1248407""
""focus"",""36"",""1464527""
","""event"",""trial"",""time""
""fullscreenenter"",""1"",""1409""
""fullscreenenter"",""1"",""1410""
","
","","","7464.999999999767","[""True""]","0","25","11351","2517","","","","","","","","","","","","","","","","","","",""
"pit-instructions","115","1963753","0.0-2.0-24.0-1.0","battery-v0.2","","""event"",""trial"",""time""
""fullscreenenter"",""1"",""1409""
""fullscreenenter"",""1"",""1410""
""blur"",""36"",""1242213""
""focus"",""36"",""1248407""
""blur"",""36"",""1439558""
""focus"",""36"",""1464527""
","""event"",""trial"",""time""
""blur"",""36"",""1242213""
""blur"",""36"",""1439558""
","""event"",""trial"",""time""
""focus"",""36"",""1248407""
""focus"",""36"",""1464527""
","""event"",""trial"",""time""
""fullscreenenter"",""1"",""1409""
""fullscreenenter"",""1"",""1410""
","
","","[{""page_index"":0,""viewing_time"":7245.999999999767}]","7246.999999999767","","","","","","","","","","","","","","","","","","","","","","","",""
"pit-comprehension","116","1970548","0.0-2.0-25.0-0.0","battery-v0.2","","""event"",""trial"",""time""
""fullscreenenter"",""1"",""1409""
""fullscreenenter"",""1"",""1410""
""blur"",""36"",""1242213""
""focus"",""36"",""1248407""
""blur"",""36"",""1439558""
""focus"",""36"",""1464527""
","""event"",""trial"",""time""
""blur"",""36"",""1242213""
""blur"",""36"",""1439558""
","""event"",""trial"",""time""
""focus"",""36"",""1248407""
""focus"",""36"",""1464527""
","""event"",""trial"",""time""
""fullscreenenter"",""1"",""1409""
""fullscreenenter"",""1"",""1410""
","
","","","6789","[""True""]","0","25","11351","2517","","","","","","","","","","","","","","","","","","",""
"pit-instructions","117","1980044","0.0-2.0-25.0-1.0","battery-v0.2","","""event"",""trial"",""time""
""fullscreenenter"",""1"",""1409""
""fullscreenenter"",""1"",""1410""
""blur"",""36"",""1242213""
""focus"",""36"",""1248407""
""blur"",""36"",""1439558""
""focus"",""36"",""1464527""
","""event"",""trial"",""time""
""blur"",""36"",""1242213""
""blur"",""36"",""1439558""
","""event"",""trial"",""time""
""focus"",""36"",""1248407""
""focus"",""36"",""1464527""
","""event"",""trial"",""time""
""fullscreenenter"",""1"",""1409""
""fullscreenenter"",""1"",""1410""
","
","","[{""page_index"":0,""viewing_time"":9459.000000000233}]","9459.000000000233","","","","","","","","","","","","","","","","","","","","","","","",""
"pit-comprehension","118","1984603","0.0-2.0-26.0-0.0","battery-v0.2","","""event"",""trial"",""time""
""fullscreenenter"",""1"",""1409""
""fullscreenenter"",""1"",""1410""
""blur"",""36"",""1242213""
""focus"",""36"",""1248407""
""blur"",""36"",""1439558""
""focus"",""36"",""1464527""
","""event"",""trial"",""time""
""blur"",""36"",""1242213""
""blur"",""36"",""1439558""
","""event"",""trial"",""time""
""focus"",""36"",""1248407""
""focus"",""36"",""1464527""
","""event"",""trial"",""time""
""fullscreenenter"",""1"",""1409""
""fullscreenenter"",""1"",""1410""
","
","","","4558","[""False""]","0","25","11351","2517","","","","","","","","","","","","","","","","","","",""
"pit-instructions","119","1988789","0.0-2.0-26.0-1.0","battery-v0.2","","""event"",""trial"",""time""
""fullscreenenter"",""1"",""1409""
""fullscreenenter"",""1"",""1410""
""blur"",""36"",""1242213""
""focus"",""36"",""1248407""
""blur"",""36"",""1439558""
""focus"",""36"",""1464527""
","""event"",""trial"",""time""
""blur"",""36"",""1242213""
""blur"",""36"",""1439558""
","""event"",""trial"",""time""
""focus"",""36"",""1248407""
""focus"",""36"",""1464527""
","""event"",""trial"",""time""
""fullscreenenter"",""1"",""1409""
""fullscreenenter"",""1"",""1410""
","
","","[{""page_index"":0,""viewing_time"":4158.000000000233}]","4158.000000000233","","","","","","","","","","","","","","","","","","","","","","","",""
"pit-instructions","120","2007768","0.0-3.0","battery-v0.2","","""event"",""trial"",""time""
""fullscreenenter"",""1"",""1409""
""fullscreenenter"",""1"",""1410""
""blur"",""36"",""1242213""
""focus"",""36"",""1248407""
""blur"",""36"",""1439558""
""focus"",""36"",""1464527""
","""event"",""trial"",""time""
""blur"",""36"",""1242213""
""blur"",""36"",""1439558""
","""event"",""trial"",""time""
""focus"",""36"",""1248407""
""focus"",""36"",""1464527""
","""event"",""trial"",""time""
""fullscreenenter"",""1"",""1409""
""fullscreenenter"",""1"",""1410""
","
","","[{""page_index"":0,""viewing_time"":6239},{""page_index"":1,""viewing_time"":5146},{""page_index"":2,""viewing_time"":7596}]","18982","","","","","","","","","","","","","","","","","","","","","","","",""
"pit-trial","121","2012627","0.0-4.0","battery-v0.2","","""event"",""trial"",""time""
""fullscreenenter"",""1"",""1409""
""fullscreenenter"",""1"",""1410""
""blur"",""36"",""1242213""
""focus"",""36"",""1248407""
""blur"",""36"",""1439558""
""focus"",""36"",""1464527""
","""event"",""trial"",""time""
""blur"",""36"",""1242213""
""blur"",""36"",""1439558""
","""event"",""trial"",""time""
""focus"",""36"",""1248407""
""focus"",""36"",""1464527""
","""event"",""trial"",""time""
""fullscreenenter"",""1"",""1409""
""fullscreenenter"",""1"",""1410""
","
","","","-1","","","25","11351","2517","&#9728;","elianto","#f73b6a7A","-1","-1","1","0","[]","0","1","","","11351","1","0","4","lose","no-go","0"
"pit-trial","122","2016381","0.0-5.0","battery-v0.2","","""event"",""trial"",""time""
""fullscreenenter"",""1"",""1409""
""fullscreenenter"",""1"",""1410""
""blur"",""36"",""1242213""
""focus"",""36"",""1248407""
""blur"",""36"",""1439558""
""focus"",""36"",""1464527""
","""event"",""trial"",""time""
""blur"",""36"",""1242213""
""blur"",""36"",""1439558""
","""event"",""trial"",""time""
""focus"",""36"",""1248407""
""focus"",""36"",""1464527""
","""event"",""trial"",""time""
""fullscreenenter"",""1"",""1409""
""fullscreenenter"",""1"",""1410""
","
","","","894","","","25","11351","2517","&#9730;","elianto","#3366ff99"," "," ","1","+10","[1743]","1","1","","","11351","2","1","1","win","go","0"
"pit-trial","123","2021242","0.0-6.0","battery-v0.2","","""event"",""trial"",""time""
""fullscreenenter"",""1"",""1409""
""fullscreenenter"",""1"",""1410""
""blur"",""36"",""1242213""
""focus"",""36"",""1248407""
""blur"",""36"",""1439558""
""focus"",""36"",""1464527""
","""event"",""trial"",""time""
""blur"",""36"",""1242213""
""blur"",""36"",""1439558""
","""event"",""trial"",""time""
""focus"",""36"",""1248407""
""focus"",""36"",""1464527""
","""event"",""trial"",""time""
""fullscreenenter"",""1"",""1409""
""fullscreenenter"",""1"",""1410""
","
","","","-1","","","25","11351","2517","&#9752;","elianto","#f73b6a7A"," ","-1","0","-10","[]","0","1","","","11351","3","3","3","lose","go","0"
"pit-trial","124","2025066","0.0-7.0","battery-v0.2","","""event"",""trial"",""time""
""fullscreenenter"",""1"",""1409""
""fullscreenenter"",""1"",""1410""
""blur"",""36"",""1242213""
""focus"",""36"",""1248407""
""blur"",""36"",""1439558""
""focus"",""36"",""1464527""
","""event"",""trial"",""time""
""blur"",""36"",""1242213""
""blur"",""36"",""1439558""
","""event"",""trial"",""time""
""focus"",""36"",""1248407""
""focus"",""36"",""1464527""
","""event"",""trial"",""time""
""fullscreenenter"",""1"",""1409""
""fullscreenenter"",""1"",""1410""
","
","","","962.9999999997672","","","25","11351","2517","&#9733;","elianto","#3366ff99","-1"," ","0","+10","[1813]","1","1","","","11351","4","2","2","win","no-go","1"
"pit-trial","125","2028658","0.0-8.0","battery-v0.2","","""event"",""trial"",""time""
""fullscreenenter"",""1"",""1409""
""fullscreenenter"",""1"",""1410""
""blur"",""36"",""1242213""
""focus"",""36"",""1248407""
""blur"",""36"",""1439558""
""focus"",""36"",""1464527""
","""event"",""trial"",""time""
""blur"",""36"",""1242213""
""blur"",""36"",""1439558""
","""event"",""trial"",""time""
""focus"",""36"",""1248407""
""focus"",""36"",""1464527""
","""event"",""trial"",""time""
""fullscreenenter"",""1"",""1409""
""fullscreenenter"",""1"",""1410""
","
","","","731","","","25","11351","2517","&#9730;","elianto","#3366ff99"," "," ","1","0","[1582]","1","1","","","11351","5","1","1","win","go","1"
"pit-trial","126","2033520","0.0-9.0","battery-v0.2","","""event"",""trial"",""time""
""fullscreenenter"",""1"",""1409""
""fullscreenenter"",""1"",""1410""
""blur"",""36"",""1242213""
""focus"",""36"",""1248407""
""blur"",""36"",""1439558""
""focus"",""36"",""1464527""
","""event"",""trial"",""time""
""blur"",""36"",""1242213""
""blur"",""36"",""1439558""
","""event"",""trial"",""time""
""focus"",""36"",""1248407""
""focus"",""36"",""1464527""
","""event"",""trial"",""time""
""fullscreenenter"",""1"",""1409""
""fullscreenenter"",""1"",""1410""
","
","","","-1","","","25","11351","2517","&#9752;","elianto","#f73b6a7A"," ","-1","0","-10","[]","0","1","","","11351","6","3","3","lose","go","0"
"pit-trial","127","2037184","0.0-10.0","battery-v0.2","","""event"",""trial"",""time""
""fullscreenenter"",""1"",""1409""
""fullscreenenter"",""1"",""1410""
""blur"",""36"",""1242213""
""focus"",""36"",""1248407""
""blur"",""36"",""1439558""
""focus"",""36"",""1464527""
","""event"",""trial"",""time""
""blur"",""36"",""1242213""
""blur"",""36"",""1439558""
","""event"",""trial"",""time""
""focus"",""36"",""1248407""
""focus"",""36"",""1464527""
","""event"",""trial"",""time""
""fullscreenenter"",""1"",""1409""
""fullscreenenter"",""1"",""1410""
","
","","","804.9999999997672","","","25","11351","2517","&#9728;","elianto","#f73b6a7A","-1"," ","0","-10","[1656]","1","1","","","11351","7","0","4","lose","no-go","0"
"pit-trial","128","2040556","0.0-11.0","battery-v0.2","","""event"",""trial"",""time""
""fullscreenenter"",""1"",""1409""
""fullscreenenter"",""1"",""1410""
""blur"",""36"",""1242213""
""focus"",""36"",""1248407""
""blur"",""36"",""1439558""
""focus"",""36"",""1464527""
","""event"",""trial"",""time""
""blur"",""36"",""1242213""
""blur"",""36"",""1439558""
","""event"",""trial"",""time""
""focus"",""36"",""1248407""
""focus"",""36"",""1464527""
","""event"",""trial"",""time""
""fullscreenenter"",""1"",""1409""
""fullscreenenter"",""1"",""1410""
","
","","","511.99999999976717","","","25","11351","2517","&#9733;","elianto","#3366ff99","-1"," ","0","0","[1362]","1","1","","","11351","8","2","2","win","no-go","0"
"pit-trial","129","2043863","0.0-12.0","battery-v0.2","","""event"",""trial"",""time""
""fullscreenenter"",""1"",""1409""
""fullscreenenter"",""1"",""1410""
""blur"",""36"",""1242213""
""focus"",""36"",""1248407""
""blur"",""36"",""1439558""
""focus"",""36"",""1464527""
","""event"",""trial"",""time""
""blur"",""36"",""1242213""
""blur"",""36"",""1439558""
","""event"",""trial"",""time""
""focus"",""36"",""1248407""
""focus"",""36"",""1464527""
","""event"",""trial"",""time""
""fullscreenenter"",""1"",""1409""
""fullscreenenter"",""1"",""1410""
","
","","","445","","","25","11351","2517","&#9730;","elianto","#3366ff99"," "," ","1","0","[1296]","1","1","","","11351","9","1","1","win","go","1"
"pit-trial","130","2048725","0.0-13.0","battery-v0.2","","""event"",""trial"",""time""
""fullscreenenter"",""1"",""1409""
""fullscreenenter"",""1"",""1410""
""blur"",""36"",""1242213""
""focus"",""36"",""1248407""
""blur"",""36"",""1439558""
""focus"",""36"",""1464527""
","""event"",""trial"",""time""
""blur"",""36"",""1242213""
""blur"",""36"",""1439558""
","""event"",""trial"",""time""
""focus"",""36"",""1248407""
""focus"",""36"",""1464527""
","""event"",""trial"",""time""
""fullscreenenter"",""1"",""1409""
""fullscreenenter"",""1"",""1410""
","
","","","-1","","","25","11351","2517","&#9728;","elianto","#f73b6a7A","-1","-1","1","0","[]","0","1","","","11351","10","0","4","lose","no-go","0"
"pit-trial","131","2052194","0.0-14.0","battery-v0.2","","""event"",""trial"",""time""
""fullscreenenter"",""1"",""1409""
""fullscreenenter"",""1"",""1410""
""blur"",""36"",""1242213""
""focus"",""36"",""1248407""
""blur"",""36"",""1439558""
""focus"",""36"",""1464527""
","""event"",""trial"",""time""
""blur"",""36"",""1242213""
""blur"",""36"",""1439558""
","""event"",""trial"",""time""
""focus"",""36"",""1248407""
""focus"",""36"",""1464527""
","""event"",""trial"",""time""
""fullscreenenter"",""1"",""1409""
""fullscreenenter"",""1"",""1410""
","
","","","609.0000000004657","","","25","11351","2517","&#9733;","elianto","#3366ff99","-1"," ","0","0","[1460]","1","1","","","11351","11","2","2","win","no-go","0"
"pit-trial","132","2057054","0.0-15.0","battery-v0.2","","""event"",""trial"",""time""
""fullscreenenter"",""1"",""1409""
""fullscreenenter"",""1"",""1410""
""blur"",""36"",""1242213""
""focus"",""36"",""1248407""
""blur"",""36"",""1439558""
""focus"",""36"",""1464527""
","""event"",""trial"",""time""
""blur"",""36"",""1242213""
""blur"",""36"",""1439558""
","""event"",""trial"",""time""
""focus"",""36"",""1248407""
""focus"",""36"",""1464527""
","""event"",""trial"",""time""
""fullscreenenter"",""1"",""1409""
""fullscreenenter"",""1"",""1410""
","
","","","-1","","","25","11351","2517","&#9752;","elianto","#f73b6a7A"," ","-1","0","-10","[]","0","1","","","11351","12","3","3","lose","go","0"
"pit-trial","133","2060295","0.0-16.0","battery-v0.2","","""event"",""trial"",""time""
""fullscreenenter"",""1"",""1409""
""fullscreenenter"",""1"",""1410""
""blur"",""36"",""1242213""
""focus"",""36"",""1248407""
""blur"",""36"",""1439558""
""focus"",""36"",""1464527""
","""event"",""trial"",""time""
""blur"",""36"",""1242213""
""blur"",""36"",""1439558""
","""event"",""trial"",""time""
""focus"",""36"",""1248407""
""focus"",""36"",""1464527""
","""event"",""trial"",""time""
""fullscreenenter"",""1"",""1409""
""fullscreenenter"",""1"",""1410""
","
","","","380","","","25","11351","2517","&#9733;","elianto","#3366ff99","-1"," ","0","0","[1230.0000000002328]","1","1","","","11351","13","2","2","win","no-go","0"
"pit-trial","134","2065156","0.0-17.0","battery-v0.2","","""event"",""trial"",""time""
""fullscreenenter"",""1"",""1409""
""fullscreenenter"",""1"",""1410""
""blur"",""36"",""1242213""
""focus"",""36"",""1248407""
""blur"",""36"",""1439558""
""focus"",""36"",""1464527""
","""event"",""trial"",""time""
""blur"",""36"",""1242213""
""blur"",""36"",""1439558""
","""event"",""trial"",""time""
""focus"",""36"",""1248407""
""focus"",""36"",""1464527""
","""event"",""trial"",""time""
""fullscreenenter"",""1"",""1409""
""fullscreenenter"",""1"",""1410""
","
","","","-1","","","25","11351","2517","&#9752;","elianto","#f73b6a7A"," ","-1","0","-10","[]","0","1","","","11351","14","3","3","lose","go","0"
"pit-trial","135","2070018","0.0-18.0","battery-v0.2","","""event"",""trial"",""time""
""fullscreenenter"",""1"",""1409""
""fullscreenenter"",""1"",""1410""
""blur"",""36"",""1242213""
""focus"",""36"",""1248407""
""blur"",""36"",""1439558""
""focus"",""36"",""1464527""
","""event"",""trial"",""time""
""blur"",""36"",""1242213""
""blur"",""36"",""1439558""
","""event"",""trial"",""time""
""focus"",""36"",""1248407""
""focus"",""36"",""1464527""
","""event"",""trial"",""time""
""fullscreenenter"",""1"",""1409""
""fullscreenenter"",""1"",""1410""
","
","","","-1","","","25","11351","2517","&#9728;","elianto","#f73b6a7A","-1","-1","1","0","[]","0","1","","","11351","15","0","4","lose","no-go","0"
"pit-trial","136","2073341","0.0-19.0","battery-v0.2","","""event"",""trial"",""time""
""fullscreenenter"",""1"",""1409""
""fullscreenenter"",""1"",""1410""
""blur"",""36"",""1242213""
""focus"",""36"",""1248407""
""blur"",""36"",""1439558""
""focus"",""36"",""1464527""
","""event"",""trial"",""time""
""blur"",""36"",""1242213""
""blur"",""36"",""1439558""
","""event"",""trial"",""time""
""focus"",""36"",""1248407""
""focus"",""36"",""1464527""
","""event"",""trial"",""time""
""fullscreenenter"",""1"",""1409""
""fullscreenenter"",""1"",""1410""
","
","","","465.00000000023283","","","25","11351","2517","&#9730;","elianto","#3366ff99"," "," ","1","+10","[1315.0000000002328]","1","1","","","11351","16","1","1","win","go","0"
"pit-trial","137","2078201","0.0-20.0","battery-v0.2","","""event"",""trial"",""time""
""fullscreenenter"",""1"",""1409""
""fullscreenenter"",""1"",""1410""
""blur"",""36"",""1242213""
""focus"",""36"",""1248407""
""blur"",""36"",""1439558""
""focus"",""36"",""1464527""
","""event"",""trial"",""time""
""blur"",""36"",""1242213""
""blur"",""36"",""1439558""
","""event"",""trial"",""time""
""focus"",""36"",""1248407""
""focus"",""36"",""1464527""
","""event"",""trial"",""time""
""fullscreenenter"",""1"",""1409""
""fullscreenenter"",""1"",""1410""
","
","","","-1","","","25","11351","2517","&#9752;","elianto","#f73b6a7A"," ","-1","0","-10","[]","0","1","","","11351","17","3","3","lose","go","0"
"pit-trial","138","2081571","0.0-21.0","battery-v0.2","","""event"",""trial"",""time""
""fullscreenenter"",""1"",""1409""
""fullscreenenter"",""1"",""1410""
""blur"",""36"",""1242213""
""focus"",""36"",""1248407""
""blur"",""36"",""1439558""
""focus"",""36"",""1464527""
","""event"",""trial"",""time""
""blur"",""36"",""1242213""
""blur"",""36"",""1439558""
","""event"",""trial"",""time""
""focus"",""36"",""1248407""
""focus"",""36"",""1464527""
","""event"",""trial"",""time""
""fullscreenenter"",""1"",""1409""
""fullscreenenter"",""1"",""1410""
","
","","","510.00000000023283","","","25","11351","2517","&#9730;","elianto","#3366ff99"," "," ","1","+10","[1360.0000000002328]","1","1","","","11351","18","1","1","win","go","0"
"pit-trial","139","2085486","0.0-22.0","battery-v0.2","","""event"",""trial"",""time""
""fullscreenenter"",""1"",""1409""
""fullscreenenter"",""1"",""1410""
""blur"",""36"",""1242213""
""focus"",""36"",""1248407""
""blur"",""36"",""1439558""
""focus"",""36"",""1464527""
","""event"",""trial"",""time""
""blur"",""36"",""1242213""
""blur"",""36"",""1439558""
","""event"",""trial"",""time""
""focus"",""36"",""1248407""
""focus"",""36"",""1464527""
","""event"",""trial"",""time""
""fullscreenenter"",""1"",""1409""
""fullscreenenter"",""1"",""1410""
","
","","","1054.0000000002328","","","25","11351","2517","&#9728;","elianto","#f73b6a7A","-1"," ","0","-10","[1906]","1","1","","","11351","19","0","4","lose","no-go","0"
"pit-trial","140","2088713","0.0-23.0","battery-v0.2","","""event"",""trial"",""time""
""fullscreenenter"",""1"",""1409""
""fullscreenenter"",""1"",""1410""
""blur"",""36"",""1242213""
""focus"",""36"",""1248407""
""blur"",""36"",""1439558""
""focus"",""36"",""1464527""
","""event"",""trial"",""time""
""blur"",""36"",""1242213""
""blur"",""36"",""1439558""
","""event"",""trial"",""time""
""focus"",""36"",""1248407""
""focus"",""36"",""1464527""
","""event"",""trial"",""time""
""fullscreenenter"",""1"",""1409""
""fullscreenenter"",""1"",""1410""
","
","","","367.00000000023283","","","25","11351","2517","&#9733;","elianto","#3366ff99","-1"," ","0","0","[1219]","1","1","","","11351","20","2","2","win","no-go","0"
"pit-instructions","141","2116632","0.0-24.0","battery-v0.2","","""event"",""trial"",""time""
""fullscreenenter"",""1"",""1409""
""fullscreenenter"",""1"",""1410""
""blur"",""36"",""1242213""
""focus"",""36"",""1248407""
""blur"",""36"",""1439558""
""focus"",""36"",""1464527""
","""event"",""trial"",""time""
""blur"",""36"",""1242213""
""blur"",""36"",""1439558""
","""event"",""trial"",""time""
""focus"",""36"",""1248407""
""focus"",""36"",""1464527""
","""event"",""trial"",""time""
""fullscreenenter"",""1"",""1409""
""fullscreenenter"",""1"",""1410""
","
","","[{""page_index"":0,""viewing_time"":5677},{""page_index"":1,""viewing_time"":22233}]","27910","","","","","","","","","","","","","","","","","","","","","","","",""
"pit-trial","142","2120420","0.0-25.0","battery-v0.2","","""event"",""trial"",""time""
""fullscreenenter"",""1"",""1409""
""fullscreenenter"",""1"",""1410""
""blur"",""36"",""1242213""
""focus"",""36"",""1248407""
""blur"",""36"",""1439558""
""focus"",""36"",""1464527""
","""event"",""trial"",""time""
""blur"",""36"",""1242213""
""blur"",""36"",""1439558""
","""event"",""trial"",""time""
""focus"",""36"",""1248407""
""focus"",""36"",""1464527""
","""event"",""trial"",""time""
""fullscreenenter"",""1"",""1409""
""fullscreenenter"",""1"",""1410""
","
","","","928.9999999995343","","","25","11351","2517","d","elianto","#3366ff99"," "," ","1","+10","[1780]","1","2","","","11351","21","1","1","win","go","0"
"pit-trial","143","2125281","0.0-26.0","battery-v0.2","","""event"",""trial"",""time""
""fullscreenenter"",""1"",""1409""
""fullscreenenter"",""1"",""1410""
""blur"",""36"",""1242213""
""focus"",""36"",""1248407""
""blur"",""36"",""1439558""
""focus"",""36"",""1464527""
","""event"",""trial"",""time""
""blur"",""36"",""1242213""
""blur"",""36"",""1439558""
","""event"",""trial"",""time""
""focus"",""36"",""1248407""
""focus"",""36"",""1464527""
","""event"",""trial"",""time""
""fullscreenenter"",""1"",""1409""
""fullscreenenter"",""1"",""1410""
","
","","","-1","","","25","11351","2517","w","elianto","#f73b6a7A"," ","-1","0","0","[]","0","2","","","11351","22","3","3","lose","go","1"
"pit-trial","144","2130141","0.0-27.0","battery-v0.2","","""event"",""trial"",""time""
""fullscreenenter"",""1"",""1409""
""fullscreenenter"",""1"",""1410""
""blur"",""36"",""1242213""
""focus"",""36"",""1248407""
""blur"",""36"",""1439558""
""focus"",""36"",""1464527""
","""event"",""trial"",""time""
""blur"",""36"",""1242213""
""blur"",""36"",""1439558""
","""event"",""trial"",""time""
""focus"",""36"",""1248407""
""focus"",""36"",""1464527""
","""event"",""trial"",""time""
""fullscreenenter"",""1"",""1409""
""fullscreenenter"",""1"",""1410""
","
","","","-1","","","25","11351","2517","e","elianto","#f73b6a7A","-1","-1","1","0","[]","0","2","","","11351","23","2","4","lose","no-go","0"
"pit-trial","145","2135003","0.0-28.0","battery-v0.2","","""event"",""trial"",""time""
""fullscreenenter"",""1"",""1409""
""fullscreenenter"",""1"",""1410""
""blur"",""36"",""1242213""
""focus"",""36"",""1248407""
""blur"",""36"",""1439558""
""focus"",""36"",""1464527""
","""event"",""trial"",""time""
""blur"",""36"",""1242213""
""blur"",""36"",""1439558""
","""event"",""trial"",""time""
""focus"",""36"",""1248407""
""focus"",""36"",""1464527""
","""event"",""trial"",""time""
""fullscreenenter"",""1"",""1409""
""fullscreenenter"",""1"",""1410""
","
","","","-1","","","25","11351","2517","j","elianto","#f73b6a7A","-1","-1","1","0","[]","0","2","","","11351","24","0","4","lose","no-go","0"
"pit-trial","146","2139230","0.0-29.0","battery-v0.2","","""event"",""trial"",""time""
""fullscreenenter"",""1"",""1409""
""fullscreenenter"",""1"",""1410""
""blur"",""36"",""1242213""
""focus"",""36"",""1248407""
""blur"",""36"",""1439558""
""focus"",""36"",""1464527""
","""event"",""trial"",""time""
""blur"",""36"",""1242213""
""blur"",""36"",""1439558""
","""event"",""trial"",""time""
""focus"",""36"",""1248407""
""focus"",""36"",""1464527""
","""event"",""trial"",""time""
""fullscreenenter"",""1"",""1409""
""fullscreenenter"",""1"",""1410""
","
","","","1363.9999999995343","","","25","11351","2517","w","elianto","#f73b6a7A"," "," ","1","0","[2216]","1","2","","","11351","25","3","3","lose","go","0"
"pit-trial","147","2143256","0.0-30.0","battery-v0.2","","""event"",""trial"",""time""
""fullscreenenter"",""1"",""1409""
""fullscreenenter"",""1"",""1410""
""blur"",""36"",""1242213""
""focus"",""36"",""1248407""
""blur"",""36"",""1439558""
""focus"",""36"",""1464527""
","""event"",""trial"",""time""
""blur"",""36"",""1242213""
""blur"",""36"",""1439558""
","""event"",""trial"",""time""
""focus"",""36"",""1248407""
""focus"",""36"",""1464527""
","""event"",""trial"",""time""
""fullscreenenter"",""1"",""1409""
""fullscreenenter"",""1"",""1410""
","
","","","1166","","","25","11351","2517","j","elianto","#f73b6a7A","-1"," ","0","-10","[2017]","1","2","","","11351","26","0","4","lose","no-go","0"
"pit-trial","148","2148116","0.0-31.0","battery-v0.2","","""event"",""trial"",""time""
""fullscreenenter"",""1"",""1409""
""fullscreenenter"",""1"",""1410""
""blur"",""36"",""1242213""
""focus"",""36"",""1248407""
""blur"",""36"",""1439558""
""focus"",""36"",""1464527""
","""event"",""trial"",""time""
""blur"",""36"",""1242213""
""blur"",""36"",""1439558""
","""event"",""trial"",""time""
""focus"",""36"",""1248407""
""focus"",""36"",""1464527""
","""event"",""trial"",""time""
""fullscreenenter"",""1"",""1409""
""fullscreenenter"",""1"",""1410""
","
","","","-1","","","25","11351","2517","e","elianto","#f73b6a7A","-1","-1","1","0","[]","0","2","","","11351","27","2","4","lose","no-go","0"
"pit-trial","149","2151551","0.0-32.0","battery-v0.2","","""event"",""trial"",""time""
""fullscreenenter"",""1"",""1409""
""fullscreenenter"",""1"",""1410""
""blur"",""36"",""1242213""
""focus"",""36"",""1248407""
""blur"",""36"",""1439558""
""focus"",""36"",""1464527""
","""event"",""trial"",""time""
""blur"",""36"",""1242213""
""blur"",""36"",""1439558""
","""event"",""trial"",""time""
""focus"",""36"",""1248407""
""focus"",""36"",""1464527""
","""event"",""trial"",""time""
""fullscreenenter"",""1"",""1409""
""fullscreenenter"",""1"",""1410""
","
","","","574","","","25","11351","2517","d","elianto","#3366ff99"," "," ","1","+10","[1425]","1","2","","","11351","28","1","1","win","go","0"
"pit-trial","150","2156412","0.0-33.0","battery-v0.2","","""event"",""trial"",""time""
""fullscreenenter"",""1"",""1409""
""fullscreenenter"",""1"",""1410""
