"trial_type","trial_index","time_elapsed","internal_node_id","task_version","subject_id","interactions","blur_events","focus_events","fullscreenenter_events","fullscreenexit_events","success","view_history","rt","responses","num_errors","age","subject","participantId","rune","rune_set","hex","correct","choice","accuracy","outcome","keys","total_keys","block","practice","value","sub","trial","stimulus","robot","valence","action","sham"
"pavlovia","0","8","0.0-0.0","battery-v0.2","","""event"",""trial"",""time""
""fullscreenenter"",""1"",""1751""
","
","
","""event"",""trial"",""time""
""fullscreenenter"",""1"",""1751""
","
","","","","","","","","","","","","","","","","","","","","","","","","","","",""
"fullscreen","1","2744","0.0-1.0","battery-v0.2","","""event"",""trial"",""time""
""fullscreenenter"",""1"",""1751""
","
","
","""event"",""trial"",""time""
""fullscreenenter"",""1"",""1751""
","
","true","","","","","","","","","","","","","","","","","","","","","","","","","",""
"pit-instructions","2","7532","0.0-2.0-0.0","battery-v0.2","","""event"",""trial"",""time""
""fullscreenenter"",""1"",""1751""
","
","
","""event"",""trial"",""time""
""fullscreenenter"",""1"",""1751""
","
","","[{""page_index"":0,""viewing_time"":4786.1999999999825}]","4786.399999999994","","","","","","","","","","","","","","","","","","","","","","","",""
"pit-comprehension","3","9964","0.0-2.0-1.0-0.0","battery-v0.2","","""event"",""trial"",""time""
""fullscreenenter"",""1"",""1751""
","
","
","""event"",""trial"",""time""
""fullscreenenter"",""1"",""1751""
","
","","","2429.7999999999884","[""shark""]","0","21","10376","4900","","","","","","","","","","","","","","","","","","",""
"pit-instructions","4","10956","0.0-2.0-1.0-1.0","battery-v0.2","","""event"",""trial"",""time""
""fullscreenenter"",""1"",""1751""
","
","
","""event"",""trial"",""time""
""fullscreenenter"",""1"",""1751""
","
","","[{""page_index"":0,""viewing_time"":982.7999999999884}]","983.1000000000058","","","","","","","","","","","","","","","","","","","","","","","",""
"pit-comprehension","5","13540","0.0-2.0-2.0-0.0","battery-v0.2","","""event"",""trial"",""time""
""fullscreenenter"",""1"",""1751""
","
","
","""event"",""trial"",""time""
""fullscreenenter"",""1"",""1751""
","
","","","2582.5999999999767","[""tiger""]","0","21","10376","4900","","","","","","","","","","","","","","","","","","",""
"pit-instructions","6","14116","0.0-2.0-2.0-1.0","battery-v0.2","","""event"",""trial"",""time""
""fullscreenenter"",""1"",""1751""
","
","
","""event"",""trial"",""time""
""fullscreenenter"",""1"",""1751""
","
","","[{""page_index"":0,""viewing_time"":573.8000000000175}]","573.9000000000233","","","","","","","","","","","","","","","","","","","","","","","",""
"pit-instructions","7","105740","0.0-2.0-3.0","battery-v0.2","","""event"",""trial"",""time""
""fullscreenenter"",""1"",""1751""
","
","
","""event"",""trial"",""time""
""fullscreenenter"",""1"",""1751""
","
","","[{""page_index"":0,""viewing_time"":8086.600000000006},{""page_index"":1,""viewing_time"":5927.799999999988},{""page_index"":2,""viewing_time"":6688},{""page_index"":3,""viewing_time"":5223.899999999994},{""page_index"":4,""viewing_time"":5696.200000000012},{""page_index"":5,""viewing_time"":5488},{""page_index"":6,""viewing_time"":6896},{""page_index"":7,""viewing_time"":6535.899999999994},{""page_index"":8,""viewing_time"":7296},{""page_index"":9,""viewing_time"":8128.100000000006},{""page_index"":10,""viewing_time"":7456},{""page_index"":11,""viewing_time"":6967.899999999994},{""page_index"":12,""viewing_time"":6008.100000000006},{""page_index"":13,""viewing_time"":5223.999999999971}]","91622.9","","","","","","","","","","","","","","","","","","","","","","","",""
"pit-trial","8","109312","0.0-2.0-4.0-0.0","battery-v0.2","","""event"",""trial"",""time""
""fullscreenenter"",""1"",""1751""
","
","
","""event"",""trial"",""time""
""fullscreenenter"",""1"",""1751""
","
","","","710.8999999999651","","","21","10376","4900","&#9784;","elianto","#FFFFF080"," "," ","1","&#10004","[1562.5]","1","0","0","","","","","","","",""
"pit-trial","9","112789","0.0-2.0-4.1-0.1","battery-v0.2","","""event"",""trial"",""time""
""fullscreenenter"",""1"",""1751""
","
","
","""event"",""trial"",""time""
""fullscreenenter"",""1"",""1751""
","
","","","607.1999999999534","","","21","10376","4900","&#9784;","elianto","#FFFFF080"," "," ","1","&#10004","[1460.6999999999534]","1","0","0","","","","","","","",""
"pit-trial","10","116117","0.0-2.0-4.2-0.2","battery-v0.2","","""event"",""trial"",""time""
""fullscreenenter"",""1"",""1751""
","
","
","""event"",""trial"",""time""
""fullscreenenter"",""1"",""1751""
","
","","","458.29999999998836","","","21","10376","4900","&#9784;","elianto","#FFFFF080"," "," ","1","&#10004","[1312]","1","0","0","","","","","","","",""
"pit-trial","11","119339","0.0-2.0-4.3-0.3","battery-v0.2","","""event"",""trial"",""time""
""fullscreenenter"",""1"",""1751""
","
","
","""event"",""trial"",""time""
""fullscreenenter"",""1"",""1751""
","
","","","367.29999999998836","","","21","10376","4900","&#9784;","elianto","#FFFFF080"," "," ","1","&#10004","[1218]","1","0","0","","","","","","","",""
"pit-trial","12","122553","0.0-2.0-4.4-0.4","battery-v0.2","","""event"",""trial"",""time""
""fullscreenenter"",""1"",""1751""
","
","
","""event"",""trial"",""time""
""fullscreenenter"",""1"",""1751""
","
","","","348.3999999999651","","","21","10376","4900","&#9784;","elianto","#FFFFF080"," "," ","1","&#10004","[1201.5]","1","0","0","","","","","","","",""
"pit-instructions","13","143636","0.0-2.0-5.0","battery-v0.2","","""event"",""trial"",""time""
""fullscreenenter"",""1"",""1751""
","
","
","""event"",""trial"",""time""
""fullscreenenter"",""1"",""1751""
","
","","[{""page_index"":0,""viewing_time"":5328.799999999988},{""page_index"":1,""viewing_time"":5552},{""page_index"":2,""viewing_time"":5151.900000000023},{""page_index"":3,""viewing_time"":5047.899999999965}]","21080.900000000023","","","","","","","","","","","","","","","","","","","","","","","",""
"pit-trial","14","148507","0.0-2.0-6.0-0.0","battery-v0.2","","""event"",""trial"",""time""
""fullscreenenter"",""1"",""1751""
","
","
","""event"",""trial"",""time""
""fullscreenenter"",""1"",""1751""
","
","","","-1","","","21","10376","4900","&#9854;","elianto","#FFFFF080","-1","-1","1","&#10004","[]","0","0","1","","","","","","","",""
"pit-trial","15","153368","0.0-2.0-6.1-0.1","battery-v0.2","","""event"",""trial"",""time""
""fullscreenenter"",""1"",""1751""
","
","
","""event"",""trial"",""time""
""fullscreenenter"",""1"",""1751""
","
","","","-1","","","21","10376","4900","&#9854;","elianto","#FFFFF080","-1","-1","1","&#10004","[]","0","0","1","","","","","","","",""
"pit-trial","16","158235","0.0-2.0-6.2-0.2","battery-v0.2","","""event"",""trial"",""time""
""fullscreenenter"",""1"",""1751""
","
","
","""event"",""trial"",""time""
""fullscreenenter"",""1"",""1751""
","
","","","-1","","","21","10376","4900","&#9854;","elianto","#FFFFF080","-1","-1","1","&#10004","[]","0","0","1","","","","","","","",""
"pit-trial","17","163091","0.0-2.0-6.3-0.3","battery-v0.2","","""event"",""trial"",""time""
""fullscreenenter"",""1"",""1751""
","
","
","""event"",""trial"",""time""
""fullscreenenter"",""1"",""1751""
","
","","","-1","","","21","10376","4900","&#9854;","elianto","#FFFFF080","-1","-1","1","&#10004","[]","0","0","1","","","","","","","",""
"pit-trial","18","167954","0.0-2.0-6.4-0.4","battery-v0.2","","""event"",""trial"",""time""
""fullscreenenter"",""1"",""1751""
","
","
","""event"",""trial"",""time""
""fullscreenenter"",""1"",""1751""
","
","","","-1","","","21","10376","4900","&#9854;","elianto","#FFFFF080","-1","-1","1","&#10004","[]","0","0","1","","","","","","","",""
"pit-instructions","19","276484","0.0-2.0-7.0","battery-v0.2","","""event"",""trial"",""time""
""fullscreenenter"",""1"",""1751""
","
","
","""event"",""trial"",""time""
""fullscreenenter"",""1"",""1751""
","
","","[{""page_index"":0,""viewing_time"":5464.700000000012},{""page_index"":1,""viewing_time"":6615.799999999988},{""page_index"":2,""viewing_time"":5936.200000000012},{""page_index"":3,""viewing_time"":6215.899999999965},{""page_index"":4,""viewing_time"":5576},{""page_index"":5,""viewing_time"":5455.900000000023},{""page_index"":6,""viewing_time"":4024},{""page_index"":7,""viewing_time"":7480.099999999977},{""page_index"":8,""viewing_time"":6368.100000000035},{""page_index"":9,""viewing_time"":5655.899999999965},{""page_index"":10,""viewing_time"":6024},{""page_index"":11,""viewing_time"":4088},{""page_index"":12,""viewing_time"":6568},{""page_index"":13,""viewing_time"":6912},{""page_index"":14,""viewing_time"":6799.900000000023},{""page_index"":15,""viewing_time"":6216.000000000029},{""page_index"":16,""viewing_time"":6144.099999999977},{""page_index"":17,""viewing_time"":6983.800000000047}]","108528.6","","","","","","","","","","","","","","","","","","","","","","","",""
"pit-trial","20","280499","0.0-2.0-8.0-0.0","battery-v0.2","","""event"",""trial"",""time""
""fullscreenenter"",""1"",""1751""
","
","
","""event"",""trial"",""time""
""fullscreenenter"",""1"",""1751""
","
","","","1145.9000000000233","","","21","10376","4900","&#9776;","elianto","#3366ff99"," "," ","1","+10","[2002]","1","0","1","","","","","","","",""
"pit-trial","21","283759","0.0-2.0-8.0-1.0","battery-v0.2","","""event"",""trial"",""time""
""fullscreenenter"",""1"",""1751""
","
","
","""event"",""trial"",""time""
""fullscreenenter"",""1"",""1751""
","
","","","400.5","","","21","10376","4900","&#9776;","elianto","#3366ff99"," "," ","1","+10","[1251.7999999999302]","1","0","1","","","","","","","",""
"pit-trial","22","286862","0.0-2.0-8.0-2.0","battery-v0.2","","""event"",""trial"",""time""
""fullscreenenter"",""1"",""1751""
","
","
","""event"",""trial"",""time""
""fullscreenenter"",""1"",""1751""
","
","","","240.39999999990687","","","21","10376","4900","&#9776;","elianto","#3366ff99"," "," ","1","+10","[1094.5999999999767]","1","0","1","","","","","","","",""
"pit-trial","23","290057","0.0-2.0-8.0-3.0","battery-v0.2","","""event"",""trial"",""time""
""fullscreenenter"",""1"",""1751""
","
","
","""event"",""trial"",""time""
""fullscreenenter"",""1"",""1751""
","
","","","331.4000000000233","","","21","10376","4900","&#9776;","elianto","#3366ff99"," "," ","1","0","[1184.4000000000233]","1","0","1","","","","","","","",""
"pit-trial","24","293256","0.0-2.0-8.0-4.0","battery-v0.2","","""event"",""trial"",""time""
""fullscreenenter"",""1"",""1751""
","
","
","""event"",""trial"",""time""
""fullscreenenter"",""1"",""1751""
","
","","","338.39999999990687","","","21","10376","4900","&#9776;","elianto","#3366ff99"," "," ","1","+10","[1188.8999999999069]","1","0","1","","","","","","","",""
"pit-trial","25","296318","0.0-2.0-8.1-0.1","battery-v0.2","","""event"",""trial"",""time""
""fullscreenenter"",""1"",""1751""
","
","
","""event"",""trial"",""time""
""fullscreenenter"",""1"",""1751""
","
","","","189","","","21","10376","4900","&#9776;","elianto","#3366ff99"," "," ","1","+10","[1045.2000000000698]","1","0","1","","","","","","","",""
"pit-trial","26","299477","0.0-2.0-8.1-1.1","battery-v0.2","","""event"",""trial"",""time""
""fullscreenenter"",""1"",""1751""
","
","
","""event"",""trial"",""time""
""fullscreenenter"",""1"",""1751""
","
","","","290.10000000009313","","","21","10376","4900","&#9776;","elianto","#3366ff99"," "," ","1","+10","[1143.9000000000233]","1","0","1","","","","","","","",""
"pit-trial","27","302655","0.0-2.0-8.1-2.1","battery-v0.2","","""event"",""trial"",""time""
""fullscreenenter"",""1"",""1751""
","
","
","""event"",""trial"",""time""
""fullscreenenter"",""1"",""1751""
","
","","","309.0999999999767","","","21","10376","4900","&#9776;","elianto","#3366ff99"," "," ","1","+10","[1160.1999999999534]","1","0","1","","","","","","","",""
"pit-trial","28","305878","0.0-2.0-8.1-3.1","battery-v0.2","","""event"",""trial"",""time""
""fullscreenenter"",""1"",""1751""
","
","
","""event"",""trial"",""time""
""fullscreenenter"",""1"",""1751""
","
","","","364.70000000006985","","","21","10376","4900","&#9776;","elianto","#3366ff99"," "," ","1","0","[1215]","1","0","1","","","","","","","",""
"pit-trial","29","309025","0.0-2.0-8.1-4.1","battery-v0.2","","""event"",""trial"",""time""
""fullscreenenter"",""1"",""1751""
","
","
","""event"",""trial"",""time""
""fullscreenenter"",""1"",""1751""
","
","","","294.4000000000233","","","21","10376","4900","&#9776;","elianto","#3366ff99"," "," ","1","+10","[1145.3000000000466]","1","0","1","","","","","","","",""
"pit-trial","30","312224","0.0-2.0-8.2-0.2","battery-v0.2","","""event"",""trial"",""time""
""fullscreenenter"",""1"",""1751""
","
","
","""event"",""trial"",""time""
""fullscreenenter"",""1"",""1751""
","
","","","346.70000000006985","","","21","10376","4900","&#9776;","elianto","#3366ff99"," "," ","1","+10","[1197]","1","0","1","","","","","","","",""
"pit-trial","31","315417","0.0-2.0-8.2-1.2","battery-v0.2","","""event"",""trial"",""time""
""fullscreenenter"",""1"",""1751""
","
","
","""event"",""trial"",""time""
""fullscreenenter"",""1"",""1751""
","
","","","340","","","21","10376","4900","&#9776;","elianto","#3366ff99"," "," ","1","+10","[1191.2000000000698]","1","0","1","","","","","","","",""
"pit-trial","32","318616","0.0-2.0-8.2-2.2","battery-v0.2","","""event"",""trial"",""time""
""fullscreenenter"",""1"",""1751""
","
","
","""event"",""trial"",""time""
""fullscreenenter"",""1"",""1751""
","
","","","347.30000000004657","","","21","10376","4900","&#9776;","elianto","#3366ff99"," "," ","1","+10","[1197.4000000000233]","1","0","1","","","","","","","",""
"pit-trial","33","321720","0.0-2.0-8.2-3.2","battery-v0.2","","""event"",""trial"",""time""
""fullscreenenter"",""1"",""1751""
","
","
","""event"",""trial"",""time""
""fullscreenenter"",""1"",""1751""
","
","","","251.90000000002328","","","21","10376","4900","&#9776;","elianto","#3366ff99"," "," ","1","0","[1101.9000000000233]","1","0","1","","","","","","","",""
"pit-trial","34","324784","0.0-2.0-8.2-4.2","battery-v0.2","","""event"",""trial"",""time""
""fullscreenenter"",""1"",""1751""
","
","
","""event"",""trial"",""time""
""fullscreenenter"",""1"",""1751""
","
","","","211.59999999997672","","","21","10376","4900","&#9776;","elianto","#3366ff99"," "," ","1","+10","[1062.5999999999767]","1","0","1","","","","","","","",""
"call-function","35","324785","0.0-2.0-9.0","battery-v0.2","","""event"",""trial"",""time""
""fullscreenenter"",""1"",""1751""
","
","
","""event"",""trial"",""time""
""fullscreenenter"",""1"",""1751""
","
","","","","","","","","","","","","","","","","","","","","","","","","","","",""
"pit-instructions","36","372869","0.0-2.0-10.0","battery-v0.2","","""event"",""trial"",""time""
""fullscreenenter"",""1"",""1751""
","
","
","""event"",""trial"",""time""
""fullscreenenter"",""1"",""1751""
","
","","[{""page_index"":0,""viewing_time"":6882.20000000007},{""page_index"":1,""viewing_time"":8224.599999999977},{""page_index"":2,""viewing_time"":13863.400000000023},{""page_index"":3,""viewing_time"":10264.099999999977},{""page_index"":4,""viewing_time"":8848.099999999977}]","48082.60000000009","","","","","","","","","","","","","","","","","","","","","","","",""
"pit-trial","37","376267","0.0-2.0-11.0-0.0","battery-v0.2","","""event"",""trial"",""time""
""fullscreenenter"",""1"",""1751""
","
","
","""event"",""trial"",""time""
""fullscreenenter"",""1"",""1751""
","
","","","537.4000000000233","","","21","10376","4900","&#9761;","elianto","#3366ff99","-1"," ","0","0","[1387.6999999999534]","1","0","2","","","","","","","",""
"pit-trial","38","379493","0.0-2.0-11.0-1.0","battery-v0.2","","""event"",""trial"",""time""
""fullscreenenter"",""1"",""1751""
","
","
","""event"",""trial"",""time""
""fullscreenenter"",""1"",""1751""
","
","","","367.70000000006985","","","21","10376","4900","&#9761;","elianto","#3366ff99","-1"," ","0","0","[1219.4000000000233]","1","0","2","","","","","","","",""
"pit-trial","39","384372","0.0-2.0-11.0-2.0","battery-v0.2","","""event"",""trial"",""time""
""fullscreenenter"",""1"",""1751""
","
","
","""event"",""trial"",""time""
""fullscreenenter"",""1"",""1751""
","
","","","-1","","","21","10376","4900","&#9761;","elianto","#3366ff99","-1","-1","1","+10","[]","0","0","2","","","","","","","",""
"pit-trial","40","389229","0.0-2.0-11.0-3.0","battery-v0.2","","""event"",""trial"",""time""
""fullscreenenter"",""1"",""1751""
","
","
","""event"",""trial"",""time""
""fullscreenenter"",""1"",""1751""
","
","","","-1","","","21","10376","4900","&#9761;","elianto","#3366ff99","-1","-1","1","0","[]","0","0","2","","","","","","","",""
"pit-trial","41","394092","0.0-2.0-11.0-4.0","battery-v0.2","","""event"",""trial"",""time""
""fullscreenenter"",""1"",""1751""
","
","
","""event"",""trial"",""time""
""fullscreenenter"",""1"",""1751""
","
","","","-1","","","21","10376","4900","&#9761;","elianto","#3366ff99","-1","-1","1","+10","[]","0","0","2","","","","","","","",""
"pit-trial","42","398959","0.0-2.0-11.1-0.1","battery-v0.2","","""event"",""trial"",""time""
""fullscreenenter"",""1"",""1751""
","
","
","""event"",""trial"",""time""
""fullscreenenter"",""1"",""1751""
","
","","","-1","","","21","10376","4900","&#9761;","elianto","#3366ff99","-1","-1","1","+10","[]","0","0","2","","","","","","","",""
"pit-trial","43","403811","0.0-2.0-11.1-1.1","battery-v0.2","","""event"",""trial"",""time""
""fullscreenenter"",""1"",""1751""
","
","
","""event"",""trial"",""time""
""fullscreenenter"",""1"",""1751""
","
","","","-1","","","21","10376","4900","&#9761;","elianto","#3366ff99","-1","-1","1","+10","[]","0","0","2","","","","","","","",""
"pit-trial","44","408664","0.0-2.0-11.1-2.1","battery-v0.2","","""event"",""trial"",""time""
""fullscreenenter"",""1"",""1751""
","
","
","""event"",""trial"",""time""
""fullscreenenter"",""1"",""1751""
","
","","","-1","","","21","10376","4900","&#9761;","elianto","#3366ff99","-1","-1","1","+10","[]","0","0","2","","","","","","","",""
"pit-trial","45","413517","0.0-2.0-11.1-3.1","battery-v0.2","","""event"",""trial"",""time""
""fullscreenenter"",""1"",""1751""
","
","
","""event"",""trial"",""time""
""fullscreenenter"",""1"",""1751""
","
","","","-1","","","21","10376","4900","&#9761;","elianto","#3366ff99","-1","-1","1","0","[]","0","0","2","","","","","","","",""
"pit-trial","46","418369","0.0-2.0-11.1-4.1","battery-v0.2","","""event"",""trial"",""time""
""fullscreenenter"",""1"",""1751""
","
","
","""event"",""trial"",""time""
""fullscreenenter"",""1"",""1751""
","
","","","-1","","","21","10376","4900","&#9761;","elianto","#3366ff99","-1","-1","1","+10","[]","0","0","2","","","","","","","",""
"pit-trial","47","423223","0.0-2.0-11.2-0.2","battery-v0.2","","""event"",""trial"",""time""
""fullscreenenter"",""1"",""1751""
","
","
","""event"",""trial"",""time""
""fullscreenenter"",""1"",""1751""
","
","","","-1","","","21","10376","4900","&#9761;","elianto","#3366ff99","-1","-1","1","+10","[]","0","0","2","","","","","","","",""
"pit-trial","48","428076","0.0-2.0-11.2-1.2","battery-v0.2","","""event"",""trial"",""time""
""fullscreenenter"",""1"",""1751""
","
","
","""event"",""trial"",""time""
""fullscreenenter"",""1"",""1751""
","
","","","-1","","","21","10376","4900","&#9761;","elianto","#3366ff99","-1","-1","1","+10","[]","0","0","2","","","","","","","",""
"pit-trial","49","432929","0.0-2.0-11.2-2.2","battery-v0.2","","""event"",""trial"",""time""
""fullscreenenter"",""1"",""1751""
","
","
","""event"",""trial"",""time""
""fullscreenenter"",""1"",""1751""
","
","","","-1","","","21","10376","4900","&#9761;","elianto","#3366ff99","-1","-1","1","+10","[]","0","0","2","","","","","","","",""
"pit-trial","50","437782","0.0-2.0-11.2-3.2","battery-v0.2","","""event"",""trial"",""time""
""fullscreenenter"",""1"",""1751""
","
","
","""event"",""trial"",""time""
""fullscreenenter"",""1"",""1751""
","
","","","-1","","","21","10376","4900","&#9761;","elianto","#3366ff99","-1","-1","1","0","[]","0","0","2","","","","","","","",""
"pit-trial","51","442635","0.0-2.0-11.2-4.2","battery-v0.2","","""event"",""trial"",""time""
""fullscreenenter"",""1"",""1751""
","
","
","""event"",""trial"",""time""
""fullscreenenter"",""1"",""1751""
","
","","","-1","","","21","10376","4900","&#9761;","elianto","#3366ff99","-1","-1","1","+10","[]","0","0","2","","","","","","","",""
"pit-trial","52","447489","0.0-2.0-11.3-0.3","battery-v0.2","","""event"",""trial"",""time""
""fullscreenenter"",""1"",""1751""
","
","
","""event"",""trial"",""time""
""fullscreenenter"",""1"",""1751""
","
","","","-1","","","21","10376","4900","&#9761;","elianto","#3366ff99","-1","-1","1","+10","[]","0","0","2","","","","","","","",""
"pit-trial","53","452341","0.0-2.0-11.3-1.3","battery-v0.2","","""event"",""trial"",""time""
""fullscreenenter"",""1"",""1751""
","
","
","""event"",""trial"",""time""
""fullscreenenter"",""1"",""1751""
","
","","","-1","","","21","10376","4900","&#9761;","elianto","#3366ff99","-1","-1","1","+10","[]","0","0","2","","","","","","","",""
"pit-trial","54","457194","0.0-2.0-11.3-2.3","battery-v0.2","","""event"",""trial"",""time""
""fullscreenenter"",""1"",""1751""
","
","
","""event"",""trial"",""time""
""fullscreenenter"",""1"",""1751""
","
","","","-1","","","21","10376","4900","&#9761;","elianto","#3366ff99","-1","-1","1","+10","[]","0","0","2","","","","","","","",""
"pit-trial","55","462046","0.0-2.0-11.3-3.3","battery-v0.2","","""event"",""trial"",""time""
""fullscreenenter"",""1"",""1751""
","
","
","""event"",""trial"",""time""
""fullscreenenter"",""1"",""1751""
","
","","","-1","","","21","10376","4900","&#9761;","elianto","#3366ff99","-1","-1","1","0","[]","0","0","2","","","","","","","",""
"pit-trial","56","466900","0.0-2.0-11.3-4.3","battery-v0.2","","""event"",""trial"",""time""
""fullscreenenter"",""1"",""1751""
","
","
","""event"",""trial"",""time""
""fullscreenenter"",""1"",""1751""
","
","","","-1","","","21","10376","4900","&#9761;","elianto","#3366ff99","-1","-1","1","+10","[]","0","0","2","","","","","","","",""
"call-function","57","466901","0.0-2.0-12.0","battery-v0.2","","""event"",""trial"",""time""
""fullscreenenter"",""1"",""1751""
","
","
","""event"",""trial"",""time""
""fullscreenenter"",""1"",""1751""
","
","","","","","","","","","","","","","","","","","","","","","","","","","","",""
"pit-instructions","58","502684","0.0-2.0-13.0","battery-v0.2","","""event"",""trial"",""time""
""fullscreenenter"",""1"",""1751""
","
","
","""event"",""trial"",""time""
""fullscreenenter"",""1"",""1751""
","
","","[{""page_index"":0,""viewing_time"":5703},{""page_index"":1,""viewing_time"":7528},{""page_index"":2,""viewing_time"":3008},{""page_index"":3,""viewing_time"":10904},{""page_index"":4,""viewing_time"":8639.900000000023}]","35783.10000000009","","","","","","","","","","","","","","","","","","","","","","","",""
"pit-trial","59","506584","0.0-2.0-14.0-0.0","battery-v0.2","","""event"",""trial"",""time""
""fullscreenenter"",""1"",""1751""
","
","
","""event"",""trial"",""time""
""fullscreenenter"",""1"",""1751""
","
","","","1038.5","","","21","10376","4900","&#9826;","elianto","#f73b6a7A","-1"," ","0","-10","[1890.0999999999767]","1","0","3","","","","","","","",""
"pit-trial","60","509847","0.0-2.0-14.0-1.0","battery-v0.2","","""event"",""trial"",""time""
""fullscreenenter"",""1"",""1751""
","
","
","""event"",""trial"",""time""
""fullscreenenter"",""1"",""1751""
","
","","","402.5","","","21","10376","4900","&#9826;","elianto","#f73b6a7A","-1"," ","0","-10","[1254.4000000000233]","1","0","3","","","","","","","",""
"pit-trial","61","514713","0.0-2.0-14.0-2.0","battery-v0.2","","""event"",""trial"",""time""
""fullscreenenter"",""1"",""1751""
","
","
","""event"",""trial"",""time""
""fullscreenenter"",""1"",""1751""
","
","","","-1","","","21","10376","4900","&#9826;","elianto","#f73b6a7A","-1","-1","1","0","[]","0","0","3","","","","","","","",""
"pit-trial","62","519570","0.0-2.0-14.0-3.0","battery-v0.2","","""event"",""trial"",""time""
""fullscreenenter"",""1"",""1751""
","
","
","""event"",""trial"",""time""
""fullscreenenter"",""1"",""1751""
","
","","","-1","","","21","10376","4900","&#9826;","elianto","#f73b6a7A","-1","-1","1","-10","[]","0","0","3","","","","","","","",""
"pit-trial","63","524443","0.0-2.0-14.0-4.0","battery-v0.2","","""event"",""trial"",""time""
""fullscreenenter"",""1"",""1751""
","
","
","""event"",""trial"",""time""
""fullscreenenter"",""1"",""1751""
","
","","","-1","","","21","10376","4900","&#9826;","elianto","#f73b6a7A","-1","-1","1","0","[]","0","0","3","","","","","","","",""
"pit-trial","64","529304","0.0-2.0-14.1-0.1","battery-v0.2","","""event"",""trial"",""time""
""fullscreenenter"",""1"",""1751""
","
","
","""event"",""trial"",""time""
""fullscreenenter"",""1"",""1751""
","
","","","-1","","","21","10376","4900","&#9826;","elianto","#f73b6a7A","-1","-1","1","0","[]","0","0","3","","","","","","","",""
"pit-trial","65","534157","0.0-2.0-14.1-1.1","battery-v0.2","","""event"",""trial"",""time""
""fullscreenenter"",""1"",""1751""
","
","
","""event"",""trial"",""time""
""fullscreenenter"",""1"",""1751""
","
","","","-1","","","21","10376","4900","&#9826;","elianto","#f73b6a7A","-1","-1","1","0","[]","0","0","3","","","","","","","",""
"pit-trial","66","539009","0.0-2.0-14.1-2.1","battery-v0.2","","""event"",""trial"",""time""
""fullscreenenter"",""1"",""1751""
","
","
","""event"",""trial"",""time""
""fullscreenenter"",""1"",""1751""
","
","","","-1","","","21","10376","4900","&#9826;","elianto","#f73b6a7A","-1","-1","1","0","[]","0","0","3","","","","","","","",""
"pit-trial","67","543863","0.0-2.0-14.1-3.1","battery-v0.2","","""event"",""trial"",""time""
""fullscreenenter"",""1"",""1751""
","
","
","""event"",""trial"",""time""
""fullscreenenter"",""1"",""1751""
","
","","","-1","","","21","10376","4900","&#9826;","elianto","#f73b6a7A","-1","-1","1","-10","[]","0","0","3","","","","","","","",""
"pit-trial","68","548717","0.0-2.0-14.1-4.1","battery-v0.2","","""event"",""trial"",""time""
""fullscreenenter"",""1"",""1751""
","
","
","""event"",""trial"",""time""
""fullscreenenter"",""1"",""1751""
","
","","","-1","","","21","10376","4900","&#9826;","elianto","#f73b6a7A","-1","-1","1","0","[]","0","0","3","","","","","","","",""
"pit-trial","69","553571","0.0-2.0-14.2-0.2","battery-v0.2","","""event"",""trial"",""time""
""fullscreenenter"",""1"",""1751""
","
","
","""event"",""trial"",""time""
""fullscreenenter"",""1"",""1751""
","
","","","-1","","","21","10376","4900","&#9826;","elianto","#f73b6a7A","-1","-1","1","0","[]","0","0","3","","","","","","","",""
"pit-trial","70","558438","0.0-2.0-14.2-1.2","battery-v0.2","","""event"",""trial"",""time""
""fullscreenenter"",""1"",""1751""
","
","
","""event"",""trial"",""time""
""fullscreenenter"",""1"",""1751""
","
","","","-1","","","21","10376","4900","&#9826;","elianto","#f73b6a7A","-1","-1","1","0","[]","0","0","3","","","","","","","",""
"pit-trial","71","563291","0.0-2.0-14.2-2.2","battery-v0.2","","""event"",""trial"",""time""
""fullscreenenter"",""1"",""1751""
","
","
","""event"",""trial"",""time""
""fullscreenenter"",""1"",""1751""
","
","","","-1","","","21","10376","4900","&#9826;","elianto","#f73b6a7A","-1","-1","1","0","[]","0","0","3","","","","","","","",""
"pit-trial","72","568144","0.0-2.0-14.2-3.2","battery-v0.2","","""event"",""trial"",""time""
""fullscreenenter"",""1"",""1751""
","
","
","""event"",""trial"",""time""
""fullscreenenter"",""1"",""1751""
","
","","","-1","","","21","10376","4900","&#9826;","elianto","#f73b6a7A","-1","-1","1","-10","[]","0","0","3","","","","","","","",""
"pit-trial","73","572997","0.0-2.0-14.2-4.2","battery-v0.2","","""event"",""trial"",""time""
""fullscreenenter"",""1"",""1751""
","
","
","""event"",""trial"",""time""
""fullscreenenter"",""1"",""1751""
","
","","","-1","","","21","10376","4900","&#9826;","elianto","#f73b6a7A","-1","-1","1","0","[]","0","0","3","","","","","","","",""
"pit-trial","74","577850","0.0-2.0-14.3-0.3","battery-v0.2","","""event"",""trial"",""time""
""fullscreenenter"",""1"",""1751""
","
","
","""event"",""trial"",""time""
""fullscreenenter"",""1"",""1751""
","
","","","-1","","","21","10376","4900","&#9826;","elianto","#f73b6a7A","-1","-1","1","0","[]","0","0","3","","","","","","","",""
"pit-trial","75","582702","0.0-2.0-14.3-1.3","battery-v0.2","","""event"",""trial"",""time""
""fullscreenenter"",""1"",""1751""
","
","
","""event"",""trial"",""time""
""fullscreenenter"",""1"",""1751""
","
","","","-1","","","21","10376","4900","&#9826;","elianto","#f73b6a7A","-1","-1","1","0","[]","0","0","3","","","","","","","",""
"pit-trial","76","587555","0.0-2.0-14.3-2.3","battery-v0.2","","""event"",""trial"",""time""
""fullscreenenter"",""1"",""1751""
","
","
","""event"",""trial"",""time""
""fullscreenenter"",""1"",""1751""
","
","","","-1","","","21","10376","4900","&#9826;","elianto","#f73b6a7A","-1","-1","1","0","[]","0","0","3","","","","","","","",""
"pit-trial","77","592408","0.0-2.0-14.3-3.3","battery-v0.2","","""event"",""trial"",""time""
""fullscreenenter"",""1"",""1751""
","
","
","""event"",""trial"",""time""
""fullscreenenter"",""1"",""1751""
","
","","","-1","","","21","10376","4900","&#9826;","elianto","#f73b6a7A","-1","-1","1","-10","[]","0","0","3","","","","","","","",""
"pit-trial","78","597262","0.0-2.0-14.3-4.3","battery-v0.2","","""event"",""trial"",""time""
""fullscreenenter"",""1"",""1751""
","
","
","""event"",""trial"",""time""
""fullscreenenter"",""1"",""1751""
","
","","","-1","","","21","10376","4900","&#9826;","elianto","#f73b6a7A","-1","-1","1","0","[]","0","0","3","","","","","","","",""
"call-function","79","597262","0.0-2.0-15.0","battery-v0.2","","""event"",""trial"",""time""
""fullscreenenter"",""1"",""1751""
","
","
","""event"",""trial"",""time""
""fullscreenenter"",""1"",""1751""
","
","","","","","","","","","","","","","","","","","","","","","","","","","","",""
"pit-instructions","80","627636","0.0-2.0-16.0","battery-v0.2","","""event"",""trial"",""time""
""fullscreenenter"",""1"",""1751""
","
","
","""event"",""trial"",""time""
""fullscreenenter"",""1"",""1751""
","
","","[{""page_index"":0,""viewing_time"":8781.400000000023},{""page_index"":1,""viewing_time"":12680.099999999977},{""page_index"":2,""viewing_time"":4223.900000000023},{""page_index"":3,""viewing_time"":4688}]","30373.600000000093","","","","","","","","","","","","","","","","","","","","","","","",""
"pit-trial","81","630916","0.0-2.0-17.0-0.0","battery-v0.2","","""event"",""trial"",""time""
""fullscreenenter"",""1"",""1751""
","
","
","""event"",""trial"",""time""
""fullscreenenter"",""1"",""1751""
","
","","","415.9000000000233","","","21","10376","4900","&#9789;","elianto","#f73b6a7A"," "," ","1","0","[1266.3000000000466]","1","0","4","","","","","","","",""
"pit-trial","82","634116","0.0-2.0-17.0-1.0","battery-v0.2","","""event"",""trial"",""time""
""fullscreenenter"",""1"",""1751""
","
","
","""event"",""trial"",""time""
""fullscreenenter"",""1"",""1751""
","
","","","341.80000000004657","","","21","10376","4900","&#9789;","elianto","#f73b6a7A"," "," ","1","0","[1195.1000000000931]","1","0","4","","","","","","","",""
"pit-trial","83","637309","0.0-2.0-17.0-2.0","battery-v0.2","","""event"",""trial"",""time""
""fullscreenenter"",""1"",""1751""
","
","
","""event"",""trial"",""time""
""fullscreenenter"",""1"",""1751""
","
","","","335.30000000004657","","","21","10376","4900","&#9789;","elianto","#f73b6a7A"," "," ","1","0","[1187.1000000000931]","1","0","4","","","","","","","",""
"pit-trial","84","640501","0.0-2.0-17.0-3.0","battery-v0.2","","""event"",""trial"",""time""
""fullscreenenter"",""1"",""1751""
","
","
","""event"",""trial"",""time""
""fullscreenenter"",""1"",""1751""
","
","","","335","","","21","10376","4900","&#9789;","elianto","#f73b6a7A"," "," ","1","-10","[1185.3000000000466]","1","0","4","","","","","","","",""
"pit-trial","85","643762","0.0-2.0-17.0-4.0","battery-v0.2","","""event"",""trial"",""time""
""fullscreenenter"",""1"",""1751""
","
","
","""event"",""trial"",""time""
""fullscreenenter"",""1"",""1751""
","
","","","407.39999999990687","","","21","10376","4900","&#9789;","elianto","#f73b6a7A"," "," ","1","0","[1257.6999999999534]","1","0","4","","","","","","","",""
"pit-trial","86","647122","0.0-2.0-17.1-0.1","battery-v0.2","","""event"",""trial"",""time""
""fullscreenenter"",""1"",""1751""
","
","
","""event"",""trial"",""time""
""fullscreenenter"",""1"",""1751""
","
","","","506.19999999995343","","","21","10376","4900","&#9789;","elianto","#f73b6a7A"," "," ","1","0","[1356.5]","1","0","4","","","","","","","",""
"pit-trial","87","650520","0.0-2.0-17.1-1.1","battery-v0.2","","""event"",""trial"",""time""
""fullscreenenter"",""1"",""1751""
","
","
","""event"",""trial"",""time""
""fullscreenenter"",""1"",""1751""
","
","","","540.8999999999069","","","21","10376","4900","&#9789;","elianto","#f73b6a7A"," "," ","1","0","[1390.9000000000233]","1","0","4","","","","","","","",""
"pit-trial","88","653884","0.0-2.0-17.1-2.1","battery-v0.2","","""event"",""trial"",""time""
""fullscreenenter"",""1"",""1751""
","
","
","""event"",""trial"",""time""
""fullscreenenter"",""1"",""1751""
","
","","","507.0999999999767","","","21","10376","4900","&#9789;","elianto","#f73b6a7A"," "," ","1","0","[1358.2999999999302]","1","0","4","","","","","","","",""
"pit-trial","89","657197","0.0-2.0-17.1-3.1","battery-v0.2","","""event"",""trial"",""time""
""fullscreenenter"",""1"",""1751""
","
","
","""event"",""trial"",""time""
""fullscreenenter"",""1"",""1751""
","
","","","447.80000000004657","","","21","10376","4900","&#9789;","elianto","#f73b6a7A"," "," ","1","-10","[1300.5999999999767]","1","0","4","","","","","","","",""
"pit-trial","90","660592","0.0-2.0-17.1-4.1","battery-v0.2","","""event"",""trial"",""time""
""fullscreenenter"",""1"",""1751""
","
","
","""event"",""trial"",""time""
""fullscreenenter"",""1"",""1751""
","
","","","543.5999999999767","","","21","10376","4900","&#9789;","elianto","#f73b6a7A"," "," ","1","0","[1393.8000000000466]","1","0","4","","","","","","","",""
"pit-trial","91","663904","0.0-2.0-17.2-0.2","battery-v0.2","","""event"",""trial"",""time""
""fullscreenenter"",""1"",""1751""
","
","
","""event"",""trial"",""time""
""fullscreenenter"",""1"",""1751""
","
","","","458.60000000009313","","","21","10376","4900","&#9789;","elianto","#f73b6a7A"," "," ","1","0","[1310.2000000000698]","1","0","4","","","","","","","",""
"pit-trial","92","667177","0.0-2.0-17.2-1.2","battery-v0.2","","""event"",""trial"",""time""
""fullscreenenter"",""1"",""1751""
","
","
","""event"",""trial"",""time""
""fullscreenenter"",""1"",""1751""
","
","","","420.29999999993015","","","21","10376","4900","&#9789;","elianto","#f73b6a7A"," "," ","1","0","[1270.3999999999069]","1","0","4","","","","","","","",""
"pit-trial","93","670561","0.0-2.0-17.2-2.2","battery-v0.2","","""event"",""trial"",""time""
""fullscreenenter"",""1"",""1751""
","
","
","""event"",""trial"",""time""
""fullscreenenter"",""1"",""1751""
","
","","","530.6999999999534","","","21","10376","4900","&#9789;","elianto","#f73b6a7A"," "," ","1","0","[1381.7999999999302]","1","0","4","","","","","","","",""
"pit-trial","94","673792","0.0-2.0-17.2-3.2","battery-v0.2","","""event"",""trial"",""time""
""fullscreenenter"",""1"",""1751""
","
","
","""event"",""trial"",""time""
""fullscreenenter"",""1"",""1751""
","
","","","378.5999999999767","","","21","10376","4900","&#9789;","elianto","#f73b6a7A"," "," ","1","-10","[1229.5]","1","0","4","","","","","","","",""
"pit-trial","95","677042","0.0-2.0-17.2-4.2","battery-v0.2","","""event"",""trial"",""time""
""fullscreenenter"",""1"",""1751""
","
","
","""event"",""trial"",""time""
""fullscreenenter"",""1"",""1751""
","
","","","396.19999999995343","","","21","10376","4900","&#9789;","elianto","#f73b6a7A"," "," ","1","0","[1247.1999999999534]","1","0","4","","","","","","","",""
"pit-trial","96","680295","0.0-2.0-17.3-0.3","battery-v0.2","","""event"",""trial"",""time""
""fullscreenenter"",""1"",""1751""
","
","
","""event"",""trial"",""time""
""fullscreenenter"",""1"",""1751""
","
","","","401.70000000006985","","","21","10376","4900","&#9789;","elianto","#f73b6a7A"," "," ","1","0","[1252.4000000000233]","1","0","4","","","","","","","",""
"pit-trial","97","683623","0.0-2.0-17.3-1.3","battery-v0.2","","""event"",""trial"",""time""
""fullscreenenter"",""1"",""1751""
","
","
","""event"",""trial"",""time""
""fullscreenenter"",""1"",""1751""
","
","","","475.9000000000233","","","21","10376","4900","&#9789;","elianto","#f73b6a7A"," "," ","1","0","[1326.8000000000466]","1","0","4","","","","","","","",""
"pit-trial","98","686986","0.0-2.0-17.3-2.3","battery-v0.2","","""event"",""trial"",""time""
""fullscreenenter"",""1"",""1751""
","
","
","""event"",""trial"",""time""
""fullscreenenter"",""1"",""1751""
","
","","","509.69999999995343","","","21","10376","4900","&#9789;","elianto","#f73b6a7A"," "," ","1","0","[1360.0999999999767]","1","0","4","","","","","","","",""
"pit-trial","99","690387","0.0-2.0-17.3-3.3","battery-v0.2","","""event"",""trial"",""time""
""fullscreenenter"",""1"",""1751""
","
","
","""event"",""trial"",""time""
""fullscreenenter"",""1"",""1751""
","
","","","547.5999999999767","","","21","10376","4900","&#9789;","elianto","#f73b6a7A"," "," ","1","-10","[1397.7999999999302]","1","0","4","","","","","","","",""
"pit-trial","100","693738","0.0-2.0-17.3-4.3","battery-v0.2","","""event"",""trial"",""time""
""fullscreenenter"",""1"",""1751""
","
","
","""event"",""trial"",""time""
""fullscreenenter"",""1"",""1751""
","
","","","497.0999999999767","","","21","10376","4900","&#9789;","elianto","#f73b6a7A"," "," ","1","0","[1348.1999999999534]","1","0","4","","","","","","","",""
"call-function","101","693741","0.0-2.0-18.0","battery-v0.2","","""event"",""trial"",""time""
""fullscreenenter"",""1"",""1751""
","
","
","""event"",""trial"",""time""
""fullscreenenter"",""1"",""1751""
","
","","","","","","","","","","","","","","","","","","","","","","","","","","",""
"pit-instructions","102","770660","0.0-2.0-19.0","battery-v0.2","","""event"",""trial"",""time""
""fullscreenenter"",""1"",""1751""
","
","
","""event"",""trial"",""time""
""fullscreenenter"",""1"",""1751""
","
","","[{""page_index"":0,""viewing_time"":6375.300000000047},{""page_index"":1,""viewing_time"":6351.29999999993},{""page_index"":2,""viewing_time"":19304},{""page_index"":3,""viewing_time"":7624.100000000093},{""page_index"":4,""viewing_time"":8792},{""page_index"":5,""viewing_time"":9103.899999999907},{""page_index"":6,""viewing_time"":8511.900000000023},{""page_index"":7,""viewing_time"":6792.099999999977},{""page_index"":8,""viewing_time"":4063.9000000000233}]","76918.59999999998","","","","","","","","","","","","","","","","","","","","","","","",""
"pit-comprehension","103","775181","0.0-2.0-20.0-0.0","battery-v0.2","","""event"",""trial"",""time""
""fullscreenenter"",""1"",""1751""
","
","
","""event"",""trial"",""time""
""fullscreenenter"",""1"",""1751""
","
","","","4518.699999999953","[""SPACE""]","0","21","10376","4900","","","","","","","","","","","","","","","","","","",""
"pit-instructions","104","778164","0.0-2.0-20.0-1.0","battery-v0.2","","""event"",""trial"",""time""
""fullscreenenter"",""1"",""1751""
","
","
","""event"",""trial"",""time""
""fullscreenenter"",""1"",""1751""
","
","","[{""page_index"":0,""viewing_time"":2942.70000000007}]","2942.9000000000233","","","","","","","","","","","","","","","","","","","","","","","",""
"pit-comprehension","105","784389","0.0-2.0-21.0-0.0","battery-v0.2","","""event"",""trial"",""time""
""fullscreenenter"",""1"",""1751""
","
","
","""event"",""trial"",""time""
""fullscreenenter"",""1"",""1751""
","
","","","6222.300000000047","[""10""]","0","21","10376","4900","","","","","","","","","","","","","","","","","","",""
"pit-instructions","106","785868","0.0-2.0-21.0-1.0","battery-v0.2","","""event"",""trial"",""time""
""fullscreenenter"",""1"",""1751""
","
","
","""event"",""trial"",""time""
""fullscreenenter"",""1"",""1751""
","
","","[{""page_index"":0,""viewing_time"":1453.7999999999302}]","1454.0999999999767","","","","","","","","","","","","","","","","","","","","","","","",""
"pit-comprehension","107","792244","0.0-2.0-22.0-0.0","battery-v0.2","","""event"",""trial"",""time""
""fullscreenenter"",""1"",""1751""
","
","
","""event"",""trial"",""time""
""fullscreenenter"",""1"",""1751""
","
","","","6374.400000000023","[""0""]","0","21","10376","4900","","","","","","","","","","","","","","","","","","",""
"pit-instructions","108","793580","0.0-2.0-22.0-1.0","battery-v0.2","","""event"",""trial"",""time""
""fullscreenenter"",""1"",""1751""
","
","
","""event"",""trial"",""time""
""fullscreenenter"",""1"",""1751""
","
","","[{""page_index"":0,""viewing_time"":1306.5}]","1306.7000000000698","","","","","","","","","","","","","","","","","","","","","","","",""
"pit-comprehension","109","801933","0.0-2.0-23.0-0.0","battery-v0.2","","""event"",""trial"",""time""
""fullscreenenter"",""1"",""1751""
","
","
","""event"",""trial"",""time""
""fullscreenenter"",""1"",""1751""
","
","","","8351","[""True""]","0","21","10376","4900","","","","","","","","","","","","","","","","","","",""
"pit-instructions","110","803268","0.0-2.0-23.0-1.0","battery-v0.2","","""event"",""trial"",""time""
""fullscreenenter"",""1"",""1751""
","
","
","""event"",""trial"",""time""
""fullscreenenter"",""1"",""1751""
","
","","[{""page_index"":0,""viewing_time"":1308.3000000000466}]","1308.5","","","","","","","","","","","","","","","","","","","","","","","",""
"pit-comprehension","111","810620","0.0-2.0-24.0-0.0","battery-v0.2","","""event"",""trial"",""time""
""fullscreenenter"",""1"",""1751""
","
","
","""event"",""trial"",""time""
""fullscreenenter"",""1"",""1751""
","
","","","7351","[""True""]","0","21","10376","4900","","","","","","","","","","","","","","","","","","",""
"pit-instructions","112","811964","0.0-2.0-24.0-1.0","battery-v0.2","","""event"",""trial"",""time""
""fullscreenenter"",""1"",""1751""
","
","
","""event"",""trial"",""time""
""fullscreenenter"",""1"",""1751""
","
","","[{""page_index"":0,""viewing_time"":1312.8000000000466}]","1312.9000000000233","","","","","","","","","","","","","","","","","","","","","","","",""
"pit-comprehension","113","818420","0.0-2.0-25.0-0.0","battery-v0.2","","""event"",""trial"",""time""
""fullscreenenter"",""1"",""1751""
","
","
","""event"",""trial"",""time""
""fullscreenenter"",""1"",""1751""
","
","","","6454.70000000007","[""True""]","0","21","10376","4900","","","","","","","","","","","","","","","","","","",""
"pit-instructions","114","819780","0.0-2.0-25.0-1.0","battery-v0.2","","""event"",""trial"",""time""
""fullscreenenter"",""1"",""1751""
","
","
","""event"",""trial"",""time""
""fullscreenenter"",""1"",""1751""
","
","","[{""page_index"":0,""viewing_time"":1331.7000000000698}]","1331.9000000000233","","","","","","","","","","","","","","","","","","","","","","","",""
"pit-comprehension","115","824700","0.0-2.0-26.0-0.0","battery-v0.2","","""event"",""trial"",""time""
""fullscreenenter"",""1"",""1751""
","
","
","""event"",""trial"",""time""
""fullscreenenter"",""1"",""1751""
","
","","","4918.800000000047","[""False""]","0","21","10376","4900","","","","","","","","","","","","","","","","","","",""
"pit-instructions","116","826108","0.0-2.0-26.0-1.0","battery-v0.2","","""event"",""trial"",""time""
""fullscreenenter"",""1"",""1751""
","
","
","""event"",""trial"",""time""
""fullscreenenter"",""1"",""1751""
","
","","[{""page_index"":0,""viewing_time"":1377.9000000000233}]","1378.0999999999767","","","","","","","","","","","","","","","","","","","","","","","",""
"pit-instructions","117","843236","0.0-3.0","battery-v0.2","","""event"",""trial"",""time""
""fullscreenenter"",""1"",""1751""
","
","
","""event"",""trial"",""time""
""fullscreenenter"",""1"",""1751""
","
","","[{""page_index"":0,""viewing_time"":3744.29999999993},{""page_index"":1,""viewing_time"":5590.5},{""page_index"":2,""viewing_time"":7792.100000000093}]","17127.099999999977","","","","","","","","","","","","","","","","","","","","","","","",""
"pit-trial","118","846680","0.0-4.0","battery-v0.2","","""event"",""trial"",""time""
""fullscreenenter"",""1"",""1751""
","
","
","""event"",""trial"",""time""
""fullscreenenter"",""1"",""1751""
","
","","","578.1999999999534","","","21","10376","4900","&#9730;","elianto","#3366ff99"," "," ","1","0","[1432.2999999999302]","1","1","","","10376","1","1","1","win","go","1"
"pit-trial","119","850383","0.0-5.0","battery-v0.2","","""event"",""trial"",""time""
""fullscreenenter"",""1"",""1751""
","
","
","""event"",""trial"",""time""
""fullscreenenter"",""1"",""1751""
","
","","","835.5999999999767","","","21","10376","4900","&#9728;","elianto","#f73b6a7A","-1"," ","0","-10","[1687.4000000000233]","1","1","","","10376","2","0","4","lose","no-go","0"
"pit-trial","120","854320","0.0-6.0","battery-v0.2","","""event"",""trial"",""time""
""fullscreenenter"",""1"",""1751""
","
","
","""event"",""trial"",""time""
""fullscreenenter"",""1"",""1751""
","
","","","1080.5999999999767","","","21","10376","4900","&#9752;","elianto","#f73b6a7A"," "," ","1","0","[1933.6999999999534]","1","1","","","10376","3","3","3","lose","go","0"
"pit-trial","121","857956","0.0-7.0","battery-v0.2","","""event"",""trial"",""time""
""fullscreenenter"",""1"",""1751""
","
","
","""event"",""trial"",""time""
""fullscreenenter"",""1"",""1751""
","
","","","774.5","","","21","10376","4900","&#9733;","elianto","#3366ff99","-1"," ","0","0","[1629.3000000000466]","1","1","","","10376","4","2","2","win","no-go","0"
"pit-trial","122","861911","0.0-8.0","battery-v0.2","","""event"",""trial"",""time""
""fullscreenenter"",""1"",""1751""
","
","
","""event"",""trial"",""time""
""fullscreenenter"",""1"",""1751""
","
","","","1088.7999999999302","","","21","10376","4900","&#9730;","elianto","#3366ff99"," "," ","1","0","[1939.3999999999069]","1","1","","","10376","5","1","1","win","go","1"
"pit-trial","123","865755","0.0-9.0","battery-v0.2","","""event"",""trial"",""time""
""fullscreenenter"",""1"",""1751""
","
","
","""event"",""trial"",""time""
""fullscreenenter"",""1"",""1751""
","
","","","988.1999999999534","","","21","10376","4900","&#9752;","elianto","#f73b6a7A"," "," ","1","-10","[1840.7999999999302]","1","1","","","10376","6","3","3","lose","go","1"
"pit-trial","124","869336","0.0-10.0","battery-v0.2","","""event"",""trial"",""time""
""fullscreenenter"",""1"",""1751""
","
","
","""event"",""trial"",""time""
""fullscreenenter"",""1"",""1751""
","
","","","711.5","","","21","10376","4900","&#9733;","elianto","#3366ff99","-1"," ","0","+10","[1564]","1","1","","","10376","7","2","2","win","no-go","1"
"pit-trial","125","872585","0.0-11.0","battery-v0.2","","""event"",""trial"",""time""
""fullscreenenter"",""1"",""1751""
","
","
","""event"",""trial"",""time""
""fullscreenenter"",""1"",""1751""
","
","","","387.39999999990687","","","21","10376","4900","&#9728;","elianto","#f73b6a7A","-1"," ","0","0","[1240.5999999999767]","1","1","","","10376","8","0","4","lose","no-go","1"
"pit-trial","126","877057","0.0-12.0","battery-v0.2","","""event"",""trial"",""time""
""fullscreenenter"",""1"",""1751""
","
","
","""event"",""trial"",""time""
""fullscreenenter"",""1"",""1751""
","
","","","1620.1999999999534","","","21","10376","4900","&#9728;","elianto","#f73b6a7A","-1"," ","0","-10","[2470.5]","1","1","","","10376","9","0","4","lose","no-go","0"
"pit-trial","127","881909","0.0-13.0","battery-v0.2","","""event"",""trial"",""time""
""fullscreenenter"",""1"",""1751""
","
","
","""event"",""trial"",""time""
""fullscreenenter"",""1"",""1751""
","
","","","-1","","","21","10376","4900","&#9752;","elianto","#f73b6a7A"," ","-1","0","-10","[]","0","1","","","10376","10","3","3","lose","go","0"
"pit-trial","128","885578","0.0-14.0","battery-v0.2","","""event"",""trial"",""time""
""fullscreenenter"",""1"",""1751""
","
","
","""event"",""trial"",""time""
""fullscreenenter"",""1"",""1751""
","
","","","816.4000000000233","","","21","10376","4900","&#9733;","elianto","#3366ff99","-1"," ","0","0","[1667.5]","1","1","","","10376","11","2","2","win","no-go","0"
"pit-trial","129","888919","0.0-15.0","battery-v0.2","","""event"",""trial"",""time""
""fullscreenenter"",""1"",""1751""
","
","
","""event"",""trial"",""time""
""fullscreenenter"",""1"",""1751""
","
","","","487.4000000000233","","","21","10376","4900","&#9730;","elianto","#3366ff99"," "," ","1","+10","[1339.3000000000466]","1","1","","","10376","12","1","1","win","go","0"
"pit-trial","130","892500","0.0-16.0","battery-v0.2","","""event"",""trial"",""time""
""fullscreenenter"",""1"",""1751""
","
","
","""event"",""trial"",""time""
""fullscreenenter"",""1"",""1751""
","
","","","718.1999999999534","","","21","10376","4900","&#9752;","elianto","#f73b6a7A"," "," ","1","0","[1569.2000000000698]","1","1","","","10376","13","3","3","lose","go","0"
"pit-trial","131","896136","0.0-17.0","battery-v0.2","","""event"",""trial"",""time""
""fullscreenenter"",""1"",""1751""
","
","
","""event"",""trial"",""time""
""fullscreenenter"",""1"",""1751""
","
","","","782","","","21","10376","4900","&#9730;","elianto","#3366ff99"," "," ","1","+10","[1632.5]","1","1","","","10376","14","1","1","win","go","0"
"pit-trial","132","899769","0.0-18.0","battery-v0.2","","""event"",""trial"",""time""
""fullscreenenter"",""1"",""1751""
","
","
","""event"",""trial"",""time""
""fullscreenenter"",""1"",""1751""
","
","","","779.2000000001863","","","21","10376","4900","&#9728;","elianto","#f73b6a7A","-1"," ","0","-10","[1629.8000000000466]","1","1","","","10376","15","0","4","lose","no-go","0"
"pit-trial","133","903210","0.0-19.0","battery-v0.2","","""event"",""trial"",""time""
""fullscreenenter"",""1"",""1751""
","
","
","""event"",""trial"",""time""
""fullscreenenter"",""1"",""1751""
","
","","","587.3999999999069","","","21","10376","4900","&#9733;","elianto","#3366ff99","-1"," ","0","0","[1437.5]","1","1","","","10376","16","2","2","win","no-go","0"
"pit-trial","134","906746","0.0-20.0","battery-v0.2","","""event"",""trial"",""time""
""fullscreenenter"",""1"",""1751""
","
","
","""event"",""trial"",""time""
""fullscreenenter"",""1"",""1751""
","
","","","683.1000000000931","","","21","10376","4900","&#9752;","elianto","#f73b6a7A"," "," ","1","0","[1533.3000000000466]","1","1","","","10376","17","3","3","lose","go","0"
"pit-trial","135","911599","0.0-21.0","battery-v0.2","","""event"",""trial"",""time""
""fullscreenenter"",""1"",""1751""
","
","
","""event"",""trial"",""time""
""fullscreenenter"",""1"",""1751""
","
","","","-1","","","21","10376","4900","&#9728;","elianto","#f73b6a7A","-1","-1","1","0","[]","0","1","","","10376","18","0","4","lose","no-go","0"
"pit-trial","136","915082","0.0-22.0","battery-v0.2","","""event"",""trial"",""time""
""fullscreenenter"",""1"",""1751""
","
","
","""event"",""trial"",""time""
""fullscreenenter"",""1"",""1751""
","
","","","629","","","21","10376","4900","&#9733;","elianto","#3366ff99","-1"," ","0","0","[1480]","1","1","","","10376","19","2","2","win","no-go","0"
"pit-trial","137","918349","0.0-23.0","battery-v0.2","","""event"",""trial"",""time""
""fullscreenenter"",""1"",""1751""
","
","
","""event"",""trial"",""time""
""fullscreenenter"",""1"",""1751""
","
","","","411.60000000009313","","","21","10376","4900","&#9730;","elianto","#3366ff99"," "," ","1","+10","[1262.7000000001863]","1","1","","","10376","20","1","1","win","go","0"
"pit-instructions","138","930652","0.0-24.0","battery-v0.2","","""event"",""trial"",""time""
""fullscreenenter"",""1"",""1751""
","
","
","""event"",""trial"",""time""
""fullscreenenter"",""1"",""1751""
","
","","[{""page_index"":0,""viewing_time"":5555.600000000093},{""page_index"":1,""viewing_time"":6743.899999999907}]","12299.699999999953","","","","","","","","","","","","","","","","","","","","","","","",""
"pit-trial","139","934069","0.0-25.0","battery-v0.2","","""event"",""trial"",""time""
""fullscreenenter"",""1"",""1751""
","
","
","""event"",""trial"",""time""
""fullscreenenter"",""1"",""1751""
","
","","","550.5","","","21","10376","4900","t","elianto","#f73b6a7A","-1"," ","0","-10","[1405.1999999999534]","1","2","","","10376","21","2","4","lose","no-go","0"
"pit-trial","140","937507","0.0-26.0","battery-v0.2","","""event"",""trial"",""time""
""fullscreenenter"",""1"",""1751""
","
","
","""event"",""trial"",""time""
""fullscreenenter"",""1"",""1751""
","
","","","573.3999999999069","","","21","10376","4900","f","elianto","#3366ff99"," "," ","1","+10","[1423.9000000001397]","1","2","","","10376","22","1","1","win","go","0"
"pit-trial","141","941565","0.0-27.0","battery-v0.2","","""event"",""trial"",""time""
""fullscreenenter"",""1"",""1751""
","
","
","""event"",""trial"",""time""
""fullscreenenter"",""1"",""1751""
","
","","","1196.6999999999534","","","21","10376","4900","n","elianto","#f73b6a7A","-1"," ","0","0","[2051.5999999998603]","1","2","","","10376","23","0","4","lose","no-go","1"
"pit-trial","142","946431","0.0-28.0","battery-v0.2","","""event"",""trial"",""time""
""fullscreenenter"",""1"",""1751""
","
","
","""event"",""trial"",""time""
""fullscreenenter"",""1"",""1751""
","
","","","-1","","","21","10376","4900","b","elianto","#f73b6a7A"," ","-1","0","-10","[]","0","2","","","10376","24","3","3","lose","go","0"
"pit-trial","143","950186","0.0-29.0","battery-v0.2","","""event"",""trial"",""time""
""fullscreenenter"",""1"",""1751""
","
","
","""event"",""trial"",""time""
""fullscreenenter"",""1"",""1751""
","
","","","891.6000000000931","","","21","10376","4900","n","elianto","#f73b6a7A","-1"," ","0","0","[1743.1999999999534]","1","2","","","10376","25","0","4","lose","no-go","1"
"pit-trial","144","953991","0.0-30.0","battery-v0.2","","""event"",""trial"",""time""
""fullscreenenter"",""1"",""1751""
","
","
","""event"",""trial"",""time""
""fullscreenenter"",""1"",""1751""
","
","","","938.2000000001863","","","21","10376","4900","b","elianto","#f73b6a7A"," "," ","1","0","[1789.6000000000931]","1","2","","","10376","26","3","3","lose","go","0"
"pit-trial","145","958853","0.0-31.0","battery-v0.2","","""event"",""trial"",""time""
""fullscreenenter"",""1"",""1751""
","
","
","""event"",""trial"",""time""
""fullscreenenter"",""1"",""1751""
","
","","","-1","","","21","10376","4900","t","elianto","#f73b6a7A","-1","-1","1","0","[]","0","2","","","10376","27","2","4","lose","no-go","0"
"pit-trial","146","962376","0.0-32.0","battery-v0.2","","""event"",""trial"",""time""
""fullscreenenter"",""1"",""1751""
","
","
","""event"",""trial"",""time""
""fullscreenenter"",""1"",""1751""
","
","","","664.8999999999069","","","21","10376","4900","f","elianto","#3366ff99"," "," ","1","+10","[1519.0999999998603]","1","2","","","10376","28","1","1","win","go","0"
"pit-trial","147","965849","0.0-33.0","battery-v0.2","","""event"",""trial"",""time""
""fullscreenenter"",""1"",""1751""
","
","
","""event"",""trial"",""time""
""fullscreenenter"",""1"",""1751""
","
","","","620","","","21","10376","4900","f","elianto","#3366ff99"," "," ","1","+10","[1470.1000000000931]","1","2","","","10376","29","1","1","win","go","0"
"pit-trial","148","969817","0.0-34.0","battery-v0.2","","""event"",""trial"",""time""
""fullscreenenter"",""1"",""1751""
","
","
","""event"",""trial"",""time""
""fullscreenenter"",""1"",""1751""
","
","","","1114.4000000001397","","","21","10376","4900","t","elianto","#f73b6a7A","-1"," ","0","-10","[1964.6999999999534]","1","2","","","10376","30","2","4","lose","no-go","0"
"pit-trial","149","973329","0.0-35.0","battery-v0.2","","""event"",""trial"",""time""
""fullscreenenter"",""1"",""1751""
","
","
","""event"",""trial"",""time""
""fullscreenenter"",""1"",""1751""
","
","","","658","","","21","10376","4900","n","elianto","#f73b6a7A","-1"," ","0","0","[1508.4000000001397]","1","2","","","10376","31","0","4","lose","no-go","1"
"pit-trial","150","978182","0.0-36.0","battery-v0.2","","""event"",""trial"",""time""
""fullscreenenter"",""1"",""1751""
","
","
","""event"",""trial"",""time""
""fullscreenenter"",""1"",""1751""
","
","","","-1","","","21","10376","4900","b","elianto","#f73b6a7A"," ","-1","0","-10","[]","0","2","","","10376","32","3","3","lose","go","0"
"pit-trial","151","981666","0.0-37.0","battery-v0.2","","""event"",""trial"",""time""
""fullscreenenter"",""1"",""1751""
","
","
","""event"",""trial"",""time""
""fullscreenenter"",""1"",""1751""
","
","","","628.6000000000931","","","21","10376","4900","b","elianto","#f73b6a7A"," "," ","1","0","[1479.1999999999534]","1","2","","","10376","33","3","3","lose","go","0"
"pit-trial","152","985124","0.0-38.0","battery-v0.2","","""event"",""trial"",""time""
""fullscreenenter"",""1"",""1751""
","
","
","""event"",""trial"",""time""
""fullscreenenter"",""1"",""1751""
","
","","","604","","","21","10376","4900","f","elianto","#3366ff99"," "," ","1","0","[1454]","1","2","","","10376","34","1","1","win","go","1"
"pit-trial","153","988658","0.0-39.0","battery-v0.2","","""event"",""trial"",""time""
""fullscreenenter"",""1"",""1751""
","
","
","""event"",""trial"",""time""
""fullscreenenter"",""1"",""1751""
","
","","","679.3999999999069","","","21","10376","4900","n","elianto","#f73b6a7A","-1"," ","0","-10","[1530]","1","2","","","10376","35","0","4","lose","no-go","0"
"pit-trial","154","993512","0.0-40.0","battery-v0.2","","""event"",""trial"",""time""
""fullscreenenter"",""1"",""1751""
","
","
","""event"",""trial"",""time""
""fullscreenenter"",""1"",""1751""
","
","","","-1","","","21","10376","4900","t","elianto","#f73b6a7A","-1","-1","1","-10","[]","0","2","","","10376","36","2","4","lose","no-go","1"
"pit-trial","155","997600","0.0-41.0","battery-v0.2","","""event"",""trial"",""time""
""fullscreenenter"",""1"",""1751""
","
","
","""event"",""trial"",""time""
""fullscreenenter"",""1"",""1751""
","
","","","1233.7999999998137","","","21","10376","4900","t","elianto","#f73b6a7A","-1"," ","0","0","[2084]","1","2","","","10376","37","2","4","lose","no-go","1"
"pit-trial","156","1001097","0.0-42.0","battery-v0.2","","""event"",""trial"",""time""
""fullscreenenter"",""1"",""1751""
","
","
","""event"",""trial"",""time""
""fullscreenenter"",""1"",""1751""
","
","","","643.1999999999534","","","21","10376","4900","f","elianto","#3366ff99"," "," ","1","+10","[1493.2999999998137]","1","2","","","10376","38","1","1","win","go","0"
"pit-trial","157","1005025","0.0-43.0","battery-v0.2","","""event"",""trial"",""time""
""fullscreenenter"",""1"",""1751""
","
","
","""event"",""trial"",""time""
""fullscreenenter"",""1"",""1751""
","
","","","1075.3999999999069","","","21","10376","4900","b","elianto","#f73b6a7A"," "," ","1","0","[1926.1000000000931]","1","2","","","10376","39","3","3","lose","go","0"
"pit-trial","158","1008595","0.0-44.0","battery-v0.2","","""event"",""trial"",""time""
""fullscreenenter"",""1"",""1751""
","
","
","""event"",""trial"",""time""
""fullscreenenter"",""1"",""1751""
","
","","","715.3999999999069","","","21","10376","4900","n","elianto","#f73b6a7A","-1"," ","0","-10","[1566]","1","2","","","10376","40","0","4","lose","no-go","0"
"pit-trial","159","1012164","0.0-45.0","battery-v0.2","","""event"",""trial"",""time""
""fullscreenenter"",""1"",""1751""
","
","
","""event"",""trial"",""time""
""fullscreenenter"",""1"",""1751""
","
","","","714.5","","","21","10376","4900","n","elianto","#f73b6a7A","-1"," ","0","-10","[1565.1000000000931]","1","2","","","10376","41","0","4","lose","no-go","0"
"pit-trial","160","1015675","0.0-46.0","battery-v0.2","","""event"",""trial"",""time""
""fullscreenenter"",""1"",""1751""
","
","
","""event"",""trial"",""time""
""fullscreenenter"",""1"",""1751""
","
","","","657","","","21","10376","4900","t","elianto","#f73b6a7A","-1"," ","0","0","[1507.7999999998137]","1","2","","","10376","42","2","4","lose","no-go","1"
"pit-trial","161","1019346","0.0-47.0","battery-v0.2","","""event"",""trial"",""time""
""fullscreenenter"",""1"",""1751""
","
","
","""event"",""trial"",""time""
""fullscreenenter"",""1"",""1751""
","
","","","818.3999999999069","","","21","10376","4900","b","elianto","#f73b6a7A"," "," ","1","-10","[1668.6999999999534]","1","2","","","10376","43","3","3","lose","go","1"
"pit-trial","162","1022704","0.0-48.0","battery-v0.2","","""event"",""trial"",""time""
""fullscreenenter"",""1"",""1751""
","
","
","""event"",""trial"",""time""
""fullscreenenter"",""1"",""1751""
","
","","","504.39999999990687","","","21","10376","4900","f","elianto","#3366ff99"," "," ","1","+10","[1354.8000000000466]","1","2","","","10376","44","1","1","win","go","0"
"pit-trial","163","1027558","0.0-49.0","battery-v0.2","","""event"",""trial"",""time""
""fullscreenenter"",""1"",""1751""
","
","
","""event"",""trial"",""time""
""fullscreenenter"",""1"",""1751""
","
","","","-1","","","21","10376","4900","n","elianto","#f73b6a7A","-1","-1","1","0","[]","0","2","","","10376","45","0","4","lose","no-go","0"
"pit-trial","164","1030921","0.0-50.0","battery-v0.2","","""event"",""trial"",""time""
""fullscreenenter"",""1"",""1751""
","
","
","""event"",""trial"",""time""
""fullscreenenter"",""1"",""1751""
","
","","","510.69999999995343","","","21","10376","4900","b","elianto","#f73b6a7A"," "," ","1","0","[1361.8999999999069]","1","2","","","10376","46","3","3","lose","go","0"
"pit-trial","165","1034833","0.0-51.0","battery-v0.2","","""event"",""trial"",""time""
""fullscreenenter"",""1"",""1751""
","
","
","""event"",""trial"",""time""
""fullscreenenter"",""1"",""1751""
","
","","","1059.8999999999069","","","21","10376","4900","t","elianto","#f73b6a7A","-1"," ","0","-10","[1909.8999999999069]","1","2","","","10376","47","2","4","lose","no-go","0"
"pit-trial","166","1038480","0.0-52.0","battery-v0.2","","""event"",""trial"",""time""
""fullscreenenter"",""1"",""1751""
","
","
","""event"",""trial"",""time""
""fullscreenenter"",""1"",""1751""
","
","","","792.6999999999534","","","21","10376","4900","c","elianto","#3366ff99","-1"," ","0","0","[1643.1999999999534]","1","2","","","10376","48","4","2","win","no-go","0"
"pit-trial","167","1041953","0.0-53.0","battery-v0.2","","""event"",""trial"",""time""
""fullscreenenter"",""1"",""1751""
","
","
","""event"",""trial"",""time""
""fullscreenenter"",""1"",""1751""
","
","","","618.3999999999069","","","21","10376","4900","f","elianto","#3366ff99"," "," ","1","+10","[1469.5]","1","2","","","10376","49","1","1","win","go","0"
"pit-trial","168","1046807","0.0-54.0","battery-v0.2","","""event"",""trial"",""time""
""fullscreenenter"",""1"",""1751""
","
","
","""event"",""trial"",""time""
""fullscreenenter"",""1"",""1751""
","
","","","-1","","","21","10376","4900","n","elianto","#f73b6a7A","-1","-1","1","0","[]","0","2","","","10376","50","0","4","lose","no-go","0"
"pit-trial","169","1050513","0.0-55.0","battery-v0.2","","""event"",""trial"",""time""
""fullscreenenter"",""1"",""1751""
","
","
","""event"",""trial"",""time""
""fullscreenenter"",""1"",""1751""
","
","","","851.6999999999534","","","21","10376","4900","b","elianto","#f73b6a7A"," "," ","1","-10","[1702.199999999837]","1","2","","","10376","51","3","3","lose","go","1"
"pit-trial","170","1053898","0.0-56.0","battery-v0.2","","""event"",""trial"",""time""
""fullscreenenter"",""1"",""1751""
","
","
","""event"",""trial"",""time""
""fullscreenenter"",""1"",""1751""
","
","","","533","","","21","10376","4900","c","elianto","#3366ff99","-1"," ","0","0","[1383.1000000000931]","1","2","","","10376","52","4","2","win","no-go","0"
"pit-trial","171","1057333","0.0-57.0","battery-v0.2","","""event"",""trial"",""time""
""fullscreenenter"",""1"",""1751""
","
","
","""event"",""trial"",""time""
""fullscreenenter"",""1"",""1751""
","
","","","580.3000000000466","","","21","10376","4900","f","elianto","#3366ff99"," "," ","1","0","[1431.0999999998603]","1","2","","","10376","53","1","1","win","go","1"
"pit-trial","172","1062188","0.0-58.0","battery-v0.2","","""event"",""trial"",""time""
""fullscreenenter"",""1"",""1751""
","
","
","""event"",""trial"",""time""
""fullscreenenter"",""1"",""1751""
","
","","","-1","","","21","10376","4900","c","elianto","#3366ff99","-1","-1","1","+10","[]","0","2","","","10376","54","4","2","win","no-go","0"
"pit-trial","173","1066409","0.0-59.0","battery-v0.2","","""event"",""trial"",""time""
""fullscreenenter"",""1"",""1751""
","
","
","""event"",""trial"",""time""
""fullscreenenter"",""1"",""1751""
","
","","","1366.3999999999069","","","21","10376","4900","n","elianto","#f73b6a7A","-1"," ","0","-10","[2217.899999999907]","1","2","","","10376","55","0","4","lose","no-go","0"
"pit-trial","174","1070321","0.0-60.0","battery-v0.2","","""event"",""trial"",""time""
""fullscreenenter"",""1"",""1751""
","
","
","""event"",""trial"",""time""
""fullscreenenter"",""1"",""1751""
","
","","","1061","","","21","10376","4900","t","elianto","#f73b6a7A","-1"," ","0","-10","[1911]","1","2","","","10376","56","2","4","lose","no-go","0"
"pit-trial","175","1073760","0.0-61.0","battery-v0.2","","""event"",""trial"",""time""
""fullscreenenter"",""1"",""1751""
","
","
","""event"",""trial"",""time""
""fullscreenenter"",""1"",""1751""
","
","","","586.3000000000466","","","21","10376","4900","c","elianto","#3366ff99","-1"," ","0","+10","[1436.8999999999069]","1","2","","","10376","57","4","2","win","no-go","1"
"pit-trial","176","1077235","0.0-62.0","battery-v0.2","","""event"",""trial"",""time""
""fullscreenenter"",""1"",""1751""
","
","
","""event"",""trial"",""time""
""fullscreenenter"",""1"",""1751""
","
","","","621.3000000000466","","","21","10376","4900","f","elianto","#3366ff99"," "," ","1","0","[1471.5]","1","2","","","10376","58","1","1","win","go","1"
"pit-trial","177","1082091","0.0-63.0","battery-v0.2","","""event"",""trial"",""time""
""fullscreenenter"",""1"",""1751""
","
","
","""event"",""trial"",""time""
""fullscreenenter"",""1"",""1751""
","
","","","-1","","","21","10376","4900","n","elianto","#f73b6a7A","-1","-1","1","0","[]","0","2","","","10376","59","0","4","lose","no-go","0"
"pit-trial","178","1085592","0.0-64.0","battery-v0.2","","""event"",""trial"",""time""
""fullscreenenter"",""1"",""1751""
","
","
","""event"",""trial"",""time""
""fullscreenenter"",""1"",""1751""
","
","","","647.5","","","21","10376","4900","b","elianto","#f73b6a7A"," "," ","1","-10","[1498.3000000000466]","1","2","","","10376","60","3","3","lose","go","1"
"pit-trial","179","1089120","0.0-65.0","battery-v0.2","","""event"",""trial"",""time""
""fullscreenenter"",""1"",""1751""
","
","
","""event"",""trial"",""time""
""fullscreenenter"",""1"",""1751""
","
","","","672.1000000000931","","","21","10376","4900","f","elianto","#3366ff99"," "," ","1","0","[1523.6999999999534]","1","2","","","10376","61","1","1","win","go","1"
"pit-trial","180","1093974","0.0-66.0","battery-v0.2","","""event"",""trial"",""time""
""fullscreenenter"",""1"",""1751""
","
","
","""event"",""trial"",""time""
""fullscreenenter"",""1"",""1751""
","
","","","-1","","","21","10376","4900","c","elianto","#3366ff99","-1","-1","1","+10","[]","0","2","","","10376","62","4","2","win","no-go","0"
"pit-trial","181","1097602","0.0-67.0","battery-v0.2","","""event"",""trial"",""time""
""fullscreenenter"",""1"",""1751""
","
","
","""event"",""trial"",""time""
""fullscreenenter"",""1"",""1751""
","
","","","774.0999999998603","","","21","10376","4900","b","elianto","#f73b6a7A"," "," ","1","0","[1625.0999999998603]","1","2","","","10376","63","3","3","lose","go","0"
"pit-trial","182","1102454","0.0-68.0","battery-v0.2","","""event"",""trial"",""time""
""fullscreenenter"",""1"",""1751""
","
","
","""event"",""trial"",""time""
""fullscreenenter"",""1"",""1751""
","
","","","-1","","","21","10376","4900","t","elianto","#f73b6a7A","-1","-1","1","0","[]","0","2","","","10376","64","2","4","lose","no-go","0"
"pit-trial","183","1106394","0.0-69.0","battery-v0.2","","""event"",""trial"",""time""
""fullscreenenter"",""1"",""1751""
","
","
","""event"",""trial"",""time""
""fullscreenenter"",""1"",""1751""
","
","","","1087","","","21","10376","4900","c","elianto","#3366ff99","-1"," ","0","0","[1937.6000000000931]","1","2","","","10376","65","4","2","win","no-go","0"
"pit-trial","184","1109852","0.0-70.0","battery-v0.2","","""event"",""trial"",""time""
""fullscreenenter"",""1"",""1751""
","
","
","""event"",""trial"",""time""
""fullscreenenter"",""1"",""1751""
","
","","","602.8000000000466","","","21","10376","4900","f","elianto","#3366ff99"," "," ","1","+10","[1453.3999999999069]","1","2","","","10376","66","1","1","win","go","0"
"pit-trial","185","1114706","0.0-71.0","battery-v0.2","","""event"",""trial"",""time""
""fullscreenenter"",""1"",""1751""
","
","
","""event"",""trial"",""time""
""fullscreenenter"",""1"",""1751""
","
","","","-1","","","21","10376","4900","t","elianto","#f73b6a7A","-1","-1","1","0","[]","0","2","","","10376","67","2","4","lose","no-go","0"
"pit-trial","186","1118697","0.0-72.0","battery-v0.2","","""event"",""trial"",""time""
""fullscreenenter"",""1"",""1751""
","
","
","""event"",""trial"",""time""
""fullscreenenter"",""1"",""1751""
","
","","","1136.1000000000931","","","21","10376","4900","b","elianto","#f73b6a7A"," "," ","1","-10","[1987.1000000000931]","1","2","","","10376","68","3","3","lose","go","1"
"pit-trial","187","1123551","0.0-73.0","battery-v0.2","","""event"",""trial"",""time""
""fullscreenenter"",""1"",""1751""
","
","
","""event"",""trial"",""time""
""fullscreenenter"",""1"",""1751""
","
","","","-1","","","21","10376","4900","c","elianto","#3366ff99","-1","-1","1","+10","[]","0","2","","","10376","69","4","2","win","no-go","0"
"pit-trial","188","1128405","0.0-74.0","battery-v0.2","","""event"",""trial"",""time""
""fullscreenenter"",""1"",""1751""
","
","
","""event"",""trial"",""time""
""fullscreenenter"",""1"",""1751""
","
","","","-1","","","21","10376","4900","b","elianto","#f73b6a7A"," ","-1","0","-10","[]","0","2","","","10376","70","3","3","lose","go","0"
"pit-trial","189","1131913","0.0-75.0","battery-v0.2","","""event"",""trial"",""time""
""fullscreenenter"",""1"",""1751""
","
","
","""event"",""trial"",""time""
""fullscreenenter"",""1"",""1751""
","
","","","653.8000000000466","","","21","10376","4900","f","elianto","#3366ff99"," "," ","1","+10","[1504.1000000000931]","1","2","","","10376","71","1","1","win","go","0"
"pit-trial","190","1136257","0.0-76.0","battery-v0.2","","""event"",""trial"",""time""
""fullscreenenter"",""1"",""1751""
","
","
","""event"",""trial"",""time""
""fullscreenenter"",""1"",""1751""
","
","","","1492.6000000000931","","","21","10376","4900","z","elianto","#3366ff99"," "," ","1","+10","[2342.6999999999534]","1","2","","","10376","72","5","1","win","go","0"
"pit-trial","191","1139648","0.0-77.0","battery-v0.2","","""event"",""trial"",""time""
""fullscreenenter"",""1"",""1751""
","
","
","""event"",""trial"",""time""
""fullscreenenter"",""1"",""1751""
","
","","","537.6999999999534","","","21","10376","4900","z","elianto","#3366ff99"," "," ","1","+10","[1388.8000000000466]","1","2","","","10376","73","5","1","win","go","0"
"pit-trial","192","1143178","0.0-78.0","battery-v0.2","","""event"",""trial"",""time""
""fullscreenenter"",""1"",""1751""
","
","
","""event"",""trial"",""time""
""fullscreenenter"",""1"",""1751""
","
","","","676.6000000000931","","","21","10376","4900","f","elianto","#3366ff99"," "," ","1","+10","[1527]","1","2","","","10376","74","1","1","win","go","0"
"pit-trial","193","1147067","0.0-79.0","battery-v0.2","","""event"",""trial"",""time""
""fullscreenenter"",""1"",""1751""
","
","
","""event"",""trial"",""time""
""fullscreenenter"",""1"",""1751""
","
","","","1037.1999999999534","","","21","10376","4900","b","elianto","#f73b6a7A"," "," ","1","-10","[1887.5]","1","2","","","10376","75","3","3","lose","go","1"
"pit-trial","194","1151921","0.0-80.0","battery-v0.2","","""event"",""trial"",""time""
""fullscreenenter"",""1"",""1751""
","
","
","""event"",""trial"",""time""
""fullscreenenter"",""1"",""1751""
","
","","","-1","","","21","10376","4900","c","elianto","#3366ff99","-1","-1","1","+10","[]","0","2","","","10376","76","4","2","win","no-go","0"
"pit-trial","195","1155993","0.0-81.0","battery-v0.2","","""event"",""trial"",""time""
""fullscreenenter"",""1"",""1751""
","
","
","""event"",""trial"",""time""
""fullscreenenter"",""1"",""1751""
","
","","","1220.1999999999534","","","21","10376","4900","h","elianto","#f73b6a7A","-1"," ","0","-10","[2070.4000000001397]","1","2","","","10376","77","6","4","lose","no-go","0"
"pit-trial","196","1160846","0.0-82.0","battery-v0.2","","""event"",""trial"",""time""
""fullscreenenter"",""1"",""1751""
","
","
","""event"",""trial"",""time""
""fullscreenenter"",""1"",""1751""
","
","","","-1","","","21","10376","4900","c","elianto","#3366ff99","-1","-1","1","0","[]","0","2","","","10376","78","4","2","win","no-go","1"
"pit-trial","197","1164610","0.0-83.0","battery-v0.2","","""event"",""trial"",""time""
""fullscreenenter"",""1"",""1751""
","
","
","""event"",""trial"",""time""
""fullscreenenter"",""1"",""1751""
","
","","","910.0999999998603","","","21","10376","4900","z","elianto","#3366ff99"," "," ","1","+10","[1761.0999999998603]","1","2","","","10376","79","5","1","win","go","0"
"pit-trial","198","1169465","0.0-84.0","battery-v0.2","","""event"",""trial"",""time""
""fullscreenenter"",""1"",""1751""
","
","
","""event"",""trial"",""time""
""fullscreenenter"",""1"",""1751""
","
","","","-1","","","21","10376","4900","b","elianto","#f73b6a7A"," ","-1","0","-10","[]","0","2","","","10376","80","3","3","lose","go","0"
"pit-trial","199","1173403","0.0-85.0","battery-v0.2","","""event"",""trial"",""time""
""fullscreenenter"",""1"",""1751""
","
","
","""event"",""trial"",""time""
""fullscreenenter"",""1"",""1751""
","
","","","1084","","","21","10376","4900","y","elianto","#f73b6a7A"," "," ","1","0","[1934.5999999998603]","1","2","","","10376","81","7","3","lose","go","0"
"pit-trial","200","1177602","0.0-86.0","battery-v0.2","","""event"",""trial"",""time""
""fullscreenenter"",""1"",""1751""
","
","
","""event"",""trial"",""time""
""fullscreenenter"",""1"",""1751""
","
","","","1342.1999999999534","","","21","10376","4900","h","elianto","#f73b6a7A","-1"," ","0","-10","[2194]","1","2","","","10376","82","6","4","lose","no-go","0"
"pit-trial","201","1181360","0.0-87.0","battery-v0.2","","""event"",""trial"",""time""
""fullscreenenter"",""1"",""1751""
","
","
","""event"",""trial"",""time""
""fullscreenenter"",""1"",""1751""
","
","","","904.6999999999534","","","21","10376","4900","z","elianto","#3366ff99"," "," ","1","+10","[1755.3000000000466]","1","2","","","10376","83","5","1","win","go","0"
"pit-trial","202","1186213","0.0-88.0","battery-v0.2","","""event"",""trial"",""time""
""fullscreenenter"",""1"",""1751""
","
","
","""event"",""trial"",""time""
""fullscreenenter"",""1"",""1751""
","
","","","-1","","","21","10376","4900","c","elianto","#3366ff99","-1","-1","1","+10","[]","0","2","","","10376","84","4","2","win","no-go","0"
"pit-trial","203","1190626","0.0-89.0","battery-v0.2","","""event"",""trial"",""time""
""fullscreenenter"",""1"",""1751""
","
","
","""event"",""trial"",""time""
""fullscreenenter"",""1"",""1751""
","
","","","1559.8999999999069","","","21","10376","4900","y","elianto","#f73b6a7A"," "," ","1","0","[2410.100000000093]","1","2","","","10376","85","7","3","lose","go","0"
"pit-trial","204","1195177","0.0-90.0","battery-v0.2","","""event"",""trial"",""time""
""fullscreenenter"",""1"",""1751""
","
","
","""event"",""trial"",""time""
""fullscreenenter"",""1"",""1751""
","
","","","1699.2000000001863","","","21","10376","4900","z","elianto","#3366ff99"," "," ","1","0","[2549.4000000001397]","1","2","","","10376","86","5","1","win","go","1"
"pit-trial","205","1200033","0.0-91.0","battery-v0.2","","""event"",""trial"",""time""
""fullscreenenter"",""1"",""1751""
","
","
","""event"",""trial"",""time""
""fullscreenenter"",""1"",""1751""
","
","","","-1","","","21","10376","4900","h","elianto","#f73b6a7A","-1","-1","1","-10","[]","0","2","","","10376","87","6","4","lose","no-go","1"
"pit-trial","206","1204898","0.0-92.0","battery-v0.2","","""event"",""trial"",""time""
""fullscreenenter"",""1"",""1751""
","
","
","""event"",""trial"",""time""
""fullscreenenter"",""1"",""1751""
","
","","","-1","","","21","10376","4900","c","elianto","#3366ff99","-1","-1","1","0","[]","0","2","","","10376","88","4","2","win","no-go","1"
"pit-trial","207","1208673","0.0-93.0","battery-v0.2","","""event"",""trial"",""time""
""fullscreenenter"",""1"",""1751""
","
","
","""event"",""trial"",""time""
""fullscreenenter"",""1"",""1751""
","
","","","920.0999999998603","","","21","10376","4900","y","elianto","#f73b6a7A"," "," ","1","-10","[1771.5999999998603]","1","2","","","10376","89","7","3","lose","go","1"
"pit-trial","208","1213527","0.0-94.0","battery-v0.2","","""event"",""trial"",""time""
""fullscreenenter"",""1"",""1751""
","
","
","""event"",""trial"",""time""
""fullscreenenter"",""1"",""1751""
","
","","","-1","","","21","10376","4900","c","elianto","#3366ff99","-1","-1","1","0","[]","0","2","","","10376","90","4","2","win","no-go","1"
"pit-trial","209","1218381","0.0-95.0","battery-v0.2","","""event"",""trial"",""time""
""fullscreenenter"",""1"",""1751""
","
","
","""event"",""trial"",""time""
""fullscreenenter"",""1"",""1751""
","
","","","-1","","","21","10376","4900","h","elianto","#f73b6a7A","-1","-1","1","-10","[]","0","2","","","10376","91","6","4","lose","no-go","1"
"pit-trial","210","1222098","0.0-96.0","battery-v0.2","","""event"",""trial"",""time""
""fullscreenenter"",""1"",""1751""
","
","
","""event"",""trial"",""time""
""fullscreenenter"",""1"",""1751""
","
","","","862.1999999999534","","","21","10376","4900","z","elianto","#3366ff99"," "," ","1","+10","[1712.5]","1","2","","","10376","92","5","1","win","go","0"
"pit-trial","211","1225515","0.0-97.0","battery-v0.2","","""event"",""trial"",""time""
""fullscreenenter"",""1"",""1751""
","
","
","""event"",""trial"",""time""
""fullscreenenter"",""1"",""1751""
","
","","","563.5","","","21","10376","4900","z","elianto","#3366ff99"," "," ","1","+10","[1413.6999999999534]","1","2","","","10376","93","5","1","win","go","0"
"pit-trial","212","1229465","0.0-98.0","battery-v0.2","","""event"",""trial"",""time""
""fullscreenenter"",""1"",""1751""
","
","
","""event"",""trial"",""time""
""fullscreenenter"",""1"",""1751""
","
","","","1095.5999999998603","","","21","10376","4900","r","elianto","#3366ff99","-1"," ","0","0","[1946.5]","1","2","","","10376","94","8","2","win","no-go","0"
"pit-trial","213","1233497","0.0-99.0","battery-v0.2","","""event"",""trial"",""time""
""fullscreenenter"",""1"",""1751""
","
","
","""event"",""trial"",""time""
""fullscreenenter"",""1"",""1751""
","
","","","1177.8999999999069","","","21","10376","4900","h","elianto","#f73b6a7A","-1"," ","0","-10","[2028.5]","1","2","","","10376","95","6","4","lose","no-go","0"
"pit-trial","214","1237744","0.0-100.0","battery-v0.2","","""event"",""trial"",""time""
""fullscreenenter"",""1"",""1751""
","
","
","""event"",""trial"",""time""
""fullscreenenter"",""1"",""1751""
","
","","","1393.8000000000466","","","21","10376","4900","y","elianto","#f73b6a7A"," "," ","1","0","[2244.2000000001863]","1","2","","","10376","96","7","3","lose","go","0"
"pit-trial","215","1241508","0.0-101.0","battery-v0.2","","""event"",""trial"",""time""
""fullscreenenter"",""1"",""1751""
","
","
","""event"",""trial"",""time""
""fullscreenenter"",""1"",""1751""
","
","","","909.7000000001863","","","21","10376","4900","y","elianto","#f73b6a7A"," "," ","1","0","[1759.8000000000466]","1","2","","","10376","97","7","3","lose","go","0"
"pit-trial","216","1246363","0.0-102.0","battery-v0.2","","""event"",""trial"",""time""
""fullscreenenter"",""1"",""1751""
","
","
","""event"",""trial"",""time""
""fullscreenenter"",""1"",""1751""
","
","","","-1","","","21","10376","4900","r","elianto","#3366ff99","-1","-1","1","+10","[]","0","2","","","10376","98","8","2","win","no-go","0"
"pit-trial","217","1250297","0.0-103.0","battery-v0.2","","""event"",""trial"",""time""
""fullscreenenter"",""1"",""1751""
","
","
","""event"",""trial"",""time""
""fullscreenenter"",""1"",""1751""
","
","","","1077.6000000000931","","","21","10376","4900","z","elianto","#3366ff99"," "," ","1","+10","[1929.5]","1","2","","","10376","99","5","1","win","go","0"
"pit-trial","218","1255150","0.0-104.0","battery-v0.2","","""event"",""trial"",""time""
""fullscreenenter"",""1"",""1751""
","
","
","""event"",""trial"",""time""
""fullscreenenter"",""1"",""1751""
","
","","","-1","","","21","10376","4900","h","elianto","#f73b6a7A","-1","-1","1","-10","[]","0","2","","","10376","100","6","4","lose","no-go","1"
"pit-trial","219","1260004","0.0-105.0","battery-v0.2","","""event"",""trial"",""time""
""fullscreenenter"",""1"",""1751""
","
","
","""event"",""trial"",""time""
""fullscreenenter"",""1"",""1751""
","
","","","-1","","","21","10376","4900","r","elianto","#3366ff99","-1","-1","1","+10","[]","0","2","","","10376","101","8","2","win","no-go","0"
"pit-trial","220","1263699","0.0-106.0","battery-v0.2","","""event"",""trial"",""time""
""fullscreenenter"",""1"",""1751""
","
","
","""event"",""trial"",""time""
""fullscreenenter"",""1"",""1751""
","
","","","838.6999999999534","","","21","10376","4900","z","elianto","#3366ff99"," "," ","1","+10","[1690.5999999998603]","1","2","","","10376","102","5","1","win","go","0"
"pit-trial","221","1267594","0.0-107.0","battery-v0.2","","""event"",""trial"",""time""
""fullscreenenter"",""1"",""1751""
","
","
","""event"",""trial"",""time""
""fullscreenenter"",""1"",""1751""
","
","","","1040.6999999999534","","","21","10376","4900","m","elianto","#3366ff99","-1"," ","0","0","[1891.3999999999069]","1","2","","","10376","103","9","2","win","no-go","0"
"pit-trial","222","1271746","0.0-108.0","battery-v0.2","","""event"",""trial"",""time""
""fullscreenenter"",""1"",""1751""
","
","
","""event"",""trial"",""time""
""fullscreenenter"",""1"",""1751""
","
","","","1298.1000000000931","","","21","10376","4900","h","elianto","#f73b6a7A","-1"," ","0","-10","[2148]","1","2","","","10376","104","6","4","lose","no-go","0"
"pit-trial","223","1275498","0.0-109.0","battery-v0.2","","""event"",""trial"",""time""
""fullscreenenter"",""1"",""1751""
","
","
","""event"",""trial"",""time""
""fullscreenenter"",""1"",""1751""
","
","","","897.5","","","21","10376","4900","z","elianto","#3366ff99"," "," ","1","0","[1748.4000000001397]","1","2","","","10376","105","5","1","win","go","1"
"pit-trial","224","1280353","0.0-110.0","battery-v0.2","","""event"",""trial"",""time""
""fullscreenenter"",""1"",""1751""
","
","
","""event"",""trial"",""time""
""fullscreenenter"",""1"",""1751""
","
","","","-1","","","21","10376","4900","h","elianto","#f73b6a7A","-1","-1","1","0","[]","0","2","","","10376","106","6","4","lose","no-go","0"
"pit-trial","225","1285225","0.0-111.0","battery-v0.2","","""event"",""trial"",""time""
""fullscreenenter"",""1"",""1751""
","
","
","""event"",""trial"",""time""
""fullscreenenter"",""1"",""1751""
","
","","","-1","","","21","10376","4900","r","elianto","#3366ff99","-1","-1","1","0","[]","0","2","","","10376","107","8","2","win","no-go","1"
"pit-trial","226","1289178","0.0-112.0","battery-v0.2","","""event"",""trial"",""time""
""fullscreenenter"",""1"",""1751""
","
","
","""event"",""trial"",""time""
""fullscreenenter"",""1"",""1751""
","
","","","1097.5","","","21","10376","4900","m","elianto","#3366ff99","-1"," ","0","0","[1948.1999999999534]","1","2","","","10376","108","9","2","win","no-go","0"
"pit-trial","227","1294032","0.0-113.0","battery-v0.2","","""event"",""trial"",""time""
""fullscreenenter"",""1"",""1751""
","
","
","""event"",""trial"",""time""
""fullscreenenter"",""1"",""1751""
","
","","","-1","","","21","10376","4900","h","elianto","#f73b6a7A","-1","-1","1","0","[]","0","2","","","10376","109","6","4","lose","no-go","0"
"pit-trial","228","1298887","0.0-114.0","battery-v0.2","","""event"",""trial"",""time""
""fullscreenenter"",""1"",""1751""
","
","
","""event"",""trial"",""time""
""fullscreenenter"",""1"",""1751""
","
","","","-1","","","21","10376","4900","m","elianto","#3366ff99","-1","-1","1","+10","[]","0","2","","","10376","110","9","2","win","no-go","0"
"pit-trial","229","1303741","0.0-115.0","battery-v0.2","","""event"",""trial"",""time""
""fullscreenenter"",""1"",""1751""
","
","
","""event"",""trial"",""time""
""fullscreenenter"",""1"",""1751""
","
","","","-1","","","21","10376","4900","r","elianto","#3366ff99","-1","-1","1","+10","[]","0","2","","","10376","111","8","2","win","no-go","0"
"pit-trial","230","1307442","0.0-116.0","battery-v0.2","","""event"",""trial"",""time""
""fullscreenenter"",""1"",""1751""
","
","
","""event"",""trial"",""time""
""fullscreenenter"",""1"",""1751""
","
","","","848.5","","","21","10376","4900","z","elianto","#3366ff99"," "," ","1","+10","[1699]","1","2","","","10376","112","5","1","win","go","0"
"pit-trial","231","1310801","0.0-117.0","battery-v0.2","","""event"",""trial"",""time""
""fullscreenenter"",""1"",""1751""
","
","
","""event"",""trial"",""time""
""fullscreenenter"",""1"",""1751""
","
","","","504.80000000004657","","","21","10376","4900","z","elianto","#3366ff99"," "," ","1","+10","[1356.1000000000931]","1","2","","","10376","113","5","1","win","go","0"
"pit-trial","232","1315659","0.0-118.0","battery-v0.2","","""event"",""trial"",""time""
""fullscreenenter"",""1"",""1751""
","
","
","""event"",""trial"",""time""
""fullscreenenter"",""1"",""1751""
","
","","","-1","","","21","10376","4900","r","elianto","#3366ff99","-1","-1","1","+10","[]","0","2","","","10376","114","8","2","win","no-go","0"
"pit-trial","233","1320513","0.0-119.0","battery-v0.2","","""event"",""trial"",""time""
""fullscreenenter"",""1"",""1751""
","
","
","""event"",""trial"",""time""
""fullscreenenter"",""1"",""1751""
","
","","","-1","","","21","10376","4900","m","elianto","#3366ff99","-1","-1","1","+10","[]","0","2","","","10376","115","9","2","win","no-go","0"
"pit-trial","234","1325369","0.0-120.0","battery-v0.2","","""event"",""trial"",""time""
""fullscreenenter"",""1"",""1751""
","
","
","""event"",""trial"",""time""
""fullscreenenter"",""1"",""1751""
","
","","","-1","","","21","10376","4900","y","elianto","#f73b6a7A"," ","-1","0","-10","[]","0","2","","","10376","116","7","3","lose","go","0"
"pit-trial","235","1330222","0.0-121.0","battery-v0.2","","""event"",""trial"",""time""
""fullscreenenter"",""1"",""1751""
","
","
","""event"",""trial"",""time""
""fullscreenenter"",""1"",""1751""
","
","","","-1","","","21","10376","4900","h","elianto","#f73b6a7A","-1","-1","1","0","[]","0","2","","","10376","117","6","4","lose","no-go","0"
"pit-trial","236","1335077","0.0-122.0","battery-v0.2","","""event"",""trial"",""time""
""fullscreenenter"",""1"",""1751""
","
","
","""event"",""trial"",""time""
""fullscreenenter"",""1"",""1751""
","
","","","-1","","","21","10376","4900","r","elianto","#3366ff99","-1","-1","1","+10","[]","0","2","","","10376","118","8","2","win","no-go","0"
"pit-trial","237","1338515","0.0-123.0","battery-v0.2","","""event"",""trial"",""time""
""fullscreenenter"",""1"",""1751""
","
","
","""event"",""trial"",""time""
""fullscreenenter"",""1"",""1751""
","
","","","584.1000000000931","","","21","10376","4900","z","elianto","#3366ff99"," "," ","1","+10","[1434.1999999999534]","1","2","","","10376","119","5","1","win","go","0"
"pit-trial","238","1343368","0.0-124.0","battery-v0.2","","""event"",""trial"",""time""
""fullscreenenter"",""1"",""1751""
","
","
","""event"",""trial"",""time""
""fullscreenenter"",""1"",""1751""
","
","","","-1","","","21","10376","4900","m","elianto","#3366ff99","-1","-1","1","+10","[]","0","2","","","10376","120","9","2","win","no-go","0"
"pit-trial","239","1347490","0.0-125.0","battery-v0.2","","""event"",""trial"",""time""
""fullscreenenter"",""1"",""1751""
","
","
","""event"",""trial"",""time""
""fullscreenenter"",""1"",""1751""
","
","","","1267.6999999999534","","","21","10376","4900","y","elianto","#f73b6a7A"," "," ","1","0","[2118.3000000000466]","1","2","","","10376","121","7","3","lose","go","0"
"pit-trial","240","1352344","0.0-126.0","battery-v0.2","","""event"",""trial"",""time""
""fullscreenenter"",""1"",""1751""
","
","
","""event"",""trial"",""time""
""fullscreenenter"",""1"",""1751""
","
","","","-1","","","21","10376","4900","m","elianto","#3366ff99","-1","-1","1","+10","[]","0","2","","","10376","122","9","2","win","no-go","0"
"pit-trial","241","1357199","0.0-127.0","battery-v0.2","","""event"",""trial"",""time""
""fullscreenenter"",""1"",""1751""
","
","
","""event"",""trial"",""time""
""fullscreenenter"",""1"",""1751""
","
","","","-1","","","21","10376","4900","r","elianto","#3366ff99","-1","-1","1","+10","[]","0","2","","","10376","123","8","2","win","no-go","0"
"pit-trial","242","1360537","0.0-128.0","battery-v0.2","","""event"",""trial"",""time""
""fullscreenenter"",""1"",""1751""
","
","
","""event"",""trial"",""time""
""fullscreenenter"",""1"",""1751""
","
","","","485.9000000001397","","","21","10376","4900","z","elianto","#3366ff99"," "," ","1","0","[1335.8999999999069]","1","2","","","10376","124","5","1","win","go","1"
"pit-trial","243","1365391","0.0-129.0","battery-v0.2","","""event"",""trial"",""time""
""fullscreenenter"",""1"",""1751""
","
","
","""event"",""trial"",""time""
""fullscreenenter"",""1"",""1751""
","
","","","-1","","","21","10376","4900","r","elianto","#3366ff99","-1","-1","1","+10","[]","0","2","","","10376","125","8","2","win","no-go","0"
"pit-trial","244","1370245","0.0-130.0","battery-v0.2","","""event"",""trial"",""time""
""fullscreenenter"",""1"",""1751""
","
","
","""event"",""trial"",""time""
""fullscreenenter"",""1"",""1751""
","
","","","-1","","","21","10376","4900","m","elianto","#3366ff99","-1","-1","1","0","[]","0","2","","","10376","126","9","2","win","no-go","1"
"pit-trial","245","1375100","0.0-131.0","battery-v0.2","","""event"",""trial"",""time""
""fullscreenenter"",""1"",""1751""
","
","
","""event"",""trial"",""time""
""fullscreenenter"",""1"",""1751""
","
","","","-1","","","21","10376","4900","h","elianto","#f73b6a7A","-1","-1","1","0","[]","0","2","","","10376","127","6","4","lose","no-go","0"
"pit-trial","246","1379955","0.0-132.0","battery-v0.2","","""event"",""trial"",""time""
""fullscreenenter"",""1"",""1751""
","
","
","""event"",""trial"",""time""
""fullscreenenter"",""1"",""1751""
","
","","","-1","","","21","10376","4900","y","elianto","#f73b6a7A"," ","-1","0","0","[]","0","2","","","10376","128","7","3","lose","go","1"
"pit-trial","247","1384809","0.0-133.0","battery-v0.2","","""event"",""trial"",""time""
""fullscreenenter"",""1"",""1751""
","
","
","""event"",""trial"",""time""
""fullscreenenter"",""1"",""1751""
","
","","","-1","","","21","10376","4900","r","elianto","#3366ff99","-1","-1","1","+10","[]","0","2","","","10376","129","8","2","win","no-go","0"
"pit-trial","248","1389664","0.0-134.0","battery-v0.2","","""event"",""trial"",""time""
""fullscreenenter"",""1"",""1751""
","
","
","""event"",""trial"",""time""
""fullscreenenter"",""1"",""1751""
","
","","","-1","","","21","10376","4900","m","elianto","#3366ff99","-1","-1","1","+10","[]","0","2","","","10376","130","9","2","win","no-go","0"
"pit-trial","249","1394518","0.0-135.0","battery-v0.2","","""event"",""trial"",""time""
""fullscreenenter"",""1"",""1751""
","
","
","""event"",""trial"",""time""
""fullscreenenter"",""1"",""1751""
","
","","","-1","","","21","10376","4900","h","elianto","#f73b6a7A","-1","-1","1","-10","[]","0","2","","","10376","131","6","4","lose","no-go","1"
"pit-trial","250","1399373","0.0-136.0","battery-v0.2","","""event"",""trial"",""time""
""fullscreenenter"",""1"",""1751""
","
","
","""event"",""trial"",""time""
""fullscreenenter"",""1"",""1751""
","
","","","-1","","","21","10376","4900","y","elianto","#f73b6a7A"," ","-1","0","0","[]","0","2","","","10376","132","7","3","lose","go","1"
"pit-trial","251","1404230","0.0-137.0","battery-v0.2","","""event"",""trial"",""time""
""fullscreenenter"",""1"",""1751""
","
","
","""event"",""trial"",""time""
""fullscreenenter"",""1"",""1751""
","
","","","-1","","","21","10376","4900","m","elianto","#3366ff99","-1","-1","1","+10","[]","0","2","","","10376","133","9","2","win","no-go","0"
"pit-trial","252","1409085","0.0-138.0","battery-v0.2","","""event"",""trial"",""time""
""fullscreenenter"",""1"",""1751""
","
","
","""event"",""trial"",""time""
""fullscreenenter"",""1"",""1751""
","
","","","-1","","","21","10376","4900","r","elianto","#3366ff99","-1","-1","1","+10","[]","0","2","","","10376","134","8","2","win","no-go","0"
"pit-trial","253","1413940","0.0-139.0","battery-v0.2","","""event"",""trial"",""time""
""fullscreenenter"",""1"",""1751""
","
","
","""event"",""trial"",""time""
""fullscreenenter"",""1"",""1751""
","
","","","-1","","","21","10376","4900","y","elianto","#f73b6a7A"," ","-1","0","0","[]","0","2","","","10376","135","7","3","lose","go","1"
"pit-trial","254","1418807","0.0-140.0","battery-v0.2","","""event"",""trial"",""time""
""fullscreenenter"",""1"",""1751""
","
","
","""event"",""trial"",""time""
""fullscreenenter"",""1"",""1751""
","
","","","-1","","","21","10376","4900","h","elianto","#f73b6a7A","-1","-1","1","0","[]","0","2","","","10376","136","6","4","lose","no-go","0"
"pit-trial","255","1423662","0.0-141.0","battery-v0.2","","""event"",""trial"",""time""
""fullscreenenter"",""1"",""1751""
","
","
","""event"",""trial"",""time""
""fullscreenenter"",""1"",""1751""
","
","","","-1","","","21","10376","4900","h","elianto","#f73b6a7A","-1","-1","1","0","[]","0","2","","","10376","137","6","4","lose","no-go","0"
"pit-trial","256","1428516","0.0-142.0","battery-v0.2","","""event"",""trial"",""time""
""fullscreenenter"",""1"",""1751""
","
","
","""event"",""trial"",""time""
""fullscreenenter"",""1"",""1751""
","
","","","-1","","","21","10376","4900","y","elianto","#f73b6a7A"," ","-1","0","-10","[]","0","2","","","10376","138","7","3","lose","go","0"
"pit-trial","257","1433370","0.0-143.0","battery-v0.2","","""event"",""trial"",""time""
""fullscreenenter"",""1"",""1751""
","
","
","""event"",""trial"",""time""
""fullscreenenter"",""1"",""1751""
","
","","","-1","","","21","10376","4900","m","elianto","#3366ff99","-1","-1","1","+10","[]","0","2","","","10376","139","9","2","win","no-go","0"
"pit-trial","258","1438226","0.0-144.0","battery-v0.2","","""event"",""trial"",""time""
""fullscreenenter"",""1"",""1751""
","
","
","""event"",""trial"",""time""
""fullscreenenter"",""1"",""1751""
","
","","","-1","","","21","10376","4900","r","elianto","#3366ff99","-1","-1","1","+10","[]","0","2","","","10376","140","8","2","win","no-go","0"
"pit-instructions","259","1512493","0.0-145.0","battery-v0.2","","""event"",""trial"",""time""
""fullscreenenter"",""1"",""1751""
","
","
","""event"",""trial"",""time""
""fullscreenenter"",""1"",""1751""
","
","","[{""page_index"":0,""viewing_time"":18167.800000000047},{""page_index"":1,""viewing_time"":56095.59999999986}]","74263.5","","","","","","","","","","","","","","","","","","","","","","","",""
"pit-trial","260","1516172","0.0-146.0","battery-v0.2","","""event"",""trial"",""time""
""fullscreenenter"",""1"",""1751""
","
","
","""event"",""trial"",""time""
""fullscreenenter"",""1"",""1751""
","
","","","824.4000000001397","","","21","10376","4900","g","elianto","#f73b6a7A","-1"," ","0","-10","[1675.3000000000466]","1","3","","","10376","141","3","4","lose","no-go","0"
"pit-trial","261","1519706","0.0-147.0","battery-v0.2","","""event"",""trial"",""time""
""fullscreenenter"",""1"",""1751""
","
","
","""event"",""trial"",""time""
""fullscreenenter"",""1"",""1751""
","
","","","680.3000000000466","","","21","10376","4900","a","elianto","#f73b6a7A"," "," ","1","0","[1530.5]","1","3","","","10376","142","2","3","lose","go","0"
"pit-trial","262","1523346","0.0-148.0","battery-v0.2","","""event"",""trial"",""time""
""fullscreenenter"",""1"",""1751""
","
","
","""event"",""trial"",""time""
""fullscreenenter"",""1"",""1751""
","
","","","787.6999999999534","","","21","10376","4900","u","elianto","#f73b6a7A"," "," ","1","0","[1638.1999999999534]","1","3","","","10376","143","0","3","lose","go","0"
"pit-trial","263","1526922","0.0-149.0","battery-v0.2","","""event"",""trial"",""time""
""fullscreenenter"",""1"",""1751""
","
","
","""event"",""trial"",""time""
""fullscreenenter"",""1"",""1751""
","
","","","723.1000000000931","","","21","10376","4900","l","elianto","#3366ff99","-1"," ","0","0","[1573.6999999999534]","1","3","","","10376","144","1","2","win","no-go","0"
"pit-trial","264","1530345","0.0-150.0","battery-v0.2","","""event"",""trial"",""time""
""fullscreenenter"",""1"",""1751""
","
","
","""event"",""trial"",""time""
""fullscreenenter"",""1"",""1751""
","
","","","569.1999999999534","","","21","10376","4900","l","elianto","#3366ff99","-1"," ","0","0","[1420]","1","3","","","10376","145","1","2","win","no-go","0"
"pit-trial","265","1534073","0.0-151.0","battery-v0.2","","""event"",""trial"",""time""
""fullscreenenter"",""1"",""1751""
","
","
","""event"",""trial"",""time""
""fullscreenenter"",""1"",""1751""
","
","","","873.8000000000466","","","21","10376","4900","u","elianto","#f73b6a7A"," "," ","1","0","[1724.0999999998603]","1","3","","","10376","146","0","3","lose","go","0"
"pit-trial","266","1537714","0.0-152.0","battery-v0.2","","""event"",""trial"",""time""
""fullscreenenter"",""1"",""1751""
","
","
","""event"",""trial"",""time""
""fullscreenenter"",""1"",""1751""
","
