"trial_type","trial_index","time_elapsed","internal_node_id","task_version","subject_id","interactions","blur_events","focus_events","fullscreenenter_events","fullscreenexit_events","success","view_history","rt","responses","num_errors","age","subject","participantId","rune","rune_set","hex","correct","choice","accuracy","outcome","keys","total_keys","block","practice","value","sub","trial","stimulus","robot","valence","action","sham"
"pavlovia","0","8","0.0-0.0","battery-v0.2","","""event"",""trial"",""time""
""fullscreenenter"",""1"",""4254""
","
","
","""event"",""trial"",""time""
""fullscreenenter"",""1"",""4254""
","
","","","","","","","","","","","","","","","","","","","","","","","","","","",""
"fullscreen","1","5252","0.0-1.0","battery-v0.2","","""event"",""trial"",""time""
""fullscreenenter"",""1"",""4254""
","
","
","""event"",""trial"",""time""
""fullscreenenter"",""1"",""4254""
","
","true","","","","","","","","","","","","","","","","","","","","","","","","","",""
"pit-instructions","2","10341","0.0-2.0-0.0","battery-v0.2","","""event"",""trial"",""time""
""fullscreenenter"",""1"",""4254""
","
","
","""event"",""trial"",""time""
""fullscreenenter"",""1"",""4254""
","
","","[{""page_index"":0,""viewing_time"":5083.89999999851}]","5084.599999997765","","","","","","","","","","","","","","","","","","","","","","","",""
"pit-comprehension","3","20472","0.0-2.0-1.0-0.0","battery-v0.2","","""event"",""trial"",""time""
""fullscreenenter"",""1"",""4254""
","
","
","""event"",""trial"",""time""
""fullscreenenter"",""1"",""4254""
","
","","","10125.5","[""shark""]","0","19","8972","4173","","","","","","","","","","","","","","","","","","",""
"pit-instructions","4","21500","0.0-2.0-1.0-1.0","battery-v0.2","","""event"",""trial"",""time""
""fullscreenenter"",""1"",""4254""
","
","
","""event"",""trial"",""time""
""fullscreenenter"",""1"",""4254""
","
","","[{""page_index"":0,""viewing_time"":1019.6999999992549}]","1020.2999999970198","","","","","","","","","","","","","","","","","","","","","","","",""
"pit-comprehension","5","30749","0.0-2.0-2.0-0.0","battery-v0.2","","""event"",""trial"",""time""
""fullscreenenter"",""1"",""4254""
","
","
","""event"",""trial"",""time""
""fullscreenenter"",""1"",""4254""
","
","","","9244.099999997765","[""turtle""]","1","19","8972","4173","","","","","","","","","","","","","","","","","","",""
"pit-instructions","6","32196","0.0-2.0-2.0-1.0","battery-v0.2","","""event"",""trial"",""time""
""fullscreenenter"",""1"",""4254""
","
","
","""event"",""trial"",""time""
""fullscreenenter"",""1"",""4254""
","
","","[{""page_index"":0,""viewing_time"":1442}]","1442.5","","","","","","","","","","","","","","","","","","","","","","","",""
"pit-instructions","7","34457","0.0-2.0-2.0-2.0-0.0","battery-v0.2","","""event"",""trial"",""time""
""fullscreenenter"",""1"",""4254""
","
","
","""event"",""trial"",""time""
""fullscreenenter"",""1"",""4254""
","
","","[{""page_index"":0,""viewing_time"":2257.60000000149}]","2258.10000000149","","","","","","","","","","","","","","","","","","","","","","","",""
"pit-comprehension","8","37385","0.0-2.0-2.1-0.1","battery-v0.2","","""event"",""trial"",""time""
""fullscreenenter"",""1"",""4254""
","
","
","""event"",""trial"",""time""
""fullscreenenter"",""1"",""4254""
","
","","","2923.800000000745","[""tiger""]","0","19","8972","4173","","","","","","","","","","","","","","","","","","",""
"pit-instructions","9","38609","0.0-2.0-2.1-1.1","battery-v0.2","","""event"",""trial"",""time""
""fullscreenenter"",""1"",""4254""
","
","
","""event"",""trial"",""time""
""fullscreenenter"",""1"",""4254""
","
","","[{""page_index"":0,""viewing_time"":1219.2000000029802}]","1219.7000000029802","","","","","","","","","","","","","","","","","","","","","","","",""
"pit-instructions","10","135361","0.0-2.0-3.0","battery-v0.2","","""event"",""trial"",""time""
""fullscreenenter"",""1"",""4254""
","
","
","""event"",""trial"",""time""
""fullscreenenter"",""1"",""4254""
","
","","[{""page_index"":0,""viewing_time"":8329.70000000298},{""page_index"":1,""viewing_time"":6151.5},{""page_index"":2,""viewing_time"":6369.099999997765},{""page_index"":3,""viewing_time"":5529.5},{""page_index"":4,""viewing_time"":5371.900000002235},{""page_index"":5,""viewing_time"":6057.5},{""page_index"":6,""viewing_time"":7679.79999999702},{""page_index"":7,""viewing_time"":6767.20000000298},{""page_index"":8,""viewing_time"":7782.099999997765},{""page_index"":9,""viewing_time"":8398.5},{""page_index"":10,""viewing_time"":8146.300000000745},{""page_index"":11,""viewing_time"":7848},{""page_index"":12,""viewing_time"":6066.39999999851},{""page_index"":13,""viewing_time"":6249.400000002235}]","96747.60000000149","","","","","","","","","","","","","","","","","","","","","","","",""
"pit-trial","11","138745","0.0-2.0-4.0-0.0","battery-v0.2","","""event"",""trial"",""time""
""fullscreenenter"",""1"",""4254""
","
","
","""event"",""trial"",""time""
""fullscreenenter"",""1"",""4254""
","
","","","514.0999999977648","","","19","8972","4173","&#9784;","elianto","#FFFFF080"," "," ","1","&#10004","[1370.0999999977648]","1","0","0","","","","","","","",""
"pit-trial","12","142064","0.0-2.0-4.1-0.1","battery-v0.2","","""event"",""trial"",""time""
""fullscreenenter"",""1"",""4254""
","
","
","""event"",""trial"",""time""
""fullscreenenter"",""1"",""4254""
","
","","","452.9000000022352","","","19","8972","4173","&#9784;","elianto","#FFFFF080"," "," ","1","&#10004","[1308.1000000014901]","1","0","0","","","","","","","",""
"pit-trial","13","145424","0.0-2.0-4.2-0.2","battery-v0.2","","""event"",""trial"",""time""
""fullscreenenter"",""1"",""4254""
","
","
","""event"",""trial"",""time""
""fullscreenenter"",""1"",""4254""
","
","","","494.20000000298023","","","19","8972","4173","&#9784;","elianto","#FFFFF080"," "," ","1","&#10004","[1347.699999999255]","1","0","0","","","","","","","",""
"pit-trial","14","148796","0.0-2.0-4.3-0.3","battery-v0.2","","""event"",""trial"",""time""
""fullscreenenter"",""1"",""4254""
","
","
","""event"",""trial"",""time""
""fullscreenenter"",""1"",""4254""
","
","","","505.29999999701977","","","19","8972","4173","&#9784;","elianto","#FFFFF080"," "," ","1","&#10004","[1364.1000000014901]","1","0","0","","","","","","","",""
"pit-trial","15","152153","0.0-2.0-4.4-0.4","battery-v0.2","","""event"",""trial"",""time""
""fullscreenenter"",""1"",""4254""
","
","
","""event"",""trial"",""time""
""fullscreenenter"",""1"",""4254""
","
","","","488.19999999925494","","","19","8972","4173","&#9784;","elianto","#FFFFF080"," "," ","1","&#10004","[1341.199999999255]","1","0","0","","","","","","","",""
"pit-instructions","16","174934","0.0-2.0-5.0","battery-v0.2","","""event"",""trial"",""time""
""fullscreenenter"",""1"",""4254""
","
","
","""event"",""trial"",""time""
""fullscreenenter"",""1"",""4254""
","
","","[{""page_index"":0,""viewing_time"":5300.60000000149},{""page_index"":1,""viewing_time"":6768.300000000745},{""page_index"":2,""viewing_time"":5578.199999999255},{""page_index"":3,""viewing_time"":5129.39999999851}]","22777","","","","","","","","","","","","","","","","","","","","","","","",""
"pit-trial","17","179797","0.0-2.0-6.0-0.0","battery-v0.2","","""event"",""trial"",""time""
""fullscreenenter"",""1"",""4254""
","
","
","""event"",""trial"",""time""
""fullscreenenter"",""1"",""4254""
","
","","","-1","","","19","8972","4173","&#9854;","elianto","#FFFFF080","-1","-1","1","&#10004","[]","0","0","1","","","","","","","",""
"pit-trial","18","184665","0.0-2.0-6.1-0.1","battery-v0.2","","""event"",""trial"",""time""
""fullscreenenter"",""1"",""4254""
","
","
","""event"",""trial"",""time""
""fullscreenenter"",""1"",""4254""
","
","","","-1","","","19","8972","4173","&#9854;","elianto","#FFFFF080","-1","-1","1","&#10004","[]","0","0","1","","","","","","","",""
"pit-trial","19","189535","0.0-2.0-6.2-0.2","battery-v0.2","","""event"",""trial"",""time""
""fullscreenenter"",""1"",""4254""
","
","
","""event"",""trial"",""time""
""fullscreenenter"",""1"",""4254""
","
","","","-1","","","19","8972","4173","&#9854;","elianto","#FFFFF080","-1","-1","1","&#10004","[]","0","0","1","","","","","","","",""
"pit-trial","20","194409","0.0-2.0-6.3-0.3","battery-v0.2","","""event"",""trial"",""time""
""fullscreenenter"",""1"",""4254""
","
","
","""event"",""trial"",""time""
""fullscreenenter"",""1"",""4254""
","
","","","-1","","","19","8972","4173","&#9854;","elianto","#FFFFF080","-1","-1","1","&#10004","[]","0","0","1","","","","","","","",""
"pit-trial","21","199281","0.0-2.0-6.4-0.4","battery-v0.2","","""event"",""trial"",""time""
""fullscreenenter"",""1"",""4254""
","
","
","""event"",""trial"",""time""
""fullscreenenter"",""1"",""4254""
","
","","","-1","","","19","8972","4173","&#9854;","elianto","#FFFFF080","-1","-1","1","&#10004","[]","0","0","1","","","","","","","",""
"pit-instructions","22","328199","0.0-2.0-7.0","battery-v0.2","","""event"",""trial"",""time""
""fullscreenenter"",""1"",""4254""
","
","
","""event"",""trial"",""time""
""fullscreenenter"",""1"",""4254""
","
","","[{""page_index"":0,""viewing_time"":5725.70000000298},{""page_index"":1,""viewing_time"":6908.599999997765},{""page_index"":2,""viewing_time"":6182.900000002235},{""page_index"":3,""viewing_time"":6766},{""page_index"":4,""viewing_time"":5899.89999999851},{""page_index"":5,""viewing_time"":7600.800000000745},{""page_index"":6,""viewing_time"":7079.39999999851},{""page_index"":7,""viewing_time"":8710.60000000149},{""page_index"":8,""viewing_time"":8075.099999997765},{""page_index"":9,""viewing_time"":6387.800000000745},{""page_index"":10,""viewing_time"":8586.300000000745},{""page_index"":11,""viewing_time"":4624.5},{""page_index"":12,""viewing_time"":7278.699999999255},{""page_index"":13,""viewing_time"":9097.5},{""page_index"":14,""viewing_time"":8723},{""page_index"":15,""viewing_time"":6487.60000000149},{""page_index"":16,""viewing_time"":7703.199999999255},{""page_index"":17,""viewing_time"":7075.39999999851}]","128913.5","","","","","","","","","","","","","","","","","","","","","","","",""
"pit-trial","23","331737","0.0-2.0-8.0-0.0","battery-v0.2","","""event"",""trial"",""time""
""fullscreenenter"",""1"",""4254""
","
","
","""event"",""trial"",""time""
""fullscreenenter"",""1"",""4254""
","
","","","679.2999999970198","","","19","8972","4173","&#9776;","elianto","#3366ff99"," "," ","1","+10","[1529.699999999255]","1","0","1","","","","","","","",""
"pit-trial","24","335105","0.0-2.0-8.0-1.0","battery-v0.2","","""event"",""trial"",""time""
""fullscreenenter"",""1"",""4254""
","
","
","""event"",""trial"",""time""
""fullscreenenter"",""1"",""4254""
","
","","","504.8999999985099","","","19","8972","4173","&#9776;","elianto","#3366ff99"," "," ","1","+10","[1355.0999999977648]","1","0","1","","","","","","","",""
"pit-trial","25","338457","0.0-2.0-8.0-2.0","battery-v0.2","","""event"",""trial"",""time""
""fullscreenenter"",""1"",""4254""
","
","
","""event"",""trial"",""time""
""fullscreenenter"",""1"",""4254""
","
","","","479.8999999985099","","","19","8972","4173","&#9776;","elianto","#3366ff99"," "," ","1","+10","[1337.7999999970198]","1","0","1","","","","","","","",""
"pit-trial","26","341689","0.0-2.0-8.0-3.0","battery-v0.2","","""event"",""trial"",""time""
""fullscreenenter"",""1"",""4254""
","
","
","""event"",""trial"",""time""
""fullscreenenter"",""1"",""4254""
","
","","","363.5","","","19","8972","4173","&#9776;","elianto","#3366ff99"," "," ","1","0","[1222.2000000029802]","1","0","1","","","","","","","",""
"pit-trial","27","344701","0.0-2.0-8.0-4.0","battery-v0.2","","""event"",""trial"",""time""
""fullscreenenter"",""1"",""4254""
","
","
","""event"",""trial"",""time""
""fullscreenenter"",""1"",""4254""
","
","","","139.79999999701977","","","19","8972","4173","&#9776;","elianto","#3366ff99"," "," ","1","+10","[999.7999999970198]","1","0","1","","","","","","","",""
"pit-trial","28","347737","0.0-2.0-8.1-0.1","battery-v0.2","","""event"",""trial"",""time""
""fullscreenenter"",""1"",""4254""
","
","
","""event"",""trial"",""time""
""fullscreenenter"",""1"",""4254""
","
","","","168.80000000074506","","","19","8972","4173","&#9776;","elianto","#3366ff99"," "," ","1","+10","[1019.4000000022352]","1","0","1","","","","","","","",""
"pit-trial","29","350937","0.0-2.0-8.1-1.1","battery-v0.2","","""event"",""trial"",""time""
""fullscreenenter"",""1"",""4254""
","
","
","""event"",""trial"",""time""
""fullscreenenter"",""1"",""4254""
","
","","","329.3999999985099","","","19","8972","4173","&#9776;","elianto","#3366ff99"," "," ","1","+10","[1186.3999999985099]","1","0","1","","","","","","","",""
"pit-trial","30","353945","0.0-2.0-8.1-2.1","battery-v0.2","","""event"",""trial"",""time""
""fullscreenenter"",""1"",""4254""
","
","
","""event"",""trial"",""time""
""fullscreenenter"",""1"",""4254""
","
","","","139.69999999925494","","","19","8972","4173","&#9776;","elianto","#3366ff99"," "," ","1","+10","[996.5]","1","0","1","","","","","","","",""
"pit-trial","31","357049","0.0-2.0-8.1-3.1","battery-v0.2","","""event"",""trial"",""time""
""fullscreenenter"",""1"",""4254""
","
","
","""event"",""trial"",""time""
""fullscreenenter"",""1"",""4254""
","
","","","233.80000000074506","","","19","8972","4173","&#9776;","elianto","#3366ff99"," "," ","1","0","[1090]","1","0","1","","","","","","","",""
"pit-trial","32","360277","0.0-2.0-8.1-4.1","battery-v0.2","","""event"",""trial"",""time""
""fullscreenenter"",""1"",""4254""
","
","
","""event"",""trial"",""time""
""fullscreenenter"",""1"",""4254""
","
","","","363.5","","","19","8972","4173","&#9776;","elianto","#3366ff99"," "," ","1","+10","[1216.3999999985099]","1","0","1","","","","","","","",""
"pit-trial","33","363572","0.0-2.0-8.2-0.2","battery-v0.2","","""event"",""trial"",""time""
""fullscreenenter"",""1"",""4254""
","
","
","""event"",""trial"",""time""
""fullscreenenter"",""1"",""4254""
","
","","","431.1000000014901","","","19","8972","4173","&#9776;","elianto","#3366ff99"," "," ","1","+10","[1286.7999999970198]","1","0","1","","","","","","","",""
"pit-trial","34","366837","0.0-2.0-8.2-1.2","battery-v0.2","","""event"",""trial"",""time""
""fullscreenenter"",""1"",""4254""
","
","
","""event"",""trial"",""time""
""fullscreenenter"",""1"",""4254""
","
","","","406","","","19","8972","4173","&#9776;","elianto","#3366ff99"," "," ","1","+10","[1256.4000000022352]","1","0","1","","","","","","","",""
"pit-trial","35","370095","0.0-2.0-8.2-2.2","battery-v0.2","","""event"",""trial"",""time""
""fullscreenenter"",""1"",""4254""
","
","
","""event"",""trial"",""time""
""fullscreenenter"",""1"",""4254""
","
","","","394.6000000014901","","","19","8972","4173","&#9776;","elianto","#3366ff99"," "," ","1","+10","[1245.2000000029802]","1","0","1","","","","","","","",""
"pit-trial","36","373333","0.0-2.0-8.2-3.2","battery-v0.2","","""event"",""trial"",""time""
""fullscreenenter"",""1"",""4254""
","
","
","""event"",""trial"",""time""
""fullscreenenter"",""1"",""4254""
","
","","","381.1000000014901","","","19","8972","4173","&#9776;","elianto","#3366ff99"," "," ","1","0","[1233.300000000745]","1","0","1","","","","","","","",""
"pit-trial","37","376383","0.0-2.0-8.2-4.2","battery-v0.2","","""event"",""trial"",""time""
""fullscreenenter"",""1"",""4254""
","
","
","""event"",""trial"",""time""
""fullscreenenter"",""1"",""4254""
","
","","","188","","","19","8972","4173","&#9776;","elianto","#3366ff99"," "," ","1","+10","[1039.199999999255]","1","0","1","","","","","","","",""
"call-function","38","376386","0.0-2.0-9.0","battery-v0.2","","""event"",""trial"",""time""
""fullscreenenter"",""1"",""4254""
","
","
","""event"",""trial"",""time""
""fullscreenenter"",""1"",""4254""
","
","","","","","","","","","","","","","","","","","","","","","","","","","","",""
"pit-instructions","39","420283","0.0-2.0-10.0","battery-v0.2","","""event"",""trial"",""time""
""fullscreenenter"",""1"",""4254""
","
","
","""event"",""trial"",""time""
""fullscreenenter"",""1"",""4254""
","
","","[{""page_index"":0,""viewing_time"":6304.599999997765},{""page_index"":1,""viewing_time"":7192.900000002235},{""page_index"":2,""viewing_time"":11413.89999999851},{""page_index"":3,""viewing_time"":11398.300000000745},{""page_index"":4,""viewing_time"":7585.89999999851}]","43895.800000000745","","","","","","","","","","","","","","","","","","","","","","","",""
"pit-trial","40","423809","0.0-2.0-11.0-0.0","battery-v0.2","","""event"",""trial"",""time""
""fullscreenenter"",""1"",""4254""
","
","
","""event"",""trial"",""time""
""fullscreenenter"",""1"",""4254""
","
","","","660.8999999985099","","","19","8972","4173","&#9761;","elianto","#3366ff99","-1"," ","0","0","[1514.1000000014901]","1","0","2","","","","","","","",""
"pit-trial","41","428681","0.0-2.0-11.0-1.0","battery-v0.2","","""event"",""trial"",""time""
""fullscreenenter"",""1"",""4254""
","
","
","""event"",""trial"",""time""
""fullscreenenter"",""1"",""4254""
","
","","","-1","","","19","8972","4173","&#9761;","elianto","#3366ff99","-1","-1","1","+10","[]","0","0","2","","","","","","","",""
"pit-trial","42","433549","0.0-2.0-11.0-2.0","battery-v0.2","","""event"",""trial"",""time""
""fullscreenenter"",""1"",""4254""
","
","
","""event"",""trial"",""time""
""fullscreenenter"",""1"",""4254""
","
","","","-1","","","19","8972","4173","&#9761;","elianto","#3366ff99","-1","-1","1","+10","[]","0","0","2","","","","","","","",""
"pit-trial","43","438414","0.0-2.0-11.0-3.0","battery-v0.2","","""event"",""trial"",""time""
""fullscreenenter"",""1"",""4254""
","
","
","""event"",""trial"",""time""
""fullscreenenter"",""1"",""4254""
","
","","","-1","","","19","8972","4173","&#9761;","elianto","#3366ff99","-1","-1","1","0","[]","0","0","2","","","","","","","",""
"pit-trial","44","443280","0.0-2.0-11.0-4.0","battery-v0.2","","""event"",""trial"",""time""
""fullscreenenter"",""1"",""4254""
","
","
","""event"",""trial"",""time""
""fullscreenenter"",""1"",""4254""
","
","","","-1","","","19","8972","4173","&#9761;","elianto","#3366ff99","-1","-1","1","+10","[]","0","0","2","","","","","","","",""
"pit-trial","45","448150","0.0-2.0-11.1-0.1","battery-v0.2","","""event"",""trial"",""time""
""fullscreenenter"",""1"",""4254""
","
","
","""event"",""trial"",""time""
""fullscreenenter"",""1"",""4254""
","
","","","-1","","","19","8972","4173","&#9761;","elianto","#3366ff99","-1","-1","1","+10","[]","0","0","2","","","","","","","",""
"pit-trial","46","453013","0.0-2.0-11.1-1.1","battery-v0.2","","""event"",""trial"",""time""
""fullscreenenter"",""1"",""4254""
","
","
","""event"",""trial"",""time""
""fullscreenenter"",""1"",""4254""
","
","","","-1","","","19","8972","4173","&#9761;","elianto","#3366ff99","-1","-1","1","+10","[]","0","0","2","","","","","","","",""
"pit-trial","47","457877","0.0-2.0-11.1-2.1","battery-v0.2","","""event"",""trial"",""time""
""fullscreenenter"",""1"",""4254""
","
","
","""event"",""trial"",""time""
""fullscreenenter"",""1"",""4254""
","
","","","-1","","","19","8972","4173","&#9761;","elianto","#3366ff99","-1","-1","1","+10","[]","0","0","2","","","","","","","",""
"pit-trial","48","462741","0.0-2.0-11.1-3.1","battery-v0.2","","""event"",""trial"",""time""
""fullscreenenter"",""1"",""4254""
","
","
","""event"",""trial"",""time""
""fullscreenenter"",""1"",""4254""
","
","","","-1","","","19","8972","4173","&#9761;","elianto","#3366ff99","-1","-1","1","0","[]","0","0","2","","","","","","","",""
"pit-trial","49","467605","0.0-2.0-11.1-4.1","battery-v0.2","","""event"",""trial"",""time""
""fullscreenenter"",""1"",""4254""
","
","
","""event"",""trial"",""time""
""fullscreenenter"",""1"",""4254""
","
","","","-1","","","19","8972","4173","&#9761;","elianto","#3366ff99","-1","-1","1","+10","[]","0","0","2","","","","","","","",""
"pit-trial","50","472472","0.0-2.0-11.2-0.2","battery-v0.2","","""event"",""trial"",""time""
""fullscreenenter"",""1"",""4254""
","
","
","""event"",""trial"",""time""
""fullscreenenter"",""1"",""4254""
","
","","","-1","","","19","8972","4173","&#9761;","elianto","#3366ff99","-1","-1","1","+10","[]","0","0","2","","","","","","","",""
"pit-trial","51","477344","0.0-2.0-11.2-1.2","battery-v0.2","","""event"",""trial"",""time""
""fullscreenenter"",""1"",""4254""
","
","
","""event"",""trial"",""time""
""fullscreenenter"",""1"",""4254""
","
","","","-1","","","19","8972","4173","&#9761;","elianto","#3366ff99","-1","-1","1","+10","[]","0","0","2","","","","","","","",""
"pit-trial","52","482213","0.0-2.0-11.2-2.2","battery-v0.2","","""event"",""trial"",""time""
""fullscreenenter"",""1"",""4254""
","
","
","""event"",""trial"",""time""
""fullscreenenter"",""1"",""4254""
","
","","","-1","","","19","8972","4173","&#9761;","elianto","#3366ff99","-1","-1","1","+10","[]","0","0","2","","","","","","","",""
"pit-trial","53","487077","0.0-2.0-11.2-3.2","battery-v0.2","","""event"",""trial"",""time""
""fullscreenenter"",""1"",""4254""
","
","
","""event"",""trial"",""time""
""fullscreenenter"",""1"",""4254""
","
","","","-1","","","19","8972","4173","&#9761;","elianto","#3366ff99","-1","-1","1","0","[]","0","0","2","","","","","","","",""
"pit-trial","54","491941","0.0-2.0-11.2-4.2","battery-v0.2","","""event"",""trial"",""time""
""fullscreenenter"",""1"",""4254""
","
","
","""event"",""trial"",""time""
""fullscreenenter"",""1"",""4254""
","
","","","-1","","","19","8972","4173","&#9761;","elianto","#3366ff99","-1","-1","1","+10","[]","0","0","2","","","","","","","",""
"pit-trial","55","496806","0.0-2.0-11.3-0.3","battery-v0.2","","""event"",""trial"",""time""
""fullscreenenter"",""1"",""4254""
","
","
","""event"",""trial"",""time""
""fullscreenenter"",""1"",""4254""
","
","","","-1","","","19","8972","4173","&#9761;","elianto","#3366ff99","-1","-1","1","+10","[]","0","0","2","","","","","","","",""
"pit-trial","56","501669","0.0-2.0-11.3-1.3","battery-v0.2","","""event"",""trial"",""time""
""fullscreenenter"",""1"",""4254""
","
","
","""event"",""trial"",""time""
""fullscreenenter"",""1"",""4254""
","
","","","-1","","","19","8972","4173","&#9761;","elianto","#3366ff99","-1","-1","1","+10","[]","0","0","2","","","","","","","",""
"pit-trial","57","506533","0.0-2.0-11.3-2.3","battery-v0.2","","""event"",""trial"",""time""
""fullscreenenter"",""1"",""4254""
","
","
","""event"",""trial"",""time""
""fullscreenenter"",""1"",""4254""
","
","","","-1","","","19","8972","4173","&#9761;","elianto","#3366ff99","-1","-1","1","+10","[]","0","0","2","","","","","","","",""
"pit-trial","58","511401","0.0-2.0-11.3-3.3","battery-v0.2","","""event"",""trial"",""time""
""fullscreenenter"",""1"",""4254""
","
","
","""event"",""trial"",""time""
""fullscreenenter"",""1"",""4254""
","
","","","-1","","","19","8972","4173","&#9761;","elianto","#3366ff99","-1","-1","1","0","[]","0","0","2","","","","","","","",""
"pit-trial","59","516271","0.0-2.0-11.3-4.3","battery-v0.2","","""event"",""trial"",""time""
""fullscreenenter"",""1"",""4254""
","
","
","""event"",""trial"",""time""
""fullscreenenter"",""1"",""4254""
","
","","","-1","","","19","8972","4173","&#9761;","elianto","#3366ff99","-1","-1","1","+10","[]","0","0","2","","","","","","","",""
"call-function","60","516273","0.0-2.0-12.0","battery-v0.2","","""event"",""trial"",""time""
""fullscreenenter"",""1"",""4254""
","
","
","""event"",""trial"",""time""
""fullscreenenter"",""1"",""4254""
","
","","","","","","","","","","","","","","","","","","","","","","","","","","",""
"pit-instructions","61","548679","0.0-2.0-13.0","battery-v0.2","","""event"",""trial"",""time""
""fullscreenenter"",""1"",""4254""
","
","
","""event"",""trial"",""time""
""fullscreenenter"",""1"",""4254""
","
","","[{""page_index"":0,""viewing_time"":5346.300000000745},{""page_index"":1,""viewing_time"":7735.300000000745},{""page_index"":2,""viewing_time"":3740.599999997765},{""page_index"":3,""viewing_time"":10381.60000000149},{""page_index"":4,""viewing_time"":5200.39999999851}]","32404.800000000745","","","","","","","","","","","","","","","","","","","","","","","",""
"pit-trial","62","552078","0.0-2.0-14.0-0.0","battery-v0.2","","""event"",""trial"",""time""
""fullscreenenter"",""1"",""4254""
","
","
","""event"",""trial"",""time""
""fullscreenenter"",""1"",""4254""
","
","","","538.6000000014901","","","19","8972","4173","&#9826;","elianto","#f73b6a7A","-1"," ","0","-10","[1392]","1","0","3","","","","","","","",""
"pit-trial","63","556946","0.0-2.0-14.0-1.0","battery-v0.2","","""event"",""trial"",""time""
""fullscreenenter"",""1"",""4254""
","
","
","""event"",""trial"",""time""
""fullscreenenter"",""1"",""4254""
","
","","","-1","","","19","8972","4173","&#9826;","elianto","#f73b6a7A","-1","-1","1","0","[]","0","0","3","","","","","","","",""
"pit-trial","64","561818","0.0-2.0-14.0-2.0","battery-v0.2","","""event"",""trial"",""time""
""fullscreenenter"",""1"",""4254""
","
","
","""event"",""trial"",""time""
""fullscreenenter"",""1"",""4254""
","
","","","-1","","","19","8972","4173","&#9826;","elianto","#f73b6a7A","-1","-1","1","0","[]","0","0","3","","","","","","","",""
"pit-trial","65","566686","0.0-2.0-14.0-3.0","battery-v0.2","","""event"",""trial"",""time""
""fullscreenenter"",""1"",""4254""
","
","
","""event"",""trial"",""time""
""fullscreenenter"",""1"",""4254""
","
","","","-1","","","19","8972","4173","&#9826;","elianto","#f73b6a7A","-1","-1","1","-10","[]","0","0","3","","","","","","","",""
"pit-trial","66","570006","0.0-2.0-14.0-4.0","battery-v0.2","","""event"",""trial"",""time""
""fullscreenenter"",""1"",""4254""
","
","
","""event"",""trial"",""time""
""fullscreenenter"",""1"",""4254""
","
","","","454.69999999925494","","","19","8972","4173","&#9826;","elianto","#f73b6a7A","-1"," ","0","-10","[1308.800000000745]","1","0","3","","","","","","","",""
"pit-trial","67","574874","0.0-2.0-14.1-0.1","battery-v0.2","","""event"",""trial"",""time""
""fullscreenenter"",""1"",""4254""
","
","
","""event"",""trial"",""time""
""fullscreenenter"",""1"",""4254""
","
","","","-1","","","19","8972","4173","&#9826;","elianto","#f73b6a7A","-1","-1","1","0","[]","0","0","3","","","","","","","",""
"pit-trial","68","579745","0.0-2.0-14.1-1.1","battery-v0.2","","""event"",""trial"",""time""
""fullscreenenter"",""1"",""4254""
","
","
","""event"",""trial"",""time""
""fullscreenenter"",""1"",""4254""
","
","","","-1","","","19","8972","4173","&#9826;","elianto","#f73b6a7A","-1","-1","1","0","[]","0","0","3","","","","","","","",""
"pit-trial","69","584614","0.0-2.0-14.1-2.1","battery-v0.2","","""event"",""trial"",""time""
""fullscreenenter"",""1"",""4254""
","
","
","""event"",""trial"",""time""
""fullscreenenter"",""1"",""4254""
","
","","","-1","","","19","8972","4173","&#9826;","elianto","#f73b6a7A","-1","-1","1","0","[]","0","0","3","","","","","","","",""
"pit-trial","70","589478","0.0-2.0-14.1-3.1","battery-v0.2","","""event"",""trial"",""time""
""fullscreenenter"",""1"",""4254""
","
","
","""event"",""trial"",""time""
""fullscreenenter"",""1"",""4254""
","
","","","-1","","","19","8972","4173","&#9826;","elianto","#f73b6a7A","-1","-1","1","-10","[]","0","0","3","","","","","","","",""
"pit-trial","71","594342","0.0-2.0-14.1-4.1","battery-v0.2","","""event"",""trial"",""time""
""fullscreenenter"",""1"",""4254""
","
","
","""event"",""trial"",""time""
""fullscreenenter"",""1"",""4254""
","
","","","-1","","","19","8972","4173","&#9826;","elianto","#f73b6a7A","-1","-1","1","0","[]","0","0","3","","","","","","","",""
"pit-trial","72","599206","0.0-2.0-14.2-0.2","battery-v0.2","","""event"",""trial"",""time""
""fullscreenenter"",""1"",""4254""
","
","
","""event"",""trial"",""time""
""fullscreenenter"",""1"",""4254""
","
","","","-1","","","19","8972","4173","&#9826;","elianto","#f73b6a7A","-1","-1","1","0","[]","0","0","3","","","","","","","",""
"pit-trial","73","604070","0.0-2.0-14.2-1.2","battery-v0.2","","""event"",""trial"",""time""
""fullscreenenter"",""1"",""4254""
","
","
","""event"",""trial"",""time""
""fullscreenenter"",""1"",""4254""
","
","","","-1","","","19","8972","4173","&#9826;","elianto","#f73b6a7A","-1","-1","1","0","[]","0","0","3","","","","","","","",""
"pit-trial","74","608938","0.0-2.0-14.2-2.2","battery-v0.2","","""event"",""trial"",""time""
""fullscreenenter"",""1"",""4254""
","
","
","""event"",""trial"",""time""
""fullscreenenter"",""1"",""4254""
","
","","","-1","","","19","8972","4173","&#9826;","elianto","#f73b6a7A","-1","-1","1","0","[]","0","0","3","","","","","","","",""
"pit-trial","75","613810","0.0-2.0-14.2-3.2","battery-v0.2","","""event"",""trial"",""time""
""fullscreenenter"",""1"",""4254""
","
","
","""event"",""trial"",""time""
""fullscreenenter"",""1"",""4254""
","
","","","-1","","","19","8972","4173","&#9826;","elianto","#f73b6a7A","-1","-1","1","-10","[]","0","0","3","","","","","","","",""
"pit-trial","76","618678","0.0-2.0-14.2-4.2","battery-v0.2","","""event"",""trial"",""time""
""fullscreenenter"",""1"",""4254""
","
","
","""event"",""trial"",""time""
""fullscreenenter"",""1"",""4254""
","
","","","-1","","","19","8972","4173","&#9826;","elianto","#f73b6a7A","-1","-1","1","0","[]","0","0","3","","","","","","","",""
"pit-trial","77","623543","0.0-2.0-14.3-0.3","battery-v0.2","","""event"",""trial"",""time""
""fullscreenenter"",""1"",""4254""
","
","
","""event"",""trial"",""time""
""fullscreenenter"",""1"",""4254""
","
","","","-1","","","19","8972","4173","&#9826;","elianto","#f73b6a7A","-1","-1","1","0","[]","0","0","3","","","","","","","",""
"pit-trial","78","628410","0.0-2.0-14.3-1.3","battery-v0.2","","""event"",""trial"",""time""
""fullscreenenter"",""1"",""4254""
","
","
","""event"",""trial"",""time""
""fullscreenenter"",""1"",""4254""
","
","","","-1","","","19","8972","4173","&#9826;","elianto","#f73b6a7A","-1","-1","1","0","[]","0","0","3","","","","","","","",""
"pit-trial","79","633281","0.0-2.0-14.3-2.3","battery-v0.2","","""event"",""trial"",""time""
""fullscreenenter"",""1"",""4254""
","
","
","""event"",""trial"",""time""
""fullscreenenter"",""1"",""4254""
","
","","","-1","","","19","8972","4173","&#9826;","elianto","#f73b6a7A","-1","-1","1","0","[]","0","0","3","","","","","","","",""
"pit-trial","80","638150","0.0-2.0-14.3-3.3","battery-v0.2","","""event"",""trial"",""time""
""fullscreenenter"",""1"",""4254""
","
","
","""event"",""trial"",""time""
""fullscreenenter"",""1"",""4254""
","
","","","-1","","","19","8972","4173","&#9826;","elianto","#f73b6a7A","-1","-1","1","-10","[]","0","0","3","","","","","","","",""
"pit-trial","81","643014","0.0-2.0-14.3-4.3","battery-v0.2","","""event"",""trial"",""time""
""fullscreenenter"",""1"",""4254""
","
","
","""event"",""trial"",""time""
""fullscreenenter"",""1"",""4254""
","
","","","-1","","","19","8972","4173","&#9826;","elianto","#f73b6a7A","-1","-1","1","0","[]","0","0","3","","","","","","","",""
"call-function","82","643017","0.0-2.0-15.0","battery-v0.2","","""event"",""trial"",""time""
""fullscreenenter"",""1"",""4254""
","
","
","""event"",""trial"",""time""
""fullscreenenter"",""1"",""4254""
","
","","","","","","","","","","","","","","","","","","","","","","","","","","",""
"pit-instructions","83","667635","0.0-2.0-16.0","battery-v0.2","","""event"",""trial"",""time""
""fullscreenenter"",""1"",""4254""
","
","
","""event"",""trial"",""time""
""fullscreenenter"",""1"",""4254""
","
","","[{""page_index"":0,""viewing_time"":6482.89999999851},{""page_index"":1,""viewing_time"":8403.199999999255},{""page_index"":2,""viewing_time"":4389},{""page_index"":3,""viewing_time"":5342.199999999255}]","24617.79999999702","","","","","","","","","","","","","","","","","","","","","","","",""
"pit-trial","84","670986","0.0-2.0-17.0-0.0","battery-v0.2","","""event"",""trial"",""time""
""fullscreenenter"",""1"",""4254""
","
","
","""event"",""trial"",""time""
""fullscreenenter"",""1"",""4254""
","
","","","489","","","19","8972","4173","&#9789;","elianto","#f73b6a7A"," "," ","1","0","[1339.4000000022352]","1","0","4","","","","","","","",""
"pit-trial","85","674242","0.0-2.0-17.0-1.0","battery-v0.2","","""event"",""trial"",""time""
""fullscreenenter"",""1"",""4254""
","
","
","""event"",""trial"",""time""
""fullscreenenter"",""1"",""4254""
","
","","","379.6000000014901","","","19","8972","4173","&#9789;","elianto","#f73b6a7A"," "," ","1","0","[1240.3999999985099]","1","0","4","","","","","","","",""
"pit-trial","86","677462","0.0-2.0-17.0-2.0","battery-v0.2","","""event"",""trial"",""time""
""fullscreenenter"",""1"",""4254""
","
","
","""event"",""trial"",""time""
""fullscreenenter"",""1"",""4254""
","
","","","355.19999999925494","","","19","8972","4173","&#9789;","elianto","#f73b6a7A"," "," ","1","0","[1212.5]","1","0","4","","","","","","","",""
"pit-trial","87","680543","0.0-2.0-17.0-3.0","battery-v0.2","","""event"",""trial"",""time""
""fullscreenenter"",""1"",""4254""
","
","
","""event"",""trial"",""time""
""fullscreenenter"",""1"",""4254""
","
","","","215.20000000298023","","","19","8972","4173","&#9789;","elianto","#f73b6a7A"," "," ","1","-10","[1071.1000000014901]","1","0","4","","","","","","","",""
"pit-trial","88","683927","0.0-2.0-17.0-4.0","battery-v0.2","","""event"",""trial"",""time""
""fullscreenenter"",""1"",""4254""
","
","
","""event"",""trial"",""time""
""fullscreenenter"",""1"",""4254""
","
","","","516.3999999985099","","","19","8972","4173","&#9789;","elianto","#f73b6a7A"," "," ","1","0","[1372.3999999985099]","1","0","4","","","","","","","",""
"pit-trial","89","687294","0.0-2.0-17.1-0.1","battery-v0.2","","""event"",""trial"",""time""
""fullscreenenter"",""1"",""4254""
","
","
","""event"",""trial"",""time""
""fullscreenenter"",""1"",""4254""
","
","","","503.8999999985099","","","19","8972","4173","&#9789;","elianto","#f73b6a7A"," "," ","1","0","[1359.0999999977648]","1","0","4","","","","","","","",""
"pit-trial","90","690586","0.0-2.0-17.1-1.1","battery-v0.2","","""event"",""trial"",""time""
""fullscreenenter"",""1"",""4254""
","
","
","""event"",""trial"",""time""
""fullscreenenter"",""1"",""4254""
","
","","","421.69999999925494","","","19","8972","4173","&#9789;","elianto","#f73b6a7A"," "," ","1","0","[1277]","1","0","4","","","","","","","",""
"pit-trial","91","693870","0.0-2.0-17.1-2.1","battery-v0.2","","""event"",""trial"",""time""
""fullscreenenter"",""1"",""4254""
","
","
","""event"",""trial"",""time""
""fullscreenenter"",""1"",""4254""
","
","","","425.80000000074506","","","19","8972","4173","&#9789;","elianto","#f73b6a7A"," "," ","1","0","[1276.5]","1","0","4","","","","","","","",""
"pit-trial","92","697128","0.0-2.0-17.1-3.1","battery-v0.2","","""event"",""trial"",""time""
""fullscreenenter"",""1"",""4254""
","
","
","""event"",""trial"",""time""
""fullscreenenter"",""1"",""4254""
","
","","","397.3999999985099","","","19","8972","4173","&#9789;","elianto","#f73b6a7A"," "," ","1","-10","[1250.800000000745]","1","0","4","","","","","","","",""
"pit-trial","93","700680","0.0-2.0-17.1-4.1","battery-v0.2","","""event"",""trial"",""time""
""fullscreenenter"",""1"",""4254""
","
","
","""event"",""trial"",""time""
""fullscreenenter"",""1"",""4254""
","
","","","690.2999999970198","","","19","8972","4173","&#9789;","elianto","#f73b6a7A"," "," ","1","0","[1540.699999999255]","1","0","4","","","","","","","",""
"pit-trial","94","704040","0.0-2.0-17.2-0.2","battery-v0.2","","""event"",""trial"",""time""
""fullscreenenter"",""1"",""4254""
","
","
","""event"",""trial"",""time""
""fullscreenenter"",""1"",""4254""
","
","","","501","","","19","8972","4173","&#9789;","elianto","#f73b6a7A"," "," ","1","0","[1353.1000000014901]","1","0","4","","","","","","","",""
"pit-trial","95","707544","0.0-2.0-17.2-1.2","battery-v0.2","","""event"",""trial"",""time""
""fullscreenenter"",""1"",""4254""
","
","
","""event"",""trial"",""time""
""fullscreenenter"",""1"",""4254""
","
","","","646.1999999992549","","","19","8972","4173","&#9789;","elianto","#f73b6a7A"," "," ","1","0","[1497.4000000022352]","1","0","4","","","","","","","",""
"pit-trial","96","711393","0.0-2.0-17.2-2.2","battery-v0.2","","""event"",""trial"",""time""
""fullscreenenter"",""1"",""4254""
","
","
","""event"",""trial"",""time""
""fullscreenenter"",""1"",""4254""
","
","","","985","","","19","8972","4173","&#9789;","elianto","#f73b6a7A"," "," ","1","0","[1840.8999999985099]","1","0","4","","","","","","","",""
"pit-trial","97","714754","0.0-2.0-17.2-3.2","battery-v0.2","","""event"",""trial"",""time""
""fullscreenenter"",""1"",""4254""
","
","
","""event"",""trial"",""time""
""fullscreenenter"",""1"",""4254""
","
","","","494.8999999985099","","","19","8972","4173","&#9789;","elianto","#f73b6a7A"," "," ","1","-10","[1347.6000000014901]","1","0","4","","","","","","","",""
"pit-trial","98","718061","0.0-2.0-17.2-4.2","battery-v0.2","","""event"",""trial"",""time""
""fullscreenenter"",""1"",""4254""
","
","
","""event"",""trial"",""time""
""fullscreenenter"",""1"",""4254""
","
","","","439.69999999925494","","","19","8972","4173","&#9789;","elianto","#f73b6a7A"," "," ","1","0","[1300.699999999255]","1","0","4","","","","","","","",""
"pit-trial","99","721410","0.0-2.0-17.3-0.3","battery-v0.2","","""event"",""trial"",""time""
""fullscreenenter"",""1"",""4254""
","
","
","""event"",""trial"",""time""
""fullscreenenter"",""1"",""4254""
","
","","","476.3999999985099","","","19","8972","4173","&#9789;","elianto","#f73b6a7A"," "," ","1","0","[1332.199999999255]","1","0","4","","","","","","","",""
"pit-trial","100","724685","0.0-2.0-17.3-1.3","battery-v0.2","","""event"",""trial"",""time""
""fullscreenenter"",""1"",""4254""
","
","
","""event"",""trial"",""time""
""fullscreenenter"",""1"",""4254""
","
","","","414.19999999925494","","","19","8972","4173","&#9789;","elianto","#f73b6a7A"," "," ","1","0","[1271.5]","1","0","4","","","","","","","",""
"pit-trial","101","728104","0.0-2.0-17.3-2.3","battery-v0.2","","""event"",""trial"",""time""
""fullscreenenter"",""1"",""4254""
","
","
","""event"",""trial"",""time""
""fullscreenenter"",""1"",""4254""
","
","","","558.3000000007451","","","19","8972","4173","&#9789;","elianto","#f73b6a7A"," "," ","1","0","[1408.699999999255]","1","0","4","","","","","","","",""
"pit-trial","102","731360","0.0-2.0-17.3-3.3","battery-v0.2","","""event"",""trial"",""time""
""fullscreenenter"",""1"",""4254""
","
","
","""event"",""trial"",""time""
""fullscreenenter"",""1"",""4254""
","
","","","397","","","19","8972","4173","&#9789;","elianto","#f73b6a7A"," "," ","1","-10","[1249.6000000014901]","1","0","4","","","","","","","",""
"pit-trial","103","734638","0.0-2.0-17.3-4.3","battery-v0.2","","""event"",""trial"",""time""
""fullscreenenter"",""1"",""4254""
","
","
","""event"",""trial"",""time""
""fullscreenenter"",""1"",""4254""
","
","","","411.8999999985099","","","19","8972","4173","&#9789;","elianto","#f73b6a7A"," "," ","1","0","[1269.7999999970198]","1","0","4","","","","","","","",""
"call-function","104","734640","0.0-2.0-18.0","battery-v0.2","","""event"",""trial"",""time""
""fullscreenenter"",""1"",""4254""
","
","
","""event"",""trial"",""time""
""fullscreenenter"",""1"",""4254""
","
","","","","","","","","","","","","","","","","","","","","","","","","","","",""
"pit-instructions","105","801603","0.0-2.0-19.0","battery-v0.2","","""event"",""trial"",""time""
""fullscreenenter"",""1"",""4254""
","
","
","""event"",""trial"",""time""
""fullscreenenter"",""1"",""4254""
","
","","[{""page_index"":0,""viewing_time"":7237.199999999255},{""page_index"":1,""viewing_time"":6713.900000002235},{""page_index"":2,""viewing_time"":8641.199999999255},{""page_index"":3,""viewing_time"":8287.39999999851},{""page_index"":4,""viewing_time"":8460.70000000298},{""page_index"":5,""viewing_time"":8406.699999999255},{""page_index"":6,""viewing_time"":8368},{""page_index"":7,""viewing_time"":6624.199999999255},{""page_index"":8,""viewing_time"":4221}]","66961","","","","","","","","","","","","","","","","","","","","","","","",""
"pit-comprehension","106","809450","0.0-2.0-20.0-0.0","battery-v0.2","","""event"",""trial"",""time""
""fullscreenenter"",""1"",""4254""
","
","
","""event"",""trial"",""time""
""fullscreenenter"",""1"",""4254""
","
","","","7842.699999999255","[""SPACE""]","0","19","8972","4173","","","","","","","","","","","","","","","","","","",""
"pit-instructions","107","813183","0.0-2.0-20.0-1.0","battery-v0.2","","""event"",""trial"",""time""
""fullscreenenter"",""1"",""4254""
","
","
","""event"",""trial"",""time""
""fullscreenenter"",""1"",""4254""
","
","","[{""page_index"":0,""viewing_time"":3702.699999999255}]","3703.199999999255","","","","","","","","","","","","","","","","","","","","","","","",""
"pit-comprehension","108","820072","0.0-2.0-21.0-0.0","battery-v0.2","","""event"",""trial"",""time""
""fullscreenenter"",""1"",""4254""
","
","
","""event"",""trial"",""time""
""fullscreenenter"",""1"",""4254""
","
","","","6884.800000000745","[""10""]","0","19","8972","4173","","","","","","","","","","","","","","","","","","",""
"pit-instructions","109","822120","0.0-2.0-21.0-1.0","battery-v0.2","","""event"",""trial"",""time""
""fullscreenenter"",""1"",""4254""
","
","
","""event"",""trial"",""time""
""fullscreenenter"",""1"",""4254""
","
","","[{""page_index"":0,""viewing_time"":2020.300000000745}]","2020.9000000022352","","","","","","","","","","","","","","","","","","","","","","","",""
"pit-comprehension","110","829667","0.0-2.0-22.0-0.0","battery-v0.2","","""event"",""trial"",""time""
""fullscreenenter"",""1"",""4254""
","
","
","""event"",""trial"",""time""
""fullscreenenter"",""1"",""4254""
","
","","","7541.599999997765","[""0""]","0","19","8972","4173","","","","","","","","","","","","","","","","","","",""
"pit-instructions","111","832016","0.0-2.0-22.0-1.0","battery-v0.2","","""event"",""trial"",""time""
""fullscreenenter"",""1"",""4254""
","
","
","""event"",""trial"",""time""
""fullscreenenter"",""1"",""4254""
","
","","[{""page_index"":0,""viewing_time"":2319.300000000745}]","2319.60000000149","","","","","","","","","","","","","","","","","","","","","","","",""
"pit-comprehension","112","840427","0.0-2.0-23.0-0.0","battery-v0.2","","""event"",""trial"",""time""
""fullscreenenter"",""1"",""4254""
","
","
","""event"",""trial"",""time""
""fullscreenenter"",""1"",""4254""
","
","","","8408","[""True""]","0","19","8972","4173","","","","","","","","","","","","","","","","","","",""
"pit-instructions","113","841915","0.0-2.0-23.0-1.0","battery-v0.2","","""event"",""trial"",""time""
""fullscreenenter"",""1"",""4254""
","
","
","""event"",""trial"",""time""
""fullscreenenter"",""1"",""4254""
","
","","[{""page_index"":0,""viewing_time"":1456.300000000745}]","1456.699999999255","","","","","","","","","","","","","","","","","","","","","","","",""
"pit-comprehension","114","849278","0.0-2.0-24.0-0.0","battery-v0.2","","""event"",""trial"",""time""
""fullscreenenter"",""1"",""4254""
","
","
","""event"",""trial"",""time""
""fullscreenenter"",""1"",""4254""
","
","","","7358.699999999255","[""True""]","0","19","8972","4173","","","","","","","","","","","","","","","","","","",""
"pit-instructions","115","850457","0.0-2.0-24.0-1.0","battery-v0.2","","""event"",""trial"",""time""
""fullscreenenter"",""1"",""4254""
","
","
","""event"",""trial"",""time""
""fullscreenenter"",""1"",""4254""
","
","","[{""page_index"":0,""viewing_time"":1148.2999999970198}]","1148.7999999970198","","","","","","","","","","","","","","","","","","","","","","","",""
"pit-comprehension","116","856830","0.0-2.0-25.0-0.0","battery-v0.2","","""event"",""trial"",""time""
""fullscreenenter"",""1"",""4254""
","
","
","""event"",""trial"",""time""
""fullscreenenter"",""1"",""4254""
","
","","","6369","[""True""]","0","19","8972","4173","","","","","","","","","","","","","","","","","","",""
"pit-instructions","117","858279","0.0-2.0-25.0-1.0","battery-v0.2","","""event"",""trial"",""time""
""fullscreenenter"",""1"",""4254""
","
","
","""event"",""trial"",""time""
""fullscreenenter"",""1"",""4254""
","
","","[{""page_index"":0,""viewing_time"":1420.3999999985099}]","1420.8999999985099","","","","","","","","","","","","","","","","","","","","","","","",""
"pit-comprehension","118","862981","0.0-2.0-26.0-0.0","battery-v0.2","","""event"",""trial"",""time""
""fullscreenenter"",""1"",""4254""
","
","
","""event"",""trial"",""time""
""fullscreenenter"",""1"",""4254""
","
","","","4697.800000000745","[""False""]","0","19","8972","4173","","","","","","","","","","","","","","","","","","",""
"pit-instructions","119","864149","0.0-2.0-26.0-1.0","battery-v0.2","","""event"",""trial"",""time""
""fullscreenenter"",""1"",""4254""
","
","
","""event"",""trial"",""time""
""fullscreenenter"",""1"",""4254""
","
","","[{""page_index"":0,""viewing_time"":1137.4000000022352}]","1137.6000000014901","","","","","","","","","","","","","","","","","","","","","","","",""
"pit-instructions","120","882891","0.0-3.0","battery-v0.2","","""event"",""trial"",""time""
""fullscreenenter"",""1"",""4254""
","
","
","""event"",""trial"",""time""
""fullscreenenter"",""1"",""4254""
","
","","[{""page_index"":0,""viewing_time"":6325.10000000149},{""page_index"":1,""viewing_time"":5048.79999999702},{""page_index"":2,""viewing_time"":7365}]","18739.5","","","","","","","","","","","","","","","","","","","","","","","",""
"pit-trial","121","886568","0.0-4.0","battery-v0.2","","""event"",""trial"",""time""
""fullscreenenter"",""1"",""4254""
","
","
","""event"",""trial"",""time""
""fullscreenenter"",""1"",""4254""
","
","","","814.4000000022352","","","19","8972","4173","&#9752;","elianto","#f73b6a7A"," "," ","1","0","[1667.6000000014901]","1","1","","","8972","1","3","3","lose","go","0"
"pit-trial","122","890169","0.0-5.0","battery-v0.2","","""event"",""trial"",""time""
""fullscreenenter"",""1"",""4254""
","
","
","""event"",""trial"",""time""
""fullscreenenter"",""1"",""4254""
","
","","","737.6999999992549","","","19","8972","4173","&#9730;","elianto","#3366ff99"," "," ","1","+10","[1588.1000000014901]","1","1","","","8972","2","1","1","win","go","0"
"pit-trial","123","893760","0.0-6.0","battery-v0.2","","""event"",""trial"",""time""
""fullscreenenter"",""1"",""4254""
","
","
","""event"",""trial"",""time""
""fullscreenenter"",""1"",""4254""
","
","","","724.9000000022352","","","19","8972","4173","&#9733;","elianto","#3366ff99","-1"," ","0","0","[1583.800000000745]","1","1","","","8972","3","2","2","win","no-go","0"
"pit-trial","124","897354","0.0-7.0","battery-v0.2","","""event"",""trial"",""time""
""fullscreenenter"",""1"",""4254""
","
","
","""event"",""trial"",""time""
""fullscreenenter"",""1"",""4254""
","
","","","724.2999999970198","","","19","8972","4173","&#9728;","elianto","#f73b6a7A","-1"," ","0","-10","[1580]","1","1","","","8972","4","0","4","lose","no-go","0"
"pit-trial","125","902227","0.0-8.0","battery-v0.2","","""event"",""trial"",""time""
""fullscreenenter"",""1"",""4254""
","
","
","""event"",""trial"",""time""
""fullscreenenter"",""1"",""4254""
","
","","","-1","","","19","8972","4173","&#9733;","elianto","#3366ff99","-1","-1","1","0","[]","0","1","","","8972","5","2","2","win","no-go","1"
"pit-trial","126","905769","0.0-9.0","battery-v0.2","","""event"",""trial"",""time""
""fullscreenenter"",""1"",""4254""
","
","
","""event"",""trial"",""time""
""fullscreenenter"",""1"",""4254""
","
","","","677.5999999977648","","","19","8972","4173","&#9730;","elianto","#3366ff99"," "," ","1","+10","[1535.4000000022352]","1","1","","","8972","6","1","1","win","go","0"
"pit-trial","127","909307","0.0-10.0","battery-v0.2","","""event"",""trial"",""time""
""fullscreenenter"",""1"",""4254""
","
","
","""event"",""trial"",""time""
""fullscreenenter"",""1"",""4254""
","
","","","672.6999999992549","","","19","8972","4173","&#9752;","elianto","#f73b6a7A"," "," ","1","0","[1523.0999999977648]","1","1","","","8972","7","3","3","lose","go","0"
"pit-trial","128","913627","0.0-11.0","battery-v0.2","","""event"",""trial"",""time""
""fullscreenenter"",""1"",""4254""
","
","
","""event"",""trial"",""time""
""fullscreenenter"",""1"",""4254""
","
","","","1448.7999999970198","","","19","8972","4173","&#9728;","elianto","#f73b6a7A","-1"," ","0","-10","[2307.5]","1","1","","","8972","8","0","4","lose","no-go","0"
"pit-trial","129","918495","0.0-12.0","battery-v0.2","","""event"",""trial"",""time""
""fullscreenenter"",""1"",""4254""
","
","
","""event"",""trial"",""time""
""fullscreenenter"",""1"",""4254""
","
","","","-1","","","19","8972","4173","&#9728;","elianto","#f73b6a7A","-1","-1","1","-10","[]","0","1","","","8972","9","0","4","lose","no-go","1"
"pit-trial","130","923360","0.0-13.0","battery-v0.2","","""event"",""trial"",""time""
""fullscreenenter"",""1"",""4254""
","
","
","""event"",""trial"",""time""
""fullscreenenter"",""1"",""4254""
","
","","","-1","","","19","8972","4173","&#9733;","elianto","#3366ff99","-1","-1","1","0","[]","0","1","","","8972","10","2","2","win","no-go","1"
"pit-trial","131","927151","0.0-14.0","battery-v0.2","","""event"",""trial"",""time""
""fullscreenenter"",""1"",""4254""
","
","
","""event"",""trial"",""time""
""fullscreenenter"",""1"",""4254""
","
","","","925.5","","","19","8972","4173","&#9730;","elianto","#3366ff99"," "," ","1","+10","[1780.800000000745,3735.300000000745]","2","1","","","8972","11","1","1","win","go","0"
"pit-trial","132","930490","0.0-15.0","battery-v0.2","","""event"",""trial"",""time""
""fullscreenenter"",""1"",""4254""
","
","
","""event"",""trial"",""time""
""fullscreenenter"",""1"",""4254""
","
","","","477.8999999985099","","","19","8972","4173","&#9752;","elianto","#f73b6a7A"," "," ","1","0","[1329.3999999985099]","1","1","","","8972","12","3","3","lose","go","0"
"pit-trial","133","934027","0.0-16.0","battery-v0.2","","""event"",""trial"",""time""
""fullscreenenter"",""1"",""4254""
","
","
","""event"",""trial"",""time""
""fullscreenenter"",""1"",""4254""
","
","","","667.1999999992549","","","19","8972","4173","&#9728;","elianto","#f73b6a7A","-1"," ","0","-10","[1527]","1","1","","","8972","13","0","4","lose","no-go","0"
"pit-trial","134","937610","0.0-17.0","battery-v0.2","","""event"",""trial"",""time""
""fullscreenenter"",""1"",""4254""
","
","
","""event"",""trial"",""time""
""fullscreenenter"",""1"",""4254""
","
","","","712.6999999992549","","","19","8972","4173","&#9733;","elianto","#3366ff99","-1"," ","0","+10","[1571.8999999985099]","1","1","","","8972","14","2","2","win","no-go","1"
"pit-trial","135","941386","0.0-18.0","battery-v0.2","","""event"",""trial"",""time""
""fullscreenenter"",""1"",""4254""
","
","
","""event"",""trial"",""time""
""fullscreenenter"",""1"",""4254""
","
","","","903.1999999992549","","","19","8972","4173","&#9752;","elianto","#f73b6a7A"," "," ","1","-10","[1762.5999999977648]","1","1","","","8972","15","3","3","lose","go","1"
"pit-trial","136","944863","0.0-19.0","battery-v0.2","","""event"",""trial"",""time""
""fullscreenenter"",""1"",""4254""
","
","
","""event"",""trial"",""time""
""fullscreenenter"",""1"",""4254""
","
","","","606.9000000022352","","","19","8972","4173","&#9730;","elianto","#3366ff99"," "," ","1","+10","[1467.5]","1","1","","","8972","16","1","1","win","go","0"
"pit-trial","137","948435","0.0-20.0","battery-v0.2","","""event"",""trial"",""time""
""fullscreenenter"",""1"",""4254""
","
","
","""event"",""trial"",""time""
""fullscreenenter"",""1"",""4254""
","
","","","705.1000000014901","","","19","8972","4173","&#9752;","elianto","#f73b6a7A"," "," ","1","0","[1559.3999999985099]","1","1","","","8972","17","3","3","lose","go","0"
"pit-trial","138","951882","0.0-21.0","battery-v0.2","","""event"",""trial"",""time""
""fullscreenenter"",""1"",""4254""
","
","
","""event"",""trial"",""time""
""fullscreenenter"",""1"",""4254""
","
","","","584","","","19","8972","4173","&#9730;","elianto","#3366ff99"," "," ","1","+10","[1434.300000000745]","1","1","","","8972","18","1","1","win","go","0"
"pit-trial","139","955504","0.0-22.0","battery-v0.2","","""event"",""trial"",""time""
""fullscreenenter"",""1"",""4254""
","
","
","""event"",""trial"",""time""
""fullscreenenter"",""1"",""4254""
","
","","","757.8000000007451","","","19","8972","4173","&#9728;","elianto","#f73b6a7A","-1"," ","0","-10","[1610.800000000745]","1","1","","","8972","19","0","4","lose","no-go","0"
"pit-trial","140","959039","0.0-23.0","battery-v0.2","","""event"",""trial"",""time""
""fullscreenenter"",""1"",""4254""
","
","
","""event"",""trial"",""time""
""fullscreenenter"",""1"",""4254""
","
","","","676.1000000014901","","","19","8972","4173","&#9733;","elianto","#3366ff99","-1"," ","0","0","[1530.4000000022352]","1","1","","","8972","20","2","2","win","no-go","0"
"pit-instructions","141","977898","0.0-24.0","battery-v0.2","","""event"",""trial"",""time""
""fullscreenenter"",""1"",""4254""
","
","
","""event"",""trial"",""time""
""fullscreenenter"",""1"",""4254""
","
","","[{""page_index"":0,""viewing_time"":7203.5},{""page_index"":1,""viewing_time"":11652.79999999702}]","18856.699999999255","","","","","","","","","","","","","","","","","","","","","","","",""
"pit-trial","142","981554","0.0-25.0","battery-v0.2","","""event"",""trial"",""time""
""fullscreenenter"",""1"",""4254""
","
","
","""event"",""trial"",""time""
""fullscreenenter"",""1"",""4254""
","
","","","787.7000000029802","","","19","8972","4173","m","elianto","#f73b6a7A","-1"," ","0","-10","[1639.5]","1","2","","","8972","21","0","4","lose","no-go","0"
"pit-trial","143","984979","0.0-26.0","battery-v0.2","","""event"",""trial"",""time""
""fullscreenenter"",""1"",""4254""
","
","
","""event"",""trial"",""time""
""fullscreenenter"",""1"",""4254""
","
","","","553.6000000014901","","","19","8972","4173","r","elianto","#3366ff99"," "," ","1","0","[1414.7999999970198]","1","2","","","8972","22","1","1","win","go","1"
"pit-trial","144","988879","0.0-27.0","battery-v0.2","","""event"",""trial"",""time""
""fullscreenenter"",""1"",""4254""
","
","
","""event"",""trial"",""time""
""fullscreenenter"",""1"",""4254""
","
","","","1035.699999999255","","","19","8972","4173","y","elianto","#f73b6a7A","-1"," ","0","-10","[1891.4000000022352]","1","2","","","8972","23","2","4","lose","no-go","0"
"pit-trial","145","992471","0.0-28.0","battery-v0.2","","""event"",""trial"",""time""
""fullscreenenter"",""1"",""4254""
","
","
","""event"",""trial"",""time""
""fullscreenenter"",""1"",""4254""
","
","","","729.8000000007451","","","19","8972","4173","h","elianto","#f73b6a7A"," "," ","1","0","[1583]","1","2","","","8972","24","3","3","lose","go","0"
"pit-trial","146","997335","0.0-29.0","battery-v0.2","","""event"",""trial"",""time""
""fullscreenenter"",""1"",""4254""
","
","
","""event"",""trial"",""time""
""fullscreenenter"",""1"",""4254""
","
","","","-1","","","19","8972","4173","m","elianto","#f73b6a7A","-1","-1","1","0","[]","0","2","","","8972","25","0","4","lose","no-go","0"
"pit-trial","147","1001062","0.0-30.0","battery-v0.2","","""event"",""trial"",""time""
""fullscreenenter"",""1"",""4254""
","
","
","""event"",""trial"",""time""
""fullscreenenter"",""1"",""4254""
","
","","","869","","","19","8972","4173","h","elianto","#f73b6a7A"," "," ","1","0","[1719.300000000745]","1","2","","","8972","26","3","3","lose","go","0"
"pit-trial","148","1005929","0.0-31.0","battery-v0.2","","""event"",""trial"",""time""
""fullscreenenter"",""1"",""4254""
","
","
","""event"",""trial"",""time""
""fullscreenenter"",""1"",""4254""
","
","","","-1","","","19","8972","4173","r","elianto","#3366ff99"," ","-1","0","0","[]","0","2","","","8972","27","1","1","win","go","0"
"pit-trial","149","1009934","0.0-32.0","battery-v0.2","","""event"",""trial"",""time""
""fullscreenenter"",""1"",""4254""
","
","
","""event"",""trial"",""time""
""fullscreenenter"",""1"",""4254""
","
","","","1137.699999999255","","","19","8972","4173","y","elianto","#f73b6a7A","-1"," ","0","-10","[1993.699999999255]","1","2","","","8972","28","2","4","lose","no-go","0"
"pit-trial","150","1014803","0.0-33.0","battery-v0.2","","""event"",""trial"",""time""
""fullscreenenter"",""1"",""4254""
","
","
","""event"",""trial"",""time""
""fullscreenenter"",""1"",""4254""
","
","","","-1","","","19","8972","4173","y","elianto","#f73b6a7A","-1","-1","1","-10","[]","0","2","","","8972","29","2","4","lose","no-go","1"
"pit-trial","151","1018670","0.0-34.0","battery-v0.2","","""event"",""trial"",""time""
""fullscreenenter"",""1"",""4254""
","
","
","""event"",""trial"",""time""
""fullscreenenter"",""1"",""4254""
","
","","","1006.3999999985099","","","19","8972","4173","r","elianto","#3366ff99"," "," ","1","+10","[1857]","1","2","","","8972","30","1","1","win","go","0"
"pit-trial","152","1022638","0.0-35.0","battery-v0.2","","""event"",""trial"",""time""
""fullscreenenter"",""1"",""4254""
","
","
","""event"",""trial"",""time""
""fullscreenenter"",""1"",""4254""
","
","","","1107.800000000745","","","19","8972","4173","m","elianto","#f73b6a7A","-1"," ","0","-10","[1957.8999999985099]","1","2","","","8972","31","0","4","lose","no-go","0"
"pit-trial","153","1026015","0.0-36.0","battery-v0.2","","""event"",""trial"",""time""
""fullscreenenter"",""1"",""4254""
","
","
","""event"",""trial"",""time""
""fullscreenenter"",""1"",""4254""
","
","","","512.1000000014901","","","19","8972","4173","h","elianto","#f73b6a7A"," "," ","1","0","[1368.699999999255]","1","2","","","8972","32","3","3","lose","go","0"
"pit-trial","154","1030878","0.0-37.0","battery-v0.2","","""event"",""trial"",""time""
""fullscreenenter"",""1"",""4254""
","
","
","""event"",""trial"",""time""
""fullscreenenter"",""1"",""4254""
","
","","","-1","","","19","8972","4173","m","elianto","#f73b6a7A","-1","-1","1","0","[]","0","2","","","8972","33","0","4","lose","no-go","0"
"pit-trial","155","1035743","0.0-38.0","battery-v0.2","","""event"",""trial"",""time""
""fullscreenenter"",""1"",""4254""
","
","
","""event"",""trial"",""time""
""fullscreenenter"",""1"",""4254""
","
","","","-1","","","19","8972","4173","y","elianto","#f73b6a7A","-1","-1","1","0","[]","0","2","","","8972","34","2","4","lose","no-go","0"
"pit-trial","156","1039426","0.0-39.0","battery-v0.2","","""event"",""trial"",""time""
""fullscreenenter"",""1"",""4254""
","
","
","""event"",""trial"",""time""
""fullscreenenter"",""1"",""4254""
","
","","","821.9000000022352","","","19","8972","4173","r","elianto","#3366ff99"," "," ","1","+10","[1674.2000000029802]","1","2","","","8972","35","1","1","win","go","0"
"pit-trial","157","1043390","0.0-40.0","battery-v0.2","","""event"",""trial"",""time""
""fullscreenenter"",""1"",""4254""
","
","
","""event"",""trial"",""time""
""fullscreenenter"",""1"",""4254""
","
","","","1095.4000000022352","","","19","8972","4173","h","elianto","#f73b6a7A"," "," ","1","0","[1952.800000000745]","1","2","","","8972","36","3","3","lose","go","0"
"pit-trial","158","1047410","0.0-41.0","battery-v0.2","","""event"",""trial"",""time""
""fullscreenenter"",""1"",""4254""
","
","
","""event"",""trial"",""time""
""fullscreenenter"",""1"",""4254""
","
","","","1152.300000000745","","","19","8972","4173","h","elianto","#f73b6a7A"," "," ","1","0","[2009]","1","2","","","8972","37","3","3","lose","go","0"
"pit-trial","159","1052281","0.0-42.0","battery-v0.2","","""event"",""trial"",""time""
""fullscreenenter"",""1"",""4254""
","
","
","""event"",""trial"",""time""
""fullscreenenter"",""1"",""4254""
","
","","","-1","","","19","8972","4173","m","elianto","#f73b6a7A","-1","-1","1","0","[]","0","2","","","8972","38","0","4","lose","no-go","0"
"pit-trial","160","1057150","0.0-43.0","battery-v0.2","","""event"",""trial"",""time""
""fullscreenenter"",""1"",""4254""
","
","
","""event"",""trial"",""time""
""fullscreenenter"",""1"",""4254""
","
","","","-1","","","19","8972","4173","y","elianto","#f73b6a7A","-1","-1","1","-10","[]","0","2","","","8972","39","2","4","lose","no-go","1"
"pit-trial","161","1060592","0.0-44.0","battery-v0.2","","""event"",""trial"",""time""
""fullscreenenter"",""1"",""4254""
","
","
","""event"",""trial"",""time""
""fullscreenenter"",""1"",""4254""
","
","","","583.5","","","19","8972","4173","r","elianto","#3366ff99"," "," ","1","+10","[1435.199999999255]","1","2","","","8972","40","1","1","win","go","0"
"pit-trial","162","1065455","0.0-45.0","battery-v0.2","","""event"",""trial"",""time""
""fullscreenenter"",""1"",""4254""
","
","
","""event"",""trial"",""time""
""fullscreenenter"",""1"",""4254""
","
","","","-1","","","19","8972","4173","y","elianto","#f73b6a7A","-1","-1","1","0","[]","0","2","","","8972","41","2","4","lose","no-go","0"
"pit-trial","163","1069097","0.0-46.0","battery-v0.2","","""event"",""trial"",""time""
""fullscreenenter"",""1"",""4254""
","
","
","""event"",""trial"",""time""
""fullscreenenter"",""1"",""4254""
","
","","","777.6999999992549","","","19","8972","4173","r","elianto","#3366ff99"," "," ","1","0","[1633]","1","2","","","8972","42","1","1","win","go","1"
"pit-trial","164","1073961","0.0-47.0","battery-v0.2","","""event"",""trial"",""time""
""fullscreenenter"",""1"",""4254""
","
","
","""event"",""trial"",""time""
""fullscreenenter"",""1"",""4254""
","
","","","-1","","","19","8972","4173","m","elianto","#f73b6a7A","-1","-1","1","0","[]","0","2","","","8972","43","0","4","lose","no-go","0"
"pit-trial","165","1077552","0.0-48.0","battery-v0.2","","""event"",""trial"",""time""
""fullscreenenter"",""1"",""4254""
","
","
","""event"",""trial"",""time""
""fullscreenenter"",""1"",""4254""
","
","","","723.5999999977648","","","19","8972","4173","h","elianto","#f73b6a7A"," "," ","1","0","[1581.4000000022352]","1","2","","","8972","44","3","3","lose","go","0"
"pit-trial","166","1081343","0.0-49.0","battery-v0.2","","""event"",""trial"",""time""
""fullscreenenter"",""1"",""4254""
","
","
","""event"",""trial"",""time""
""fullscreenenter"",""1"",""4254""
","
","","","934.3000000007451","","","19","8972","4173","h","elianto","#f73b6a7A"," "," ","1","0","[1785.5]","1","2","","","8972","45","3","3","lose","go","0"
"pit-trial","167","1085247","0.0-50.0","battery-v0.2","","""event"",""trial"",""time""
""fullscreenenter"",""1"",""4254""
","
","
","""event"",""trial"",""time""
""fullscreenenter"",""1"",""4254""
","
","","","1043.800000000745","","","19","8972","4173","z","elianto","#3366ff99","-1"," ","0","0","[1898.1000000014901]","1","2","","","8972","46","4","2","win","no-go","0"
"pit-trial","168","1090115","0.0-51.0","battery-v0.2","","""event"",""trial"",""time""
""fullscreenenter"",""1"",""4254""
","
","
","""event"",""trial"",""time""
""fullscreenenter"",""1"",""4254""
","
","","","-1","","","19","8972","4173","y","elianto","#f73b6a7A","-1","-1","1","0","[]","0","2","","","8972","47","2","4","lose","no-go","0"
"pit-trial","169","1094985","0.0-52.0","battery-v0.2","","""event"",""trial"",""time""
""fullscreenenter"",""1"",""4254""
","
","
","""event"",""trial"",""time""
""fullscreenenter"",""1"",""4254""
","
","","","-1","","","19","8972","4173","m","elianto","#f73b6a7A","-1","-1","1","-10","[]","0","2","","","8972","48","0","4","lose","no-go","1"
"pit-trial","170","1098783","0.0-53.0","battery-v0.2","","""event"",""trial"",""time""
""fullscreenenter"",""1"",""4254""
","
","
","""event"",""trial"",""time""
""fullscreenenter"",""1"",""4254""
","
","","","936.5","","","19","8972","4173","h","elianto","#f73b6a7A"," "," ","1","-10","[1787.2999999970198]","1","2","","","8972","49","3","3","lose","go","1"
"pit-trial","171","1102590","0.0-54.0","battery-v0.2","","""event"",""trial"",""time""
""fullscreenenter"",""1"",""4254""
","
","
","""event"",""trial"",""time""
""fullscreenenter"",""1"",""4254""
","
","","","950.3000000007451","","","19","8972","4173","z","elianto","#3366ff99","-1"," ","0","0","[1801.5]","1","2","","","8972","50","4","2","win","no-go","0"
"pit-trial","172","1106265","0.0-55.0","battery-v0.2","","""event"",""trial"",""time""
""fullscreenenter"",""1"",""4254""
","
","
","""event"",""trial"",""time""
""fullscreenenter"",""1"",""4254""
","
","","","811.3000000007451","","","19","8972","4173","r","elianto","#3366ff99"," "," ","1","+10","[1668.2000000029802]","1","2","","","8972","51","1","1","win","go","0"
"pit-trial","173","1111129","0.0-56.0","battery-v0.2","","""event"",""trial"",""time""
""fullscreenenter"",""1"",""4254""
","
","
","""event"",""trial"",""time""
""fullscreenenter"",""1"",""4254""
","
","","","-1","","","19","8972","4173","m","elianto","#f73b6a7A","-1","-1","1","0","[]","0","2","","","8972","52","0","4","lose","no-go","0"
"pit-trial","174","1114569","0.0-57.0","battery-v0.2","","""event"",""trial"",""time""
""fullscreenenter"",""1"",""4254""
","
","
","""event"",""trial"",""time""
""fullscreenenter"",""1"",""4254""
","
","","","579.7999999970198","","","19","8972","4173","r","elianto","#3366ff99"," "," ","1","+10","[1432.6000000014901]","1","2","","","8972","53","1","1","win","go","0"
"pit-trial","175","1119439","0.0-58.0","battery-v0.2","","""event"",""trial"",""time""
""fullscreenenter"",""1"",""4254""
","
","
","""event"",""trial"",""time""
""fullscreenenter"",""1"",""4254""
","
","","","-1","","","19","8972","4173","m","elianto","#f73b6a7A","-1","-1","1","-10","[]","0","2","","","8972","54","0","4","lose","no-go","1"
"pit-trial","176","1124303","0.0-59.0","battery-v0.2","","""event"",""trial"",""time""
""fullscreenenter"",""1"",""4254""
","
","
","""event"",""trial"",""time""
""fullscreenenter"",""1"",""4254""
","
","","","-1","","","19","8972","4173","z","elianto","#3366ff99","-1","-1","1","+10","[]","0","2","","","8972","55","4","2","win","no-go","0"
"pit-trial","177","1129166","0.0-60.0","battery-v0.2","","""event"",""trial"",""time""
""fullscreenenter"",""1"",""4254""
","
","
","""event"",""trial"",""time""
""fullscreenenter"",""1"",""4254""
","
","","","-1","","","19","8972","4173","y","elianto","#f73b6a7A","-1","-1","1","0","[]","0","2","","","8972","56","2","4","lose","no-go","0"
"pit-trial","178","1132809","0.0-61.0","battery-v0.2","","""event"",""trial"",""time""
""fullscreenenter"",""1"",""4254""
","
","
","""event"",""trial"",""time""
""fullscreenenter"",""1"",""4254""
","
","","","784.6000000014901","","","19","8972","4173","h","elianto","#f73b6a7A"," "," ","1","0","[1636.5]","1","2","","","8972","57","3","3","lose","go","0"
"pit-trial","179","1136441","0.0-62.0","battery-v0.2","","""event"",""trial"",""time""
""fullscreenenter"",""1"",""4254""
","
","
","""event"",""trial"",""time""
""fullscreenenter"",""1"",""4254""
","
","","","767.6000000014901","","","19","8972","4173","r","elianto","#3366ff99"," "," ","1","+10","[1619.5]","1","2","","","8972","58","1","1","win","go","0"
"pit-trial","180","1141311","0.0-63.0","battery-v0.2","","""event"",""trial"",""time""
""fullscreenenter"",""1"",""4254""
","
","
","""event"",""trial"",""time""
""fullscreenenter"",""1"",""4254""
","
","","","-1","","","19","8972","4173","m","elianto","#f73b6a7A","-1","-1","1","0","[]","0","2","","","8972","59","0","4","lose","no-go","0"
"pit-trial","181","1146175","0.0-64.0","battery-v0.2","","""event"",""trial"",""time""
""fullscreenenter"",""1"",""4254""
","
","
","""event"",""trial"",""time""
""fullscreenenter"",""1"",""4254""
","
","","","-1","","","19","8972","4173","z","elianto","#3366ff99","-1","-1","1","+10","[]","0","2","","","8972","60","4","2","win","no-go","0"
"pit-trial","182","1151039","0.0-65.0","battery-v0.2","","""event"",""trial"",""time""
""fullscreenenter"",""1"",""4254""
","
","
","""event"",""trial"",""time""
""fullscreenenter"",""1"",""4254""
","
","","","-1","","","19","8972","4173","y","elianto","#f73b6a7A","-1","-1","1","-10","[]","0","2","","","8972","61","2","4","lose","no-go","1"
"pit-trial","183","1155903","0.0-66.0","battery-v0.2","","""event"",""trial"",""time""
""fullscreenenter"",""1"",""4254""
","
","
","""event"",""trial"",""time""
""fullscreenenter"",""1"",""4254""
","
","","","-1","","","19","8972","4173","h","elianto","#f73b6a7A"," ","-1","0","0","[]","0","2","","","8972","62","3","3","lose","go","1"
"pit-trial","184","1160767","0.0-67.0","battery-v0.2","","""event"",""trial"",""time""
""fullscreenenter"",""1"",""4254""
","
","
","""event"",""trial"",""time""
""fullscreenenter"",""1"",""4254""
","
","","","-1","","","19","8972","4173","z","elianto","#3366ff99","-1","-1","1","+10","[]","0","2","","","8972","63","4","2","win","no-go","0"
"pit-trial","185","1164281","0.0-68.0","battery-v0.2","","""event"",""trial"",""time""
""fullscreenenter"",""1"",""4254""
","
","
","""event"",""trial"",""time""
""fullscreenenter"",""1"",""4254""
","
","","","655.3000000007451","","","19","8972","4173","r","elianto","#3366ff99"," "," ","1","+10","[1506.199999999255]","1","2","","","8972","64","1","1","win","go","0"
"pit-trial","186","1168126","0.0-69.0","battery-v0.2","","""event"",""trial"",""time""
""fullscreenenter"",""1"",""4254""
","
","
","""event"",""trial"",""time""
""fullscreenenter"",""1"",""4254""
","
","","","983.7999999970198","","","19","8972","4173","r","elianto","#3366ff99"," "," ","1","0","[1834.699999999255]","1","2","","","8972","65","1","1","win","go","1"
"pit-trial","187","1172991","0.0-70.0","battery-v0.2","","""event"",""trial"",""time""
""fullscreenenter"",""1"",""4254""
","
","
","""event"",""trial"",""time""
""fullscreenenter"",""1"",""4254""
","
","","","-1","","","19","8972","4173","h","elianto","#f73b6a7A"," ","-1","0","-10","[]","0","2","","","8972","66","3","3","lose","go","0"
"pit-trial","188","1177855","0.0-71.0","battery-v0.2","","""event"",""trial"",""time""
""fullscreenenter"",""1"",""4254""
","
","
","""event"",""trial"",""time""
""fullscreenenter"",""1"",""4254""
","
","","","-1","","","19","8972","4173","z","elianto","#3366ff99","-1","-1","1","+10","[]","0","2","","","8972","67","4","2","win","no-go","0"
"pit-trial","189","1182719","0.0-72.0","battery-v0.2","","""event"",""trial"",""time""
""fullscreenenter"",""1"",""4254""
","
","
","""event"",""trial"",""time""
""fullscreenenter"",""1"",""4254""
","
","","","-1","","","19","8972","4173","y","elianto","#f73b6a7A","-1","-1","1","-10","[]","0","2","","","8972","68","2","4","lose","no-go","1"
"pit-trial","190","1186319","0.0-73.0","battery-v0.2","","""event"",""trial"",""time""
""fullscreenenter"",""1"",""4254""
","
","
","""event"",""trial"",""time""
""fullscreenenter"",""1"",""4254""
","
","","","744.8999999985099","","","19","8972","4173","r","elianto","#3366ff99"," "," ","1","+10","[1595.3999999985099]","1","2","","","8972","69","1","1","win","go","0"
"pit-trial","191","1190255","0.0-74.0","battery-v0.2","","""event"",""trial"",""time""
""fullscreenenter"",""1"",""4254""
","
","
","""event"",""trial"",""time""
""fullscreenenter"",""1"",""4254""
","
","","","1075.6000000014901","","","19","8972","4173","c","elianto","#3366ff99"," "," ","1","+10","[1930.5999999977648]","1","2","","","8972","70","5","1","win","go","0"
"pit-trial","192","1195119","0.0-75.0","battery-v0.2","","""event"",""trial"",""time""
""fullscreenenter"",""1"",""4254""
","
","
","""event"",""trial"",""time""
""fullscreenenter"",""1"",""4254""
","
","","","-1","","","19","8972","4173","z","elianto","#3366ff99","-1","-1","1","+10","[]","0","2","","","8972","71","4","2","win","no-go","0"
"pit-trial","193","1199983","0.0-76.0","battery-v0.2","","""event"",""trial"",""time""
""fullscreenenter"",""1"",""4254""
","
","
","""event"",""trial"",""time""
""fullscreenenter"",""1"",""4254""
","
","","","-1","","","19","8972","4173","h","elianto","#f73b6a7A"," ","-1","0","-10","[]","0","2","","","8972","72","3","3","lose","go","0"
"pit-trial","194","1203634","0.0-77.0","battery-v0.2","","""event"",""trial"",""time""
""fullscreenenter"",""1"",""4254""
","
","
","""event"",""trial"",""time""
""fullscreenenter"",""1"",""4254""
","
","","","788.3999999985099","","","19","8972","4173","r","elianto","#3366ff99"," "," ","1","+10","[1639.5]","1","2","","","8972","73","1","1","win","go","0"
"pit-trial","195","1207952","0.0-78.0","battery-v0.2","","""event"",""trial"",""time""
""fullscreenenter"",""1"",""4254""
","
","
","""event"",""trial"",""time""
""fullscreenenter"",""1"",""4254""
","
","","","1456.6000000014901","","","19","8972","4173","c","elianto","#3366ff99"," "," ","1","+10","[2308.39999999851]","1","2","","","8972","74","5","1","win","go","0"
"pit-trial","196","1212818","0.0-79.0","battery-v0.2","","""event"",""trial"",""time""
""fullscreenenter"",""1"",""4254""
","
","
","""event"",""trial"",""time""
""fullscreenenter"",""1"",""4254""
","
","","","-1","","","19","8972","4173","z","elianto","#3366ff99","-1","-1","1","+10","[]","0","2","","","8972","75","4","2","win","no-go","0"
"pit-trial","197","1216410","0.0-80.0","battery-v0.2","","""event"",""trial"",""time""
""fullscreenenter"",""1"",""4254""
","
","
","""event"",""trial"",""time""
""fullscreenenter"",""1"",""4254""
","
","","","732.3000000007451","","","19","8972","4173","h","elianto","#f73b6a7A"," "," ","1","0","[1582.800000000745]","1","2","","","8972","76","3","3","lose","go","0"
"pit-trial","198","1221279","0.0-81.0","battery-v0.2","","""event"",""trial"",""time""
""fullscreenenter"",""1"",""4254""
","
","
","""event"",""trial"",""time""
""fullscreenenter"",""1"",""4254""
","
","","","-1","","","19","8972","4173","z","elianto","#3366ff99","-1","-1","1","+10","[]","0","2","","","8972","77","4","2","win","no-go","0"
"pit-trial","199","1225194","0.0-82.0","battery-v0.2","","""event"",""trial"",""time""
""fullscreenenter"",""1"",""4254""
","
","
","""event"",""trial"",""time""
""fullscreenenter"",""1"",""4254""
","
","","","1045.2999999970198","","","19","8972","4173","c","elianto","#3366ff99"," "," ","1","+10","[1899.699999999255]","1","2","","","8972","78","5","1","win","go","0"
"pit-trial","200","1228954","0.0-83.0","battery-v0.2","","""event"",""trial"",""time""
""fullscreenenter"",""1"",""4254""
","
","
","""event"",""trial"",""time""
""fullscreenenter"",""1"",""4254""
","
","","","893.1999999992549","","","19","8972","4173","h","elianto","#f73b6a7A"," "," ","1","0","[1750.9000000022352]","1","2","","","8972","79","3","3","lose","go","0"
"pit-trial","201","1232889","0.0-84.0","battery-v0.2","","""event"",""trial"",""time""
""fullscreenenter"",""1"",""4254""
","
","
","""event"",""trial"",""time""
""fullscreenenter"",""1"",""4254""
","
","","","1064.8999999985099","","","19","8972","4173","b","elianto","#f73b6a7A","-1"," ","0","-10","[1926.5999999977648]","1","2","","","8972","80","6","4","lose","no-go","0"
"pit-trial","202","1237754","0.0-85.0","battery-v0.2","","""event"",""trial"",""time""
""fullscreenenter"",""1"",""4254""
","
","
","""event"",""trial"",""time""
""fullscreenenter"",""1"",""4254""
","
","","","-1","","","19","8972","4173","b","elianto","#f73b6a7A","-1","-1","1","0","[]","0","2","","","8972","81","6","4","lose","no-go","0"
"pit-trial","203","1242623","0.0-86.0","battery-v0.2","","""event"",""trial"",""time""
""fullscreenenter"",""1"",""4254""
","
","
","""event"",""trial"",""time""
""fullscreenenter"",""1"",""4254""
","
","","","-1","","","19","8972","4173","z","elianto","#3366ff99","-1","-1","1","+10","[]","0","2","","","8972","82","4","2","win","no-go","0"
"pit-trial","204","1246479","0.0-87.0","battery-v0.2","","""event"",""trial"",""time""
""fullscreenenter"",""1"",""4254""
","
","
","""event"",""trial"",""time""
""fullscreenenter"",""1"",""4254""
","
","","","994.1999999992549","","","19","8972","4173","c","elianto","#3366ff99"," "," ","1","+10","[1849.3999999985099]","1","2","","","8972","83","5","1","win","go","0"
"pit-trial","205","1250415","0.0-88.0","battery-v0.2","","""event"",""trial"",""time""
""fullscreenenter"",""1"",""4254""
","
","
","""event"",""trial"",""time""
""fullscreenenter"",""1"",""4254""
","
","","","1073.5999999977648","","","19","8972","4173","t","elianto","#f73b6a7A"," "," ","1","0","[1927.7000000029802]","1","2","","","8972","84","7","3","lose","go","0"
"pit-trial","206","1254737","0.0-89.0","battery-v0.2","","""event"",""trial"",""time""
""fullscreenenter"",""1"",""4254""
","
","
","""event"",""trial"",""time""
""fullscreenenter"",""1"",""4254""
","
","","","1458.1000000014901","","","19","8972","4173","b","elianto","#f73b6a7A","-1"," ","0","-10","[2311.099999997765]","1","2","","","8972","85","6","4","lose","no-go","0"
"pit-trial","207","1259602","0.0-90.0","battery-v0.2","","""event"",""trial"",""time""
""fullscreenenter"",""1"",""4254""
","
","
","""event"",""trial"",""time""
""fullscreenenter"",""1"",""4254""
","
","","","-1","","","19","8972","4173","z","elianto","#3366ff99","-1","-1","1","+10","[]","0","2","","","8972","86","4","2","win","no-go","0"
"pit-trial","208","1263818","0.0-91.0","battery-v0.2","","""event"",""trial"",""time""
""fullscreenenter"",""1"",""4254""
","
","
","""event"",""trial"",""time""
""fullscreenenter"",""1"",""4254""
","
","","","1358.4000000022352","","","19","8972","4173","c","elianto","#3366ff99"," "," ","1","+10","[2208.599999997765]","1","2","","","8972","87","5","1","win","go","0"
"pit-trial","209","1267183","0.0-92.0","battery-v0.2","","""event"",""trial"",""time""
""fullscreenenter"",""1"",""4254""
","
","
","""event"",""trial"",""time""
""fullscreenenter"",""1"",""4254""
","
","","","503.29999999701977","","","19","8972","4173","t","elianto","#f73b6a7A"," "," ","1","-10","[1353.5]","1","2","","","8972","88","7","3","lose","go","1"
"pit-trial","210","1272047","0.0-93.0","battery-v0.2","","""event"",""trial"",""time""
""fullscreenenter"",""1"",""4254""
","
","
","""event"",""trial"",""time""
""fullscreenenter"",""1"",""4254""
","
","","","-1","","","19","8972","4173","z","elianto","#3366ff99","-1","-1","1","+10","[]","0","2","","","8972","89","4","2","win","no-go","0"
"pit-trial","211","1275823","0.0-94.0","battery-v0.2","","""event"",""trial"",""time""
""fullscreenenter"",""1"",""4254""
","
","
","""event"",""trial"",""time""
""fullscreenenter"",""1"",""4254""
","
","","","914.7000000029802","","","19","8972","4173","c","elianto","#3366ff99"," "," ","1","+10","[1767.800000000745]","1","2","","","8972","90","5","1","win","go","0"
"pit-trial","212","1280687","0.0-95.0","battery-v0.2","","""event"",""trial"",""time""
""fullscreenenter"",""1"",""4254""
","
","
","""event"",""trial"",""time""
""fullscreenenter"",""1"",""4254""
","
","","","-1","","","19","8972","4173","b","elianto","#f73b6a7A","-1","-1","1","0","[]","0","2","","","8972","91","6","4","lose","no-go","0"
"pit-trial","213","1285551","0.0-96.0","battery-v0.2","","""event"",""trial"",""time""
""fullscreenenter"",""1"",""4254""
","
","
","""event"",""trial"",""time""
""fullscreenenter"",""1"",""4254""
","
","","","-1","","","19","8972","4173","t","elianto","#f73b6a7A"," ","-1","0","-10","[]","0","2","","","8972","92","7","3","lose","go","0"
"pit-trial","214","1290415","0.0-97.0","battery-v0.2","","""event"",""trial"",""time""
""fullscreenenter"",""1"",""4254""
","
","
","""event"",""trial"",""time""
""fullscreenenter"",""1"",""4254""
","
","","","-1","","","19","8972","4173","b","elianto","#f73b6a7A","-1","-1","1","0","[]","0","2","","","8972","93","6","4","lose","no-go","0"
"pit-trial","215","1294063","0.0-98.0","battery-v0.2","","""event"",""trial"",""time""
""fullscreenenter"",""1"",""4254""
","
","
","""event"",""trial"",""time""
""fullscreenenter"",""1"",""4254""
","
","","","787.8000000007451","","","19","8972","4173","c","elianto","#3366ff99"," "," ","1","0","[1638.699999999255]","1","2","","","8972","94","5","1","win","go","1"
"pit-trial","216","1297562","0.0-99.0","battery-v0.2","","""event"",""trial"",""time""
""fullscreenenter"",""1"",""4254""
","
","
","""event"",""trial"",""time""
""fullscreenenter"",""1"",""4254""
","
","","","635.5","","","19","8972","4173","t","elianto","#f73b6a7A"," "," ","1","0","[1490]","1","2","","","8972","95","7","3","lose","go","0"
"pit-trial","217","1301311","0.0-100.0","battery-v0.2","","""event"",""trial"",""time""
""fullscreenenter"",""1"",""4254""
","
","
","""event"",""trial"",""time""
""fullscreenenter"",""1"",""4254""
","
","","","884.8999999985099","","","19","8972","4173","f","elianto","#3366ff99","-1"," ","0","0","[1741.2999999970198]","1","2","","","8972","96","8","2","win","no-go","0"
"pit-trial","218","1306177","0.0-101.0","battery-v0.2","","""event"",""trial"",""time""
""fullscreenenter"",""1"",""4254""
","
","
","""event"",""trial"",""time""
""fullscreenenter"",""1"",""4254""
","
","","","-1","","","19","8972","4173","f","elianto","#3366ff99","-1","-1","1","+10","[]","0","2","","","8972","97","8","2","win","no-go","0"
"pit-trial","219","1309887","0.0-102.0","battery-v0.2","","""event"",""trial"",""time""
""fullscreenenter"",""1"",""4254""
","
","
","""event"",""trial"",""time""
""fullscreenenter"",""1"",""4254""
","
","","","849.6000000014901","","","19","8972","4173","c","elianto","#3366ff99"," "," ","1","+10","[1704.699999999255]","1","2","","","8972","98","5","1","win","go","0"
"pit-trial","220","1314752","0.0-103.0","battery-v0.2","","""event"",""trial"",""time""
""fullscreenenter"",""1"",""4254""
","
","
","""event"",""trial"",""time""
""fullscreenenter"",""1"",""4254""
","
","","","-1","","","19","8972","4173","b","elianto","#f73b6a7A","-1","-1","1","0","[]","0","2","","","8972","99","6","4","lose","no-go","0"
"pit-trial","221","1319615","0.0-104.0","battery-v0.2","","""event"",""trial"",""time""
""fullscreenenter"",""1"",""4254""
","
","
","""event"",""trial"",""time""
""fullscreenenter"",""1"",""4254""
","
","","","-1","","","19","8972","4173","t","elianto","#f73b6a7A"," ","-1","0","-10","[]","0","2","","","8972","100","7","3","lose","go","0"
"pit-trial","222","1324479","0.0-105.0","battery-v0.2","","""event"",""trial"",""time""
""fullscreenenter"",""1"",""4254""
","
","
","""event"",""trial"",""time""
""fullscreenenter"",""1"",""4254""
","
","","","-1","","","19","8972","4173","b","elianto","#f73b6a7A","-1","-1","1","0","[]","0","2","","","8972","101","6","4","lose","no-go","0"
"pit-trial","223","1328943","0.0-106.0","battery-v0.2","","""event"",""trial"",""time""
""fullscreenenter"",""1"",""4254""
","
","
","""event"",""trial"",""time""
""fullscreenenter"",""1"",""4254""
","
","","","1599","","","19","8972","4173","f","elianto","#3366ff99","-1"," ","0","+10","[2453.7999999970198]","1","2","","","8972","102","8","2","win","no-go","1"
"pit-trial","224","1332714","0.0-107.0","battery-v0.2","","""event"",""trial"",""time""
""fullscreenenter"",""1"",""4254""
","
","
","""event"",""trial"",""time""
""fullscreenenter"",""1"",""4254""
","
","","","901.5999999977648","","","19","8972","4173","c","elianto","#3366ff99"," "," ","1","+10","[1756.800000000745]","1","2","","","8972","103","5","1","win","go","0"
"pit-trial","225","1336415","0.0-108.0","battery-v0.2","","""event"",""trial"",""time""
""fullscreenenter"",""1"",""4254""
","
","
","""event"",""trial"",""time""
""fullscreenenter"",""1"",""4254""
","
","","","837.6000000014901","","","19","8972","4173","n","elianto","#3366ff99","-1"," ","0","0","[1690.199999999255]","1","2","","","8972","104","9","2","win","no-go","0"
"pit-trial","226","1340250","0.0-109.0","battery-v0.2","","""event"",""trial"",""time""
""fullscreenenter"",""1"",""4254""
","
","
","""event"",""trial"",""time""
""fullscreenenter"",""1"",""4254""
","
","","","973.1000000014901","","","19","8972","4173","c","elianto","#3366ff99"," "," ","1","+10","[1823.0999999977648]","1","2","","","8972","105","5","1","win","go","0"
"pit-trial","227","1343802","0.0-110.0","battery-v0.2","","""event"",""trial"",""time""
""fullscreenenter"",""1"",""4254""
","
","
","""event"",""trial"",""time""
""fullscreenenter"",""1"",""4254""
","
","","","687.3000000007451","","","19","8972","4173","n","elianto","#3366ff99","-1"," ","0","0","[1538.5]","1","2","","","8972","106","9","2","win","no-go","0"
"pit-trial","228","1348671","0.0-111.0","battery-v0.2","","""event"",""trial"",""time""
""fullscreenenter"",""1"",""4254""
","
","
","""event"",""trial"",""time""
""fullscreenenter"",""1"",""4254""
","
","","","-1","","","19","8972","4173","b","elianto","#f73b6a7A","-1","-1","1","-10","[]","0","2","","","8972","107","6","4","lose","no-go","1"
"pit-trial","229","1352298","0.0-112.0","battery-v0.2","","""event"",""trial"",""time""
""fullscreenenter"",""1"",""4254""
","
","
","""event"",""trial"",""time""
""fullscreenenter"",""1"",""4254""
","
","","","759.8999999985099","","","19","8972","4173","f","elianto","#3366ff99","-1"," ","0","0","[1615]","1","2","","","8972","108","8","2","win","no-go","0"
"pit-trial","230","1356058","0.0-113.0","battery-v0.2","","""event"",""trial"",""time""
""fullscreenenter"",""1"",""4254""
","
","
","""event"",""trial"",""time""
""fullscreenenter"",""1"",""4254""
","
","","","895.4000000022352","","","19","8972","4173","c","elianto","#3366ff99"," "," ","1","+10","[1746]","1","2","","","8972","109","5","1","win","go","0"
"pit-trial","231","1360719","0.0-114.0","battery-v0.2","","""event"",""trial"",""time""
""fullscreenenter"",""1"",""4254""
","
","
","""event"",""trial"",""time""
""fullscreenenter"",""1"",""4254""
","
","","","1797.300000000745","","","19","8972","4173","n","elianto","#3366ff99","-1"," ","0","0","[2656.10000000149]","1","2","","","8972","110","9","2","win","no-go","0"
"pit-trial","232","1365583","0.0-115.0","battery-v0.2","","""event"",""trial"",""time""
""fullscreenenter"",""1"",""4254""
","
","
","""event"",""trial"",""time""
""fullscreenenter"",""1"",""4254""
","
","","","-1","","","19","8972","4173","b","elianto","#f73b6a7A","-1","-1","1","0","[]","0","2","","","8972","111","6","4","lose","no-go","0"
"pit-trial","233","1369695","0.0-116.0","battery-v0.2","","""event"",""trial"",""time""
""fullscreenenter"",""1"",""4254""
","
","
","""event"",""trial"",""time""
""fullscreenenter"",""1"",""4254""
","
","","","1250.2000000029802","","","19","8972","4173","f","elianto","#3366ff99","-1"," ","0","+10","[2100.89999999851]","1","2","","","8972","112","8","2","win","no-go","1"
"pit-trial","234","1374559","0.0-117.0","battery-v0.2","","""event"",""trial"",""time""
""fullscreenenter"",""1"",""4254""
","
","
","""event"",""trial"",""time""
""fullscreenenter"",""1"",""4254""
","
","","","-1","","","19","8972","4173","n","elianto","#3366ff99","-1","-1","1","+10","[]","0","2","","","8972","113","9","2","win","no-go","0"
"pit-trial","235","1378847","0.0-118.0","battery-v0.2","","""event"",""trial"",""time""
""fullscreenenter"",""1"",""4254""
","
","
","""event"",""trial"",""time""
""fullscreenenter"",""1"",""4254""
","
","","","1424.4000000022352","","","19","8972","4173","t","elianto","#f73b6a7A"," "," ","1","0","[2280.300000000745]","1","2","","","8972","114","7","3","lose","go","0"
"pit-trial","236","1382586","0.0-119.0","battery-v0.2","","""event"",""trial"",""time""
""fullscreenenter"",""1"",""4254""
","
","
","""event"",""trial"",""time""
""fullscreenenter"",""1"",""4254""
","
","","","872.0999999977648","","","19","8972","4173","c","elianto","#3366ff99"," "," ","1","0","[1725.5]","1","2","","","8972","115","5","1","win","go","1"
"pit-trial","237","1386218","0.0-120.0","battery-v0.2","","""event"",""trial"",""time""
""fullscreenenter"",""1"",""4254""
","
","
","""event"",""trial"",""time""
""fullscreenenter"",""1"",""4254""
","
","","","762.4000000022352","","","19","8972","4173","f","elianto","#3366ff99","-1"," ","0","0","[1624.699999999255]","1","2","","","8972","116","8","2","win","no-go","0"
"pit-trial","238","1391087","0.0-121.0","battery-v0.2","","""event"",""trial"",""time""
""fullscreenenter"",""1"",""4254""
","
","
","""event"",""trial"",""time""
""fullscreenenter"",""1"",""4254""
","
","","","-1","","","19","8972","4173","n","elianto","#3366ff99","-1","-1","1","+10","[]","0","2","","","8972","117","9","2","win","no-go","0"
"pit-trial","239","1394751","0.0-122.0","battery-v0.2","","""event"",""trial"",""time""
""fullscreenenter"",""1"",""4254""
","
","
","""event"",""trial"",""time""
""fullscreenenter"",""1"",""4254""
","
","","","796.8000000007451","","","19","8972","4173","c","elianto","#3366ff99"," "," ","1","0","[1651.9000000022352]","1","2","","","8972","118","5","1","win","go","1"
"pit-trial","240","1398442","0.0-123.0","battery-v0.2","","""event"",""trial"",""time""
""fullscreenenter"",""1"",""4254""
","
","
","""event"",""trial"",""time""
""fullscreenenter"",""1"",""4254""
","
","","","825.9000000022352","","","19","8972","4173","f","elianto","#3366ff99","-1"," ","0","+10","[1676.6000000014901]","1","2","","","8972","119","8","2","win","no-go","1"
"pit-trial","241","1403311","0.0-124.0","battery-v0.2","","""event"",""trial"",""time""
""fullscreenenter"",""1"",""4254""
","
","
","""event"",""trial"",""time""
""fullscreenenter"",""1"",""4254""
","
","","","-1","","","19","8972","4173","b","elianto","#f73b6a7A","-1","-1","1","0","[]","0","2","","","8972","120","6","4","lose","no-go","0"
"pit-trial","242","1406938","0.0-125.0","battery-v0.2","","""event"",""trial"",""time""
""fullscreenenter"",""1"",""4254""
","
","
","""event"",""trial"",""time""
""fullscreenenter"",""1"",""4254""
","
","","","764.8000000007451","","","19","8972","4173","f","elianto","#3366ff99","-1"," ","0","0","[1619.6000000014901]","1","2","","","8972","121","8","2","win","no-go","0"
"pit-trial","243","1410570","0.0-126.0","battery-v0.2","","""event"",""trial"",""time""
""fullscreenenter"",""1"",""4254""
","
","
","""event"",""trial"",""time""
""fullscreenenter"",""1"",""4254""
","
","","","763.6999999992549","","","19","8972","4173","c","elianto","#3366ff99"," "," ","1","+10","[1624.5]","1","2","","","8972","122","5","1","win","go","0"
"pit-trial","244","1414522","0.0-127.0","battery-v0.2","","""event"",""trial"",""time""
""fullscreenenter"",""1"",""4254""
","
","
","""event"",""trial"",""time""
""fullscreenenter"",""1"",""4254""
","
","","","1095.300000000745","","","19","8972","4173","t","elianto","#f73b6a7A"," "," ","1","-10","[1945.300000000745]","1","2","","","8972","123","7","3","lose","go","1"
"pit-trial","245","1419391","0.0-128.0","battery-v0.2","","""event"",""trial"",""time""
""fullscreenenter"",""1"",""4254""
","
","
","""event"",""trial"",""time""
""fullscreenenter"",""1"",""4254""
","
","","","-1","","","19","8972","4173","n","elianto","#3366ff99","-1","-1","1","+10","[]","0","2","","","8972","124","9","2","win","no-go","0"
"pit-trial","246","1424256","0.0-129.0","battery-v0.2","","""event"",""trial"",""time""
""fullscreenenter"",""1"",""4254""
","
","
","""event"",""trial"",""time""
""fullscreenenter"",""1"",""4254""
","
","","","-1","","","19","8972","4173","n","elianto","#3366ff99","-1","-1","1","+10","[]","0","2","","","8972","125","9","2","win","no-go","0"
"pit-trial","247","1429121","0.0-130.0","battery-v0.2","","""event"",""trial"",""time""
""fullscreenenter"",""1"",""4254""
","
","
","""event"",""trial"",""time""
""fullscreenenter"",""1"",""4254""
","
","","","-1","","","19","8972","4173","b","elianto","#f73b6a7A","-1","-1","1","-10","[]","0","2","","","8972","126","6","4","lose","no-go","1"
"pit-trial","248","1432858","0.0-131.0","battery-v0.2","","""event"",""trial"",""time""
""fullscreenenter"",""1"",""4254""
","
","
","""event"",""trial"",""time""
""fullscreenenter"",""1"",""4254""
","
","","","872","","","19","8972","4173","f","elianto","#3366ff99","-1"," ","0","0","[1726.8999999985099]","1","2","","","8972","127","8","2","win","no-go","0"
"pit-trial","249","1437728","0.0-132.0","battery-v0.2","","""event"",""trial"",""time""
""fullscreenenter"",""1"",""4254""
","
","
","""event"",""trial"",""time""
""fullscreenenter"",""1"",""4254""
","
","","","-1","","","19","8972","4173","t","elianto","#f73b6a7A"," ","-1","0","-10","[]","0","2","","","8972","128","7","3","lose","go","0"
"pit-trial","250","1442592","0.0-133.0","battery-v0.2","","""event"",""trial"",""time""
""fullscreenenter"",""1"",""4254""
","
","
","""event"",""trial"",""time""
""fullscreenenter"",""1"",""4254""
","
","","","-1","","","19","8972","4173","n","elianto","#3366ff99","-1","-1","1","+10","[]","0","2","","","8972","129","9","2","win","no-go","0"
"pit-trial","251","1447456","0.0-134.0","battery-v0.2","","""event"",""trial"",""time""
""fullscreenenter"",""1"",""4254""
","
","
","""event"",""trial"",""time""
""fullscreenenter"",""1"",""4254""
","
","","","-1","","","19","8972","4173","b","elianto","#f73b6a7A","-1","-1","1","-10","[]","0","2","","","8972","130","6","4","lose","no-go","1"
"pit-trial","252","1451040","0.0-135.0","battery-v0.2","","""event"",""trial"",""time""
""fullscreenenter"",""1"",""4254""
","
","
","""event"",""trial"",""time""
""fullscreenenter"",""1"",""4254""
","
","","","717.8999999985099","","","19","8972","4173","f","elianto","#3366ff99","-1"," ","0","+10","[1572.0999999977648]","1","2","","","8972","131","8","2","win","no-go","1"
"pit-trial","253","1454538","0.0-136.0","battery-v0.2","","""event"",""trial"",""time""
""fullscreenenter"",""1"",""4254""
","
","
","""event"",""trial"",""time""
""fullscreenenter"",""1"",""4254""
","
","","","634.4000000022352","","","19","8972","4173","t","elianto","#f73b6a7A"," "," ","1","0","[1489.7000000029802]","1","2","","","8972","132","7","3","lose","go","0"
"pit-trial","254","1458064","0.0-137.0","battery-v0.2","","""event"",""trial"",""time""
""fullscreenenter"",""1"",""4254""
","
","
","""event"",""trial"",""time""
""fullscreenenter"",""1"",""4254""
","
","","","668.3999999985099","","","19","8972","4173","f","elianto","#3366ff99","-1"," ","0","0","[1521]","1","2","","","8972","133","8","2","win","no-go","0"
"pit-trial","255","1462928","0.0-138.0","battery-v0.2","","""event"",""trial"",""time""
""fullscreenenter"",""1"",""4254""
","
","
","""event"",""trial"",""time""
""fullscreenenter"",""1"",""4254""
","
","","","-1","","","19","8972","4173","n","elianto","#3366ff99","-1","-1","1","+10","[]","0","2","","","8972","134","9","2","win","no-go","0"
"pit-trial","256","1467793","0.0-139.0","battery-v0.2","","""event"",""trial"",""time""
""fullscreenenter"",""1"",""4254""
","
","
","""event"",""trial"",""time""
""fullscreenenter"",""1"",""4254""
","
","","","-1","","","19","8972","4173","b","elianto","#f73b6a7A","-1","-1","1","0","[]","0","2","","","8972","135","6","4","lose","no-go","0"
"pit-trial","257","1471427","0.0-140.0","battery-v0.2","","""event"",""trial"",""time""
""fullscreenenter"",""1"",""4254""
","
","
","""event"",""trial"",""time""
""fullscreenenter"",""1"",""4254""
","
","","","764.0999999977648","","","19","8972","4173","t","elianto","#f73b6a7A"," "," ","1","-10","[1620.300000000745]","1","2","","","8972","136","7","3","lose","go","1"
"pit-trial","258","1476298","0.0-141.0","battery-v0.2","","""event"",""trial"",""time""
""fullscreenenter"",""1"",""4254""
","
","
","""event"",""trial"",""time""
""fullscreenenter"",""1"",""4254""
","
","","","-1","","","19","8972","4173","n","elianto","#3366ff99","-1","-1","1","+10","[]","0","2","","","8972","137","9","2","win","no-go","0"
"pit-trial","259","1479872","0.0-142.0","battery-v0.2","","""event"",""trial"",""time""
""fullscreenenter"",""1"",""4254""
","
","
","""event"",""trial"",""time""
""fullscreenenter"",""1"",""4254""
","
","","","712.5","","","19","8972","4173","t","elianto","#f73b6a7A"," "," ","1","0","[1565.3999999985099]","1","2","","","8972","138","7","3","lose","go","0"
"pit-trial","260","1483466","0.0-143.0","battery-v0.2","","""event"",""trial"",""time""
""fullscreenenter"",""1"",""4254""
","
","
","""event"",""trial"",""time""
""fullscreenenter"",""1"",""4254""
","
","","","732.5999999977648","","","19","8972","4173","f","elianto","#3366ff99","-1"," ","0","0","[1588.1000000014901]","1","2","","","8972","139","8","2","win","no-go","0"
"pit-trial","261","1488330","0.0-144.0","battery-v0.2","","""event"",""trial"",""time""
""fullscreenenter"",""1"",""4254""
","
","
","""event"",""trial"",""time""
""fullscreenenter"",""1"",""4254""
","
","","","-1","","","19","8972","4173","b","elianto","#f73b6a7A","-1","-1","1","0","[]","0","2","","","8972","140","6","4","lose","no-go","0"
"pit-instructions","262","1527188","0.0-145.0","battery-v0.2","","""event"",""trial"",""time""
""fullscreenenter"",""1"",""4254""
","
","
","""event"",""trial"",""time""
""fullscreenenter"",""1"",""4254""
","
","","[{""page_index"":0,""viewing_time"":29701.60000000149},{""page_index"":1,""viewing_time"":9153.300000000745}]","38855.20000000298","","","","","","","","","","","","","","","","","","","","","","","",""
"pit-trial","263","1531292","0.0-146.0","battery-v0.2","","""event"",""trial"",""time""
""fullscreenenter"",""1"",""4254""
","
","
","""event"",""trial"",""time""
""fullscreenenter"",""1"",""4254""
","
","","","1227.300000000745","","","19","8972","4173","j","elianto","#f73b6a7A"," "," ","1","0","[2087.599999997765]","1","3","","","8972","141","0","3","lose","go","0"
"pit-trial","264","1534968","0.0-147.0","battery-v0.2","","""event"",""trial"",""time""
""fullscreenenter"",""1"",""4254""
","
","
","""event"",""trial"",""time""
""fullscreenenter"",""1"",""4254""
","
","","","811.3000000007451","","","19","8972","4173","e","elianto","#f73b6a7A"," "," ","1","0","[1667.5999999977648]","1","3","","","8972","142","2","3","lose","go","0"
"pit-trial","265","1538385","0.0-148.0","battery-v0.2","","""event"",""trial"",""time""
""fullscreenenter"",""1"",""4254""
","
","
","""event"",""trial"",""time""
""fullscreenenter"",""1"",""4254""
","
","","","558.2999999970198","","","19","8972","4173","d","elianto","#3366ff99","-1"," ","0","+10","[1408.3999999985099]","1","3","","","8972","143","1","2","win","no-go","1"
"pit-trial","266","1541957","0.0-149.0","battery-v0.2","","""event"",""trial"",""time""
""fullscreenenter"",""1"",""4254""
","
","
","""event"",""trial"",""time""
""fullscreenenter"",""1"",""4254""
","
","","","705.5999999977648","","","19","8972","4173","w","elianto","#f73b6a7A","-1"," ","0","-10","[1557.199999999255]","1","3","","","8972","144","3","4","lose","no-go","0"
"pit-trial","267","1545514","0.0-150.0","battery-v0.2","","""event"",""trial"",""time""
""fullscreenenter"",""1"",""4254""
","
","
","""event"",""trial"",""time""
