"trial_type","trial_index","time_elapsed","internal_node_id","task_version","subject_id","interactions","blur_events","focus_events","fullscreenenter_events","fullscreenexit_events","success","view_history","rt","responses","num_errors","age","subject","participantId","rune","rune_set","hex","correct","choice","accuracy","outcome","keys","total_keys","block","practice","value","sub","trial","stimulus","robot","valence","action","sham"
"pavlovia","0","4","0.0-0.0","battery-v0.2","","""event"",""trial"",""time""
""fullscreenenter"",""1"",""2479""
","
","
","""event"",""trial"",""time""
""fullscreenenter"",""1"",""2479""
","
","","","","","","","","","","","","","","","","","","","","","","","","","","",""
"fullscreen","1","3477","0.0-1.0","battery-v0.2","","""event"",""trial"",""time""
""fullscreenenter"",""1"",""2479""
","
","
","""event"",""trial"",""time""
""fullscreenenter"",""1"",""2479""
","
","true","","","","","","","","","","","","","","","","","","","","","","","","","",""
"pit-instructions","2","10570","0.0-2.0-0.0","battery-v0.2","","""event"",""trial"",""time""
""fullscreenenter"",""1"",""2479""
","
","
","""event"",""trial"",""time""
""fullscreenenter"",""1"",""2479""
","
","","[{""page_index"":0,""viewing_time"":7086.800000011921}]","7087.700000047684","","","","","","","","","","","","","","","","","","","","","","","",""
"pit-comprehension","3","13444","0.0-2.0-1.0-0.0","battery-v0.2","","""event"",""trial"",""time""
""fullscreenenter"",""1"",""2479""
","
","
","""event"",""trial"",""time""
""fullscreenenter"",""1"",""2479""
","
","","","2865","[""shark""]","0","24","3712","2922","","","","","","","","","","","","","","","","","","",""
"pit-instructions","4","15793","0.0-2.0-1.0-1.0","battery-v0.2","","""event"",""trial"",""time""
""fullscreenenter"",""1"",""2479""
","
","
","""event"",""trial"",""time""
""fullscreenenter"",""1"",""2479""
","
","","[{""page_index"":0,""viewing_time"":2333}]","2333.7999999523163","","","","","","","","","","","","","","","","","","","","","","","",""
"pit-comprehension","5","18080","0.0-2.0-2.0-0.0","battery-v0.2","","""event"",""trial"",""time""
""fullscreenenter"",""1"",""2479""
","
","
","""event"",""trial"",""time""
""fullscreenenter"",""1"",""2479""
","
","","","2279.699999988079","[""tiger""]","0","24","3712","2922","","","","","","","","","","","","","","","","","","",""
"pit-instructions","6","19127","0.0-2.0-2.0-1.0","battery-v0.2","","""event"",""trial"",""time""
""fullscreenenter"",""1"",""2479""
","
","
","""event"",""trial"",""time""
""fullscreenenter"",""1"",""2479""
","
","","[{""page_index"":0,""viewing_time"":1040.1000000238419}]","1040.699999988079","","","","","","","","","","","","","","","","","","","","","","","",""
"pit-instructions","7","138048","0.0-2.0-3.0","battery-v0.2","","""event"",""trial"",""time""
""fullscreenenter"",""1"",""2479""
","
","
","""event"",""trial"",""time""
""fullscreenenter"",""1"",""2479""
","
","","[{""page_index"":0,""viewing_time"":7799},{""page_index"":1,""viewing_time"":5571.5},{""page_index"":2,""viewing_time"":9617.799999952316},{""page_index"":3,""viewing_time"":8603.200000047684},{""page_index"":4,""viewing_time"":16870.69999998808},{""page_index"":5,""viewing_time"":6303.099999964237},{""page_index"":6,""viewing_time"":6825.300000011921},{""page_index"":5,""viewing_time"":4247.400000035763},{""page_index"":6,""viewing_time"":2081.399999976158},{""page_index"":7,""viewing_time"":6727.5},{""page_index"":8,""viewing_time"":6384},{""page_index"":9,""viewing_time"":7959.300000011921},{""page_index"":10,""viewing_time"":8116.899999976158},{""page_index"":11,""viewing_time"":7768.100000023842},{""page_index"":12,""viewing_time"":7955.099999964237},{""page_index"":13,""viewing_time"":6082.900000035763}]","118914.19999998808","","","","","","","","","","","","","","","","","","","","","","","",""
"pit-trial","8","141035","0.0-2.0-4.0-0.0","battery-v0.2","","""event"",""trial"",""time""
""fullscreenenter"",""1"",""2479""
","
","
","""event"",""trial"",""time""
""fullscreenenter"",""1"",""2479""
","
","","","120.90000003576279","","","24","3712","2922","&#9784;","elianto","#FFFFF080"," "," ","1","&#10004","[971.3999999761581]","1","0","0","","","","","","","",""
"pit-trial","9","144291","0.0-2.0-4.1-0.1","battery-v0.2","","""event"",""trial"",""time""
""fullscreenenter"",""1"",""2479""
","
","
","""event"",""trial"",""time""
""fullscreenenter"",""1"",""2479""
","
","","","383.0999999642372","","","24","3712","2922","&#9784;","elianto","#FFFFF080"," "," ","1","&#10004","[1241.300000011921]","1","0","0","","","","","","","",""
"pit-trial","10","147243","0.0-2.0-4.2-0.2","battery-v0.2","","""event"",""trial"",""time""
""fullscreenenter"",""1"",""2479""
","
","
","""event"",""trial"",""time""
""fullscreenenter"",""1"",""2479""
","
","","","85.39999997615814","","","24","3712","2922","&#9784;","elianto","#FFFFF080"," "," ","1","&#10004","[943.5999999642372]","1","0","0","","","","","","","",""
"pit-trial","11","150799","0.0-2.0-4.3-0.3","battery-v0.2","","""event"",""trial"",""time""
""fullscreenenter"",""1"",""2479""
","
","
","""event"",""trial"",""time""
""fullscreenenter"",""1"",""2479""
","
","","","694","","","24","3712","2922","&#9784;","elianto","#FFFFF080"," "," ","1","&#10004","[1544.8999999761581]","1","0","0","","","","","","","",""
"pit-trial","12","154151","0.0-2.0-4.4-0.4","battery-v0.2","","""event"",""trial"",""time""
""fullscreenenter"",""1"",""2479""
","
","
","""event"",""trial"",""time""
""fullscreenenter"",""1"",""2479""
","
","","","490.5","","","24","3712","2922","&#9784;","elianto","#FFFFF080"," "," ","1","&#10004","[1340.5]","1","0","0","","","","","","","",""
"pit-instructions","13","180840","0.0-2.0-5.0","battery-v0.2","","""event"",""trial"",""time""
""fullscreenenter"",""1"",""2479""
","
","
","""event"",""trial"",""time""
""fullscreenenter"",""1"",""2479""
","
","","[{""page_index"":0,""viewing_time"":8815.5},{""page_index"":1,""viewing_time"":7298.399999976158},{""page_index"":2,""viewing_time"":5477.199999988079},{""page_index"":3,""viewing_time"":5090.5}]","26682.399999976158","","","","","","","","","","","","","","","","","","","","","","","",""
"pit-trial","14","185707","0.0-2.0-6.0-0.0","battery-v0.2","","""event"",""trial"",""time""
""fullscreenenter"",""1"",""2479""
","
","
","""event"",""trial"",""time""
""fullscreenenter"",""1"",""2479""
","
","","","-1","","","24","3712","2922","&#9854;","elianto","#FFFFF080","-1","-1","1","&#10004","[]","0","0","1","","","","","","","",""
"pit-trial","15","190583","0.0-2.0-6.1-0.1","battery-v0.2","","""event"",""trial"",""time""
""fullscreenenter"",""1"",""2479""
","
","
","""event"",""trial"",""time""
""fullscreenenter"",""1"",""2479""
","
","","","-1","","","24","3712","2922","&#9854;","elianto","#FFFFF080","-1","-1","1","&#10004","[]","0","0","1","","","","","","","",""
"pit-trial","16","195454","0.0-2.0-6.2-0.2","battery-v0.2","","""event"",""trial"",""time""
""fullscreenenter"",""1"",""2479""
","
","
","""event"",""trial"",""time""
""fullscreenenter"",""1"",""2479""
","
","","","-1","","","24","3712","2922","&#9854;","elianto","#FFFFF080","-1","-1","1","&#10004","[]","0","0","1","","","","","","","",""
"pit-trial","17","200323","0.0-2.0-6.3-0.3","battery-v0.2","","""event"",""trial"",""time""
""fullscreenenter"",""1"",""2479""
","
","
","""event"",""trial"",""time""
""fullscreenenter"",""1"",""2479""
","
","","","-1","","","24","3712","2922","&#9854;","elianto","#FFFFF080","-1","-1","1","&#10004","[]","0","0","1","","","","","","","",""
"pit-trial","18","205198","0.0-2.0-6.4-0.4","battery-v0.2","","""event"",""trial"",""time""
""fullscreenenter"",""1"",""2479""
","
","
","""event"",""trial"",""time""
""fullscreenenter"",""1"",""2479""
","
","","","-1","","","24","3712","2922","&#9854;","elianto","#FFFFF080","-1","-1","1","&#10004","[]","0","0","1","","","","","","","",""
"pit-instructions","19","339470","0.0-2.0-7.0","battery-v0.2","","""event"",""trial"",""time""
""fullscreenenter"",""1"",""2479""
","
","
","""event"",""trial"",""time""
""fullscreenenter"",""1"",""2479""
","
","","[{""page_index"":0,""viewing_time"":5543.199999988079},{""page_index"":1,""viewing_time"":6986.800000011921},{""page_index"":2,""viewing_time"":6092.099999964237},{""page_index"":3,""viewing_time"":6746},{""page_index"":4,""viewing_time"":6028.300000011921},{""page_index"":5,""viewing_time"":6817.800000011921},{""page_index"":6,""viewing_time"":5123.899999976158},{""page_index"":7,""viewing_time"":8418.699999988079},{""page_index"":8,""viewing_time"":7742.900000035763},{""page_index"":9,""viewing_time"":5709.300000011921},{""page_index"":10,""viewing_time"":6571.699999988079},{""page_index"":11,""viewing_time"":5058.699999988079},{""page_index"":12,""viewing_time"":9653.899999976158},{""page_index"":13,""viewing_time"":12778.300000011921},{""page_index"":14,""viewing_time"":10779.600000023842},{""page_index"":15,""viewing_time"":6622.399999976158},{""page_index"":16,""viewing_time"":7246.5},{""page_index"":17,""viewing_time"":10344.5}]","134265.19999998808","","","","","","","","","","","","","","","","","","","","","","","",""
"pit-trial","20","344344","0.0-2.0-8.0-0.0","battery-v0.2","","""event"",""trial"",""time""
""fullscreenenter"",""1"",""2479""
","
","
","""event"",""trial"",""time""
""fullscreenenter"",""1"",""2479""
","
","","","-1","","","24","3712","2922","&#9776;","elianto","#3366ff99"," ","-1","0","0","[3998.199999988079]","1","0","1","","","","","","","",""
"pit-trial","21","348099","0.0-2.0-8.0-1.0","battery-v0.2","","""event"",""trial"",""time""
""fullscreenenter"",""1"",""2479""
","
","
","""event"",""trial"",""time""
""fullscreenenter"",""1"",""2479""
","
","","","887.1000000238419","","","24","3712","2922","&#9776;","elianto","#3366ff99"," "," ","1","+10","[1742]","1","0","1","","","","","","","",""
"pit-trial","22","351400","0.0-2.0-8.0-2.0","battery-v0.2","","""event"",""trial"",""time""
""fullscreenenter"",""1"",""2479""
","
","
","""event"",""trial"",""time""
""fullscreenenter"",""1"",""2479""
","
","","","433.10000002384186","","","24","3712","2922","&#9776;","elianto","#3366ff99"," "," ","1","+10","[1283.0999999642372]","1","0","1","","","","","","","",""
"pit-trial","23","354380","0.0-2.0-8.0-3.0","battery-v0.2","","""event"",""trial"",""time""
""fullscreenenter"",""1"",""2479""
","
","
","""event"",""trial"",""time""
""fullscreenenter"",""1"",""2479""
","
","","","121.10000002384186","","","24","3712","2922","&#9776;","elianto","#3366ff99"," "," ","1","0","[971.2999999523163]","1","0","1","","","","","","","",""
"pit-trial","24","357392","0.0-2.0-8.0-4.0","battery-v0.2","","""event"",""trial"",""time""
""fullscreenenter"",""1"",""2479""
","
","
","""event"",""trial"",""time""
""fullscreenenter"",""1"",""2479""
","
","","","146.80000001192093","","","24","3712","2922","&#9776;","elianto","#3366ff99"," "," ","1","+10","[999.5]","1","0","1","","","","","","","",""
"pit-trial","25","360408","0.0-2.0-8.1-0.1","battery-v0.2","","""event"",""trial"",""time""
""fullscreenenter"",""1"",""2479""
","
","
","""event"",""trial"",""time""
""fullscreenenter"",""1"",""2479""
","
","","","148.30000001192093","","","24","3712","2922","&#9776;","elianto","#3366ff99"," "," ","1","+10","[1003.3999999761581]","1","0","1","","","","","","","",""
"pit-trial","26","363469","0.0-2.0-8.1-1.1","battery-v0.2","","""event"",""trial"",""time""
""fullscreenenter"",""1"",""2479""
","
","
","""event"",""trial"",""time""
""fullscreenenter"",""1"",""2479""
","
","","","193.29999995231628","","","24","3712","2922","&#9776;","elianto","#3366ff99"," "," ","1","+10","[1048.5]","1","0","1","","","","","","","",""
"pit-trial","27","366612","0.0-2.0-8.1-2.1","battery-v0.2","","""event"",""trial"",""time""
""fullscreenenter"",""1"",""2479""
","
","
","""event"",""trial"",""time""
""fullscreenenter"",""1"",""2479""
","
","","","277.2999999523163","","","24","3712","2922","&#9776;","elianto","#3366ff99"," "," ","1","+10","[1134.6000000238419,2112.600000023842]","2","0","1","","","","","","","",""
"pit-trial","28","369716","0.0-2.0-8.1-3.1","battery-v0.2","","""event"",""trial"",""time""
""fullscreenenter"",""1"",""2479""
","
","
","""event"",""trial"",""time""
""fullscreenenter"",""1"",""2479""
","
","","","241.30000001192093","","","24","3712","2922","&#9776;","elianto","#3366ff99"," "," ","1","0","[1092.8999999761581,2505.899999976158]","2","0","1","","","","","","","",""
"pit-trial","29","373012","0.0-2.0-8.1-4.1","battery-v0.2","","""event"",""trial"",""time""
""fullscreenenter"",""1"",""2479""
","
","
","""event"",""trial"",""time""
""fullscreenenter"",""1"",""2479""
","
","","","430.89999997615814","","","24","3712","2922","&#9776;","elianto","#3366ff99"," "," ","1","+10","[1281.199999988079]","1","0","1","","","","","","","",""
"pit-trial","30","375940","0.0-2.0-8.2-0.2","battery-v0.2","","""event"",""trial"",""time""
""fullscreenenter"",""1"",""2479""
","
","
","""event"",""trial"",""time""
""fullscreenenter"",""1"",""2479""
","
","","","66.10000002384186","","","24","3712","2922","&#9776;","elianto","#3366ff99"," "," ","1","+10","[917.1000000238419]","1","0","1","","","","","","","",""
"pit-trial","31","378876","0.0-2.0-8.2-1.2","battery-v0.2","","""event"",""trial"",""time""
""fullscreenenter"",""1"",""2479""
","
","
","""event"",""trial"",""time""
""fullscreenenter"",""1"",""2479""
","
","","","64.5","","","24","3712","2922","&#9776;","elianto","#3366ff99"," "," ","1","+10","[921.5999999642372]","1","0","1","","","","","","","",""
"pit-trial","32","382180","0.0-2.0-8.2-2.2","battery-v0.2","","""event"",""trial"",""time""
""fullscreenenter"",""1"",""2479""
","
","
","""event"",""trial"",""time""
""fullscreenenter"",""1"",""2479""
","
","","","434.0999999642372","","","24","3712","2922","&#9776;","elianto","#3366ff99"," "," ","1","+10","[1288.5]","1","0","1","","","","","","","",""
"pit-trial","33","385172","0.0-2.0-8.2-3.2","battery-v0.2","","""event"",""trial"",""time""
""fullscreenenter"",""1"",""2479""
","
","
","""event"",""trial"",""time""
""fullscreenenter"",""1"",""2479""
","
","","","130","","","24","3712","2922","&#9776;","elianto","#3366ff99"," "," ","1","0","[980.6999999880791]","1","0","1","","","","","","","",""
"pit-trial","34","388383","0.0-2.0-8.2-4.2","battery-v0.2","","""event"",""trial"",""time""
""fullscreenenter"",""1"",""2479""
","
","
","""event"",""trial"",""time""
""fullscreenenter"",""1"",""2479""
","
","","","340.0999999642372","","","24","3712","2922","&#9776;","elianto","#3366ff99"," "," ","1","+10","[1197.800000011921]","1","0","1","","","","","","","",""
"call-function","35","388389","0.0-2.0-9.0","battery-v0.2","","""event"",""trial"",""time""
""fullscreenenter"",""1"",""2479""
","
","
","""event"",""trial"",""time""
""fullscreenenter"",""1"",""2479""
","
","","","","","","","","","","","","","","","","","","","","","","","","","","",""
"pit-instructions","36","430455","0.0-2.0-10.0","battery-v0.2","","""event"",""trial"",""time""
""fullscreenenter"",""1"",""2479""
","
","
","""event"",""trial"",""time""
""fullscreenenter"",""1"",""2479""
","
","","[{""page_index"":0,""viewing_time"":5992.5},{""page_index"":1,""viewing_time"":7685.199999988079},{""page_index"":2,""viewing_time"":9539.900000035763},{""page_index"":3,""viewing_time"":10975.599999964237},{""page_index"":4,""viewing_time"":7870}]","42064.5","","","","","","","","","","","","","","","","","","","","","","","",""
"pit-trial","37","433449","0.0-2.0-11.0-0.0","battery-v0.2","","""event"",""trial"",""time""
""fullscreenenter"",""1"",""2479""
","
","
","""event"",""trial"",""time""
""fullscreenenter"",""1"",""2479""
","
","","","121.40000003576279","","","24","3712","2922","&#9761;","elianto","#3366ff99","-1"," ","0","0","[977.3000000119209]","1","0","2","","","","","","","",""
"pit-trial","38","438001","0.0-2.0-11.0-1.0","battery-v0.2","","""event"",""trial"",""time""
""fullscreenenter"",""1"",""2479""
","
","
","""event"",""trial"",""time""
""fullscreenenter"",""1"",""2479""
","
","","","1687","","","24","3712","2922","&#9761;","elianto","#3366ff99","-1"," ","0","0","[820.3000000119209,2537.2000000476837]","2","0","2","","","","","","","",""
"pit-trial","39","442742","0.0-2.0-11.0-2.0","battery-v0.2","","""event"",""trial"",""time""
""fullscreenenter"",""1"",""2479""
","
","
","""event"",""trial"",""time""
""fullscreenenter"",""1"",""2479""
","
","","","1878.800000011921","","","24","3712","2922","&#9761;","elianto","#3366ff99","-1"," ","0","0","[2729.5]","1","0","2","","","","","","","",""
"pit-trial","40","447614","0.0-2.0-11.0-3.0","battery-v0.2","","""event"",""trial"",""time""
""fullscreenenter"",""1"",""2479""
","
","
","""event"",""trial"",""time""
""fullscreenenter"",""1"",""2479""
","
","","","-1","","","24","3712","2922","&#9761;","elianto","#3366ff99","-1","-1","1","0","[]","0","0","2","","","","","","","",""
"pit-trial","41","452487","0.0-2.0-11.0-4.0","battery-v0.2","","""event"",""trial"",""time""
""fullscreenenter"",""1"",""2479""
","
","
","""event"",""trial"",""time""
""fullscreenenter"",""1"",""2479""
","
","","","-1","","","24","3712","2922","&#9761;","elianto","#3366ff99","-1","-1","1","+10","[]","0","0","2","","","","","","","",""
"pit-trial","42","457355","0.0-2.0-11.1-0.1","battery-v0.2","","""event"",""trial"",""time""
""fullscreenenter"",""1"",""2479""
","
","
","""event"",""trial"",""time""
""fullscreenenter"",""1"",""2479""
","
","","","-1","","","24","3712","2922","&#9761;","elianto","#3366ff99","-1","-1","1","+10","[]","0","0","2","","","","","","","",""
"pit-trial","43","462220","0.0-2.0-11.1-1.1","battery-v0.2","","""event"",""trial"",""time""
""fullscreenenter"",""1"",""2479""
","
","
","""event"",""trial"",""time""
""fullscreenenter"",""1"",""2479""
","
","","","-1","","","24","3712","2922","&#9761;","elianto","#3366ff99","-1","-1","1","+10","[]","0","0","2","","","","","","","",""
"pit-trial","44","467092","0.0-2.0-11.1-2.1","battery-v0.2","","""event"",""trial"",""time""
""fullscreenenter"",""1"",""2479""
","
","
","""event"",""trial"",""time""
""fullscreenenter"",""1"",""2479""
","
","","","-1","","","24","3712","2922","&#9761;","elianto","#3366ff99","-1","-1","1","+10","[]","0","0","2","","","","","","","",""
"pit-trial","45","471244","0.0-2.0-11.1-3.1","battery-v0.2","","""event"",""trial"",""time""
""fullscreenenter"",""1"",""2479""
","
","
","""event"",""trial"",""time""
""fullscreenenter"",""1"",""2479""
","
","","","1282.4000000357628","","","24","3712","2922","&#9761;","elianto","#3366ff99","-1"," ","0","+10","[2137.099999964237]","1","0","2","","","","","","","",""
"pit-trial","46","474741","0.0-2.0-11.1-4.1","battery-v0.2","","""event"",""trial"",""time""
""fullscreenenter"",""1"",""2479""
","
","
","""event"",""trial"",""time""
""fullscreenenter"",""1"",""2479""
","
","","","632.2999999523163","","","24","3712","2922","&#9761;","elianto","#3366ff99","-1"," ","0","0","[1485.699999988079]","1","0","2","","","","","","","",""
"pit-trial","47","477820","0.0-2.0-11.2-0.2","battery-v0.2","","""event"",""trial"",""time""
""fullscreenenter"",""1"",""2479""
","
","
","""event"",""trial"",""time""
""fullscreenenter"",""1"",""2479""
","
","","","209.19999998807907","","","24","3712","2922","&#9761;","elianto","#3366ff99","-1"," ","0","0","[1064.699999988079]","1","0","2","","","","","","","",""
"pit-trial","48","481388","0.0-2.0-11.2-1.2","battery-v0.2","","""event"",""trial"",""time""
""fullscreenenter"",""1"",""2479""
","
","
","""event"",""trial"",""time""
""fullscreenenter"",""1"",""2479""
","
","","","696.5","","","24","3712","2922","&#9761;","elianto","#3366ff99","-1"," ","0","0","[1552.8999999761581]","1","0","2","","","","","","","",""
"pit-trial","49","484710","0.0-2.0-11.2-2.2","battery-v0.2","","""event"",""trial"",""time""
""fullscreenenter"",""1"",""2479""
","
","
","""event"",""trial"",""time""
""fullscreenenter"",""1"",""2479""
","
","","","446.0999999642372","","","24","3712","2922","&#9761;","elianto","#3366ff99","-1"," ","0","0","[679,1303.5999999642372]","2","0","2","","","","","","","",""
"pit-trial","50","489581","0.0-2.0-11.2-3.2","battery-v0.2","","""event"",""trial"",""time""
""fullscreenenter"",""1"",""2479""
","
","
","""event"",""trial"",""time""
""fullscreenenter"",""1"",""2479""
","
","","","-1","","","24","3712","2922","&#9761;","elianto","#3366ff99","-1","-1","1","0","[]","0","0","2","","","","","","","",""
"pit-trial","51","494453","0.0-2.0-11.2-4.2","battery-v0.2","","""event"",""trial"",""time""
""fullscreenenter"",""1"",""2479""
","
","
","""event"",""trial"",""time""
""fullscreenenter"",""1"",""2479""
","
","","","-1","","","24","3712","2922","&#9761;","elianto","#3366ff99","-1","-1","1","+10","[]","0","0","2","","","","","","","",""
"pit-trial","52","497597","0.0-2.0-11.3-0.3","battery-v0.2","","""event"",""trial"",""time""
""fullscreenenter"",""1"",""2479""
","
","
","""event"",""trial"",""time""
""fullscreenenter"",""1"",""2479""
","
","","","272.5","","","24","3712","2922","&#9761;","elianto","#3366ff99","-1"," ","0","0","[1129]","1","0","2","","","","","","","",""
"pit-trial","53","501173","0.0-2.0-11.3-1.3","battery-v0.2","","""event"",""trial"",""time""
""fullscreenenter"",""1"",""2479""
","
","
","""event"",""trial"",""time""
""fullscreenenter"",""1"",""2479""
","
","","","713.0999999642372","","","24","3712","2922","&#9761;","elianto","#3366ff99","-1"," ","0","0","[820,1564.1000000238419]","2","0","2","","","","","","","",""
"pit-trial","54","504493","0.0-2.0-11.3-2.3","battery-v0.2","","""event"",""trial"",""time""
""fullscreenenter"",""1"",""2479""
","
","
","""event"",""trial"",""time""
""fullscreenenter"",""1"",""2479""
","
","","","451.69999998807907","","","24","3712","2922","&#9761;","elianto","#3366ff99","-1"," ","0","0","[1308.199999988079]","1","0","2","","","","","","","",""
"pit-trial","55","507445","0.0-2.0-11.3-3.3","battery-v0.2","","""event"",""trial"",""time""
""fullscreenenter"",""1"",""2479""
","
","
","""event"",""trial"",""time""
""fullscreenenter"",""1"",""2479""
","
","","","84.30000001192093","","","24","3712","2922","&#9761;","elianto","#3366ff99","-1"," ","0","+10","[938.9000000357628]","1","0","2","","","","","","","",""
"pit-trial","56","510917","0.0-2.0-11.3-4.3","battery-v0.2","","""event"",""trial"",""time""
""fullscreenenter"",""1"",""2479""
","
","
","""event"",""trial"",""time""
""fullscreenenter"",""1"",""2479""
","
","","","609","","","24","3712","2922","&#9761;","elianto","#3366ff99","-1"," ","0","0","[807.6999999880791,1462.8999999761581]","2","0","2","","","","","","","",""
"call-function","57","510923","0.0-2.0-12.0","battery-v0.2","","""event"",""trial"",""time""
""fullscreenenter"",""1"",""2479""
","
","
","""event"",""trial"",""time""
""fullscreenenter"",""1"",""2479""
","
","","","","","","","","","","","","","","","","","","","","","","","","","","",""
"pit-instructions","58","543118","0.0-2.0-13.0","battery-v0.2","","""event"",""trial"",""time""
""fullscreenenter"",""1"",""2479""
","
","
","""event"",""trial"",""time""
""fullscreenenter"",""1"",""2479""
","
","","[{""page_index"":0,""viewing_time"":7127.099999964237},{""page_index"":1,""viewing_time"":6709.5},{""page_index"":2,""viewing_time"":3335},{""page_index"":3,""viewing_time"":10108.600000023842},{""page_index"":4,""viewing_time"":4912.699999988079}]","32194.30000001192","","","","","","","","","","","","","","","","","","","","","","","",""
"pit-trial","59","547994","0.0-2.0-14.0-0.0","battery-v0.2","","""event"",""trial"",""time""
""fullscreenenter"",""1"",""2479""
","
","
","""event"",""trial"",""time""
""fullscreenenter"",""1"",""2479""
","
","","","-1","","","24","3712","2922","&#9826;","elianto","#f73b6a7A","-1","-1","1","0","[]","0","0","3","","","","","","","",""
"pit-trial","60","551409","0.0-2.0-14.0-1.0","battery-v0.2","","""event"",""trial"",""time""
""fullscreenenter"",""1"",""2479""
","
","
","""event"",""trial"",""time""
""fullscreenenter"",""1"",""2479""
","
","","","545.3999999761581","","","24","3712","2922","&#9826;","elianto","#f73b6a7A","-1"," ","0","-10","[1400.4000000357628]","1","0","3","","","","","","","",""
"pit-trial","61","556281","0.0-2.0-14.0-2.0","battery-v0.2","","""event"",""trial"",""time""
""fullscreenenter"",""1"",""2479""
","
","
","""event"",""trial"",""time""
""fullscreenenter"",""1"",""2479""
","
","","","-1","","","24","3712","2922","&#9826;","elianto","#f73b6a7A","-1","-1","1","0","[]","0","0","3","","","","","","","",""
"pit-trial","62","561151","0.0-2.0-14.0-3.0","battery-v0.2","","""event"",""trial"",""time""
""fullscreenenter"",""1"",""2479""
","
","
","""event"",""trial"",""time""
""fullscreenenter"",""1"",""2479""
","
","","","-1","","","24","3712","2922","&#9826;","elianto","#f73b6a7A","-1","-1","1","-10","[]","0","0","3","","","","","","","",""
"pit-trial","63","566013","0.0-2.0-14.0-4.0","battery-v0.2","","""event"",""trial"",""time""
""fullscreenenter"",""1"",""2479""
","
","
","""event"",""trial"",""time""
""fullscreenenter"",""1"",""2479""
","
","","","-1","","","24","3712","2922","&#9826;","elianto","#f73b6a7A","-1","-1","1","0","[]","0","0","3","","","","","","","",""
"pit-trial","64","570889","0.0-2.0-14.1-0.1","battery-v0.2","","""event"",""trial"",""time""
""fullscreenenter"",""1"",""2479""
","
","
","""event"",""trial"",""time""
""fullscreenenter"",""1"",""2479""
","
","","","-1","","","24","3712","2922","&#9826;","elianto","#f73b6a7A","-1","-1","1","0","[]","0","0","3","","","","","","","",""
"pit-trial","65","575757","0.0-2.0-14.1-1.1","battery-v0.2","","""event"",""trial"",""time""
""fullscreenenter"",""1"",""2479""
","
","
","""event"",""trial"",""time""
""fullscreenenter"",""1"",""2479""
","
","","","-1","","","24","3712","2922","&#9826;","elianto","#f73b6a7A","-1","-1","1","0","[]","0","0","3","","","","","","","",""
"pit-trial","66","580629","0.0-2.0-14.1-2.1","battery-v0.2","","""event"",""trial"",""time""
""fullscreenenter"",""1"",""2479""
","
","
","""event"",""trial"",""time""
""fullscreenenter"",""1"",""2479""
","
","","","-1","","","24","3712","2922","&#9826;","elianto","#f73b6a7A","-1","-1","1","0","[]","0","0","3","","","","","","","",""
"pit-trial","67","585500","0.0-2.0-14.1-3.1","battery-v0.2","","""event"",""trial"",""time""
""fullscreenenter"",""1"",""2479""
","
","
","""event"",""trial"",""time""
""fullscreenenter"",""1"",""2479""
","
","","","-1","","","24","3712","2922","&#9826;","elianto","#f73b6a7A","-1","-1","1","-10","[]","0","0","3","","","","","","","",""
"pit-trial","68","590366","0.0-2.0-14.1-4.1","battery-v0.2","","""event"",""trial"",""time""
""fullscreenenter"",""1"",""2479""
","
","
","""event"",""trial"",""time""
""fullscreenenter"",""1"",""2479""
","
","","","-1","","","24","3712","2922","&#9826;","elianto","#f73b6a7A","-1","-1","1","0","[]","0","0","3","","","","","","","",""
"pit-trial","69","595239","0.0-2.0-14.2-0.2","battery-v0.2","","""event"",""trial"",""time""
""fullscreenenter"",""1"",""2479""
","
","
","""event"",""trial"",""time""
""fullscreenenter"",""1"",""2479""
","
","","","-1","","","24","3712","2922","&#9826;","elianto","#f73b6a7A","-1","-1","1","0","[]","0","0","3","","","","","","","",""
"pit-trial","70","600111","0.0-2.0-14.2-1.2","battery-v0.2","","""event"",""trial"",""time""
""fullscreenenter"",""1"",""2479""
","
","
","""event"",""trial"",""time""
""fullscreenenter"",""1"",""2479""
","
","","","-1","","","24","3712","2922","&#9826;","elianto","#f73b6a7A","-1","-1","1","0","[]","0","0","3","","","","","","","",""
"pit-trial","71","604984","0.0-2.0-14.2-2.2","battery-v0.2","","""event"",""trial"",""time""
""fullscreenenter"",""1"",""2479""
","
","
","""event"",""trial"",""time""
""fullscreenenter"",""1"",""2479""
","
","","","-1","","","24","3712","2922","&#9826;","elianto","#f73b6a7A","-1","-1","1","0","[]","0","0","3","","","","","","","",""
"pit-trial","72","609856","0.0-2.0-14.2-3.2","battery-v0.2","","""event"",""trial"",""time""
""fullscreenenter"",""1"",""2479""
","
","
","""event"",""trial"",""time""
""fullscreenenter"",""1"",""2479""
","
","","","-1","","","24","3712","2922","&#9826;","elianto","#f73b6a7A","-1","-1","1","-10","[]","0","0","3","","","","","","","",""
"pit-trial","73","614728","0.0-2.0-14.2-4.2","battery-v0.2","","""event"",""trial"",""time""
""fullscreenenter"",""1"",""2479""
","
","
","""event"",""trial"",""time""
""fullscreenenter"",""1"",""2479""
","
","","","-1","","","24","3712","2922","&#9826;","elianto","#f73b6a7A","-1","-1","1","0","[]","0","0","3","","","","","","","",""
"pit-trial","74","619281","0.0-2.0-14.3-0.3","battery-v0.2","","""event"",""trial"",""time""
""fullscreenenter"",""1"",""2479""
","
","
","""event"",""trial"",""time""
""fullscreenenter"",""1"",""2479""
","
","","","1684.1000000238419","","","24","3712","2922","&#9826;","elianto","#f73b6a7A","-1"," ","0","-10","[2538.399999976158]","1","0","3","","","","","","","",""
"pit-trial","75","622905","0.0-2.0-14.3-1.3","battery-v0.2","","""event"",""trial"",""time""
""fullscreenenter"",""1"",""2479""
","
","
","""event"",""trial"",""time""
""fullscreenenter"",""1"",""2479""
","
","","","756.5999999642372","","","24","3712","2922","&#9826;","elianto","#f73b6a7A","-1"," ","0","-10","[1611.5]","1","0","3","","","","","","","",""
"pit-trial","76","626185","0.0-2.0-14.3-2.3","battery-v0.2","","""event"",""trial"",""time""
""fullscreenenter"",""1"",""2479""
","
","
","""event"",""trial"",""time""
""fullscreenenter"",""1"",""2479""
","
","","","414.19999998807907","","","24","3712","2922","&#9826;","elianto","#f73b6a7A","-1"," ","0","-10","[1271.300000011921]","1","0","3","","","","","","","",""
"pit-trial","77","629929","0.0-2.0-14.3-3.3","battery-v0.2","","""event"",""trial"",""time""
""fullscreenenter"",""1"",""2479""
","
","
","""event"",""trial"",""time""
""fullscreenenter"",""1"",""2479""
","
","","","881.6999999880791","","","24","3712","2922","&#9826;","elianto","#f73b6a7A","-1"," ","0","0","[1731.8999999761581]","1","0","3","","","","","","","",""
"pit-trial","78","633321","0.0-2.0-14.3-4.3","battery-v0.2","","""event"",""trial"",""time""
""fullscreenenter"",""1"",""2479""
","
","
","""event"",""trial"",""time""
""fullscreenenter"",""1"",""2479""
","
","","","524.0999999642372","","","24","3712","2922","&#9826;","elianto","#f73b6a7A","-1"," ","0","-10","[1378.699999988079]","1","0","3","","","","","","","",""
"call-function","79","633326","0.0-2.0-15.0","battery-v0.2","","""event"",""trial"",""time""
""fullscreenenter"",""1"",""2479""
","
","
","""event"",""trial"",""time""
""fullscreenenter"",""1"",""2479""
","
","","","","","","","","","","","","","","","","","","","","","","","","","","",""
"pit-instructions","80","658194","0.0-2.0-16.0","battery-v0.2","","""event"",""trial"",""time""
""fullscreenenter"",""1"",""2479""
","
","
","""event"",""trial"",""time""
""fullscreenenter"",""1"",""2479""
","
","","[{""page_index"":0,""viewing_time"":6607.5},{""page_index"":1,""viewing_time"":8587.699999988079},{""page_index"":2,""viewing_time"":4659.899999976158},{""page_index"":3,""viewing_time"":5010}]","24866.299999952316","","","","","","","","","","","","","","","","","","","","","","","",""
"pit-trial","81","661786","0.0-2.0-17.0-0.0","battery-v0.2","","""event"",""trial"",""time""
""fullscreenenter"",""1"",""2479""
","
","
","""event"",""trial"",""time""
""fullscreenenter"",""1"",""2479""
","
","","","723.1000000238419","","","24","3712","2922","&#9789;","elianto","#f73b6a7A"," "," ","1","0","[1580.9000000357628]","1","0","4","","","","","","","",""
"pit-trial","82","664752","0.0-2.0-17.0-1.0","battery-v0.2","","""event"",""trial"",""time""
""fullscreenenter"",""1"",""2479""
","
","
","""event"",""trial"",""time""
""fullscreenenter"",""1"",""2479""
","
","","","109.19999998807907","","","24","3712","2922","&#9789;","elianto","#f73b6a7A"," "," ","1","0","[960.6999999880791]","1","0","4","","","","","","","",""
"pit-trial","83","667788","0.0-2.0-17.0-2.0","battery-v0.2","","""event"",""trial"",""time""
""fullscreenenter"",""1"",""2479""
","
","
","""event"",""trial"",""time""
""fullscreenenter"",""1"",""2479""
","
","","","169.89999997615814","","","24","3712","2922","&#9789;","elianto","#f73b6a7A"," "," ","1","0","[1020.1999999880791]","1","0","4","","","","","","","",""
"pit-trial","84","670704","0.0-2.0-17.0-3.0","battery-v0.2","","""event"",""trial"",""time""
""fullscreenenter"",""1"",""2479""
","
","
","""event"",""trial"",""time""
""fullscreenenter"",""1"",""2479""
","
","","","57.5","","","24","3712","2922","&#9789;","elianto","#f73b6a7A"," "," ","1","-10","[907.5999999642372]","1","0","4","","","","","","","",""
"pit-trial","85","673664","0.0-2.0-17.0-4.0","battery-v0.2","","""event"",""trial"",""time""
""fullscreenenter"",""1"",""2479""
","
","
","""event"",""trial"",""time""
""fullscreenenter"",""1"",""2479""
","
","","","99.89999997615814","","","24","3712","2922","&#9789;","elianto","#f73b6a7A"," "," ","1","0","[950.8000000119209]","1","0","4","","","","","","","",""
"pit-trial","86","676682","0.0-2.0-17.1-0.1","battery-v0.2","","""event"",""trial"",""time""
""fullscreenenter"",""1"",""2479""
","
","
","""event"",""trial"",""time""
""fullscreenenter"",""1"",""2479""
","
","","","153.60000002384186","","","24","3712","2922","&#9789;","elianto","#f73b6a7A"," "," ","1","0","[1008]","1","0","4","","","","","","","",""
"pit-trial","87","679669","0.0-2.0-17.1-1.1","battery-v0.2","","""event"",""trial"",""time""
""fullscreenenter"",""1"",""2479""
","
","
","""event"",""trial"",""time""
""fullscreenenter"",""1"",""2479""
","
","","","122.30000001192093","","","24","3712","2922","&#9789;","elianto","#f73b6a7A"," "," ","1","0","[976.1000000238419]","1","0","4","","","","","","","",""
"pit-trial","88","682749","0.0-2.0-17.1-2.1","battery-v0.2","","""event"",""trial"",""time""
""fullscreenenter"",""1"",""2479""
","
","
","""event"",""trial"",""time""
""fullscreenenter"",""1"",""2479""
","
","","","213.89999997615814","","","24","3712","2922","&#9789;","elianto","#f73b6a7A"," "," ","1","0","[1065]","1","0","4","","","","","","","",""
"pit-trial","89","685881","0.0-2.0-17.1-3.1","battery-v0.2","","""event"",""trial"",""time""
""fullscreenenter"",""1"",""2479""
","
","
","""event"",""trial"",""time""
""fullscreenenter"",""1"",""2479""
","
","","","266.5999999642372","","","24","3712","2922","&#9789;","elianto","#f73b6a7A"," "," ","1","-10","[1121.0999999642372]","1","0","4","","","","","","","",""
"pit-trial","90","688888","0.0-2.0-17.1-4.1","battery-v0.2","","""event"",""trial"",""time""
""fullscreenenter"",""1"",""2479""
","
","
","""event"",""trial"",""time""
""fullscreenenter"",""1"",""2479""
","
","","","146","","","24","3712","2922","&#9789;","elianto","#f73b6a7A"," "," ","1","0","[1001.1999999880791]","1","0","4","","","","","","","",""
"pit-trial","91","693761","0.0-2.0-17.2-0.2","battery-v0.2","","""event"",""trial"",""time""
""fullscreenenter"",""1"",""2479""
","
","
","""event"",""trial"",""time""
""fullscreenenter"",""1"",""2479""
","
","","","-1","","","24","3712","2922","&#9789;","elianto","#f73b6a7A"," ","-1","0","-10","[]","0","0","4","","","","","","","",""
"pit-trial","92","697241","0.0-2.0-17.2-1.2","battery-v0.2","","""event"",""trial"",""time""
""fullscreenenter"",""1"",""2479""
","
","
","""event"",""trial"",""time""
""fullscreenenter"",""1"",""2479""
","
","","","613","","","24","3712","2922","&#9789;","elianto","#f73b6a7A"," "," ","1","0","[1468.1000000238419]","1","0","4","","","","","","","",""
"pit-trial","93","700380","0.0-2.0-17.2-2.2","battery-v0.2","","""event"",""trial"",""time""
""fullscreenenter"",""1"",""2479""
","
","
","""event"",""trial"",""time""
""fullscreenenter"",""1"",""2479""
","
","","","268.30000001192093","","","24","3712","2922","&#9789;","elianto","#f73b6a7A"," "," ","1","0","[1126.7999999523163]","1","0","4","","","","","","","",""
"pit-trial","94","703434","0.0-2.0-17.2-3.2","battery-v0.2","","""event"",""trial"",""time""
""fullscreenenter"",""1"",""2479""
","
","
","""event"",""trial"",""time""
""fullscreenenter"",""1"",""2479""
","
","","","189.10000002384186","","","24","3712","2922","&#9789;","elianto","#f73b6a7A"," "," ","1","-10","[1042.5999999642372]","1","0","4","","","","","","","",""
"pit-trial","95","707753","0.0-2.0-17.2-4.2","battery-v0.2","","""event"",""trial"",""time""
""fullscreenenter"",""1"",""2479""
","
","
","""event"",""trial"",""time""
""fullscreenenter"",""1"",""2479""
","
","","","1455.199999988079","","","24","3712","2922","&#9789;","elianto","#f73b6a7A"," "," ","1","0","[2306.199999988079]","1","0","4","","","","","","","",""
"pit-trial","96","712626","0.0-2.0-17.3-0.3","battery-v0.2","","""event"",""trial"",""time""
""fullscreenenter"",""1"",""2479""
","
","
","""event"",""trial"",""time""
""fullscreenenter"",""1"",""2479""
","
","","","-1","","","24","3712","2922","&#9789;","elianto","#f73b6a7A"," ","-1","0","-10","[4030.400000035763]","1","0","4","","","","","","","",""
"pit-trial","97","715681","0.0-2.0-17.3-1.3","battery-v0.2","","""event"",""trial"",""time""
""fullscreenenter"",""1"",""2479""
","
","
","""event"",""trial"",""time""
""fullscreenenter"",""1"",""2479""
","
","","","183.5","","","24","3712","2922","&#9789;","elianto","#f73b6a7A"," "," ","1","0","[1041.2999999523163]","1","0","4","","","","","","","",""
"pit-trial","98","718730","0.0-2.0-17.3-2.3","battery-v0.2","","""event"",""trial"",""time""
""fullscreenenter"",""1"",""2479""
","
","
","""event"",""trial"",""time""
""fullscreenenter"",""1"",""2479""
","
","","","180.10000002384186","","","24","3712","2922","&#9789;","elianto","#f73b6a7A"," "," ","1","0","[1032.9000000357628]","1","0","4","","","","","","","",""
"pit-trial","99","721961","0.0-2.0-17.3-3.3","battery-v0.2","","""event"",""trial"",""time""
""fullscreenenter"",""1"",""2479""
","
","
","""event"",""trial"",""time""
""fullscreenenter"",""1"",""2479""
","
","","","363.69999998807907","","","24","3712","2922","&#9789;","elianto","#f73b6a7A"," "," ","1","-10","[581.7999999523163,1219.199999988079]","2","0","4","","","","","","","",""
"pit-trial","100","725106","0.0-2.0-17.3-4.3","battery-v0.2","","""event"",""trial"",""time""
""fullscreenenter"",""1"",""2479""
","
","
","""event"",""trial"",""time""
""fullscreenenter"",""1"",""2479""
","
","","","276.5","","","24","3712","2922","&#9789;","elianto","#f73b6a7A"," "," ","1","0","[1135.199999988079]","1","0","4","","","","","","","",""
"call-function","101","725111","0.0-2.0-18.0","battery-v0.2","","""event"",""trial"",""time""
""fullscreenenter"",""1"",""2479""
","
","
","""event"",""trial"",""time""
""fullscreenenter"",""1"",""2479""
","
","","","","","","","","","","","","","","","","","","","","","","","","","","",""
"pit-instructions","102","794807","0.0-2.0-19.0","battery-v0.2","","""event"",""trial"",""time""
""fullscreenenter"",""1"",""2479""
","
","
","""event"",""trial"",""time""
""fullscreenenter"",""1"",""2479""
","
","","[{""page_index"":0,""viewing_time"":6735.600000023842},{""page_index"":1,""viewing_time"":5173.5},{""page_index"":2,""viewing_time"":14211.199999988079},{""page_index"":3,""viewing_time"":7963.900000035763},{""page_index"":4,""viewing_time"":8263.5},{""page_index"":5,""viewing_time"":8582},{""page_index"":6,""viewing_time"":8336.299999952316},{""page_index"":7,""viewing_time"":6304.600000023842},{""page_index"":8,""viewing_time"":4123.300000011921}]","69695","","","","","","","","","","","","","","","","","","","","","","","",""
"pit-comprehension","103","799274","0.0-2.0-20.0-0.0","battery-v0.2","","""event"",""trial"",""time""
""fullscreenenter"",""1"",""2479""
","
","
","""event"",""trial"",""time""
""fullscreenenter"",""1"",""2479""
","
","","","4459","[""SPACE""]","0","24","3712","2922","","","","","","","","","","","","","","","","","","",""
"pit-instructions","104","802591","0.0-2.0-20.0-1.0","battery-v0.2","","""event"",""trial"",""time""
""fullscreenenter"",""1"",""2479""
","
","
","""event"",""trial"",""time""
""fullscreenenter"",""1"",""2479""
","
","","[{""page_index"":0,""viewing_time"":3288}]","3289.099999964237","","","","","","","","","","","","","","","","","","","","","","","",""
"pit-comprehension","105","808547","0.0-2.0-21.0-0.0","battery-v0.2","","""event"",""trial"",""time""
""fullscreenenter"",""1"",""2479""
","
","
","""event"",""trial"",""time""
""fullscreenenter"",""1"",""2479""
","
","","","5948.099999964237","[""10""]","0","24","3712","2922","","","","","","","","","","","","","","","","","","",""
"pit-instructions","106","810838","0.0-2.0-21.0-1.0","battery-v0.2","","""event"",""trial"",""time""
""fullscreenenter"",""1"",""2479""
","
","
","""event"",""trial"",""time""
""fullscreenenter"",""1"",""2479""
","
","","[{""page_index"":0,""viewing_time"":2264.800000011921}]","2265.100000023842","","","","","","","","","","","","","","","","","","","","","","","",""
"pit-comprehension","107","819584","0.0-2.0-22.0-0.0","battery-v0.2","","""event"",""trial"",""time""
""fullscreenenter"",""1"",""2479""
","
","
","""event"",""trial"",""time""
""fullscreenenter"",""1"",""2479""
","
","","","8738.699999988079","[""0""]","0","24","3712","2922","","","","","","","","","","","","","","","","","","",""
"pit-instructions","108","823763","0.0-2.0-22.0-1.0","battery-v0.2","","""event"",""trial"",""time""
""fullscreenenter"",""1"",""2479""
","
","
","""event"",""trial"",""time""
""fullscreenenter"",""1"",""2479""
","
","","[{""page_index"":0,""viewing_time"":4149.5}]","4150.099999964237","","","","","","","","","","","","","","","","","","","","","","","",""
"pit-comprehension","109","832273","0.0-2.0-23.0-0.0","battery-v0.2","","""event"",""trial"",""time""
""fullscreenenter"",""1"",""2479""
","
","
","""event"",""trial"",""time""
""fullscreenenter"",""1"",""2479""
","
","","","8502.900000035763","[""True""]","0","24","3712","2922","","","","","","","","","","","","","","","","","","",""
"pit-instructions","110","835280","0.0-2.0-23.0-1.0","battery-v0.2","","""event"",""trial"",""time""
""fullscreenenter"",""1"",""2479""
","
","
","""event"",""trial"",""time""
""fullscreenenter"",""1"",""2479""
","
","","[{""page_index"":0,""viewing_time"":2979}]","2979.600000023842","","","","","","","","","","","","","","","","","","","","","","","",""
"pit-comprehension","111","844792","0.0-2.0-24.0-0.0","battery-v0.2","","""event"",""trial"",""time""
""fullscreenenter"",""1"",""2479""
","
","
","""event"",""trial"",""time""
""fullscreenenter"",""1"",""2479""
","
","","","9505","[""True""]","0","24","3712","2922","","","","","","","","","","","","","","","","","","",""
"pit-instructions","112","852550","0.0-2.0-24.0-1.0","battery-v0.2","","""event"",""trial"",""time""
""fullscreenenter"",""1"",""2479""
","
","
","""event"",""trial"",""time""
""fullscreenenter"",""1"",""2479""
","
","","[{""page_index"":0,""viewing_time"":7728.5}]","7729","","","","","","","","","","","","","","","","","","","","","","","",""
"pit-comprehension","113","859029","0.0-2.0-25.0-0.0","battery-v0.2","","""event"",""trial"",""time""
""fullscreenenter"",""1"",""2479""
","
","
","""event"",""trial"",""time""
""fullscreenenter"",""1"",""2479""
","
","","","6471","[""True""]","0","24","3712","2922","","","","","","","","","","","","","","","","","","",""
"pit-instructions","114","864623","0.0-2.0-25.0-1.0","battery-v0.2","","""event"",""trial"",""time""
""fullscreenenter"",""1"",""2479""
","
","
","""event"",""trial"",""time""
""fullscreenenter"",""1"",""2479""
","
","","[{""page_index"":0,""viewing_time"":5565.199999988079}]","5565.800000011921","","","","","","","","","","","","","","","","","","","","","","","",""
"pit-comprehension","115","869172","0.0-2.0-26.0-0.0","battery-v0.2","","""event"",""trial"",""time""
""fullscreenenter"",""1"",""2479""
","
","
","""event"",""trial"",""time""
""fullscreenenter"",""1"",""2479""
","
","","","4541.5","[""False""]","0","24","3712","2922","","","","","","","","","","","","","","","","","","",""
"pit-instructions","116","871943","0.0-2.0-26.0-1.0","battery-v0.2","","""event"",""trial"",""time""
""fullscreenenter"",""1"",""2479""
","
","
","""event"",""trial"",""time""
""fullscreenenter"",""1"",""2479""
","
","","[{""page_index"":0,""viewing_time"":2744.600000023842}]","2745.300000011921","","","","","","","","","","","","","","","","","","","","","","","",""
"pit-instructions","117","887781","0.0-3.0","battery-v0.2","","""event"",""trial"",""time""
""fullscreenenter"",""1"",""2479""
","
","
","""event"",""trial"",""time""
""fullscreenenter"",""1"",""2479""
","
","","[{""page_index"":0,""viewing_time"":3725.5},{""page_index"":1,""viewing_time"":5792.300000011921},{""page_index"":2,""viewing_time"":6313.5}]","15832.099999964237","","","","","","","","","","","","","","","","","","","","","","","",""
"pit-trial","118","891094","0.0-4.0","battery-v0.2","","""event"",""trial"",""time""
""fullscreenenter"",""1"",""2479""
","
","
","""event"",""trial"",""time""
""fullscreenenter"",""1"",""2479""
","
","","","438.60000002384186","","","24","3712","2922","&#9730;","elianto","#3366ff99"," "," ","1","+10","[1290.300000011921]","1","1","","","3712","1","1","1","win","go","0"
"pit-trial","119","894422","0.0-5.0","battery-v0.2","","""event"",""trial"",""time""
""fullscreenenter"",""1"",""2479""
","
","
","""event"",""trial"",""time""
""fullscreenenter"",""1"",""2479""
","
","","","457.80000001192093","","","24","3712","2922","&#9733;","elianto","#3366ff99","-1"," ","0","0","[1313.800000011921]","1","1","","","3712","2","2","2","win","no-go","0"
"pit-trial","120","898011","0.0-6.0","battery-v0.2","","""event"",""trial"",""time""
""fullscreenenter"",""1"",""2479""
","
","
","""event"",""trial"",""time""
""fullscreenenter"",""1"",""2479""
","
","","","727.6000000238419","","","24","3712","2922","&#9728;","elianto","#f73b6a7A","-1"," ","0","0","[1582]","1","1","","","3712","3","0","4","lose","no-go","1"
"pit-trial","121","902887","0.0-7.0","battery-v0.2","","""event"",""trial"",""time""
""fullscreenenter"",""1"",""2479""
","
","
","""event"",""trial"",""time""
""fullscreenenter"",""1"",""2479""
","
","","","-1","","","24","3712","2922","&#9752;","elianto","#f73b6a7A"," ","-1","0","-10","[]","0","1","","","3712","4","3","3","lose","go","0"
"pit-trial","122","906286","0.0-8.0","battery-v0.2","","""event"",""trial"",""time""
""fullscreenenter"",""1"",""2479""
","
","
","""event"",""trial"",""time""
""fullscreenenter"",""1"",""2479""
","
","","","527.6000000238419","","","24","3712","2922","&#9752;","elianto","#f73b6a7A"," "," ","1","0","[1381.800000011921]","1","1","","","3712","5","3","3","lose","go","0"
"pit-trial","123","911154","0.0-9.0","battery-v0.2","","""event"",""trial"",""time""
""fullscreenenter"",""1"",""2479""
","
","
","""event"",""trial"",""time""
""fullscreenenter"",""1"",""2479""
","
","","","-1","","","24","3712","2922","&#9728;","elianto","#f73b6a7A","-1","-1","1","0","[]","0","1","","","3712","6","0","4","lose","no-go","0"
"pit-trial","124","914506","0.0-10.0","battery-v0.2","","""event"",""trial"",""time""
""fullscreenenter"",""1"",""2479""
","
","
","""event"",""trial"",""time""
""fullscreenenter"",""1"",""2479""
","
","","","489.39999997615814","","","24","3712","2922","&#9733;","elianto","#3366ff99","-1"," ","0","0","[1339.8999999761581]","1","1","","","3712","7","2","2","win","no-go","0"
"pit-trial","125","917562","0.0-11.0","battery-v0.2","","""event"",""trial"",""time""
""fullscreenenter"",""1"",""2479""
","
","
","""event"",""trial"",""time""
""fullscreenenter"",""1"",""2479""
","
","","","197.89999997615814","","","24","3712","2922","&#9730;","elianto","#3366ff99"," "," ","1","+10","[1048.5999999642372]","1","1","","","3712","8","1","1","win","go","0"
"pit-trial","126","920546","0.0-12.0","battery-v0.2","","""event"",""trial"",""time""
""fullscreenenter"",""1"",""2479""
","
","
","""event"",""trial"",""time""
""fullscreenenter"",""1"",""2479""
","
","","","120.59999996423721","","","24","3712","2922","&#9730;","elianto","#3366ff99"," "," ","1","0","[971.8999999761581]","1","1","","","3712","9","1","1","win","go","1"
"pit-trial","127","923634","0.0-13.0","battery-v0.2","","""event"",""trial"",""time""
""fullscreenenter"",""1"",""2479""
","
","
","""event"",""trial"",""time""
""fullscreenenter"",""1"",""2479""
","
","","","219.89999997615814","","","24","3712","2922","&#9752;","elianto","#f73b6a7A"," "," ","1","0","[1075]","1","1","","","3712","10","3","3","lose","go","0"
"pit-trial","128","926667","0.0-14.0","battery-v0.2","","""event"",""trial"",""time""
""fullscreenenter"",""1"",""2479""
","
","
","""event"",""trial"",""time""
""fullscreenenter"",""1"",""2479""
","
","","","168.60000002384186","","","24","3712","2922","&#9733;","elianto","#3366ff99","-1"," ","0","0","[1020.1999999880791]","1","1","","","3712","11","2","2","win","no-go","0"
"pit-trial","129","930130","0.0-15.0","battery-v0.2","","""event"",""trial"",""time""
""fullscreenenter"",""1"",""2479""
","
","
","""event"",""trial"",""time""
""fullscreenenter"",""1"",""2479""
","
","","","596.4000000357628","","","24","3712","2922","&#9728;","elianto","#f73b6a7A","-1"," ","0","0","[831.7999999523163,1446.3999999761581]","2","1","","","3712","12","0","4","lose","no-go","1"
"pit-trial","130","933466","0.0-16.0","battery-v0.2","","""event"",""trial"",""time""
""fullscreenenter"",""1"",""2479""
","
","
","""event"",""trial"",""time""
""fullscreenenter"",""1"",""2479""
","
","","","470.69999998807907","","","24","3712","2922","&#9728;","elianto","#f73b6a7A","-1"," ","0","-10","[1325.699999988079]","1","1","","","3712","13","0","4","lose","no-go","0"
"pit-trial","131","936835","0.0-17.0","battery-v0.2","","""event"",""trial"",""time""
""fullscreenenter"",""1"",""2479""
","
","
","""event"",""trial"",""time""
""fullscreenenter"",""1"",""2479""
","
","","","501.7000000476837","","","24","3712","2922","&#9733;","elianto","#3366ff99","-1"," ","0","0","[1353.6000000238419]","1","1","","","3712","14","2","2","win","no-go","0"
"pit-trial","132","940178","0.0-18.0","battery-v0.2","","""event"",""trial"",""time""
""fullscreenenter"",""1"",""2479""
","
","
","""event"",""trial"",""time""
""fullscreenenter"",""1"",""2479""
","
","","","478.4000000357628","","","24","3712","2922","&#9752;","elianto","#f73b6a7A"," "," ","1","-10","[1329.5]","1","1","","","3712","15","3","3","lose","go","1"
"pit-trial","133","943299","0.0-19.0","battery-v0.2","","""event"",""trial"",""time""
""fullscreenenter"",""1"",""2479""
","
","
","""event"",""trial"",""time""
""fullscreenenter"",""1"",""2479""
","
","","","248.69999998807907","","","24","3712","2922","&#9730;","elianto","#3366ff99"," "," ","1","+10","[1105.1000000238419]","1","1","","","3712","16","1","1","win","go","0"
"pit-trial","134","946819","0.0-20.0","battery-v0.2","","""event"",""trial"",""time""
""fullscreenenter"",""1"",""2479""
","
","
","""event"",""trial"",""time""
""fullscreenenter"",""1"",""2479""
","
","","","652.1999999880791","","","24","3712","2922","&#9730;","elianto","#3366ff99"," "," ","1","+10","[1504.5999999642372]","1","1","","","3712","17","1","1","win","go","0"
"pit-trial","135","950211","0.0-21.0","battery-v0.2","","""event"",""trial"",""time""
""fullscreenenter"",""1"",""2479""
","
","
","""event"",""trial"",""time""
""fullscreenenter"",""1"",""2479""
","
","","","531.3999999761581","","","24","3712","2922","&#9733;","elianto","#3366ff99","-1"," ","0","+10","[1381.5]","1","1","","","3712","18","2","2","win","no-go","1"
"pit-trial","136","955083","0.0-22.0","battery-v0.2","","""event"",""trial"",""time""
""fullscreenenter"",""1"",""2479""
","
","
","""event"",""trial"",""time""
""fullscreenenter"",""1"",""2479""
","
","","","-1","","","24","3712","2922","&#9752;","elianto","#f73b6a7A"," ","-1","0","-10","[]","0","1","","","3712","19","3","3","lose","go","0"
"pit-trial","137","958491","0.0-23.0","battery-v0.2","","""event"",""trial"",""time""
""fullscreenenter"",""1"",""2479""
","
","
","""event"",""trial"",""time""
""fullscreenenter"",""1"",""2479""
","
","","","546.6999999880791","","","24","3712","2922","&#9728;","elianto","#f73b6a7A","-1"," ","0","-10","[1398.699999988079]","1","1","","","3712","20","0","4","lose","no-go","0"
"pit-instructions","138","970703","0.0-24.0","battery-v0.2","","""event"",""trial"",""time""
""fullscreenenter"",""1"",""2479""
","
","
","""event"",""trial"",""time""
""fullscreenenter"",""1"",""2479""
","
","","[{""page_index"":0,""viewing_time"":5550.300000011921},{""page_index"":1,""viewing_time"":6652.800000011921}]","12204.200000047684","","","","","","","","","","","","","","","","","","","","","","","",""
"pit-trial","139","975015","0.0-25.0","battery-v0.2","","""event"",""trial"",""time""
""fullscreenenter"",""1"",""2479""
","
","
","""event"",""trial"",""time""
""fullscreenenter"",""1"",""2479""
","
","","","1441.0999999642372","","","24","3712","2922","m","elianto","#f73b6a7A","-1"," ","0","-10","[2291.400000035763]","1","2","","","3712","21","0","4","lose","no-go","0"
"pit-trial","140","978343","0.0-26.0","battery-v0.2","","""event"",""trial"",""time""
""fullscreenenter"",""1"",""2479""
","
","
","""event"",""trial"",""time""
""fullscreenenter"",""1"",""2479""
","
","","","461.89999997615814","","","24","3712","2922","r","elianto","#3366ff99"," "," ","1","+10","[1315.5999999642372]","1","2","","","3712","22","1","1","win","go","0"
"pit-trial","141","981599","0.0-27.0","battery-v0.2","","""event"",""trial"",""time""
""fullscreenenter"",""1"",""2479""
","
","
","""event"",""trial"",""time""
""fullscreenenter"",""1"",""2479""
","
","","","385.80000001192093","","","24","3712","2922","h","elianto","#f73b6a7A"," "," ","1","-10","[1240]","1","2","","","3712","23","3","3","lose","go","1"
"pit-trial","142","985057","0.0-28.0","battery-v0.2","","""event"",""trial"",""time""
""fullscreenenter"",""1"",""2479""
","
","
","""event"",""trial"",""time""
""fullscreenenter"",""1"",""2479""
","
","","","596.6999999880791","","","24","3712","2922","y","elianto","#f73b6a7A","-1"," ","0","-10","[1450.0999999642372]","1","2","","","3712","24","2","4","lose","no-go","0"
"pit-trial","143","989923","0.0-29.0","battery-v0.2","","""event"",""trial"",""time""
""fullscreenenter"",""1"",""2479""
","
","
","""event"",""trial"",""time""
""fullscreenenter"",""1"",""2479""
","
","","","-1","","","24","3712","2922","h","elianto","#f73b6a7A"," ","-1","0","-10","[]","0","2","","","3712","25","3","3","lose","go","0"
"pit-trial","144","993835","0.0-30.0","battery-v0.2","","""event"",""trial"",""time""
""fullscreenenter"",""1"",""2479""
","
","
","""event"",""trial"",""time""
""fullscreenenter"",""1"",""2479""
","
","","","1043","","","24","3712","2922","m","elianto","#f73b6a7A","-1"," ","0","-10","[1902.8999999761581]","1","2","","","3712","26","0","4","lose","no-go","0"
"pit-trial","145","998711","0.0-31.0","battery-v0.2","","""event"",""trial"",""time""
""fullscreenenter"",""1"",""2479""
","
","
","""event"",""trial"",""time""
""fullscreenenter"",""1"",""2479""
","
","","","-1","","","24","3712","2922","y","elianto","#f73b6a7A","-1","-1","1","0","[]","0","2","","","3712","27","2","4","lose","no-go","0"
"pit-trial","146","1002163","0.0-32.0","battery-v0.2","","""event"",""trial"",""time""
""fullscreenenter"",""1"",""2479""
","
","
","""event"",""trial"",""time""
""fullscreenenter"",""1"",""2479""
","
","","","584.6000000238419","","","24","3712","2922","r","elianto","#3366ff99"," "," ","1","+10","[1441]","1","2","","","3712","28","1","1","win","go","0"
"pit-trial","147","1007034","0.0-33.0","battery-v0.2","","""event"",""trial"",""time""
""fullscreenenter"",""1"",""2479""
","
","
","""event"",""trial"",""time""
""fullscreenenter"",""1"",""2479""
","
","","","-1","","","24","3712","2922","h","elianto","#f73b6a7A"," ","-1","0","-10","[]","0","2","","","3712","29","3","3","lose","go","0"
"pit-trial","148","1011899","0.0-34.0","battery-v0.2","","""event"",""trial"",""time""
""fullscreenenter"",""1"",""2479""
","
","
","""event"",""trial"",""time""
""fullscreenenter"",""1"",""2479""
","
","","","-1","","","24","3712","2922","y","elianto","#f73b6a7A","-1","-1","1","-10","[]","0","2","","","3712","30","2","4","lose","no-go","1"
"pit-trial","149","1015307","0.0-35.0","battery-v0.2","","""event"",""trial"",""time""
""fullscreenenter"",""1"",""2479""
","
","
","""event"",""trial"",""time""
""fullscreenenter"",""1"",""2479""
","
","","","541.1999999880791","","","24","3712","2922","r","elianto","#3366ff99"," "," ","1","+10","[1393.199999988079]","1","2","","","3712","31","1","1","win","go","0"
"pit-trial","150","1020179","0.0-36.0","battery-v0.2","","""event"",""trial"",""time""
""fullscreenenter"",""1"",""2479""
","
","
","""event"",""trial"",""time""
""fullscreenenter"",""1"",""2479""
","
","","","-1","","","24","3712","2922","m","elianto","#f73b6a7A","-1","-1","1","0","[]","0","2","","","3712","32","0","4","lose","no-go","0"
"pit-trial","151","1025051","0.0-37.0","battery-v0.2","","""event"",""trial"",""time""
""fullscreenenter"",""1"",""2479""
","
","
","""event"",""trial"",""time""
""fullscreenenter"",""1"",""2479""
","
","","","-1","","","24","3712","2922","y","elianto","#f73b6a7A","-1","-1","1","0","[]","0","2","","","3712","33","2","4","lose","no-go","0"
"pit-trial","152","1028387","0.0-38.0","battery-v0.2","","""event"",""trial"",""time""
""fullscreenenter"",""1"",""2479""
","
","
","""event"",""trial"",""time""
""fullscreenenter"",""1"",""2479""
","
","","","469.5999999642372","","","24","3712","2922","r","elianto","#3366ff99"," "," ","1","+10","[1320.3999999761581]","1","2","","","3712","34","1","1","win","go","0"
"pit-trial","153","1033259","0.0-39.0","battery-v0.2","","""event"",""trial"",""time""
""fullscreenenter"",""1"",""2479""
","
","
","""event"",""trial"",""time""
""fullscreenenter"",""1"",""2479""
","
","","","-1","","","24","3712","2922","m","elianto","#f73b6a7A","-1","-1","1","0","[]","0","2","","","3712","35","0","4","lose","no-go","0"
"pit-trial","154","1037203","0.0-40.0","battery-v0.2","","""event"",""trial"",""time""
""fullscreenenter"",""1"",""2479""
","
","
","""event"",""trial"",""time""
""fullscreenenter"",""1"",""2479""
","
","","","1070.4000000357628","","","24","3712","2922","h","elianto","#f73b6a7A"," "," ","1","-10","[1927.699999988079]","1","2","","","3712","36","3","3","lose","go","1"
"pit-trial","155","1040475","0.0-41.0","battery-v0.2","","""event"",""trial"",""time""
""fullscreenenter"",""1"",""2479""
","
","
","""event"",""trial"",""time""
""fullscreenenter"",""1"",""2479""
","
","","","411.80000001192093","","","24","3712","2922","r","elianto","#3366ff99"," "," ","1","+10","[1262]","1","2","","","3712","37","1","1","win","go","0"
"pit-trial","156","1045347","0.0-42.0","battery-v0.2","","""event"",""trial"",""time""
""fullscreenenter"",""1"",""2479""
","
","
","""event"",""trial"",""time""
""fullscreenenter"",""1"",""2479""
","
","","","-1","","","24","3712","2922","h","elianto","#f73b6a7A"," ","-1","0","-10","[]","0","2","","","3712","38","3","3","lose","go","0"
"pit-trial","157","1050219","0.0-43.0","battery-v0.2","","""event"",""trial"",""time""
""fullscreenenter"",""1"",""2479""
","
","
","""event"",""trial"",""time""
""fullscreenenter"",""1"",""2479""
","
","","","-1","","","24","3712","2922","m","elianto","#f73b6a7A","-1","-1","1","0","[]","0","2","","","3712","39","0","4","lose","no-go","0"
"pit-trial","158","1055094","0.0-44.0","battery-v0.2","","""event"",""trial"",""time""
""fullscreenenter"",""1"",""2479""
","
","
","""event"",""trial"",""time""
""fullscreenenter"",""1"",""2479""
","
","","","-1","","","24","3712","2922","y","elianto","#f73b6a7A","-1","-1","1","-10","[]","0","2","","","3712","40","2","4","lose","no-go","1"
"pit-trial","159","1059964","0.0-45.0","battery-v0.2","","""event"",""trial"",""time""
""fullscreenenter"",""1"",""2479""
","
","
","""event"",""trial"",""time""
""fullscreenenter"",""1"",""2479""
","
","","","-1","","","24","3712","2922","m","elianto","#f73b6a7A","-1","-1","1","0","[]","0","2","","","3712","41","0","4","lose","no-go","0"
"pit-trial","160","1064555","0.0-46.0","battery-v0.2","","""event"",""trial"",""time""
""fullscreenenter"",""1"",""2479""
","
","
","""event"",""trial"",""time""
""fullscreenenter"",""1"",""2479""
","
","","","1720.7999999523163","","","24","3712","2922","r","elianto","#3366ff99"," "," ","1","+10","[2575.2999999523163]","1","2","","","3712","42","1","1","win","go","0"
"pit-trial","161","1069428","0.0-47.0","battery-v0.2","","""event"",""trial"",""time""
""fullscreenenter"",""1"",""2479""
","
","
","""event"",""trial"",""time""
""fullscreenenter"",""1"",""2479""
","
","","","-1","","","24","3712","2922","h","elianto","#f73b6a7A"," ","-1","0","-10","[]","0","2","","","3712","43","3","3","lose","go","0"
"pit-trial","162","1074300","0.0-48.0","battery-v0.2","","""event"",""trial"",""time""
""fullscreenenter"",""1"",""2479""
","
","
","""event"",""trial"",""time""
""fullscreenenter"",""1"",""2479""
","
","","","-1","","","24","3712","2922","y","elianto","#f73b6a7A","-1","-1","1","0","[]","0","2","","","3712","44","2","4","lose","no-go","0"
"pit-trial","163","1077724","0.0-49.0","battery-v0.2","","""event"",""trial"",""time""
""fullscreenenter"",""1"",""2479""
","
","
","""event"",""trial"",""time""
""fullscreenenter"",""1"",""2479""
","
","","","555.3999999761581","","","24","3712","2922","y","elianto","#f73b6a7A","-1"," ","0","-10","[1406.800000011921]","1","2","","","3712","45","2","4","lose","no-go","0"
"pit-trial","164","1080995","0.0-50.0","battery-v0.2","","""event"",""trial"",""time""
""fullscreenenter"",""1"",""2479""
","
","
","""event"",""trial"",""time""
""fullscreenenter"",""1"",""2479""
","
","","","403.30000001192093","","","24","3712","2922","z","elianto","#3366ff99","-1"," ","0","0","[1260.199999988079]","1","2","","","3712","46","4","2","win","no-go","0"
"pit-trial","165","1085867","0.0-51.0","battery-v0.2","","""event"",""trial"",""time""
""fullscreenenter"",""1"",""2479""
","
","
","""event"",""trial"",""time""
""fullscreenenter"",""1"",""2479""
","
","","","-1","","","24","3712","2922","m","elianto","#f73b6a7A","-1","-1","1","0","[]","0","2","","","3712","47","0","4","lose","no-go","0"
"pit-trial","166","1090739","0.0-52.0","battery-v0.2","","""event"",""trial"",""time""
""fullscreenenter"",""1"",""2479""
","
","
","""event"",""trial"",""time""
""fullscreenenter"",""1"",""2479""
","
","","","-1","","","24","3712","2922","h","elianto","#f73b6a7A"," ","-1","0","-10","[]","0","2","","","3712","48","3","3","lose","go","0"
"pit-trial","167","1094619","0.0-53.0","battery-v0.2","","""event"",""trial"",""time""
""fullscreenenter"",""1"",""2479""
","
","
","""event"",""trial"",""time""
""fullscreenenter"",""1"",""2479""
","
","","","1013","","","24","3712","2922","h","elianto","#f73b6a7A"," "," ","1","-10","[1869.6000000238419]","1","2","","","3712","49","3","3","lose","go","1"
"pit-trial","168","1097916","0.0-54.0","battery-v0.2","","""event"",""trial"",""time""
""fullscreenenter"",""1"",""2479""
","
","
","""event"",""trial"",""time""
""fullscreenenter"",""1"",""2479""
","
","","","435.80000001192093","","","24","3712","2922","z","elianto","#3366ff99","-1"," ","0","0","[1286.8999999761581]","1","2","","","3712","50","4","2","win","no-go","0"
"pit-trial","169","1102291","0.0-55.0","battery-v0.2","","""event"",""trial"",""time""
""fullscreenenter"",""1"",""2479""
","
","
","""event"",""trial"",""time""
""fullscreenenter"",""1"",""2479""
","
","","","1511.4000000357628","","","24","3712","2922","m","elianto","#f73b6a7A","-1"," ","0","-10","[2362.399999976158]","1","2","","","3712","51","0","4","lose","no-go","0"
"pit-trial","170","1105651","0.0-56.0","battery-v0.2","","""event"",""trial"",""time""
""fullscreenenter"",""1"",""2479""
","
","
","""event"",""trial"",""time""
""fullscreenenter"",""1"",""2479""
","
","","","490.10000002384186","","","24","3712","2922","r","elianto","#3366ff99"," "," ","1","+10","[1349.199999988079]","1","2","","","3712","52","1","1","win","go","0"
"pit-trial","171","1108940","0.0-57.0","battery-v0.2","","""event"",""trial"",""time""
""fullscreenenter"",""1"",""2479""
","
","
","""event"",""trial"",""time""
""fullscreenenter"",""1"",""2479""
","
","","","428.5","","","24","3712","2922","r","elianto","#3366ff99"," "," ","1","+10","[1279.300000011921]","1","2","","","3712","53","1","1","win","go","0"
"pit-trial","172","1112036","0.0-58.0","battery-v0.2","","""event"",""trial"",""time""
""fullscreenenter"",""1"",""2479""
","
","
","""event"",""trial"",""time""
""fullscreenenter"",""1"",""2479""
","
","","","226.39999997615814","","","24","3712","2922","m","elianto","#f73b6a7A","-1"," ","0","-10","[1082.3999999761581]","1","2","","","3712","54","0","4","lose","no-go","0"
"pit-trial","173","1115300","0.0-59.0","battery-v0.2","","""event"",""trial"",""time""
""fullscreenenter"",""1"",""2479""
","
","
","""event"",""trial"",""time""
""fullscreenenter"",""1"",""2479""
","
","","","399.60000002384186","","","24","3712","2922","z","elianto","#3366ff99","-1"," ","0","0","[1249.800000011921]","1","2","","","3712","55","4","2","win","no-go","0"
"pit-trial","174","1120172","0.0-60.0","battery-v0.2","","""event"",""trial"",""time""
""fullscreenenter"",""1"",""2479""
","
","
","""event"",""trial"",""time""
""fullscreenenter"",""1"",""2479""
","
","","","-1","","","24","3712","2922","y","elianto","#f73b6a7A","-1","-1","1","0","[]","0","2","","","3712","56","2","4","lose","no-go","0"
"pit-trial","175","1124900","0.0-61.0","battery-v0.2","","""event"",""trial"",""time""
""fullscreenenter"",""1"",""2479""
","
","
","""event"",""trial"",""time""
""fullscreenenter"",""1"",""2479""
","
","","","1858.5999999642372","","","24","3712","2922","z","elianto","#3366ff99","-1"," ","0","0","[2716.599999964237]","1","2","","","3712","57","4","2","win","no-go","0"
"pit-trial","176","1129772","0.0-62.0","battery-v0.2","","""event"",""trial"",""time""
""fullscreenenter"",""1"",""2479""
","
","
","""event"",""trial"",""time""
""fullscreenenter"",""1"",""2479""
","
","","","-1","","","24","3712","2922","m","elianto","#f73b6a7A","-1","-1","1","0","[]","0","2","","","3712","58","0","4","lose","no-go","0"
"pit-trial","177","1134644","0.0-63.0","battery-v0.2","","""event"",""trial"",""time""
""fullscreenenter"",""1"",""2479""
","
","
","""event"",""trial"",""time""
""fullscreenenter"",""1"",""2479""
","
","","","-1","","","24","3712","2922","h","elianto","#f73b6a7A"," ","-1","0","-10","[]","0","2","","","3712","59","3","3","lose","go","0"
"pit-trial","178","1138668","0.0-64.0","battery-v0.2","","""event"",""trial"",""time""
""fullscreenenter"",""1"",""2479""
","
","
","""event"",""trial"",""time""
""fullscreenenter"",""1"",""2479""
","
","","","1151","","","24","3712","2922","r","elianto","#3366ff99"," "," ","1","+10","[2006.800000011921]","1","2","","","3712","60","1","1","win","go","0"
"pit-trial","179","1143540","0.0-65.0","battery-v0.2","","""event"",""trial"",""time""
""fullscreenenter"",""1"",""2479""
","
","
","""event"",""trial"",""time""
""fullscreenenter"",""1"",""2479""
","
","","","-1","","","24","3712","2922","y","elianto","#f73b6a7A","-1","-1","1","0","[]","0","2","","","3712","61","2","4","lose","no-go","0"
"pit-trial","180","1147140","0.0-66.0","battery-v0.2","","""event"",""trial"",""time""
""fullscreenenter"",""1"",""2479""
","
","
","""event"",""trial"",""time""
""fullscreenenter"",""1"",""2479""
","
","","","726.6000000238419","","","24","3712","2922","z","elianto","#3366ff99","-1"," ","0","0","[1583.6000000238419]","1","2","","","3712","62","4","2","win","no-go","0"
"pit-trial","181","1150588","0.0-67.0","battery-v0.2","","""event"",""trial"",""time""
""fullscreenenter"",""1"",""2479""
","
","
","""event"",""trial"",""time""
""fullscreenenter"",""1"",""2479""
","
","","","578.1999999880791","","","24","3712","2922","r","elianto","#3366ff99"," "," ","1","0","[1434.6000000238419]","1","2","","","3712","63","1","1","win","go","1"
"pit-trial","182","1155460","0.0-68.0","battery-v0.2","","""event"",""trial"",""time""
""fullscreenenter"",""1"",""2479""
","
","
","""event"",""trial"",""time""
""fullscreenenter"",""1"",""2479""
","
","","","-1","","","24","3712","2922","h","elianto","#f73b6a7A"," ","-1","0","0","[]","0","2","","","3712","64","3","3","lose","go","1"
"pit-trial","183","1160332","0.0-69.0","battery-v0.2","","""event"",""trial"",""time""
""fullscreenenter"",""1"",""2479""
","
","
","""event"",""trial"",""time""
""fullscreenenter"",""1"",""2479""
","
","","","-1","","","24","3712","2922","y","elianto","#f73b6a7A","-1","-1","1","0","[]","0","2","","","3712","65","2","4","lose","no-go","0"
"pit-trial","184","1165204","0.0-70.0","battery-v0.2","","""event"",""trial"",""time""
""fullscreenenter"",""1"",""2479""
","
","
","""event"",""trial"",""time""
""fullscreenenter"",""1"",""2479""
","
","","","-1","","","24","3712","2922","h","elianto","#f73b6a7A"," ","-1","0","-10","[]","0","2","","","3712","66","3","3","lose","go","0"
"pit-trial","185","1168564","0.0-71.0","battery-v0.2","","""event"",""trial"",""time""
""fullscreenenter"",""1"",""2479""
","
","
","""event"",""trial"",""time""
""fullscreenenter"",""1"",""2479""
","
","","","491.39999997615814","","","24","3712","2922","z","elianto","#3366ff99","-1"," ","0","0","[1348.3999999761581]","1","2","","","3712","67","4","2","win","no-go","0"
"pit-trial","186","1172007","0.0-72.0","battery-v0.2","","""event"",""trial"",""time""
""fullscreenenter"",""1"",""2479""
","
","
","""event"",""trial"",""time""
""fullscreenenter"",""1"",""2479""
","
","","","575.8000000119209","","","24","3712","2922","r","elianto","#3366ff99"," "," ","1","+10","[1431]","1","2","","","3712","68","1","1","win","go","0"
"pit-trial","187","1176876","0.0-73.0","battery-v0.2","","""event"",""trial"",""time""
""fullscreenenter"",""1"",""2479""
","
","
","""event"",""trial"",""time""
""fullscreenenter"",""1"",""2479""
","
","","","-1","","","24","3712","2922","h","elianto","#f73b6a7A"," ","-1","0","0","[]","0","2","","","3712","69","3","3","lose","go","1"
"pit-trial","188","1180204","0.0-74.0","battery-v0.2","","""event"",""trial"",""time""
""fullscreenenter"",""1"",""2479""
","
","
","""event"",""trial"",""time""
""fullscreenenter"",""1"",""2479""
","
","","","457.9000000357628","","","24","3712","2922","z","elianto","#3366ff99","-1"," ","0","0","[1315.1000000238419]","1","2","","","3712","70","4","2","win","no-go","0"
"pit-trial","189","1183636","0.0-75.0","battery-v0.2","","""event"",""trial"",""time""
""fullscreenenter"",""1"",""2479""
","
","
","""event"",""trial"",""time""
""fullscreenenter"",""1"",""2479""
","
","","","561.6999999880791","","","24","3712","2922","r","elianto","#3366ff99"," "," ","1","+10","[1419.300000011921]","1","2","","","3712","71","1","1","win","go","0"
"pit-trial","190","1187076","0.0-76.0","battery-v0.2","","""event"",""trial"",""time""
""fullscreenenter"",""1"",""2479""
","
","
","""event"",""trial"",""time""
""fullscreenenter"",""1"",""2479""
","
","","","569.8999999761581","","","24","3712","2922","c","elianto","#3366ff99"," "," ","1","0","[1425.8999999761581]","1","2","","","3712","72","5","1","win","go","1"
"pit-trial","191","1190348","0.0-77.0","battery-v0.2","","""event"",""trial"",""time""
""fullscreenenter"",""1"",""2479""
","
","
","""event"",""trial"",""time""
""fullscreenenter"",""1"",""2479""
","
","","","402","","","24","3712","2922","c","elianto","#3366ff99"," "," ","1","+10","[1260.2000000476837]","1","2","","","3712","73","5","1","win","go","0"
"pit-trial","192","1195220","0.0-78.0","battery-v0.2","","""event"",""trial"",""time""
""fullscreenenter"",""1"",""2479""
","
","
","""event"",""trial"",""time""
""fullscreenenter"",""1"",""2479""
","
","","","-1","","","24","3712","2922","h","elianto","#f73b6a7A"," ","-1","0","-10","[]","0","2","","","3712","74","3","3","lose","go","0"
"pit-trial","193","1198812","0.0-79.0","battery-v0.2","","""event"",""trial"",""time""
""fullscreenenter"",""1"",""2479""
","
","
","""event"",""trial"",""time""
""fullscreenenter"",""1"",""2479""
","
","","","726.1000000238419","","","24","3712","2922","z","elianto","#3366ff99","-1"," ","0","+10","[1576.300000011921]","1","2","","","3712","75","4","2","win","no-go","1"
"pit-trial","194","1202188","0.0-80.0","battery-v0.2","","""event"",""trial"",""time""
""fullscreenenter"",""1"",""2479""
","
","
","""event"",""trial"",""time""
""fullscreenenter"",""1"",""2479""
","
","","","509.30000001192093","","","24","3712","2922","r","elianto","#3366ff99"," "," ","1","+10","[1364.3999999761581]","1","2","","","3712","76","1","1","win","go","0"
"pit-trial","195","1205510","0.0-81.0","battery-v0.2","","""event"",""trial"",""time""
""fullscreenenter"",""1"",""2479""
","
","
","""event"",""trial"",""time""
""fullscreenenter"",""1"",""2479""
","
","","","448.10000002384186","","","24","3712","2922","c","elianto","#3366ff99"," "," ","1","+10","[1306.1000000238419]","1","2","","","3712","77","5","1","win","go","0"
"pit-trial","196","1210380","0.0-82.0","battery-v0.2","","""event"",""trial"",""time""
""fullscreenenter"",""1"",""2479""
","
","
","""event"",""trial"",""time""
""fullscreenenter"",""1"",""2479""
","
","","","-1","","","24","3712","2922","b","elianto","#f73b6a7A","-1","-1","1","0","[]","0","2","","","3712","78","6","4","lose","no-go","0"
"pit-trial","197","1213868","0.0-83.0","battery-v0.2","","""event"",""trial"",""time""
""fullscreenenter"",""1"",""2479""
","
","
","""event"",""trial"",""time""
""fullscreenenter"",""1"",""2479""
","
","","","617.1999999880791","","","24","3712","2922","z","elianto","#3366ff99","-1"," ","0","0","[1471.9000000357628]","1","2","","","3712","79","4","2","win","no-go","0"
"pit-trial","198","1218740","0.0-84.0","battery-v0.2","","""event"",""trial"",""time""
""fullscreenenter"",""1"",""2479""
","
","
","""event"",""trial"",""time""
""fullscreenenter"",""1"",""2479""
","
","","","-1","","","24","3712","2922","h","elianto","#f73b6a7A"," ","-1","0","0","[]","0","2","","","3712","80","3","3","lose","go","1"
"pit-trial","199","1222036","0.0-85.0","battery-v0.2","","""event"",""trial"",""time""
""fullscreenenter"",""1"",""2479""
","
","
","""event"",""trial"",""time""
""fullscreenenter"",""1"",""2479""
","
","","","424.69999998807907","","","24","3712","2922","c","elianto","#3366ff99"," "," ","1","+10","[1282]","1","2","","","3712","81","5","1","win","go","0"
"pit-trial","200","1226909","0.0-86.0","battery-v0.2","","""event"",""trial"",""time""
""fullscreenenter"",""1"",""2479""
","
","
","""event"",""trial"",""time""
""fullscreenenter"",""1"",""2479""
","
","","","-1","","","24","3712","2922","b","elianto","#f73b6a7A","-1","-1","1","0","[]","0","2","","","3712","82","6","4","lose","no-go","0"
"pit-trial","201","1231781","0.0-87.0","battery-v0.2","","""event"",""trial"",""time""
""fullscreenenter"",""1"",""2479""
","
","
","""event"",""trial"",""time""
""fullscreenenter"",""1"",""2479""
","
","","","-1","","","24","3712","2922","t","elianto","#f73b6a7A"," ","-1","0","-10","[]","0","2","","","3712","83","7","3","lose","go","0"
"pit-trial","202","1235189","0.0-88.0","battery-v0.2","","""event"",""trial"",""time""
""fullscreenenter"",""1"",""2479""
","
","
","""event"",""trial"",""time""
""fullscreenenter"",""1"",""2479""
","
","","","539.2000000476837","","","24","3712","2922","z","elianto","#3366ff99","-1"," ","0","0","[1392.300000011921]","1","2","","","3712","84","4","2","win","no-go","0"
"pit-trial","203","1240061","0.0-89.0","battery-v0.2","","""event"",""trial"",""time""
""fullscreenenter"",""1"",""2479""
","
","
","""event"",""trial"",""time""
""fullscreenenter"",""1"",""2479""
","
","","","-1","","","24","3712","2922","t","elianto","#f73b6a7A"," ","-1","0","0","[]","0","2","","","3712","85","7","3","lose","go","1"
"pit-trial","204","1243429","0.0-90.0","battery-v0.2","","""event"",""trial"",""time""
""fullscreenenter"",""1"",""2479""
","
","
","""event"",""trial"",""time""
""fullscreenenter"",""1"",""2479""
","
","","","500.60000002384186","","","24","3712","2922","c","elianto","#3366ff99"," "," ","1","+10","[1357]","1","2","","","3712","86","5","1","win","go","0"
"pit-trial","205","1248301","0.0-91.0","battery-v0.2","","""event"",""trial"",""time""
""fullscreenenter"",""1"",""2479""
","
","
","""event"",""trial"",""time""
""fullscreenenter"",""1"",""2479""
","
","","","-1","","","24","3712","2922","b","elianto","#f73b6a7A","-1","-1","1","0","[]","0","2","","","3712","87","6","4","lose","no-go","0"
"pit-trial","206","1251627","0.0-92.0","battery-v0.2","","""event"",""trial"",""time""
""fullscreenenter"",""1"",""2479""
","
","
","""event"",""trial"",""time""
""fullscreenenter"",""1"",""2479""
","
","","","462.0999999642372","","","24","3712","2922","z","elianto","#3366ff99","-1"," ","0","0","[1313.800000011921]","1","2","","","3712","88","4","2","win","no-go","0"
"pit-trial","207","1256500","0.0-93.0","battery-v0.2","","""event"",""trial"",""time""
""fullscreenenter"",""1"",""2479""
","
","
","""event"",""trial"",""time""
""fullscreenenter"",""1"",""2479""
","
","","","-1","","","24","3712","2922","t","elianto","#f73b6a7A"," ","-1","0","-10","[]","0","2","","","3712","89","7","3","lose","go","0"
"pit-trial","208","1260148","0.0-94.0","battery-v0.2","","""event"",""trial"",""time""
""fullscreenenter"",""1"",""2479""
","
","
","""event"",""trial"",""time""
""fullscreenenter"",""1"",""2479""
","
","","","783.1000000238419","","","24","3712","2922","c","elianto","#3366ff99"," "," ","1","+10","[1635.5]","1","2","","","3712","90","5","1","win","go","0"
"pit-trial","209","1265020","0.0-95.0","battery-v0.2","","""event"",""trial"",""time""
""fullscreenenter"",""1"",""2479""
","
","
","""event"",""trial"",""time""
""fullscreenenter"",""1"",""2479""
","
","","","-1","","","24","3712","2922","b","elianto","#f73b6a7A","-1","-1","1","0","[]","0","2","","","3712","91","6","4","lose","no-go","0"
"pit-trial","210","1268364","0.0-96.0","battery-v0.2","","""event"",""trial"",""time""
""fullscreenenter"",""1"",""2479""
","
","
","""event"",""trial"",""time""
""fullscreenenter"",""1"",""2479""
","
","","","483.0999999642372","","","24","3712","2922","z","elianto","#3366ff99","-1"," ","0","0","[1333.6000000238419]","1","2","","","3712","92","4","2","win","no-go","0"
"pit-trial","211","1273236","0.0-97.0","battery-v0.2","","""event"",""trial"",""time""
""fullscreenenter"",""1"",""2479""
","
","
","""event"",""trial"",""time""
""fullscreenenter"",""1"",""2479""
","
","","","-1","","","24","3712","2922","b","elianto","#f73b6a7A","-1","-1","1","0","[]","0","2","","","3712","93","6","4","lose","no-go","0"
"pit-trial","212","1278109","0.0-98.0","battery-v0.2","","""event"",""trial"",""time""
""fullscreenenter"",""1"",""2479""
","
","
","""event"",""trial"",""time""
""fullscreenenter"",""1"",""2479""
","
","","","-1","","","24","3712","2922","t","elianto","#f73b6a7A"," ","-1","0","0","[]","0","2","","","3712","94","7","3","lose","go","1"
"pit-trial","213","1281420","0.0-99.0","battery-v0.2","","""event"",""trial"",""time""
""fullscreenenter"",""1"",""2479""
","
","
","""event"",""trial"",""time""
""fullscreenenter"",""1"",""2479""
","
","","","438.5999999642372","","","24","3712","2922","c","elianto","#3366ff99"," "," ","1","+10","[1297.3999999761581]","1","2","","","3712","95","5","1","win","go","0"
"pit-trial","214","1284853","0.0-100.0","battery-v0.2","","""event"",""trial"",""time""
""fullscreenenter"",""1"",""2479""
","
","
","""event"",""trial"",""time""
""fullscreenenter"",""1"",""2479""
","
","","","563.3000000119209","","","24","3712","2922","f","elianto","#3366ff99","-1"," ","0","0","[1420.6000000238419]","1","2","","","3712","96","8","2","win","no-go","0"
"pit-trial","215","1288197","0.0-101.0","battery-v0.2","","""event"",""trial"",""time""
""fullscreenenter"",""1"",""2479""
","
","
","""event"",""trial"",""time""
""fullscreenenter"",""1"",""2479""
","
","","","476.89999997615814","","","24","3712","2922","f","elianto","#3366ff99","-1"," ","0","0","[1327.2999999523163]","1","2","","","3712","97","8","2","win","no-go","0"
"pit-trial","216","1293069","0.0-102.0","battery-v0.2","","""event"",""trial"",""time""
""fullscreenenter"",""1"",""2479""
","
","
","""event"",""trial"",""time""
""fullscreenenter"",""1"",""2479""
","
","","","-1","","","24","3712","2922","t","elianto","#f73b6a7A"," ","-1","0","-10","[]","0","2","","","3712","98","7","3","lose","go","0"
"pit-trial","217","1296381","0.0-103.0","battery-v0.2","","""event"",""trial"",""time""
""fullscreenenter"",""1"",""2479""
","
","
","""event"",""trial"",""time""
""fullscreenenter"",""1"",""2479""
","
","","","447.30000001192093","","","24","3712","2922","c","elianto","#3366ff99"," "," ","1","+10","[1298.5]","1","2","","","3712","99","5","1","win","go","0"
"pit-trial","218","1301253","0.0-104.0","battery-v0.2","","""event"",""trial"",""time""
""fullscreenenter"",""1"",""2479""
","
","
","""event"",""trial"",""time""
""fullscreenenter"",""1"",""2479""
","
","","","-1","","","24","3712","2922","b","elianto","#f73b6a7A","-1","-1","1","0","[]","0","2","","","3712","100","6","4","lose","no-go","0"
"pit-trial","219","1304189","0.0-105.0","battery-v0.2","","""event"",""trial"",""time""
""fullscreenenter"",""1"",""2479""
","
","
","""event"",""trial"",""time""
""fullscreenenter"",""1"",""2479""
","
","","","73","","","24","3712","2922","b","elianto","#f73b6a7A","-1"," ","0","0","[923.8000000119209]","1","2","","","3712","101","6","4","lose","no-go","1"
"pit-trial","220","1307148","0.0-106.0","battery-v0.2","","""event"",""trial"",""time""
""fullscreenenter"",""1"",""2479""
","
","
","""event"",""trial"",""time""
""fullscreenenter"",""1"",""2479""
","
","","","91.79999995231628","","","24","3712","2922","n","elianto","#3366ff99","-1"," ","0","0","[947.5]","1","2","","","3712","102","9","2","win","no-go","0"
"pit-trial","221","1310453","0.0-107.0","battery-v0.2","","""event"",""trial"",""time""
""fullscreenenter"",""1"",""2479""
","
","
","""event"",""trial"",""time""
""fullscreenenter"",""1"",""2479""
","
","","","442.39999997615814","","","24","3712","2922","c","elianto","#3366ff99"," "," ","1","+10","[1296.0999999642372]","1","2","","","3712","103","5","1","win","go","0"
"pit-trial","222","1313837","0.0-108.0","battery-v0.2","","""event"",""trial"",""time""
""fullscreenenter"",""1"",""2479""
","
","
","""event"",""trial"",""time""
""fullscreenenter"",""1"",""2479""
","
","","","516.3999999761581","","","24","3712","2922","f","elianto","#3366ff99","-1"," ","0","0","[1367.699999988079]","1","2","","","3712","104","8","2","win","no-go","0"
"pit-trial","223","1317196","0.0-109.0","battery-v0.2","","""event"",""trial"",""time""
""fullscreenenter"",""1"",""2479""
","
","
","""event"",""trial"",""time""
""fullscreenenter"",""1"",""2479""
","
","","","489.39999997615814","","","24","3712","2922","f","elianto","#3366ff99","-1"," ","0","0","[1346]","1","2","","","3712","105","8","2","win","no-go","0"
"pit-trial","224","1320549","0.0-110.0","battery-v0.2","","""event"",""trial"",""time""
""fullscreenenter"",""1"",""2479""
","
","
","""event"",""trial"",""time""
""fullscreenenter"",""1"",""2479""
","
","","","488.69999998807907","","","24","3712","2922","c","elianto","#3366ff99"," "," ","1","+10","[1340.199999988079]","1","2","","","3712","106","5","1","win","go","0"
"pit-trial","225","1324301","0.0-111.0","battery-v0.2","","""event"",""trial"",""time""
""fullscreenenter"",""1"",""2479""
","
","
","""event"",""trial"",""time""
""fullscreenenter"",""1"",""2479""
","
","","","888","","","24","3712","2922","b","elianto","#f73b6a7A","-1"," ","0","-10","[1740.1000000238419]","1","2","","","3712","107","6","4","lose","no-go","0"
"pit-trial","226","1327653","0.0-112.0","battery-v0.2","","""event"",""trial"",""time""
""fullscreenenter"",""1"",""2479""
","
","
","""event"",""trial"",""time""
""fullscreenenter"",""1"",""2479""
","
","","","488.30000001192093","","","24","3712","2922","n","elianto","#3366ff99","-1"," ","0","0","[1338.3999999761581]","1","2","","","3712","108","9","2","win","no-go","0"
"pit-trial","227","1331173","0.0-113.0","battery-v0.2","","""event"",""trial"",""time""
""fullscreenenter"",""1"",""2479""
","
","
","""event"",""trial"",""time""
""fullscreenenter"",""1"",""2479""
","
","","","653.5","","","24","3712","2922","f","elianto","#3366ff99","-1"," ","0","+10","[1504.4000000357628]","1","2","","","3712","109","8","2","win","no-go","1"
"pit-trial","228","1336045","0.0-114.0","battery-v0.2","","""event"",""trial"",""time""
""fullscreenenter"",""1"",""2479""
","
","
","""event"",""trial"",""time""
""fullscreenenter"",""1"",""2479""
","
","","","-1","","","24","3712","2922","b","elianto","#f73b6a7A","-1","-1","1","-10","[]","0","2","","","3712","110","6","4","lose","no-go","1"
"pit-trial","229","1339461","0.0-115.0","battery-v0.2","","""event"",""trial"",""time""
""fullscreenenter"",""1"",""2479""
","
","
","""event"",""trial"",""time""
""fullscreenenter"",""1"",""2479""
","
","","","550.7999999523163","","","24","3712","2922","n","elianto","#3366ff99","-1"," ","0","0","[1407]","1","2","","","3712","111","9","2","win","no-go","0"
"pit-trial","230","1342829","0.0-116.0","battery-v0.2","","""event"",""trial"",""time""
""fullscreenenter"",""1"",""2479""
","
","
","""event"",""trial"",""time""
""fullscreenenter"",""1"",""2479""
","
","","","495.19999998807907","","","24","3712","2922","c","elianto","#3366ff99"," "," ","1","+10","[1352.8999999761581]","1","2","","","3712","112","5","1","win","go","0"
"pit-trial","231","1346085","0.0-117.0","battery-v0.2","","""event"",""trial"",""time""
""fullscreenenter"",""1"",""2479""
","
","
","""event"",""trial"",""time""
""fullscreenenter"",""1"",""2479""
","
","","","390.4000000357628","","","24","3712","2922","n","elianto","#3366ff99","-1"," ","0","0","[1246]","1","2","","","3712","113","9","2","win","no-go","0"
"pit-trial","232","1349469","0.0-118.0","battery-v0.2","","""event"",""trial"",""time""
""fullscreenenter"",""1"",""2479""
","
","
","""event"",""trial"",""time""
""fullscreenenter"",""1"",""2479""
","
","","","519.9000000357628","","","24","3712","2922","f","elianto","#3366ff99","-1"," ","0","0","[1370.5]","1","2","","","3712","114","8","2","win","no-go","0"
"pit-trial","233","1354341","0.0-119.0","battery-v0.2","","""event"",""trial"",""time""
""fullscreenenter"",""1"",""2479""
","
","
","""event"",""trial"",""time""
""fullscreenenter"",""1"",""2479""
","
","","","-1","","","24","3712","2922","t","elianto","#f73b6a7A"," ","-1","0","-10","[]","0","2","","","3712","115","7","3","lose","go","0"
"pit-trial","234","1357805","0.0-120.0","battery-v0.2","","""event"",""trial"",""time""
""fullscreenenter"",""1"",""2479""
","
","
","""event"",""trial"",""time""
""fullscreenenter"",""1"",""2479""
","
","","","597.3999999761581","","","24","3712","2922","c","elianto","#3366ff99"," "," ","1","+10","[1453.199999988079]","1","2","","","3712","116","5","1","win","go","0"
"pit-trial","235","1362677","0.0-121.0","battery-v0.2","","""event"",""trial"",""time""
""fullscreenenter"",""1"",""2479""
","
","
","""event"",""trial"",""time""
""fullscreenenter"",""1"",""2479""
","
","","","-1","","","24","3712","2922","b","elianto","#f73b6a7A","-1","-1","1","0","[]","0","2","","","3712","117","6","4","lose","no-go","0"
"pit-trial","236","1366005","0.0-122.0","battery-v0.2","","""event"",""trial"",""time""
""fullscreenenter"",""1"",""2479""
","
","
","""event"",""trial"",""time""
""fullscreenenter"",""1"",""2479""
","
","","","462","","","24","3712","2922","f","elianto","#3366ff99","-1"," ","0","+10","[1318]","1","2","","","3712","118","8","2","win","no-go","1"
"pit-trial","237","1369349","0.0-123.0","battery-v0.2","","""event"",""trial"",""time""
""fullscreenenter"",""1"",""2479""
","
","
","""event"",""trial"",""time""
""fullscreenenter"",""1"",""2479""
","
","","","477.80000001192093","","","24","3712","2922","c","elianto","#3366ff99"," "," ","1","+10","[1334.699999988079]","1","2","","","3712","119","5","1","win","go","0"
"pit-trial","238","1372765","0.0-124.0","battery-v0.2","","""event"",""trial"",""time""
""fullscreenenter"",""1"",""2479""
","
","
","""event"",""trial"",""time""
""fullscreenenter"",""1"",""2479""
","
","","","551","","","24","3712","2922","n","elianto","#3366ff99","-1"," ","0","0","[1401.9000000357628]","1","2","","","3712","120","9","2","win","no-go","0"
"pit-trial","239","1376197","0.0-125.0","battery-v0.2","","""event"",""trial"",""time""
""fullscreenenter"",""1"",""2479""
","
","
","""event"",""trial"",""time""
""fullscreenenter"",""1"",""2479""
","
","","","569.5","","","24","3712","2922","f","elianto","#3366ff99","-1"," ","0","0","[1423.3999999761581]","1","2","","","3712","121","8","2","win","no-go","0"
"pit-trial","240","1379535","0.0-126.0","battery-v0.2","","""event"",""trial"",""time""
""fullscreenenter"",""1"",""2479""
","
","
","""event"",""trial"",""time""
""fullscreenenter"",""1"",""2479""
","
","","","472.2000000476837","","","24","3712","2922","c","elianto","#3366ff99"," "," ","1","+10","[1327]","1","2","","","3712","122","5","1","win","go","0"
"pit-trial","241","1384405","0.0-127.0","battery-v0.2","","""event"",""trial"",""time""
""fullscreenenter"",""1"",""2479""
","
","
","""event"",""trial"",""time""
""fullscreenenter"",""1"",""2479""
","
","","","-1","","","24","3712","2922","t","elianto","#f73b6a7A"," ","-1","0","-10","[]","0","2","","","3712","123","7","3","lose","go","0"
"pit-trial","242","1387997","0.0-128.0","battery-v0.2","","""event"",""trial"",""time""
""fullscreenenter"",""1"",""2479""
","
","
","""event"",""trial"",""time""
""fullscreenenter"",""1"",""2479""
","
","","","723.8999999761581","","","24","3712","2922","n","elianto","#3366ff99","-1"," ","0","0","[1581.5]","1","2","","","3712","124","9","2","win","no-go","0"
"pit-trial","243","1392870","0.0-129.0","battery-v0.2","","""event"",""trial"",""time""
""fullscreenenter"",""1"",""2479""
","
","
","""event"",""trial"",""time""
""fullscreenenter"",""1"",""2479""
","
","","","-1","","","24","3712","2922","b","elianto","#f73b6a7A","-1","-1","1","0","[]","0","2","","","3712","125","6","4","lose","no-go","0"
"pit-trial","244","1396054","0.0-130.0","battery-v0.2","","""event"",""trial"",""time""
""fullscreenenter"",""1"",""2479""
","
","
","""event"",""trial"",""time""
""fullscreenenter"",""1"",""2479""
","
","","","316.5","","","24","3712","2922","t","elianto","#f73b6a7A"," "," ","1","0","[1167.5]","1","2","","","3712","126","7","3","lose","go","0"
"pit-trial","245","1399702","0.0-131.0","battery-v0.2","","""event"",""trial"",""time""
""fullscreenenter"",""1"",""2479""
","
","
","""event"",""trial"",""time""
""fullscreenenter"",""1"",""2479""
","
","","","782.2999999523163","","","24","3712","2922","f","elianto","#3366ff99","-1"," ","0","+10","[1632.699999988079]","1","2","","","3712","127","8","2","win","no-go","1"
"pit-trial","246","1403246","0.0-132.0","battery-v0.2","","""event"",""trial"",""time""
""fullscreenenter"",""1"",""2479""
","
","
","""event"",""trial"",""time""
""fullscreenenter"",""1"",""2479""
","
","","","678","","","24","3712","2922","n","elianto","#3366ff99","-1"," ","0","0","[1528.9000000357628]","1","2","","","3712","128","9","2","win","no-go","0"
"pit-trial","247","1406766","0.0-133.0","battery-v0.2","","""event"",""trial"",""time""
""fullscreenenter"",""1"",""2479""
","
","
","""event"",""trial"",""time""
""fullscreenenter"",""1"",""2479""
","
","","","651.6000000238419","","","24","3712","2922","n","elianto","#3366ff99","-1"," ","0","0","[1507.5]","1","2","","","3712","129","9","2","win","no-go","0"
"pit-trial","248","1410270","0.0-134.0","battery-v0.2","","""event"",""trial"",""time""
""fullscreenenter"",""1"",""2479""
","
","
","""event"",""trial"",""time""
""fullscreenenter"",""1"",""2479""
","
","","","637","","","24","3712","2922","f","elianto","#3366ff99","-1"," ","0","0","[1490.6000000238419]","1","2","","","3712","130","8","2","win","no-go","0"
"pit-trial","249","1413894","0.0-135.0","battery-v0.2","","""event"",""trial"",""time""
""fullscreenenter"",""1"",""2479""
","
","
","""event"",""trial"",""time""
""fullscreenenter"",""1"",""2479""
","
","","","761.3000000119209","","","24","3712","2922","t","elianto","#f73b6a7A"," "," ","1","-10","[1612.3999999761581]","1","2","","","3712","131","7","3","lose","go","1"
"pit-trial","250","1418765","0.0-136.0","battery-v0.2","","""event"",""trial"",""time""
""fullscreenenter"",""1"",""2479""
","
","
","""event"",""trial"",""time""
""fullscreenenter"",""1"",""2479""
","
","","","-1","","","24","3712","2922","b","elianto","#f73b6a7A","-1","-1","1","-10","[]","0","2","","","3712","132","6","4","lose","no-go","1"
"pit-trial","251","1422765","0.0-137.0","battery-v0.2","","""event"",""trial"",""time""
""fullscreenenter"",""1"",""2479""
","
","
","""event"",""trial"",""time""
""fullscreenenter"",""1"",""2479""
","
","","","1134.6000000238419","","","24","3712","2922","f","elianto","#3366ff99","-1"," ","0","0","[1987.699999988079]","1","2","","","3712","133","8","2","win","no-go","0"
"pit-trial","252","1426117","0.0-138.0","battery-v0.2","","""event"",""trial"",""time""
""fullscreenenter"",""1"",""2479""
","
","
","""event"",""trial"",""time""
""fullscreenenter"",""1"",""2479""
","
","","","488.10000002384186","","","24","3712","2922","n","elianto","#3366ff99","-1"," ","0","0","[1339.3999999761581]","1","2","","","3712","134","9","2","win","no-go","0"
"pit-trial","253","1430989","0.0-139.0","battery-v0.2","","""event"",""trial"",""time""
""fullscreenenter"",""1"",""2479""
","
","
","""event"",""trial"",""time""
""fullscreenenter"",""1"",""2479""
","
","","","-1","","","24","3712","2922","b","elianto","#f73b6a7A","-1","-1","1","0","[]","0","2","","","3712","135","6","4","lose","no-go","0"
"pit-trial","254","1435861","0.0-140.0","battery-v0.2","","""event"",""trial"",""time""
""fullscreenenter"",""1"",""2479""
","
","
","""event"",""trial"",""time""
""fullscreenenter"",""1"",""2479""
","
","","","-1","","","24","3712","2922","t","elianto","#f73b6a7A"," ","-1","0","-10","[]","0","2","","","3712","136","7","3","lose","go","0"
"pit-trial","255","1440733","0.0-141.0","battery-v0.2","","""event"",""trial"",""time""
""fullscreenenter"",""1"",""2479""
","
","
","""event"",""trial"",""time""
""fullscreenenter"",""1"",""2479""
","
","","","-1","","","24","3712","2922","b","elianto","#f73b6a7A","-1","-1","1","0","[]","0","2","","","3712","137","6","4","lose","no-go","0"
"pit-trial","256","1444093","0.0-142.0","battery-v0.2","","""event"",""trial"",""time""
""fullscreenenter"",""1"",""2479""
","
","
","""event"",""trial"",""time""
""fullscreenenter"",""1"",""2479""
","
","","","496.19999998807907","","","24","3712","2922","f","elianto","#3366ff99","-1"," ","0","0","[1347.199999988079]","1","2","","","3712","138","8","2","win","no-go","0"
"pit-trial","257","1447446","0.0-143.0","battery-v0.2","","""event"",""trial"",""time""
""fullscreenenter"",""1"",""2479""
","
","
","""event"",""trial"",""time""
""fullscreenenter"",""1"",""2479""
","
","","","480.89999997615814","","","24","3712","2922","t","elianto","#f73b6a7A"," "," ","1","0","[1338.5]","1","2","","","3712","139","7","3","lose","go","0"
"pit-trial","258","1450694","0.0-144.0","battery-v0.2","","""event"",""trial"",""time""
""fullscreenenter"",""1"",""2479""
","
","
","""event"",""trial"",""time""
""fullscreenenter"",""1"",""2479""
","
","","","387.4000000357628","","","24","3712","2922","n","elianto","#3366ff99","-1"," ","0","0","[1237.6000000238419]","1","2","","","3712","140","9","2","win","no-go","0"
"pit-instructions","259","1465627","0.0-145.0","battery-v0.2","","""event"",""trial"",""time""
""fullscreenenter"",""1"",""2479""
","
","
","""event"",""trial"",""time""
""fullscreenenter"",""1"",""2479""
","
","","[{""page_index"":0,""viewing_time"":6760.199999988079},{""page_index"":1,""viewing_time"":8166.800000011921}]","14927.900000035763","","","","","","","","","","","","","","","","","","","","","","","",""
"pit-trial","260","1469078","0.0-146.0","battery-v0.2","","""event"",""trial"",""time""
""fullscreenenter"",""1"",""2479""
","
","
","""event"",""trial"",""time""
""fullscreenenter"",""1"",""2479""
","
","","","580.8999999761581","","","24","3712","2922","j","elianto","#f73b6a7A"," "," ","1","-10","[1435.8999999761581]","1","3","","","3712","141","0","3","lose","go","1"
"pit-trial","261","1472362","0.0-147.0","battery-v0.2","","""event"",""trial"",""time""
""fullscreenenter"",""1"",""2479""
","
","
","""event"",""trial"",""time""
""fullscreenenter"",""1"",""2479""
","
","","","413.60000002384186","","","24","3712","2922","e","elianto","#f73b6a7A"," "," ","1","0","[1271.3999999761581]","1","3","","","3712","142","2","3","lose","go","0"
"pit-trial","262","1476199","0.0-148.0","battery-v0.2","","""event"",""trial"",""time""
""fullscreenenter"",""1"",""2479""
","
","
","""event"",""trial"",""time""
""fullscreenenter"",""1"",""2479""
","
","","","970.5999999642372","","","24","3712","2922","w","elianto","#f73b6a7A","-1"," ","0","-10","[1824.7000000476837]","1","3","","","3712","143","3","4","lose","no-go","0"
"pit-trial","263","1479624","0.0-149.0","battery-v0.2","","""event"",""trial"",""time""
""fullscreenenter"",""1"",""2479""
","
","
","""event"",""trial"",""time""
""fullscreenenter"",""1"",""2479""
","
","","","559.9000000357628","","","24","3712","2922","d","elianto","#3366ff99","-1"," ","0","0","[1414.4000000357628]","1","3","","","3712","144","1","2","win","no-go","0"
"pit-trial","264","1483409","0.0-150.0","battery-v0.2","","""event"",""trial"",""time""
""fullscreenenter"",""1"",""2479""
","
","
","""event"",""trial"",""time""
""fullscreenenter"",""1"",""2479""
","
","","","914.1999999880791","","","24","3712","2922","e","elianto","#f73b6a7A"," "," ","1","-10","[1770.7999999523163]","1","3","","","3712","145","2","3","lose","go","1"
"pit-trial","265","1488278","0.0-151.0","battery-v0.2","","""event"",""trial"",""time""
""fullscreenenter"",""1"",""2479""
","
","
","""event"",""trial"",""time""
""fullscreenenter"",""1"",""2479""
","
