"trial_type","trial_index","time_elapsed","internal_node_id","task_version","subject_id","interactions","blur_events","focus_events","fullscreenenter_events","fullscreenexit_events","success","view_history","rt","responses","num_errors","age","subject","participantId","rune","rune_set","hex","correct","choice","accuracy","outcome","keys","total_keys","block","practice","value","sub","trial","stimulus","robot","valence","action","sham"
"pavlovia","0","7","0.0-0.0","battery-v0.2","","""event"",""trial"",""time""
""fullscreenenter"",""1"",""4365""
","
","
","""event"",""trial"",""time""
""fullscreenenter"",""1"",""4365""
","
","","","","","","","","","","","","","","","","","","","","","","","","","","",""
"fullscreen","1","5348","0.0-1.0","battery-v0.2","","""event"",""trial"",""time""
""fullscreenenter"",""1"",""4365""
","
","
","""event"",""trial"",""time""
""fullscreenenter"",""1"",""4365""
","
","true","","","","","","","","","","","","","","","","","","","","","","","","","",""
"pit-instructions","2","11089","0.0-2.0-0.0","battery-v0.2","","""event"",""trial"",""time""
""fullscreenenter"",""1"",""4365""
","
","
","""event"",""trial"",""time""
""fullscreenenter"",""1"",""4365""
","
","","[{""page_index"":0,""viewing_time"":5732.400000035763}]","5733.100000023842","","","","","","","","","","","","","","","","","","","","","","","",""
"pit-comprehension","3","13974","0.0-2.0-1.0-0.0","battery-v0.2","","""event"",""trial"",""time""
""fullscreenenter"",""1"",""4365""
","
","
","""event"",""trial"",""time""
""fullscreenenter"",""1"",""4365""
","
","","","2880.699999988079","[""shark""]","0","15","9108","2307","","","","","","","","","","","","","","","","","","",""
"pit-instructions","4","17089","0.0-2.0-1.0-1.0","battery-v0.2","","""event"",""trial"",""time""
""fullscreenenter"",""1"",""4365""
","
","
","""event"",""trial"",""time""
""fullscreenenter"",""1"",""4365""
","
","","[{""page_index"":0,""viewing_time"":3104.5}]","3105.100000023842","","","","","","","","","","","","","","","","","","","","","","","",""
"pit-comprehension","5","21273","0.0-2.0-2.0-0.0","battery-v0.2","","""event"",""trial"",""time""
""fullscreenenter"",""1"",""4365""
","
","
","""event"",""trial"",""time""
""fullscreenenter"",""1"",""4365""
","
","","","4180.900000035763","[""tiger""]","0","15","9108","2307","","","","","","","","","","","","","","","","","","",""
"pit-instructions","6","26888","0.0-2.0-2.0-1.0","battery-v0.2","","""event"",""trial"",""time""
""fullscreenenter"",""1"",""4365""
","
","
","""event"",""trial"",""time""
""fullscreenenter"",""1"",""4365""
","
","","[{""page_index"":0,""viewing_time"":5611.699999988079}]","5612.199999988079","","","","","","","","","","","","","","","","","","","","","","","",""
"pit-instructions","7","141172","0.0-2.0-3.0","battery-v0.2","","""event"",""trial"",""time""
""fullscreenenter"",""1"",""4365""
","
","
","""event"",""trial"",""time""
""fullscreenenter"",""1"",""4365""
","
","","[{""page_index"":0,""viewing_time"":10294.599999964237},{""page_index"":1,""viewing_time"":6917.100000023842},{""page_index"":2,""viewing_time"":7600.800000011921},{""page_index"":3,""viewing_time"":6983.399999976158},{""page_index"":4,""viewing_time"":10132},{""page_index"":5,""viewing_time"":7333.600000023842},{""page_index"":6,""viewing_time"":7200.599999964237},{""page_index"":7,""viewing_time"":7101.200000047684},{""page_index"":8,""viewing_time"":14266.799999952316},{""page_index"":9,""viewing_time"":8235.800000011921},{""page_index"":10,""viewing_time"":9064.400000035763},{""page_index"":11,""viewing_time"":7616.5},{""page_index"":12,""viewing_time"":6499.699999988079},{""page_index"":13,""viewing_time"":5034.399999976158}]","114282","","","","","","","","","","","","","","","","","","","","","","","",""
"pit-trial","8","144595","0.0-2.0-4.0-0.0","battery-v0.2","","""event"",""trial"",""time""
""fullscreenenter"",""1"",""4365""
","
","
","""event"",""trial"",""time""
""fullscreenenter"",""1"",""4365""
","
","","","557.5","","","15","9108","2307","&#9784;","elianto","#FFFFF080"," "," ","1","&#10004","[1411.800000011921]","1","0","0","","","","","","","",""
"pit-trial","9","147975","0.0-2.0-4.1-0.1","battery-v0.2","","""event"",""trial"",""time""
""fullscreenenter"",""1"",""4365""
","
","
","""event"",""trial"",""time""
""fullscreenenter"",""1"",""4365""
","
","","","522.6999999880791","","","15","9108","2307","&#9784;","elianto","#FFFFF080"," "," ","1","&#10004","[1372.8999999761581]","1","0","0","","","","","","","",""
"pit-trial","10","151513","0.0-2.0-4.2-0.2","battery-v0.2","","""event"",""trial"",""time""
""fullscreenenter"",""1"",""4365""
","
","
","""event"",""trial"",""time""
""fullscreenenter"",""1"",""4365""
","
","","","673.1999999880791","","","15","9108","2307","&#9784;","elianto","#FFFFF080"," "," ","1","&#10004","[1524.800000011921]","1","0","0","","","","","","","",""
"pit-trial","11","154936","0.0-2.0-4.3-0.3","battery-v0.2","","""event"",""trial"",""time""
""fullscreenenter"",""1"",""4365""
","
","
","""event"",""trial"",""time""
""fullscreenenter"",""1"",""4365""
","
","","","569.2999999523163","","","15","9108","2307","&#9784;","elianto","#FFFFF080"," "," ","1","&#10004","[1420.5]","1","0","0","","","","","","","",""
"pit-trial","12","158406","0.0-2.0-4.4-0.4","battery-v0.2","","""event"",""trial"",""time""
""fullscreenenter"",""1"",""4365""
","
","
","""event"",""trial"",""time""
""fullscreenenter"",""1"",""4365""
","
","","","611.8000000119209","","","15","9108","2307","&#9784;","elianto","#FFFFF080"," "," ","1","&#10004","[1464.6000000238419]","1","0","0","","","","","","","",""
"pit-instructions","13","180687","0.0-2.0-5.0","battery-v0.2","","""event"",""trial"",""time""
""fullscreenenter"",""1"",""4365""
","
","
","""event"",""trial"",""time""
""fullscreenenter"",""1"",""4365""
","
","","[{""page_index"":0,""viewing_time"":5010},{""page_index"":1,""viewing_time"":5715.700000047684},{""page_index"":2,""viewing_time"":5102.099999964237},{""page_index"":3,""viewing_time"":6449.5}]","22278.30000001192","","","","","","","","","","","","","","","","","","","","","","","",""
"pit-trial","14","185550","0.0-2.0-6.0-0.0","battery-v0.2","","""event"",""trial"",""time""
""fullscreenenter"",""1"",""4365""
","
","
","""event"",""trial"",""time""
""fullscreenenter"",""1"",""4365""
","
","","","-1","","","15","9108","2307","&#9854;","elianto","#FFFFF080","-1","-1","1","&#10004","[]","0","0","1","","","","","","","",""
"pit-trial","15","190416","0.0-2.0-6.1-0.1","battery-v0.2","","""event"",""trial"",""time""
""fullscreenenter"",""1"",""4365""
","
","
","""event"",""trial"",""time""
""fullscreenenter"",""1"",""4365""
","
","","","-1","","","15","9108","2307","&#9854;","elianto","#FFFFF080","-1","-1","1","&#10004","[]","0","0","1","","","","","","","",""
"pit-trial","16","195284","0.0-2.0-6.2-0.2","battery-v0.2","","""event"",""trial"",""time""
""fullscreenenter"",""1"",""4365""
","
","
","""event"",""trial"",""time""
""fullscreenenter"",""1"",""4365""
","
","","","-1","","","15","9108","2307","&#9854;","elianto","#FFFFF080","-1","-1","1","&#10004","[]","0","0","1","","","","","","","",""
"pit-trial","17","200150","0.0-2.0-6.3-0.3","battery-v0.2","","""event"",""trial"",""time""
""fullscreenenter"",""1"",""4365""
","
","
","""event"",""trial"",""time""
""fullscreenenter"",""1"",""4365""
","
","","","-1","","","15","9108","2307","&#9854;","elianto","#FFFFF080","-1","-1","1","&#10004","[]","0","0","1","","","","","","","",""
"pit-trial","18","205013","0.0-2.0-6.4-0.4","battery-v0.2","","""event"",""trial"",""time""
""fullscreenenter"",""1"",""4365""
","
","
","""event"",""trial"",""time""
""fullscreenenter"",""1"",""4365""
","
","","","-1","","","15","9108","2307","&#9854;","elianto","#FFFFF080","-1","-1","1","&#10004","[]","0","0","1","","","","","","","",""
"pit-instructions","19","321201","0.0-2.0-7.0","battery-v0.2","","""event"",""trial"",""time""
""fullscreenenter"",""1"",""4365""
","
","
","""event"",""trial"",""time""
""fullscreenenter"",""1"",""4365""
","
","","[{""page_index"":0,""viewing_time"":5653.199999988079},{""page_index"":1,""viewing_time"":6433.899999976158},{""page_index"":2,""viewing_time"":6501.199999988079},{""page_index"":3,""viewing_time"":7369.300000011921},{""page_index"":4,""viewing_time"":5729.600000023842},{""page_index"":5,""viewing_time"":5885},{""page_index"":6,""viewing_time"":4483.199999988079},{""page_index"":7,""viewing_time"":9417.399999976158},{""page_index"":8,""viewing_time"":7000.200000047684},{""page_index"":9,""viewing_time"":6499.099999964237},{""page_index"":10,""viewing_time"":6419.800000011921},{""page_index"":11,""viewing_time"":5281.699999988079},{""page_index"":12,""viewing_time"":7052.600000023842},{""page_index"":13,""viewing_time"":6164.300000011921},{""page_index"":14,""viewing_time"":6201.299999952316},{""page_index"":15,""viewing_time"":6183.700000047684},{""page_index"":16,""viewing_time"":6200.5},{""page_index"":17,""viewing_time"":7713.899999976158}]","116190.19999998808","","","","","","","","","","","","","","","","","","","","","","","",""
"pit-trial","20","324640","0.0-2.0-8.0-0.0","battery-v0.2","","""event"",""trial"",""time""
""fullscreenenter"",""1"",""4365""
","
","
","""event"",""trial"",""time""
""fullscreenenter"",""1"",""4365""
","
","","","577.8999999761581","","","15","9108","2307","&#9776;","elianto","#3366ff99"," "," ","1","+10","[1435.199999988079]","1","0","1","","","","","","","",""
"pit-trial","21","327931","0.0-2.0-8.0-1.0","battery-v0.2","","""event"",""trial"",""time""
""fullscreenenter"",""1"",""4365""
","
","
","""event"",""trial"",""time""
""fullscreenenter"",""1"",""4365""
","
","","","426.19999998807907","","","15","9108","2307","&#9776;","elianto","#3366ff99"," "," ","1","+10","[1279.7000000476837]","1","0","1","","","","","","","",""
"pit-trial","22","331312","0.0-2.0-8.0-2.0","battery-v0.2","","""event"",""trial"",""time""
""fullscreenenter"",""1"",""4365""
","
","
","""event"",""trial"",""time""
""fullscreenenter"",""1"",""4365""
","
","","","510.89999997615814","","","15","9108","2307","&#9776;","elianto","#3366ff99"," "," ","1","+10","[1371.699999988079]","1","0","1","","","","","","","",""
"pit-trial","23","334924","0.0-2.0-8.0-3.0","battery-v0.2","","""event"",""trial"",""time""
""fullscreenenter"",""1"",""4365""
","
","
","""event"",""trial"",""time""
""fullscreenenter"",""1"",""4365""
","
","","","746.0999999642372","","","15","9108","2307","&#9776;","elianto","#3366ff99"," "," ","1","0","[1598.199999988079]","1","0","1","","","","","","","",""
"pit-trial","24","338634","0.0-2.0-8.0-4.0","battery-v0.2","","""event"",""trial"",""time""
""fullscreenenter"",""1"",""4365""
","
","
","""event"",""trial"",""time""
""fullscreenenter"",""1"",""4365""
","
","","","844.5","","","15","9108","2307","&#9776;","elianto","#3366ff99"," "," ","1","+10","[1701.4000000357628]","1","0","1","","","","","","","",""
"pit-trial","25","342346","0.0-2.0-8.1-0.1","battery-v0.2","","""event"",""trial"",""time""
""fullscreenenter"",""1"",""4365""
","
","
","""event"",""trial"",""time""
""fullscreenenter"",""1"",""4365""
","
","","","842.5999999642372","","","15","9108","2307","&#9776;","elianto","#3366ff99"," "," ","1","+10","[1698.800000011921]","1","0","1","","","","","","","",""
"pit-trial","26","345864","0.0-2.0-8.1-1.1","battery-v0.2","","""event"",""trial"",""time""
""fullscreenenter"",""1"",""4365""
","
","
","""event"",""trial"",""time""
""fullscreenenter"",""1"",""4365""
","
","","","660.5","","","15","9108","2307","&#9776;","elianto","#3366ff99"," "," ","1","+10","[1510.5]","1","0","1","","","","","","","",""
"pit-trial","27","349250","0.0-2.0-8.1-2.1","battery-v0.2","","""event"",""trial"",""time""
""fullscreenenter"",""1"",""4365""
","
","
","""event"",""trial"",""time""
""fullscreenenter"",""1"",""4365""
","
","","","530.6999999880791","","","15","9108","2307","&#9776;","elianto","#3366ff99"," "," ","1","+10","[1381.199999988079]","1","0","1","","","","","","","",""
"pit-trial","28","352699","0.0-2.0-8.1-3.1","battery-v0.2","","""event"",""trial"",""time""
""fullscreenenter"",""1"",""4365""
","
","
","""event"",""trial"",""time""
""fullscreenenter"",""1"",""4365""
","
","","","584.8000000119209","","","15","9108","2307","&#9776;","elianto","#3366ff99"," "," ","1","0","[1444]","1","0","1","","","","","","","",""
"pit-trial","29","356272","0.0-2.0-8.1-4.1","battery-v0.2","","""event"",""trial"",""time""
""fullscreenenter"",""1"",""4365""
","
","
","""event"",""trial"",""time""
""fullscreenenter"",""1"",""4365""
","
","","","702.1000000238419","","","15","9108","2307","&#9776;","elianto","#3366ff99"," "," ","1","+10","[1561.8999999761581]","1","0","1","","","","","","","",""
"pit-trial","30","359873","0.0-2.0-8.2-0.2","battery-v0.2","","""event"",""trial"",""time""
""fullscreenenter"",""1"",""4365""
","
","
","""event"",""trial"",""time""
""fullscreenenter"",""1"",""4365""
","
","","","738.6999999880791","","","15","9108","2307","&#9776;","elianto","#3366ff99"," "," ","1","+10","[1593]","1","0","1","","","","","","","",""
"pit-trial","31","363562","0.0-2.0-8.2-1.2","battery-v0.2","","""event"",""trial"",""time""
""fullscreenenter"",""1"",""4365""
","
","
","""event"",""trial"",""time""
""fullscreenenter"",""1"",""4365""
","
","","","823.7999999523163","","","15","9108","2307","&#9776;","elianto","#3366ff99"," "," ","1","+10","[1678.3999999761581]","1","0","1","","","","","","","",""
"pit-trial","32","367023","0.0-2.0-8.2-2.2","battery-v0.2","","""event"",""trial"",""time""
""fullscreenenter"",""1"",""4365""
","
","
","""event"",""trial"",""time""
""fullscreenenter"",""1"",""4365""
","
","","","603.7999999523163","","","15","9108","2307","&#9776;","elianto","#3366ff99"," "," ","1","+10","[1454.300000011921]","1","0","1","","","","","","","",""
"pit-trial","33","370377","0.0-2.0-8.2-3.2","battery-v0.2","","""event"",""trial"",""time""
""fullscreenenter"",""1"",""4365""
","
","
","""event"",""trial"",""time""
""fullscreenenter"",""1"",""4365""
","
","","","489.19999998807907","","","15","9108","2307","&#9776;","elianto","#3366ff99"," "," ","1","0","[1342.8999999761581]","1","0","1","","","","","","","",""
"pit-trial","34","373694","0.0-2.0-8.2-4.2","battery-v0.2","","""event"",""trial"",""time""
""fullscreenenter"",""1"",""4365""
","
","
","""event"",""trial"",""time""
""fullscreenenter"",""1"",""4365""
","
","","","453.5999999642372","","","15","9108","2307","&#9776;","elianto","#3366ff99"," "," ","1","+10","[1304.300000011921]","1","0","1","","","","","","","",""
"call-function","35","373699","0.0-2.0-9.0","battery-v0.2","","""event"",""trial"",""time""
""fullscreenenter"",""1"",""4365""
","
","
","""event"",""trial"",""time""
""fullscreenenter"",""1"",""4365""
","
","","","","","","","","","","","","","","","","","","","","","","","","","","",""
"pit-instructions","36","413802","0.0-2.0-10.0","battery-v0.2","","""event"",""trial"",""time""
""fullscreenenter"",""1"",""4365""
","
","
","""event"",""trial"",""time""
""fullscreenenter"",""1"",""4365""
","
","","[{""page_index"":0,""viewing_time"":5852.800000011921},{""page_index"":1,""viewing_time"":8686.600000023842},{""page_index"":2,""viewing_time"":9312.699999988079},{""page_index"":3,""viewing_time"":8834.699999988079},{""page_index"":4,""viewing_time"":7416.199999988079}]","40103.30000001192","","","","","","","","","","","","","","","","","","","","","","","",""
"pit-trial","37","417241","0.0-2.0-11.0-0.0","battery-v0.2","","""event"",""trial"",""time""
""fullscreenenter"",""1"",""4365""
","
","
","""event"",""trial"",""time""
""fullscreenenter"",""1"",""4365""
","
","","","573.0999999642372","","","15","9108","2307","&#9761;","elianto","#3366ff99","-1"," ","0","0","[1430.800000011921]","1","0","2","","","","","","","",""
"pit-trial","38","420677","0.0-2.0-11.0-1.0","battery-v0.2","","""event"",""trial"",""time""
""fullscreenenter"",""1"",""4365""
","
","
","""event"",""trial"",""time""
""fullscreenenter"",""1"",""4365""
","
","","","574.2999999523163","","","15","9108","2307","&#9761;","elianto","#3366ff99","-1"," ","0","0","[1425.1000000238419]","1","0","2","","","","","","","",""
"pit-trial","39","424383","0.0-2.0-11.0-2.0","battery-v0.2","","""event"",""trial"",""time""
""fullscreenenter"",""1"",""4365""
","
","
","""event"",""trial"",""time""
""fullscreenenter"",""1"",""4365""
","
","","","848.4000000357628","","","15","9108","2307","&#9761;","elianto","#3366ff99","-1"," ","0","0","[1698.6000000238419]","1","0","2","","","","","","","",""
"pit-trial","40","429255","0.0-2.0-11.0-3.0","battery-v0.2","","""event"",""trial"",""time""
""fullscreenenter"",""1"",""4365""
","
","
","""event"",""trial"",""time""
""fullscreenenter"",""1"",""4365""
","
","","","-1","","","15","9108","2307","&#9761;","elianto","#3366ff99","-1","-1","1","0","[]","0","0","2","","","","","","","",""
"pit-trial","41","434116","0.0-2.0-11.0-4.0","battery-v0.2","","""event"",""trial"",""time""
""fullscreenenter"",""1"",""4365""
","
","
","""event"",""trial"",""time""
""fullscreenenter"",""1"",""4365""
","
","","","-1","","","15","9108","2307","&#9761;","elianto","#3366ff99","-1","-1","1","+10","[]","0","0","2","","","","","","","",""
"pit-trial","42","438989","0.0-2.0-11.1-0.1","battery-v0.2","","""event"",""trial"",""time""
""fullscreenenter"",""1"",""4365""
","
","
","""event"",""trial"",""time""
""fullscreenenter"",""1"",""4365""
","
","","","-1","","","15","9108","2307","&#9761;","elianto","#3366ff99","-1","-1","1","+10","[]","0","0","2","","","","","","","",""
"pit-trial","43","443847","0.0-2.0-11.1-1.1","battery-v0.2","","""event"",""trial"",""time""
""fullscreenenter"",""1"",""4365""
","
","
","""event"",""trial"",""time""
""fullscreenenter"",""1"",""4365""
","
","","","-1","","","15","9108","2307","&#9761;","elianto","#3366ff99","-1","-1","1","+10","[]","0","0","2","","","","","","","",""
"pit-trial","44","448716","0.0-2.0-11.1-2.1","battery-v0.2","","""event"",""trial"",""time""
""fullscreenenter"",""1"",""4365""
","
","
","""event"",""trial"",""time""
""fullscreenenter"",""1"",""4365""
","
","","","-1","","","15","9108","2307","&#9761;","elianto","#3366ff99","-1","-1","1","+10","[]","0","0","2","","","","","","","",""
"pit-trial","45","453580","0.0-2.0-11.1-3.1","battery-v0.2","","""event"",""trial"",""time""
""fullscreenenter"",""1"",""4365""
","
","
","""event"",""trial"",""time""
""fullscreenenter"",""1"",""4365""
","
","","","-1","","","15","9108","2307","&#9761;","elianto","#3366ff99","-1","-1","1","0","[]","0","0","2","","","","","","","",""
"pit-trial","46","458445","0.0-2.0-11.1-4.1","battery-v0.2","","""event"",""trial"",""time""
""fullscreenenter"",""1"",""4365""
","
","
","""event"",""trial"",""time""
""fullscreenenter"",""1"",""4365""
","
","","","-1","","","15","9108","2307","&#9761;","elianto","#3366ff99","-1","-1","1","+10","[]","0","0","2","","","","","","","",""
"pit-trial","47","463313","0.0-2.0-11.2-0.2","battery-v0.2","","""event"",""trial"",""time""
""fullscreenenter"",""1"",""4365""
","
","
","""event"",""trial"",""time""
""fullscreenenter"",""1"",""4365""
","
","","","-1","","","15","9108","2307","&#9761;","elianto","#3366ff99","-1","-1","1","+10","[]","0","0","2","","","","","","","",""
"pit-trial","48","468181","0.0-2.0-11.2-1.2","battery-v0.2","","""event"",""trial"",""time""
""fullscreenenter"",""1"",""4365""
","
","
","""event"",""trial"",""time""
""fullscreenenter"",""1"",""4365""
","
","","","-1","","","15","9108","2307","&#9761;","elianto","#3366ff99","-1","-1","1","+10","[]","0","0","2","","","","","","","",""
"pit-trial","49","473045","0.0-2.0-11.2-2.2","battery-v0.2","","""event"",""trial"",""time""
""fullscreenenter"",""1"",""4365""
","
","
","""event"",""trial"",""time""
""fullscreenenter"",""1"",""4365""
","
","","","-1","","","15","9108","2307","&#9761;","elianto","#3366ff99","-1","-1","1","+10","[]","0","0","2","","","","","","","",""
"pit-trial","50","477909","0.0-2.0-11.2-3.2","battery-v0.2","","""event"",""trial"",""time""
""fullscreenenter"",""1"",""4365""
","
","
","""event"",""trial"",""time""
""fullscreenenter"",""1"",""4365""
","
","","","-1","","","15","9108","2307","&#9761;","elianto","#3366ff99","-1","-1","1","0","[]","0","0","2","","","","","","","",""
"pit-trial","51","482764","0.0-2.0-11.2-4.2","battery-v0.2","","""event"",""trial"",""time""
""fullscreenenter"",""1"",""4365""
","
","
","""event"",""trial"",""time""
""fullscreenenter"",""1"",""4365""
","
","","","-1","","","15","9108","2307","&#9761;","elianto","#3366ff99","-1","-1","1","+10","[]","0","0","2","","","","","","","",""
"pit-trial","52","487629","0.0-2.0-11.3-0.3","battery-v0.2","","""event"",""trial"",""time""
""fullscreenenter"",""1"",""4365""
","
","
","""event"",""trial"",""time""
""fullscreenenter"",""1"",""4365""
","
","","","-1","","","15","9108","2307","&#9761;","elianto","#3366ff99","-1","-1","1","+10","[]","0","0","2","","","","","","","",""
"pit-trial","53","492491","0.0-2.0-11.3-1.3","battery-v0.2","","""event"",""trial"",""time""
""fullscreenenter"",""1"",""4365""
","
","
","""event"",""trial"",""time""
""fullscreenenter"",""1"",""4365""
","
","","","-1","","","15","9108","2307","&#9761;","elianto","#3366ff99","-1","-1","1","+10","[]","0","0","2","","","","","","","",""
"pit-trial","54","497348","0.0-2.0-11.3-2.3","battery-v0.2","","""event"",""trial"",""time""
""fullscreenenter"",""1"",""4365""
","
","
","""event"",""trial"",""time""
""fullscreenenter"",""1"",""4365""
","
","","","-1","","","15","9108","2307","&#9761;","elianto","#3366ff99","-1","-1","1","+10","[]","0","0","2","","","","","","","",""
"pit-trial","55","502216","0.0-2.0-11.3-3.3","battery-v0.2","","""event"",""trial"",""time""
""fullscreenenter"",""1"",""4365""
","
","
","""event"",""trial"",""time""
""fullscreenenter"",""1"",""4365""
","
","","","-1","","","15","9108","2307","&#9761;","elianto","#3366ff99","-1","-1","1","0","[]","0","0","2","","","","","","","",""
"pit-trial","56","507082","0.0-2.0-11.3-4.3","battery-v0.2","","""event"",""trial"",""time""
""fullscreenenter"",""1"",""4365""
","
","
","""event"",""trial"",""time""
""fullscreenenter"",""1"",""4365""
","
","","","-1","","","15","9108","2307","&#9761;","elianto","#3366ff99","-1","-1","1","+10","[]","0","0","2","","","","","","","",""
"call-function","57","507088","0.0-2.0-12.0","battery-v0.2","","""event"",""trial"",""time""
""fullscreenenter"",""1"",""4365""
","
","
","""event"",""trial"",""time""
""fullscreenenter"",""1"",""4365""
","
","","","","","","","","","","","","","","","","","","","","","","","","","","",""
"pit-instructions","58","547101","0.0-2.0-13.0","battery-v0.2","","""event"",""trial"",""time""
""fullscreenenter"",""1"",""4365""
","
","
","""event"",""trial"",""time""
""fullscreenenter"",""1"",""4365""
","
","","[{""page_index"":0,""viewing_time"":13028.100000023842},{""page_index"":1,""viewing_time"":8068.600000023842},{""page_index"":2,""viewing_time"":4168.399999976158},{""page_index"":3,""viewing_time"":10246.300000011921},{""page_index"":4,""viewing_time"":4501.5}]","40013.10000002384","","","","","","","","","","","","","","","","","","","","","","","",""
"pit-trial","59","550833","0.0-2.0-14.0-0.0","battery-v0.2","","""event"",""trial"",""time""
""fullscreenenter"",""1"",""4365""
","
","
","""event"",""trial"",""time""
""fullscreenenter"",""1"",""4365""
","
","","","861.6000000238419","","","15","9108","2307","&#9826;","elianto","#f73b6a7A","-1"," ","0","-10","[1720.6000000238419]","1","0","3","","","","","","","",""
"pit-trial","60","554332","0.0-2.0-14.0-1.0","battery-v0.2","","""event"",""trial"",""time""
""fullscreenenter"",""1"",""4365""
","
","
","""event"",""trial"",""time""
""fullscreenenter"",""1"",""4365""
","
","","","638.9000000357628","","","15","9108","2307","&#9826;","elianto","#f73b6a7A","-1"," ","0","-10","[1489.800000011921]","1","0","3","","","","","","","",""
"pit-trial","61","559199","0.0-2.0-14.0-2.0","battery-v0.2","","""event"",""trial"",""time""
""fullscreenenter"",""1"",""4365""
","
","
","""event"",""trial"",""time""
""fullscreenenter"",""1"",""4365""
","
","","","-1","","","15","9108","2307","&#9826;","elianto","#f73b6a7A","-1","-1","1","0","[]","0","0","3","","","","","","","",""
"pit-trial","62","564063","0.0-2.0-14.0-3.0","battery-v0.2","","""event"",""trial"",""time""
""fullscreenenter"",""1"",""4365""
","
","
","""event"",""trial"",""time""
""fullscreenenter"",""1"",""4365""
","
","","","-1","","","15","9108","2307","&#9826;","elianto","#f73b6a7A","-1","-1","1","-10","[]","0","0","3","","","","","","","",""
"pit-trial","63","568928","0.0-2.0-14.0-4.0","battery-v0.2","","""event"",""trial"",""time""
""fullscreenenter"",""1"",""4365""
","
","
","""event"",""trial"",""time""
""fullscreenenter"",""1"",""4365""
","
","","","-1","","","15","9108","2307","&#9826;","elianto","#f73b6a7A","-1","-1","1","0","[]","0","0","3","","","","","","","",""
"pit-trial","64","573796","0.0-2.0-14.1-0.1","battery-v0.2","","""event"",""trial"",""time""
""fullscreenenter"",""1"",""4365""
","
","
","""event"",""trial"",""time""
""fullscreenenter"",""1"",""4365""
","
","","","-1","","","15","9108","2307","&#9826;","elianto","#f73b6a7A","-1","-1","1","0","[]","0","0","3","","","","","","","",""
"pit-trial","65","578663","0.0-2.0-14.1-1.1","battery-v0.2","","""event"",""trial"",""time""
""fullscreenenter"",""1"",""4365""
","
","
","""event"",""trial"",""time""
""fullscreenenter"",""1"",""4365""
","
","","","-1","","","15","9108","2307","&#9826;","elianto","#f73b6a7A","-1","-1","1","0","[]","0","0","3","","","","","","","",""
"pit-trial","66","583530","0.0-2.0-14.1-2.1","battery-v0.2","","""event"",""trial"",""time""
""fullscreenenter"",""1"",""4365""
","
","
","""event"",""trial"",""time""
""fullscreenenter"",""1"",""4365""
","
","","","-1","","","15","9108","2307","&#9826;","elianto","#f73b6a7A","-1","-1","1","0","[]","0","0","3","","","","","","","",""
"pit-trial","67","588397","0.0-2.0-14.1-3.1","battery-v0.2","","""event"",""trial"",""time""
""fullscreenenter"",""1"",""4365""
","
","
","""event"",""trial"",""time""
""fullscreenenter"",""1"",""4365""
","
","","","-1","","","15","9108","2307","&#9826;","elianto","#f73b6a7A","-1","-1","1","-10","[]","0","0","3","","","","","","","",""
"pit-trial","68","593263","0.0-2.0-14.1-4.1","battery-v0.2","","""event"",""trial"",""time""
""fullscreenenter"",""1"",""4365""
","
","
","""event"",""trial"",""time""
""fullscreenenter"",""1"",""4365""
","
","","","-1","","","15","9108","2307","&#9826;","elianto","#f73b6a7A","-1","-1","1","0","[]","0","0","3","","","","","","","",""
"pit-trial","69","598128","0.0-2.0-14.2-0.2","battery-v0.2","","""event"",""trial"",""time""
""fullscreenenter"",""1"",""4365""
","
","
","""event"",""trial"",""time""
""fullscreenenter"",""1"",""4365""
","
","","","-1","","","15","9108","2307","&#9826;","elianto","#f73b6a7A","-1","-1","1","0","[]","0","0","3","","","","","","","",""
"pit-trial","70","602998","0.0-2.0-14.2-1.2","battery-v0.2","","""event"",""trial"",""time""
""fullscreenenter"",""1"",""4365""
","
","
","""event"",""trial"",""time""
""fullscreenenter"",""1"",""4365""
","
","","","-1","","","15","9108","2307","&#9826;","elianto","#f73b6a7A","-1","-1","1","0","[]","0","0","3","","","","","","","",""
"pit-trial","71","607862","0.0-2.0-14.2-2.2","battery-v0.2","","""event"",""trial"",""time""
""fullscreenenter"",""1"",""4365""
","
","
","""event"",""trial"",""time""
""fullscreenenter"",""1"",""4365""
","
","","","-1","","","15","9108","2307","&#9826;","elianto","#f73b6a7A","-1","-1","1","0","[]","0","0","3","","","","","","","",""
"pit-trial","72","612725","0.0-2.0-14.2-3.2","battery-v0.2","","""event"",""trial"",""time""
""fullscreenenter"",""1"",""4365""
","
","
","""event"",""trial"",""time""
""fullscreenenter"",""1"",""4365""
","
","","","-1","","","15","9108","2307","&#9826;","elianto","#f73b6a7A","-1","-1","1","-10","[]","0","0","3","","","","","","","",""
"pit-trial","73","617581","0.0-2.0-14.2-4.2","battery-v0.2","","""event"",""trial"",""time""
""fullscreenenter"",""1"",""4365""
","
","
","""event"",""trial"",""time""
""fullscreenenter"",""1"",""4365""
","
","","","-1","","","15","9108","2307","&#9826;","elianto","#f73b6a7A","-1","-1","1","0","[]","0","0","3","","","","","","","",""
"pit-trial","74","622447","0.0-2.0-14.3-0.3","battery-v0.2","","""event"",""trial"",""time""
""fullscreenenter"",""1"",""4365""
","
","
","""event"",""trial"",""time""
""fullscreenenter"",""1"",""4365""
","
","","","-1","","","15","9108","2307","&#9826;","elianto","#f73b6a7A","-1","-1","1","0","[]","0","0","3","","","","","","","",""
"pit-trial","75","627313","0.0-2.0-14.3-1.3","battery-v0.2","","""event"",""trial"",""time""
""fullscreenenter"",""1"",""4365""
","
","
","""event"",""trial"",""time""
""fullscreenenter"",""1"",""4365""
","
","","","-1","","","15","9108","2307","&#9826;","elianto","#f73b6a7A","-1","-1","1","0","[]","0","0","3","","","","","","","",""
"pit-trial","76","632179","0.0-2.0-14.3-2.3","battery-v0.2","","""event"",""trial"",""time""
""fullscreenenter"",""1"",""4365""
","
","
","""event"",""trial"",""time""
""fullscreenenter"",""1"",""4365""
","
","","","-1","","","15","9108","2307","&#9826;","elianto","#f73b6a7A","-1","-1","1","0","[]","0","0","3","","","","","","","",""
"pit-trial","77","637037","0.0-2.0-14.3-3.3","battery-v0.2","","""event"",""trial"",""time""
""fullscreenenter"",""1"",""4365""
","
","
","""event"",""trial"",""time""
""fullscreenenter"",""1"",""4365""
","
","","","-1","","","15","9108","2307","&#9826;","elianto","#f73b6a7A","-1","-1","1","-10","[]","0","0","3","","","","","","","",""
"pit-trial","78","641898","0.0-2.0-14.3-4.3","battery-v0.2","","""event"",""trial"",""time""
""fullscreenenter"",""1"",""4365""
","
","
","""event"",""trial"",""time""
""fullscreenenter"",""1"",""4365""
","
","","","-1","","","15","9108","2307","&#9826;","elianto","#f73b6a7A","-1","-1","1","0","[]","0","0","3","","","","","","","",""
"call-function","79","641904","0.0-2.0-15.0","battery-v0.2","","""event"",""trial"",""time""
""fullscreenenter"",""1"",""4365""
","
","
","""event"",""trial"",""time""
""fullscreenenter"",""1"",""4365""
","
","","","","","","","","","","","","","","","","","","","","","","","","","","",""
"pit-instructions","80","665184","0.0-2.0-16.0","battery-v0.2","","""event"",""trial"",""time""
""fullscreenenter"",""1"",""4365""
","
","
","""event"",""trial"",""time""
""fullscreenenter"",""1"",""4365""
","
","","[{""page_index"":0,""viewing_time"":6011.699999988079},{""page_index"":1,""viewing_time"":8149.800000011921},{""page_index"":2,""viewing_time"":4768.099999964237},{""page_index"":3,""viewing_time"":4349.900000035763}]","23280.19999998808","","","","","","","","","","","","","","","","","","","","","","","",""
"pit-trial","81","668548","0.0-2.0-17.0-0.0","battery-v0.2","","""event"",""trial"",""time""
""fullscreenenter"",""1"",""4365""
","
","
","""event"",""trial"",""time""
""fullscreenenter"",""1"",""4365""
","
","","","496.19999998807907","","","15","9108","2307","&#9789;","elianto","#f73b6a7A"," "," ","1","0","[1352.1000000238419]","1","0","4","","","","","","","",""
"pit-trial","82","671576","0.0-2.0-17.0-1.0","battery-v0.2","","""event"",""trial"",""time""
""fullscreenenter"",""1"",""4365""
","
","
","""event"",""trial"",""time""
""fullscreenenter"",""1"",""4365""
","
","","","165.19999998807907","","","15","9108","2307","&#9789;","elianto","#f73b6a7A"," "," ","1","0","[1016.6000000238419]","1","0","4","","","","","","","",""
"pit-trial","83","674804","0.0-2.0-17.0-2.0","battery-v0.2","","""event"",""trial"",""time""
""fullscreenenter"",""1"",""4365""
","
","
","""event"",""trial"",""time""
""fullscreenenter"",""1"",""4365""
","
","","","368.19999998807907","","","15","9108","2307","&#9789;","elianto","#f73b6a7A"," "," ","1","0","[1218.199999988079]","1","0","4","","","","","","","",""
"pit-trial","84","678075","0.0-2.0-17.0-3.0","battery-v0.2","","""event"",""trial"",""time""
""fullscreenenter"",""1"",""4365""
","
","
","""event"",""trial"",""time""
""fullscreenenter"",""1"",""4365""
","
","","","412.10000002384186","","","15","9108","2307","&#9789;","elianto","#f73b6a7A"," "," ","1","-10","[1265]","1","0","4","","","","","","","",""
"pit-trial","85","681195","0.0-2.0-17.0-4.0","battery-v0.2","","""event"",""trial"",""time""
""fullscreenenter"",""1"",""4365""
","
","
","""event"",""trial"",""time""
""fullscreenenter"",""1"",""4365""
","
","","","263.30000001192093","","","15","9108","2307","&#9789;","elianto","#f73b6a7A"," "," ","1","0","[1114.300000011921]","1","0","4","","","","","","","",""
"pit-trial","86","684367","0.0-2.0-17.1-0.1","battery-v0.2","","""event"",""trial"",""time""
""fullscreenenter"",""1"",""4365""
","
","
","""event"",""trial"",""time""
""fullscreenenter"",""1"",""4365""
","
","","","307.80000001192093","","","15","9108","2307","&#9789;","elianto","#f73b6a7A"," "," ","1","0","[1160.800000011921]","1","0","4","","","","","","","",""
"pit-trial","87","687528","0.0-2.0-17.1-1.1","battery-v0.2","","""event"",""trial"",""time""
""fullscreenenter"",""1"",""4365""
","
","
","""event"",""trial"",""time""
""fullscreenenter"",""1"",""4365""
","
","","","289.30000001192093","","","15","9108","2307","&#9789;","elianto","#f73b6a7A"," "," ","1","0","[1149.8999999761581]","1","0","4","","","","","","","",""
"pit-trial","88","690512","0.0-2.0-17.1-2.1","battery-v0.2","","""event"",""trial"",""time""
""fullscreenenter"",""1"",""4365""
","
","
","""event"",""trial"",""time""
""fullscreenenter"",""1"",""4365""
","
","","","108.69999998807907","","","15","9108","2307","&#9789;","elianto","#f73b6a7A"," "," ","1","0","[966.3999999761581]","1","0","4","","","","","","","",""
"pit-trial","89","693699","0.0-2.0-17.1-3.1","battery-v0.2","","""event"",""trial"",""time""
""fullscreenenter"",""1"",""4365""
","
","
","""event"",""trial"",""time""
""fullscreenenter"",""1"",""4365""
","
","","","325.69999998807907","","","15","9108","2307","&#9789;","elianto","#f73b6a7A"," "," ","1","-10","[812.5999999642372,1182.7999999523163]","2","0","4","","","","","","","",""
"pit-trial","90","696897","0.0-2.0-17.1-4.1","battery-v0.2","","""event"",""trial"",""time""
""fullscreenenter"",""1"",""4365""
","
","
","""event"",""trial"",""time""
""fullscreenenter"",""1"",""4365""
","
","","","332.7999999523163","","","15","9108","2307","&#9789;","elianto","#f73b6a7A"," "," ","1","0","[1190.199999988079]","1","0","4","","","","","","","",""
"pit-trial","91","700030","0.0-2.0-17.2-0.2","battery-v0.2","","""event"",""trial"",""time""
""fullscreenenter"",""1"",""4365""
","
","
","""event"",""trial"",""time""
""fullscreenenter"",""1"",""4365""
","
","","","260.2000000476837","","","15","9108","2307","&#9789;","elianto","#f73b6a7A"," "," ","1","0","[1117]","1","0","4","","","","","","","",""
"pit-trial","92","703363","0.0-2.0-17.2-1.2","battery-v0.2","","""event"",""trial"",""time""
""fullscreenenter"",""1"",""4365""
","
","
","""event"",""trial"",""time""
""fullscreenenter"",""1"",""4365""
","
","","","463.5","","","15","9108","2307","&#9789;","elianto","#f73b6a7A"," "," ","1","0","[1321.5]","1","0","4","","","","","","","",""
"pit-trial","93","706915","0.0-2.0-17.2-2.2","battery-v0.2","","""event"",""trial"",""time""
""fullscreenenter"",""1"",""4365""
","
","
","""event"",""trial"",""time""
""fullscreenenter"",""1"",""4365""
","
","","","691","","","15","9108","2307","&#9789;","elianto","#f73b6a7A"," "," ","1","0","[1547.5]","1","0","4","","","","","","","",""
"pit-trial","94","710226","0.0-2.0-17.2-3.2","battery-v0.2","","""event"",""trial"",""time""
""fullscreenenter"",""1"",""4365""
","
","
","""event"",""trial"",""time""
""fullscreenenter"",""1"",""4365""
","
","","","446.60000002384186","","","15","9108","2307","&#9789;","elianto","#f73b6a7A"," "," ","1","-10","[1301.8999999761581]","1","0","4","","","","","","","",""
"pit-trial","95","715090","0.0-2.0-17.2-4.2","battery-v0.2","","""event"",""trial"",""time""
""fullscreenenter"",""1"",""4365""
","
","
","""event"",""trial"",""time""
""fullscreenenter"",""1"",""4365""
","
","","","-1","","","15","9108","2307","&#9789;","elianto","#f73b6a7A"," ","-1","0","-10","[]","0","0","4","","","","","","","",""
"pit-trial","96","718397","0.0-2.0-17.3-0.3","battery-v0.2","","""event"",""trial"",""time""
""fullscreenenter"",""1"",""4365""
","
","
","""event"",""trial"",""time""
""fullscreenenter"",""1"",""4365""
","
","","","448.39999997615814","","","15","9108","2307","&#9789;","elianto","#f73b6a7A"," "," ","1","0","[1300.2000000476837]","1","0","4","","","","","","","",""
"pit-trial","97","721507","0.0-2.0-17.3-1.3","battery-v0.2","","""event"",""trial"",""time""
""fullscreenenter"",""1"",""4365""
","
","
","""event"",""trial"",""time""
""fullscreenenter"",""1"",""4365""
","
","","","240.80000001192093","","","15","9108","2307","&#9789;","elianto","#f73b6a7A"," "," ","1","0","[1100.3999999761581]","1","0","4","","","","","","","",""
"pit-trial","98","724611","0.0-2.0-17.3-2.3","battery-v0.2","","""event"",""trial"",""time""
""fullscreenenter"",""1"",""4365""
","
","
","""event"",""trial"",""time""
""fullscreenenter"",""1"",""4365""
","
","","","244.30000001192093","","","15","9108","2307","&#9789;","elianto","#f73b6a7A"," "," ","1","0","[1095.300000011921]","1","0","4","","","","","","","",""
"pit-trial","99","727922","0.0-2.0-17.3-3.3","battery-v0.2","","""event"",""trial"",""time""
""fullscreenenter"",""1"",""4365""
","
","
","""event"",""trial"",""time""
""fullscreenenter"",""1"",""4365""
","
","","","444.89999997615814","","","15","9108","2307","&#9789;","elianto","#f73b6a7A"," "," ","1","-10","[1299.5]","1","0","4","","","","","","","",""
"pit-trial","100","731111","0.0-2.0-17.3-4.3","battery-v0.2","","""event"",""trial"",""time""
""fullscreenenter"",""1"",""4365""
","
","
","""event"",""trial"",""time""
""fullscreenenter"",""1"",""4365""
","
","","","333.80000001192093","","","15","9108","2307","&#9789;","elianto","#f73b6a7A"," "," ","1","0","[1184.699999988079]","1","0","4","","","","","","","",""
"call-function","101","731116","0.0-2.0-18.0","battery-v0.2","","""event"",""trial"",""time""
""fullscreenenter"",""1"",""4365""
","
","
","""event"",""trial"",""time""
""fullscreenenter"",""1"",""4365""
","
","","","","","","","","","","","","","","","","","","","","","","","","","","",""
"pit-instructions","102","814902","0.0-2.0-19.0","battery-v0.2","","""event"",""trial"",""time""
""fullscreenenter"",""1"",""4365""
","
","
","""event"",""trial"",""time""
""fullscreenenter"",""1"",""4365""
","
","","[{""page_index"":0,""viewing_time"":8583.600000023842},{""page_index"":1,""viewing_time"":6532.899999976158},{""page_index"":2,""viewing_time"":19501.899999976158},{""page_index"":3,""viewing_time"":15900.800000011921},{""page_index"":4,""viewing_time"":9315.199999988079},{""page_index"":5,""viewing_time"":8516.900000035763},{""page_index"":6,""viewing_time"":4152.399999976158},{""page_index"":7,""viewing_time"":5964.300000011921},{""page_index"":8,""viewing_time"":5319.300000011921}]","83788.10000002384","","","","","","","","","","","","","","","","","","","","","","","",""
"pit-comprehension","103","819101","0.0-2.0-20.0-0.0","battery-v0.2","","""event"",""trial"",""time""
""fullscreenenter"",""1"",""4365""
","
","
","""event"",""trial"",""time""
""fullscreenenter"",""1"",""4365""
","
","","","4192.900000035763","[""SPACE""]","0","15","9108","2307","","","","","","","","","","","","","","","","","","",""
"pit-instructions","104","826385","0.0-2.0-20.0-1.0","battery-v0.2","","""event"",""trial"",""time""
""fullscreenenter"",""1"",""4365""
","
","
","""event"",""trial"",""time""
""fullscreenenter"",""1"",""4365""
","
","","[{""page_index"":0,""viewing_time"":7256.800000011921}]","7257.600000023842","","","","","","","","","","","","","","","","","","","","","","","",""
"pit-comprehension","105","833036","0.0-2.0-21.0-0.0","battery-v0.2","","""event"",""trial"",""time""
""fullscreenenter"",""1"",""4365""
","
","
","""event"",""trial"",""time""
""fullscreenenter"",""1"",""4365""
","
","","","6646.5","[""10""]","0","15","9108","2307","","","","","","","","","","","","","","","","","","",""
"pit-instructions","106","838588","0.0-2.0-21.0-1.0","battery-v0.2","","""event"",""trial"",""time""
""fullscreenenter"",""1"",""4365""
","
","
","""event"",""trial"",""time""
""fullscreenenter"",""1"",""4365""
","
","","[{""page_index"":0,""viewing_time"":5526.300000011921}]","5526.899999976158","","","","","","","","","","","","","","","","","","","","","","","",""
"pit-comprehension","107","846419","0.0-2.0-22.0-0.0","battery-v0.2","","""event"",""trial"",""time""
""fullscreenenter"",""1"",""4365""
","
","
","""event"",""trial"",""time""
""fullscreenenter"",""1"",""4365""
","
","","","7818","[""0""]","0","15","9108","2307","","","","","","","","","","","","","","","","","","",""
"pit-instructions","108","847867","0.0-2.0-22.0-1.0","battery-v0.2","","""event"",""trial"",""time""
""fullscreenenter"",""1"",""4365""
","
","
","""event"",""trial"",""time""
""fullscreenenter"",""1"",""4365""
","
","","[{""page_index"":0,""viewing_time"":1422}]","1422.5999999642372","","","","","","","","","","","","","","","","","","","","","","","",""
"pit-comprehension","109","855916","0.0-2.0-23.0-0.0","battery-v0.2","","""event"",""trial"",""time""
""fullscreenenter"",""1"",""4365""
","
","
","""event"",""trial"",""time""
""fullscreenenter"",""1"",""4365""
","
","","","8047.100000023842","[""True""]","0","15","9108","2307","","","","","","","","","","","","","","","","","","",""
"pit-instructions","110","857234","0.0-2.0-23.0-1.0","battery-v0.2","","""event"",""trial"",""time""
""fullscreenenter"",""1"",""4365""
","
","
","""event"",""trial"",""time""
""fullscreenenter"",""1"",""4365""
","
","","[{""page_index"":0,""viewing_time"":1293.0999999642372}]","1293.699999988079","","","","","","","","","","","","","","","","","","","","","","","",""
"pit-comprehension","111","864465","0.0-2.0-24.0-0.0","battery-v0.2","","""event"",""trial"",""time""
""fullscreenenter"",""1"",""4365""
","
","
","""event"",""trial"",""time""
""fullscreenenter"",""1"",""4365""
","
","","","7226.5","[""True""]","0","15","9108","2307","","","","","","","","","","","","","","","","","","",""
"pit-instructions","112","868471","0.0-2.0-24.0-1.0","battery-v0.2","","""event"",""trial"",""time""
""fullscreenenter"",""1"",""4365""
","
","
","""event"",""trial"",""time""
""fullscreenenter"",""1"",""4365""
","
","","[{""page_index"":0,""viewing_time"":3977.899999976158}]","3979.5","","","","","","","","","","","","","","","","","","","","","","","",""
"pit-comprehension","113","874785","0.0-2.0-25.0-0.0","battery-v0.2","","""event"",""trial"",""time""
""fullscreenenter"",""1"",""4365""
","
","
","""event"",""trial"",""time""
""fullscreenenter"",""1"",""4365""
","
","","","6302.800000011921","[""True""]","0","15","9108","2307","","","","","","","","","","","","","","","","","","",""
"pit-instructions","114","878416","0.0-2.0-25.0-1.0","battery-v0.2","","""event"",""trial"",""time""
""fullscreenenter"",""1"",""4365""
","
","
","""event"",""trial"",""time""
""fullscreenenter"",""1"",""4365""
","
","","[{""page_index"":0,""viewing_time"":3605.900000035763}]","3606.400000035763","","","","","","","","","","","","","","","","","","","","","","","",""
"pit-comprehension","115","882699","0.0-2.0-26.0-0.0","battery-v0.2","","""event"",""trial"",""time""
""fullscreenenter"",""1"",""4365""
","
","
","""event"",""trial"",""time""
""fullscreenenter"",""1"",""4365""
","
","","","4280.200000047684","[""False""]","0","15","9108","2307","","","","","","","","","","","","","","","","","","",""
"pit-instructions","116","884183","0.0-2.0-26.0-1.0","battery-v0.2","","""event"",""trial"",""time""
""fullscreenenter"",""1"",""4365""
","
","
","""event"",""trial"",""time""
""fullscreenenter"",""1"",""4365""
","
","","[{""page_index"":0,""viewing_time"":1459.6000000238419}]","1459.800000011921","","","","","","","","","","","","","","","","","","","","","","","",""
"pit-instructions","117","901486","0.0-3.0","battery-v0.2","","""event"",""trial"",""time""
""fullscreenenter"",""1"",""4365""
","
","
","""event"",""trial"",""time""
""fullscreenenter"",""1"",""4365""
","
","","[{""page_index"":0,""viewing_time"":4129.800000011921},{""page_index"":1,""viewing_time"":5548.399999976158},{""page_index"":2,""viewing_time"":7621.199999988079}]","17299.899999976158","","","","","","","","","","","","","","","","","","","","","","","",""
"pit-trial","118","905596","0.0-4.0","battery-v0.2","","""event"",""trial"",""time""
""fullscreenenter"",""1"",""4365""
","
","
","""event"",""trial"",""time""
""fullscreenenter"",""1"",""4365""
","
","","","1243.800000011921","","","15","9108","2307","&#9733;","elianto","#3366ff99","-1"," ","0","0","[2097.800000011921]","1","1","","","9108","1","2","2","win","no-go","0"
"pit-trial","119","909684","0.0-5.0","battery-v0.2","","""event"",""trial"",""time""
""fullscreenenter"",""1"",""4365""
","
","
","""event"",""trial"",""time""
""fullscreenenter"",""1"",""4365""
","
","","","1229.1000000238419","","","15","9108","2307","&#9730;","elianto","#3366ff99"," "," ","1","+10","[2081.300000011921]","1","1","","","9108","2","1","1","win","go","0"
"pit-trial","120","913252","0.0-6.0","battery-v0.2","","""event"",""trial"",""time""
""fullscreenenter"",""1"",""4365""
","
","
","""event"",""trial"",""time""
""fullscreenenter"",""1"",""4365""
","
","","","705.5","","","15","9108","2307","&#9752;","elianto","#f73b6a7A"," "," ","1","-10","[1562.1000000238419]","1","1","","","9108","3","3","3","lose","go","1"
"pit-trial","121","916995","0.0-7.0","battery-v0.2","","""event"",""trial"",""time""
""fullscreenenter"",""1"",""4365""
","
","
","""event"",""trial"",""time""
""fullscreenenter"",""1"",""4365""
","
","","","878","","","15","9108","2307","&#9728;","elianto","#f73b6a7A","-1"," ","0","-10","[1732]","1","1","","","9108","4","0","4","lose","no-go","0"
"pit-trial","122","920988","0.0-8.0","battery-v0.2","","""event"",""trial"",""time""
""fullscreenenter"",""1"",""4365""
","
","
","""event"",""trial"",""time""
""fullscreenenter"",""1"",""4365""
","
","","","1134.1000000238419","","","15","9108","2307","&#9730;","elianto","#3366ff99"," "," ","1","+10","[1987.8999999761581]","1","1","","","9108","5","1","1","win","go","0"
"pit-trial","123","925854","0.0-9.0","battery-v0.2","","""event"",""trial"",""time""
""fullscreenenter"",""1"",""4365""
","
","
","""event"",""trial"",""time""
""fullscreenenter"",""1"",""4365""
","
","","","-1","","","15","9108","2307","&#9728;","elianto","#f73b6a7A","-1","-1","1","0","[]","0","1","","","9108","6","0","4","lose","no-go","0"
"pit-trial","124","929406","0.0-10.0","battery-v0.2","","""event"",""trial"",""time""
""fullscreenenter"",""1"",""4365""
","
","
","""event"",""trial"",""time""
""fullscreenenter"",""1"",""4365""
","
","","","686.6000000238419","","","15","9108","2307","&#9733;","elianto","#3366ff99","-1"," ","0","0","[1539.5999999642372]","1","1","","","9108","7","2","2","win","no-go","0"
"pit-trial","125","934268","0.0-11.0","battery-v0.2","","""event"",""trial"",""time""
""fullscreenenter"",""1"",""4365""
","
","
","""event"",""trial"",""time""
""fullscreenenter"",""1"",""4365""
","
","","","-1","","","15","9108","2307","&#9752;","elianto","#f73b6a7A"," ","-1","0","-10","[]","0","1","","","9108","8","3","3","lose","go","0"
"pit-trial","126","939129","0.0-12.0","battery-v0.2","","""event"",""trial"",""time""
""fullscreenenter"",""1"",""4365""
","
","
","""event"",""trial"",""time""
""fullscreenenter"",""1"",""4365""
","
","","","-1","","","15","9108","2307","&#9733;","elianto","#3366ff99","-1","-1","1","+10","[]","0","1","","","9108","9","2","2","win","no-go","0"
"pit-trial","127","943994","0.0-13.0","battery-v0.2","","""event"",""trial"",""time""
""fullscreenenter"",""1"",""4365""
","
","
","""event"",""trial"",""time""
""fullscreenenter"",""1"",""4365""
","
","","","-1","","","15","9108","2307","&#9752;","elianto","#f73b6a7A"," ","-1","0","0","[]","0","1","","","9108","10","3","3","lose","go","1"
"pit-trial","128","948858","0.0-14.0","battery-v0.2","","""event"",""trial"",""time""
""fullscreenenter"",""1"",""4365""
","
","
","""event"",""trial"",""time""
""fullscreenenter"",""1"",""4365""
","
","","","-1","","","15","9108","2307","&#9728;","elianto","#f73b6a7A","-1","-1","1","0","[]","0","1","","","9108","11","0","4","lose","no-go","0"
"pit-trial","129","952479","0.0-15.0","battery-v0.2","","""event"",""trial"",""time""
""fullscreenenter"",""1"",""4365""
","
","
","""event"",""trial"",""time""
""fullscreenenter"",""1"",""4365""
","
","","","767.3000000119209","","","15","9108","2307","&#9730;","elianto","#3366ff99"," "," ","1","0","[1618]","1","1","","","9108","12","1","1","win","go","1"
"pit-trial","130","957347","0.0-16.0","battery-v0.2","","""event"",""trial"",""time""
""fullscreenenter"",""1"",""4365""
","
","
","""event"",""trial"",""time""
""fullscreenenter"",""1"",""4365""
","
","","","-1","","","15","9108","2307","&#9733;","elianto","#3366ff99","-1","-1","1","+10","[]","0","1","","","9108","13","2","2","win","no-go","0"
"pit-trial","131","961011","0.0-17.0","battery-v0.2","","""event"",""trial"",""time""
""fullscreenenter"",""1"",""4365""
","
","
","""event"",""trial"",""time""
""fullscreenenter"",""1"",""4365""
","
","","","797.6000000238419","","","15","9108","2307","&#9730;","elianto","#3366ff99"," "," ","1","+10","[1656.1000000238419]","1","1","","","9108","14","1","1","win","go","0"
"pit-trial","132","965875","0.0-18.0","battery-v0.2","","""event"",""trial"",""time""
""fullscreenenter"",""1"",""4365""
","
","
","""event"",""trial"",""time""
""fullscreenenter"",""1"",""4365""
","
","","","-1","","","15","9108","2307","&#9752;","elianto","#f73b6a7A"," ","-1","0","-10","[]","0","1","","","9108","15","3","3","lose","go","0"
"pit-trial","133","970739","0.0-19.0","battery-v0.2","","""event"",""trial"",""time""
""fullscreenenter"",""1"",""4365""
","
","
","""event"",""trial"",""time""
""fullscreenenter"",""1"",""4365""
","
","","","-1","","","15","9108","2307","&#9728;","elianto","#f73b6a7A","-1","-1","1","0","[]","0","1","","","9108","16","0","4","lose","no-go","0"
"pit-trial","134","974362","0.0-20.0","battery-v0.2","","""event"",""trial"",""time""
""fullscreenenter"",""1"",""4365""
","
","
","""event"",""trial"",""time""
""fullscreenenter"",""1"",""4365""
","
","","","763.1999999880791","","","15","9108","2307","&#9733;","elianto","#3366ff99","-1"," ","0","0","[1613.2999999523163]","1","1","","","9108","17","2","2","win","no-go","0"
"pit-trial","135","977929","0.0-21.0","battery-v0.2","","""event"",""trial"",""time""
""fullscreenenter"",""1"",""4365""
","
","
","""event"",""trial"",""time""
""fullscreenenter"",""1"",""4365""
","
","","","705.3999999761581","","","15","9108","2307","&#9730;","elianto","#3366ff99"," "," ","1","+10","[1559.9000000357628]","1","1","","","9108","18","1","1","win","go","0"
"pit-trial","136","982803","0.0-22.0","battery-v0.2","","""event"",""trial"",""time""
""fullscreenenter"",""1"",""4365""
","
","
","""event"",""trial"",""time""
""fullscreenenter"",""1"",""4365""
","
","","","-1","","","15","9108","2307","&#9728;","elianto","#f73b6a7A","-1","-1","1","0","[]","0","1","","","9108","19","0","4","lose","no-go","0"
"pit-trial","137","986396","0.0-23.0","battery-v0.2","","""event"",""trial"",""time""
""fullscreenenter"",""1"",""4365""
","
","
","""event"",""trial"",""time""
""fullscreenenter"",""1"",""4365""
","
","","","728.1999999880791","","","15","9108","2307","&#9752;","elianto","#f73b6a7A"," "," ","1","0","[1582.199999988079]","1","1","","","9108","20","3","3","lose","go","0"
"pit-instructions","138","999034","0.0-24.0","battery-v0.2","","""event"",""trial"",""time""
""fullscreenenter"",""1"",""4365""
","
","
","""event"",""trial"",""time""
""fullscreenenter"",""1"",""4365""
","
","","[{""page_index"":0,""viewing_time"":5601.899999976158},{""page_index"":1,""viewing_time"":7033.600000023842}]","12636.300000011921","","","","","","","","","","","","","","","","","","","","","","","",""
"pit-trial","139","1002873","0.0-25.0","battery-v0.2","","""event"",""trial"",""time""
""fullscreenenter"",""1"",""4365""
","
","
","""event"",""trial"",""time""
""fullscreenenter"",""1"",""4365""
","
","","","974.6000000238419","","","15","9108","2307","b","elianto","#f73b6a7A","-1"," ","0","-10","[1829.1000000238419]","1","2","","","9108","21","3","4","lose","no-go","0"
"pit-trial","140","1007730","0.0-26.0","battery-v0.2","","""event"",""trial"",""time""
""fullscreenenter"",""1"",""4365""
","
","
","""event"",""trial"",""time""
""fullscreenenter"",""1"",""4365""
","
","","","-1","","","15","9108","2307","n","elianto","#f73b6a7A"," ","-1","0","-10","[]","0","2","","","9108","22","0","3","lose","go","0"
"pit-trial","141","1011196","0.0-27.0","battery-v0.2","","""event"",""trial"",""time""
""fullscreenenter"",""1"",""4365""
","
","
","""event"",""trial"",""time""
""fullscreenenter"",""1"",""4365""
","
","","","599.3999999761581","","","15","9108","2307","f","elianto","#3366ff99","-1"," ","0","0","[1459.4000000357628]","1","2","","","9108","23","1","2","win","no-go","0"
"pit-trial","142","1014868","0.0-28.0","battery-v0.2","","""event"",""trial"",""time""
""fullscreenenter"",""1"",""4365""
","
","
","""event"",""trial"",""time""
""fullscreenenter"",""1"",""4365""
","
","","","804.3999999761581","","","15","9108","2307","t","elianto","#f73b6a7A"," "," ","1","0","[1662]","1","2","","","9108","24","2","3","lose","go","0"
"pit-trial","143","1019730","0.0-29.0","battery-v0.2","","""event"",""trial"",""time""
""fullscreenenter"",""1"",""4365""
","
","
","""event"",""trial"",""time""
""fullscreenenter"",""1"",""4365""
","
","","","-1","","","15","9108","2307","f","elianto","#3366ff99","-1","-1","1","+10","[]","0","2","","","9108","25","1","2","win","no-go","0"
"pit-trial","144","1023356","0.0-30.0","battery-v0.2","","""event"",""trial"",""time""
""fullscreenenter"",""1"",""4365""
","
","
","""event"",""trial"",""time""
""fullscreenenter"",""1"",""4365""
","
","","","752.6999999880791","","","15","9108","2307","n","elianto","#f73b6a7A"," "," ","1","-10","[1612]","1","2","","","9108","26","0","3","lose","go","1"
"pit-trial","145","1027094","0.0-31.0","battery-v0.2","","""event"",""trial"",""time""
""fullscreenenter"",""1"",""4365""
","
","
","""event"",""trial"",""time""
""fullscreenenter"",""1"",""4365""
","
","","","876.4000000357628","","","15","9108","2307","t","elianto","#f73b6a7A"," "," ","1","0","[1728.699999988079]","1","2","","","9108","27","2","3","lose","go","0"
"pit-trial","146","1031962","0.0-32.0","battery-v0.2","","""event"",""trial"",""time""
""fullscreenenter"",""1"",""4365""
","
","
","""event"",""trial"",""time""
""fullscreenenter"",""1"",""4365""
","
","","","-1","","","15","9108","2307","b","elianto","#f73b6a7A","-1","-1","1","0","[]","0","2","","","9108","28","3","4","lose","no-go","0"
"pit-trial","147","1036825","0.0-33.0","battery-v0.2","","""event"",""trial"",""time""
""fullscreenenter"",""1"",""4365""
","
","
","""event"",""trial"",""time""
""fullscreenenter"",""1"",""4365""
","
","","","-1","","","15","9108","2307","t","elianto","#f73b6a7A"," ","-1","0","-10","[]","0","2","","","9108","29","2","3","lose","go","0"
"pit-trial","148","1041695","0.0-34.0","battery-v0.2","","""event"",""trial"",""time""
""fullscreenenter"",""1"",""4365""
","
","
","""event"",""trial"",""time""
""fullscreenenter"",""1"",""4365""
","
","","","-1","","","15","9108","2307","n","elianto","#f73b6a7A"," ","-1","0","0","[]","0","2","","","9108","30","0","3","lose","go","1"
"pit-trial","149","1045438","0.0-35.0","battery-v0.2","","""event"",""trial"",""time""
""fullscreenenter"",""1"",""4365""
","
","
","""event"",""trial"",""time""
""fullscreenenter"",""1"",""4365""
","
","","","884.3000000119209","","","15","9108","2307","f","elianto","#3366ff99","-1"," ","0","+10","[1739.199999988079]","1","2","","","9108","31","1","2","win","no-go","1"
"pit-trial","150","1050306","0.0-36.0","battery-v0.2","","""event"",""trial"",""time""
""fullscreenenter"",""1"",""4365""
","
","
","""event"",""trial"",""time""
""fullscreenenter"",""1"",""4365""
","
","","","-1","","","15","9108","2307","b","elianto","#f73b6a7A","-1","-1","1","0","[]","0","2","","","9108","32","3","4","lose","no-go","0"
"pit-trial","151","1054121","0.0-37.0","battery-v0.2","","""event"",""trial"",""time""
""fullscreenenter"",""1"",""4365""
","
","
","""event"",""trial"",""time""
""fullscreenenter"",""1"",""4365""
","
","","","944.0999999642372","","","15","9108","2307","n","elianto","#f73b6a7A"," "," ","1","0","[1799.4000000357628]","1","2","","","9108","33","0","3","lose","go","0"
"pit-trial","152","1058980","0.0-38.0","battery-v0.2","","""event"",""trial"",""time""
""fullscreenenter"",""1"",""4365""
","
","
","""event"",""trial"",""time""
""fullscreenenter"",""1"",""4365""
","
","","","-1","","","15","9108","2307","t","elianto","#f73b6a7A"," ","-1","0","-10","[]","0","2","","","9108","34","2","3","lose","go","0"
"pit-trial","153","1063095","0.0-39.0","battery-v0.2","","""event"",""trial"",""time""
""fullscreenenter"",""1"",""4365""
","
","
","""event"",""trial"",""time""
""fullscreenenter"",""1"",""4365""
","
","","","1245.1000000238419","","","15","9108","2307","f","elianto","#3366ff99","-1"," ","0","0","[2103]","1","2","","","9108","35","1","2","win","no-go","0"
"pit-trial","154","1067960","0.0-40.0","battery-v0.2","","""event"",""trial"",""time""
""fullscreenenter"",""1"",""4365""
","
","
","""event"",""trial"",""time""
""fullscreenenter"",""1"",""4365""
","
","","","-1","","","15","9108","2307","b","elianto","#f73b6a7A","-1","-1","1","0","[]","0","2","","","9108","36","3","4","lose","no-go","0"
"pit-trial","155","1071458","0.0-41.0","battery-v0.2","","""event"",""trial"",""time""
""fullscreenenter"",""1"",""4365""
","
","
","""event"",""trial"",""time""
""fullscreenenter"",""1"",""4365""
","
","","","627.5","","","15","9108","2307","n","elianto","#f73b6a7A"," "," ","1","-10","[1488.699999988079]","1","2","","","9108","37","0","3","lose","go","1"
"pit-trial","156","1076328","0.0-42.0","battery-v0.2","","""event"",""trial"",""time""
""fullscreenenter"",""1"",""4365""
","
","
","""event"",""trial"",""time""
""fullscreenenter"",""1"",""4365""
","
","","","-1","","","15","9108","2307","f","elianto","#3366ff99","-1","-1","1","0","[]","0","2","","","9108","38","1","2","win","no-go","1"
"pit-trial","157","1081195","0.0-43.0","battery-v0.2","","""event"",""trial"",""time""
""fullscreenenter"",""1"",""4365""
","
","
","""event"",""trial"",""time""
""fullscreenenter"",""1"",""4365""
","
","","","-1","","","15","9108","2307","b","elianto","#f73b6a7A","-1","-1","1","-10","[]","0","2","","","9108","39","3","4","lose","no-go","1"
"pit-trial","158","1085062","0.0-44.0","battery-v0.2","","""event"",""trial"",""time""
""fullscreenenter"",""1"",""4365""
","
","
","""event"",""trial"",""time""
""fullscreenenter"",""1"",""4365""
","
","","","997.3999999761581","","","15","9108","2307","t","elianto","#f73b6a7A"," "," ","1","0","[1854.1000000238419]","1","2","","","9108","40","2","3","lose","go","0"
"pit-trial","159","1089926","0.0-45.0","battery-v0.2","","""event"",""trial"",""time""
""fullscreenenter"",""1"",""4365""
","
","
","""event"",""trial"",""time""
""fullscreenenter"",""1"",""4365""
","
","","","-1","","","15","9108","2307","b","elianto","#f73b6a7A","-1","-1","1","0","[]","0","2","","","9108","41","3","4","lose","no-go","0"
"pit-trial","160","1093609","0.0-46.0","battery-v0.2","","""event"",""trial"",""time""
""fullscreenenter"",""1"",""4365""
","
","
","""event"",""trial"",""time""
""fullscreenenter"",""1"",""4365""
","
","","","825.6999999880791","","","15","9108","2307","t","elianto","#f73b6a7A"," "," ","1","0","[1678.6000000238419]","1","2","","","9108","42","2","3","lose","go","0"
"pit-trial","161","1097543","0.0-47.0","battery-v0.2","","""event"",""trial"",""time""
""fullscreenenter"",""1"",""4365""
","
","
","""event"",""trial"",""time""
""fullscreenenter"",""1"",""4365""
","
","","","1069.800000011921","","","15","9108","2307","f","elianto","#3366ff99","-1"," ","0","0","[1927.5]","1","2","","","9108","43","1","2","win","no-go","0"
"pit-trial","162","1102039","0.0-48.0","battery-v0.2","","""event"",""trial"",""time""
""fullscreenenter"",""1"",""4365""
","
","
","""event"",""trial"",""time""
""fullscreenenter"",""1"",""4365""
","
","","","1623.6000000238419","","","15","9108","2307","n","elianto","#f73b6a7A"," "," ","1","-10","[2483.199999988079]","1","2","","","9108","44","0","3","lose","go","1"
"pit-trial","163","1106910","0.0-49.0","battery-v0.2","","""event"",""trial"",""time""
""fullscreenenter"",""1"",""4365""
","
","
","""event"",""trial"",""time""
""fullscreenenter"",""1"",""4365""
","
","","","-1","","","15","9108","2307","b","elianto","#f73b6a7A","-1","-1","1","0","[]","0","2","","","9108","45","3","4","lose","no-go","0"
"pit-trial","164","1111782","0.0-50.0","battery-v0.2","","""event"",""trial"",""time""
""fullscreenenter"",""1"",""4365""
","
","
","""event"",""trial"",""time""
""fullscreenenter"",""1"",""4365""
","
","","","-1","","","15","9108","2307","f","elianto","#3366ff99","-1","-1","1","+10","[]","0","2","","","9108","46","1","2","win","no-go","0"
"pit-trial","165","1115521","0.0-51.0","battery-v0.2","","""event"",""trial"",""time""
""fullscreenenter"",""1"",""4365""
","
","
","""event"",""trial"",""time""
""fullscreenenter"",""1"",""4365""
","
","","","871.0999999642372","","","15","9108","2307","t","elianto","#f73b6a7A"," "," ","1","0","[1726.8999999761581]","1","2","","","9108","47","2","3","lose","go","0"
"pit-trial","166","1119374","0.0-52.0","battery-v0.2","","""event"",""trial"",""time""
""fullscreenenter"",""1"",""4365""
","
","
","""event"",""trial"",""time""
""fullscreenenter"",""1"",""4365""
","
","","","990.8000000119209","","","15","9108","2307","n","elianto","#f73b6a7A"," "," ","1","0","[1842.2000000476837]","1","2","","","9108","48","0","3","lose","go","0"
"pit-trial","167","1124245","0.0-53.0","battery-v0.2","","""event"",""trial"",""time""
""fullscreenenter"",""1"",""4365""
","
","
","""event"",""trial"",""time""
""fullscreenenter"",""1"",""4365""
","
","","","-1","","","15","9108","2307","b","elianto","#f73b6a7A","-1","-1","1","0","[]","0","2","","","9108","49","3","4","lose","no-go","0"
"pit-trial","168","1127871","0.0-54.0","battery-v0.2","","""event"",""trial"",""time""
""fullscreenenter"",""1"",""4365""
","
","
","""event"",""trial"",""time""
""fullscreenenter"",""1"",""4365""
","
","","","755.9000000357628","","","15","9108","2307","n","elianto","#f73b6a7A"," "," ","1","0","[1616.5]","1","2","","","9108","50","0","3","lose","go","0"
"pit-trial","169","1132732","0.0-55.0","battery-v0.2","","""event"",""trial"",""time""
""fullscreenenter"",""1"",""4365""
","
","
","""event"",""trial"",""time""
""fullscreenenter"",""1"",""4365""
","
","","","-1","","","15","9108","2307","f","elianto","#3366ff99","-1","-1","1","+10","[]","0","2","","","9108","51","1","2","win","no-go","0"
"pit-trial","170","1136412","0.0-56.0","battery-v0.2","","""event"",""trial"",""time""
""fullscreenenter"",""1"",""4365""
","
","
","""event"",""trial"",""time""
""fullscreenenter"",""1"",""4365""
","
","","","822.2999999523163","","","15","9108","2307","t","elianto","#f73b6a7A"," "," ","1","0","[1673.9000000357628]","1","2","","","9108","52","2","3","lose","go","0"
"pit-trial","171","1140076","0.0-57.0","battery-v0.2","","""event"",""trial"",""time""
""fullscreenenter"",""1"",""4365""
","
","
","""event"",""trial"",""time""
""fullscreenenter"",""1"",""4365""
","
","","","803.4000000357628","","","15","9108","2307","n","elianto","#f73b6a7A"," "," ","1","0","[1657]","1","2","","","9108","53","0","3","lose","go","0"
"pit-trial","172","1143461","0.0-58.0","battery-v0.2","","""event"",""trial"",""time""
""fullscreenenter"",""1"",""4365""
","
","
","""event"",""trial"",""time""
""fullscreenenter"",""1"",""4365""
","
","","","520.8999999761581","","","15","9108","2307","f","elianto","#3366ff99","-1"," ","0","0","[1373.7000000476837]","1","2","","","9108","54","1","2","win","no-go","0"
"pit-trial","173","1148325","0.0-59.0","battery-v0.2","","""event"",""trial"",""time""
""fullscreenenter"",""1"",""4365""
","
","
","""event"",""trial"",""time""
""fullscreenenter"",""1"",""4365""
","
","","","-1","","","15","9108","2307","b","elianto","#f73b6a7A","-1","-1","1","0","[]","0","2","","","9108","55","3","4","lose","no-go","0"
"pit-trial","174","1151797","0.0-60.0","battery-v0.2","","""event"",""trial"",""time""
""fullscreenenter"",""1"",""4365""
","
","
","""event"",""trial"",""time""
""fullscreenenter"",""1"",""4365""
","
","","","606.6999999880791","","","15","9108","2307","t","elianto","#f73b6a7A"," "," ","1","0","[1457]","1","2","","","9108","56","2","3","lose","go","0"
"pit-trial","175","1156666","0.0-61.0","battery-v0.2","","""event"",""trial"",""time""
""fullscreenenter"",""1"",""4365""
","
","
","""event"",""trial"",""time""
""fullscreenenter"",""1"",""4365""
","
","","","-1","","","15","9108","2307","b","elianto","#f73b6a7A","-1","-1","1","0","[]","0","2","","","9108","57","3","4","lose","no-go","0"
"pit-trial","176","1160300","0.0-62.0","battery-v0.2","","""event"",""trial"",""time""
""fullscreenenter"",""1"",""4365""
","
","
","""event"",""trial"",""time""
""fullscreenenter"",""1"",""4365""
","
","","","769.1000000238419","","","15","9108","2307","n","elianto","#f73b6a7A"," "," ","1","0","[1623.5]","1","2","","","9108","58","0","3","lose","go","0"
"pit-trial","177","1165174","0.0-63.0","battery-v0.2","","""event"",""trial"",""time""
""fullscreenenter"",""1"",""4365""
","
","
","""event"",""trial"",""time""
""fullscreenenter"",""1"",""4365""
","
","","","-1","","","15","9108","2307","c","elianto","#3366ff99"," ","-1","0","+10","[]","0","2","","","9108","59","4","1","win","go","1"
"pit-trial","178","1169109","0.0-64.0","battery-v0.2","","""event"",""trial"",""time""
""fullscreenenter"",""1"",""4365""
","
","
","""event"",""trial"",""time""
""fullscreenenter"",""1"",""4365""
","
","","","1082.199999988079","","","15","9108","2307","t","elianto","#f73b6a7A"," "," ","1","-10","[1932.2000000476837]","1","2","","","9108","60","2","3","lose","go","1"
"pit-trial","179","1173979","0.0-65.0","battery-v0.2","","""event"",""trial"",""time""
""fullscreenenter"",""1"",""4365""
","
","
","""event"",""trial"",""time""
""fullscreenenter"",""1"",""4365""
","
","","","-1","","","15","9108","2307","c","elianto","#3366ff99"," ","-1","0","0","[]","0","2","","","9108","61","4","1","win","go","0"
"pit-trial","180","1178843","0.0-66.0","battery-v0.2","","""event"",""trial"",""time""
""fullscreenenter"",""1"",""4365""
","
","
","""event"",""trial"",""time""
""fullscreenenter"",""1"",""4365""
","
","","","-1","","","15","9108","2307","b","elianto","#f73b6a7A","-1","-1","1","-10","[]","0","2","","","9108","62","3","4","lose","no-go","1"
"pit-trial","181","1182527","0.0-67.0","battery-v0.2","","""event"",""trial"",""time""
""fullscreenenter"",""1"",""4365""
","
","
","""event"",""trial"",""time""
""fullscreenenter"",""1"",""4365""
","
","","","826","","","15","9108","2307","t","elianto","#f73b6a7A"," "," ","1","0","[1677.800000011921]","1","2","","","9108","63","2","3","lose","go","0"
"pit-trial","182","1187394","0.0-68.0","battery-v0.2","","""event"",""trial"",""time""
""fullscreenenter"",""1"",""4365""
","
","
","""event"",""trial"",""time""
""fullscreenenter"",""1"",""4365""
","
","","","-1","","","15","9108","2307","f","elianto","#3366ff99","-1","-1","1","+10","[]","0","2","","","9108","64","1","2","win","no-go","0"
"pit-trial","183","1192260","0.0-69.0","battery-v0.2","","""event"",""trial"",""time""
""fullscreenenter"",""1"",""4365""
","
","
","""event"",""trial"",""time""
""fullscreenenter"",""1"",""4365""
","
","","","-1","","","15","9108","2307","z","elianto","#3366ff99","-1","-1","1","0","[]","0","2","","","9108","65","5","2","win","no-go","1"
"pit-trial","184","1196660","0.0-70.0","battery-v0.2","","""event"",""trial"",""time""
""fullscreenenter"",""1"",""4365""
","
","
","""event"",""trial"",""time""
""fullscreenenter"",""1"",""4365""
","
","","","1526.8999999761581","","","15","9108","2307","c","elianto","#3366ff99"," "," ","1","+10","[2386.699999988079]","1","2","","","9108","66","4","1","win","go","0"
"pit-trial","185","1200944","0.0-71.0","battery-v0.2","","""event"",""trial"",""time""
""fullscreenenter"",""1"",""4365""
","
","
","""event"",""trial"",""time""
""fullscreenenter"",""1"",""4365""
","
","","","1417.7999999523163","","","15","9108","2307","b","elianto","#f73b6a7A","-1"," ","0","-10","[2277.400000035763]","1","2","","","9108","67","3","4","lose","no-go","0"
"pit-trial","186","1205811","0.0-72.0","battery-v0.2","","""event"",""trial"",""time""
""fullscreenenter"",""1"",""4365""
","
","
","""event"",""trial"",""time""
""fullscreenenter"",""1"",""4365""
","
","","","-1","","","15","9108","2307","f","elianto","#3366ff99","-1","-1","1","+10","[]","0","2","","","9108","68","1","2","win","no-go","0"
"pit-trial","187","1210061","0.0-73.0","battery-v0.2","","""event"",""trial"",""time""
""fullscreenenter"",""1"",""4365""
","
","
","""event"",""trial"",""time""
""fullscreenenter"",""1"",""4365""
","
","","","1383.8999999761581","","","15","9108","2307","c","elianto","#3366ff99"," "," ","1","+10","[2244.7999999523163]","1","2","","","9108","69","4","1","win","go","0"
"pit-trial","188","1214003","0.0-74.0","battery-v0.2","","""event"",""trial"",""time""
""fullscreenenter"",""1"",""4365""
","
","
","""event"",""trial"",""time""
""fullscreenenter"",""1"",""4365""
","
","","","1075.199999988079","","","15","9108","2307","z","elianto","#3366ff99","-1"," ","0","0","[1932.199999988079]","1","2","","","9108","70","5","2","win","no-go","0"
"pit-trial","189","1218123","0.0-75.0","battery-v0.2","","""event"",""trial"",""time""
""fullscreenenter"",""1"",""4365""
","
","
","""event"",""trial"",""time""
""fullscreenenter"",""1"",""4365""
","
","","","1252.699999988079","","","15","9108","2307","f","elianto","#3366ff99","-1"," ","0","+10","[2106.199999988079]","1","2","","","9108","71","1","2","win","no-go","1"
"pit-trial","190","1222985","0.0-76.0","battery-v0.2","","""event"",""trial"",""time""
""fullscreenenter"",""1"",""4365""
","
","
","""event"",""trial"",""time""
""fullscreenenter"",""1"",""4365""
","
","","","-1","","","15","9108","2307","t","elianto","#f73b6a7A"," ","-1","0","-10","[]","0","2","","","9108","72","2","3","lose","go","0"
"pit-trial","191","1227853","0.0-77.0","battery-v0.2","","""event"",""trial"",""time""
""fullscreenenter"",""1"",""4365""
","
","
","""event"",""trial"",""time""
""fullscreenenter"",""1"",""4365""
","
","","","-1","","","15","9108","2307","z","elianto","#3366ff99","-1","-1","1","+10","[]","0","2","","","9108","73","5","2","win","no-go","0"
"pit-trial","192","1231773","0.0-78.0","battery-v0.2","","""event"",""trial"",""time""
""fullscreenenter"",""1"",""4365""
","
","
","""event"",""trial"",""time""
""fullscreenenter"",""1"",""4365""
","
","","","1053.2000000476837","","","15","9108","2307","f","elianto","#3366ff99","-1"," ","0","+10","[1904.1000000238419]","1","2","","","9108","74","1","2","win","no-go","1"
"pit-trial","193","1235378","0.0-79.0","battery-v0.2","","""event"",""trial"",""time""
""fullscreenenter"",""1"",""4365""
","
","
","""event"",""trial"",""time""
""fullscreenenter"",""1"",""4365""
","
","","","740.3000000119209","","","15","9108","2307","c","elianto","#3366ff99"," "," ","1","+10","[1590.800000011921]","1","2","","","9108","75","4","1","win","go","0"
"pit-trial","194","1240249","0.0-80.0","battery-v0.2","","""event"",""trial"",""time""
""fullscreenenter"",""1"",""4365""
","
","
","""event"",""trial"",""time""
""fullscreenenter"",""1"",""4365""
","
","","","-1","","","15","9108","2307","b","elianto","#f73b6a7A","-1","-1","1","0","[]","0","2","","","9108","76","3","4","lose","no-go","0"
"pit-trial","195","1245111","0.0-81.0","battery-v0.2","","""event"",""trial"",""time""
""fullscreenenter"",""1"",""4365""
","
","
","""event"",""trial"",""time""
""fullscreenenter"",""1"",""4365""
","
","","","-1","","","15","9108","2307","z","elianto","#3366ff99","-1","-1","1","+10","[]","0","2","","","9108","77","5","2","win","no-go","0"
"pit-trial","196","1249975","0.0-82.0","battery-v0.2","","""event"",""trial"",""time""
""fullscreenenter"",""1"",""4365""
","
","
","""event"",""trial"",""time""
""fullscreenenter"",""1"",""4365""
","
","","","-1","","","15","9108","2307","b","elianto","#f73b6a7A","-1","-1","1","0","[]","0","2","","","9108","78","3","4","lose","no-go","0"
"pit-trial","197","1254079","0.0-83.0","battery-v0.2","","""event"",""trial"",""time""
""fullscreenenter"",""1"",""4365""
","
","
","""event"",""trial"",""time""
""fullscreenenter"",""1"",""4365""
","
","","","1242.800000011921","","","15","9108","2307","c","elianto","#3366ff99"," "," ","1","+10","[2096.100000023842]","1","2","","","9108","79","4","1","win","go","0"
"pit-trial","198","1257820","0.0-84.0","battery-v0.2","","""event"",""trial"",""time""
""fullscreenenter"",""1"",""4365""
","
","
","""event"",""trial"",""time""
""fullscreenenter"",""1"",""4365""
","
","","","871.4000000357628","","","15","9108","2307","c","elianto","#3366ff99"," "," ","1","+10","[1728.1000000238419]","1","2","","","9108","80","4","1","win","go","0"
"pit-trial","199","1261444","0.0-85.0","battery-v0.2","","""event"",""trial"",""time""
""fullscreenenter"",""1"",""4365""
","
","
","""event"",""trial"",""time""
""fullscreenenter"",""1"",""4365""
","
","","","765.5","","","15","9108","2307","c","elianto","#3366ff99"," "," ","1","+10","[1618.699999988079]","1","2","","","9108","81","4","1","win","go","0"
"pit-trial","200","1266311","0.0-86.0","battery-v0.2","","""event"",""trial"",""time""
""fullscreenenter"",""1"",""4365""
","
","
","""event"",""trial"",""time""
""fullscreenenter"",""1"",""4365""
","
","","","-1","","","15","9108","2307","b","elianto","#f73b6a7A","-1","-1","1","0","[]","0","2","","","9108","82","3","4","lose","no-go","0"
"pit-trial","201","1270657","0.0-87.0","battery-v0.2","","""event"",""trial"",""time""
""fullscreenenter"",""1"",""4365""
","
","
","""event"",""trial"",""time""
""fullscreenenter"",""1"",""4365""
","
","","","1473.3999999761581","","","15","9108","2307","y","elianto","#f73b6a7A","-1"," ","0","-10","[2327.900000035763]","1","2","","","9108","83","7","4","lose","no-go","0"
"pit-trial","202","1274560","0.0-88.0","battery-v0.2","","""event"",""trial"",""time""
""fullscreenenter"",""1"",""4365""
","
","
","""event"",""trial"",""time""
""fullscreenenter"",""1"",""4365""
","
","","","1042.1000000238419","","","15","9108","2307","z","elianto","#3366ff99","-1"," ","0","0","[1892.0999999642372]","1","2","","","9108","84","5","2","win","no-go","0"
"pit-trial","203","1279425","0.0-89.0","battery-v0.2","","""event"",""trial"",""time""
""fullscreenenter"",""1"",""4365""
","
","
","""event"",""trial"",""time""
""fullscreenenter"",""1"",""4365""
","
","","","-1","","","15","9108","2307","h","elianto","#f73b6a7A"," ","-1","0","-10","[]","0","2","","","9108","85","6","3","lose","go","0"
"pit-trial","204","1283328","0.0-90.0","battery-v0.2","","""event"",""trial"",""time""
""fullscreenenter"",""1"",""4365""
","
","
","""event"",""trial"",""time""
""fullscreenenter"",""1"",""4365""
","
","","","1035.699999988079","","","15","9108","2307","y","elianto","#f73b6a7A","-1"," ","0","0","[1897.199999988079]","1","2","","","9108","86","7","4","lose","no-go","1"
"pit-trial","205","1288195","0.0-91.0","battery-v0.2","","""event"",""trial"",""time""
""fullscreenenter"",""1"",""4365""
","
","
","""event"",""trial"",""time""
""fullscreenenter"",""1"",""4365""
","
","","","-1","","","15","9108","2307","z","elianto","#3366ff99","-1","-1","1","+10","[]","0","2","","","9108","87","5","2","win","no-go","0"
"pit-trial","206","1292075","0.0-92.0","battery-v0.2","","""event"",""trial"",""time""
""fullscreenenter"",""1"",""4365""
","
","
","""event"",""trial"",""time""
""fullscreenenter"",""1"",""4365""
","
","","","1009.1999999880791","","","15","9108","2307","c","elianto","#3366ff99"," "," ","1","+10","[1866.2999999523163]","1","2","","","9108","88","4","1","win","go","0"
"pit-trial","207","1295644","0.0-93.0","battery-v0.2","","""event"",""trial"",""time""
""fullscreenenter"",""1"",""4365""
","
","
","""event"",""trial"",""time""
""fullscreenenter"",""1"",""4365""
","
","","","704.8999999761581","","","15","9108","2307","c","elianto","#3366ff99"," "," ","1","+10","[1563.699999988079]","1","2","","","9108","89","4","1","win","go","0"
"pit-trial","208","1299825","0.0-94.0","battery-v0.2","","""event"",""trial"",""time""
""fullscreenenter"",""1"",""4365""
","
","
","""event"",""trial"",""time""
""fullscreenenter"",""1"",""4365""
","
","","","1317.8999999761581","","","15","9108","2307","h","elianto","#f73b6a7A"," "," ","1","0","[2174.5]","1","2","","","9108","90","6","3","lose","go","0"
"pit-trial","209","1303511","0.0-95.0","battery-v0.2","","""event"",""trial"",""time""
""fullscreenenter"",""1"",""4365""
","
","
","""event"",""trial"",""time""
""fullscreenenter"",""1"",""4365""
","
","","","821.3000000119209","","","15","9108","2307","y","elianto","#f73b6a7A","-1"," ","0","-10","[1676.7000000476837]","1","2","","","9108","91","7","4","lose","no-go","0"
"pit-trial","210","1308375","0.0-96.0","battery-v0.2","","""event"",""trial"",""time""
""fullscreenenter"",""1"",""4365""
","
","
","""event"",""trial"",""time""
""fullscreenenter"",""1"",""4365""
","
","","","-1","","","15","9108","2307","z","elianto","#3366ff99","-1","-1","1","0","[]","0","2","","","9108","92","5","2","win","no-go","1"
"pit-trial","211","1313245","0.0-97.0","battery-v0.2","","""event"",""trial"",""time""
""fullscreenenter"",""1"",""4365""
","
","
","""event"",""trial"",""time""
""fullscreenenter"",""1"",""4365""
","
","","","-1","","","15","9108","2307","y","elianto","#f73b6a7A","-1","-1","1","0","[]","0","2","","","9108","93","7","4","lose","no-go","0"
"pit-trial","212","1317262","0.0-98.0","battery-v0.2","","""event"",""trial"",""time""
""fullscreenenter"",""1"",""4365""
","
","
","""event"",""trial"",""time""
""fullscreenenter"",""1"",""4365""
","
","","","1148.7999999523163","","","15","9108","2307","h","elianto","#f73b6a7A"," "," ","1","0","[2005.699999988079]","1","2","","","9108","94","6","3","lose","go","0"
"pit-trial","213","1322137","0.0-99.0","battery-v0.2","","""event"",""trial"",""time""
""fullscreenenter"",""1"",""4365""
","
","
","""event"",""trial"",""time""
""fullscreenenter"",""1"",""4365""
","
","","","-1","","","15","9108","2307","z","elianto","#3366ff99","-1","-1","1","0","[]","0","2","","","9108","95","5","2","win","no-go","1"
"pit-trial","214","1325944","0.0-100.0","battery-v0.2","","""event"",""trial"",""time""
""fullscreenenter"",""1"",""4365""
","
","
","""event"",""trial"",""time""
""fullscreenenter"",""1"",""4365""
","
","","","948","","","15","9108","2307","r","elianto","#3366ff99"," "," ","1","+10","[1798.199999988079]","1","2","","","9108","96","8","1","win","go","0"
"pit-trial","215","1330811","0.0-101.0","battery-v0.2","","""event"",""trial"",""time""
""fullscreenenter"",""1"",""4365""
","
","
","""event"",""trial"",""time""
""fullscreenenter"",""1"",""4365""
","
","","","-1","","","15","9108","2307","y","elianto","#f73b6a7A","-1","-1","1","-10","[]","0","2","","","9108","97","7","4","lose","no-go","1"
"pit-trial","216","1334783","0.0-102.0","battery-v0.2","","""event"",""trial"",""time""
""fullscreenenter"",""1"",""4365""
","
","
","""event"",""trial"",""time""
""fullscreenenter"",""1"",""4365""
","
","","","1103.5","","","15","9108","2307","z","elianto","#3366ff99","-1"," ","0","0","[1961]","1","2","","","9108","98","5","2","win","no-go","0"
"pit-trial","217","1339646","0.0-103.0","battery-v0.2","","""event"",""trial"",""time""
""fullscreenenter"",""1"",""4365""
","
","
","""event"",""trial"",""time""
""fullscreenenter"",""1"",""4365""
","
","","","-1","","","15","9108","2307","h","elianto","#f73b6a7A"," ","-1","0","0","[]","0","2","","","9108","99","6","3","lose","go","1"
"pit-trial","218","1343394","0.0-104.0","battery-v0.2","","""event"",""trial"",""time""
""fullscreenenter"",""1"",""4365""
","
","
","""event"",""trial"",""time""
""fullscreenenter"",""1"",""4365""
","
","","","884.5999999642372","","","15","9108","2307","r","elianto","#3366ff99"," "," ","1","+10","[1740.0999999642372]","1","2","","","9108","100","8","1","win","go","0"
"pit-trial","219","1347144","0.0-105.0","battery-v0.2","","""event"",""trial"",""time""
""fullscreenenter"",""1"",""4365""
","
","
","""event"",""trial"",""time""
""fullscreenenter"",""1"",""4365""
","
","","","884.3000000119209","","","15","9108","2307","r","elianto","#3366ff99"," "," ","1","0","[1741]","1","2","","","9108","101","8","1","win","go","1"
"pit-trial","220","1352008","0.0-106.0","battery-v0.2","","""event"",""trial"",""time""
""fullscreenenter"",""1"",""4365""
","
","
","""event"",""trial"",""time""
""fullscreenenter"",""1"",""4365""
","
","","","-1","","","15","9108","2307","m","elianto","#3366ff99"," ","-1","0","0","[]","0","2","","","9108","102","9","1","win","go","0"
"pit-trial","221","1356877","0.0-107.0","battery-v0.2","","""event"",""trial"",""time""
""fullscreenenter"",""1"",""4365""
","
","
","""event"",""trial"",""time""
""fullscreenenter"",""1"",""4365""
","
","","","-1","","","15","9108","2307","y","elianto","#f73b6a7A","-1","-1","1","0","[]","0","2","","","9108","103","7","4","lose","no-go","0"
"pit-trial","222","1360547","0.0-108.0","battery-v0.2","","""event"",""trial"",""time""
""fullscreenenter"",""1"",""4365""
","
","
","""event"",""trial"",""time""
""fullscreenenter"",""1"",""4365""
","
","","","813.8999999761581","","","15","9108","2307","z","elianto","#3366ff99","-1"," ","0","0","[1665]","1","2","","","9108","104","5","2","win","no-go","0"
"pit-trial","223","1365410","0.0-109.0","battery-v0.2","","""event"",""trial"",""time""
""fullscreenenter"",""1"",""4365""
","
","
","""event"",""trial"",""time""
""fullscreenenter"",""1"",""4365""
","
","","","-1","","","15","9108","2307","h","elianto","#f73b6a7A"," ","-1","0","-10","[]","0","2","","","9108","105","6","3","lose","go","0"
"pit-trial","224","1369389","0.0-110.0","battery-v0.2","","""event"",""trial"",""time""
""fullscreenenter"",""1"",""4365""
","
","
","""event"",""trial"",""time""
""fullscreenenter"",""1"",""4365""
","
","","","1111.6000000238419","","","15","9108","2307","m","elianto","#3366ff99"," "," ","1","0","[1967.4000000357628]","1","2","","","9108","106","9","1","win","go","1"
"pit-trial","225","1373422","0.0-111.0","battery-v0.2","","""event"",""trial"",""time""
""fullscreenenter"",""1"",""4365""
","
","
","""event"",""trial"",""time""
""fullscreenenter"",""1"",""4365""
","
","","","1167.5999999642372","","","15","9108","2307","r","elianto","#3366ff99"," "," ","1","+10","[2018.5]","1","2","","","9108","107","8","1","win","go","0"
"pit-trial","226","1377534","0.0-112.0","battery-v0.2","","""event"",""trial"",""time""
""fullscreenenter"",""1"",""4365""
","
","
","""event"",""trial"",""time""
""fullscreenenter"",""1"",""4365""
","
","","","1244.0999999642372","","","15","9108","2307","c","elianto","#3366ff99"," "," ","1","0","[2102.2999999523163]","1","2","","","9108","108","4","1","win","go","1"
"pit-trial","227","1381436","0.0-113.0","battery-v0.2","","""event"",""trial"",""time""
""fullscreenenter"",""1"",""4365""
","
","
","""event"",""trial"",""time""
""fullscreenenter"",""1"",""4365""
","
","","","1033.5999999642372","","","15","9108","2307","z","elianto","#3366ff99","-1"," ","0","0","[1887.4000000357628]","1","2","","","9108","109","5","2","win","no-go","0"
"pit-trial","228","1385911","0.0-114.0","battery-v0.2","","""event"",""trial"",""time""
""fullscreenenter"",""1"",""4365""
","
","
","""event"",""trial"",""time""
""fullscreenenter"",""1"",""4365""
","
","","","1617.800000011921","","","15","9108","2307","h","elianto","#f73b6a7A"," "," ","1","-10","[2467.800000011921]","1","2","","","9108","110","6","3","lose","go","1"
"pit-trial","229","1389667","0.0-115.0","battery-v0.2","","""event"",""trial"",""time""
""fullscreenenter"",""1"",""4365""
","
","
","""event"",""trial"",""time""
""fullscreenenter"",""1"",""4365""
","
","","","889.8999999761581","","","15","9108","2307","r","elianto","#3366ff99"," "," ","1","+10","[1749.1000000238419]","1","2","","","9108","111","8","1","win","go","0"
"pit-trial","230","1393594","0.0-116.0","battery-v0.2","","""event"",""trial"",""time""
""fullscreenenter"",""1"",""4365""
","
","
","""event"",""trial"",""time""
""fullscreenenter"",""1"",""4365""
","
","","","1069.0999999642372","","","15","9108","2307","m","elianto","#3366ff99"," "," ","1","0","[1921.0999999642372]","1","2","","","9108","112","9","1","win","go","1"
"pit-trial","231","1398460","0.0-117.0","battery-v0.2","","""event"",""trial"",""time""
""fullscreenenter"",""1"",""4365""
","
","
","""event"",""trial"",""time""
""fullscreenenter"",""1"",""4365""
","
","","","-1","","","15","9108","2307","h","elianto","#f73b6a7A"," ","-1","0","-10","[]","0","2","","","9108","113","6","3","lose","go","0"
"pit-trial","232","1402842","0.0-118.0","battery-v0.2","","""event"",""trial"",""time""
""fullscreenenter"",""1"",""4365""
","
","
","""event"",""trial"",""time""
""fullscreenenter"",""1"",""4365""
","
","","","1512.8999999761581","","","15","9108","2307","r","elianto","#3366ff99"," "," ","1","+10","[2372.699999988079]","1","2","","","9108","114","8","1","win","go","0"
"pit-trial","233","1406794","0.0-119.0","battery-v0.2","","""event"",""trial"",""time""
""fullscreenenter"",""1"",""4365""
","
","
","""event"",""trial"",""time""
""fullscreenenter"",""1"",""4365""
","
","","","1090.8999999761581","","","15","9108","2307","m","elianto","#3366ff99"," "," ","1","+10","[1943.699999988079]","1","2","","","9108","115","9","1","win","go","0"
"pit-trial","234","1411666","0.0-120.0","battery-v0.2","","""event"",""trial"",""time""
""fullscreenenter"",""1"",""4365""
","
","
","""event"",""trial"",""time""
""fullscreenenter"",""1"",""4365""
","
","","","-1","","","15","9108","2307","z","elianto","#3366ff99","-1","-1","1","+10","[]","0","2","","","9108","116","5","2","win","no-go","0"
"pit-trial","235","1415500","0.0-121.0","battery-v0.2","","""event"",""trial"",""time""
""fullscreenenter"",""1"",""4365""
","
","
","""event"",""trial"",""time""
""fullscreenenter"",""1"",""4365""
","
","","","967.8000000119209","","","15","9108","2307","m","elianto","#3366ff99"," "," ","1","+10","[1822.5999999642372]","1","2","","","9108","117","9","1","win","go","0"
"pit-trial","236","1419360","0.0-122.0","battery-v0.2","","""event"",""trial"",""time""
""fullscreenenter"",""1"",""4365""
","
","
","""event"",""trial"",""time""
""fullscreenenter"",""1"",""4365""
","
","","","1000.6999999880791","","","15","9108","2307","r","elianto","#3366ff99"," "," ","1","+10","[1855.199999988079]","1","2","","","9108","118","8","1","win","go","0"
"pit-trial","237","1423581","0.0-123.0","battery-v0.2","","""event"",""trial"",""time""
""fullscreenenter"",""1"",""4365""
","
","
","""event"",""trial"",""time""
""fullscreenenter"",""1"",""4365""
","
","","","1357.3999999761581","","","15","9108","2307","h","elianto","#f73b6a7A"," "," ","1","0","[2215.400000035763]","1","2","","","9108","119","6","3","lose","go","0"
"pit-trial","238","1427790","0.0-124.0","battery-v0.2","","""event"",""trial"",""time""
""fullscreenenter"",""1"",""4365""
","
","
","""event"",""trial"",""time""
""fullscreenenter"",""1"",""4365""
","
","","","1348.3999999761581","","","15","9108","2307","z","elianto","#3366ff99","-1"," ","0","0","[2203.699999988079]","1","2","","","9108","120","5","2","win","no-go","0"
"pit-trial","239","1432657","0.0-125.0","battery-v0.2","","""event"",""trial"",""time""
""fullscreenenter"",""1"",""4365""
","
","
","""event"",""trial"",""time""
""fullscreenenter"",""1"",""4365""
","
","","","-1","","","15","9108","2307","y","elianto","#f73b6a7A","-1","-1","1","0","[]","0","2","","","9108","121","7","4","lose","no-go","0"
"pit-trial","240","1436353","0.0-126.0","battery-v0.2","","""event"",""trial"",""time""
""fullscreenenter"",""1"",""4365""
","
","
","""event"",""trial"",""time""
""fullscreenenter"",""1"",""4365""
","
","","","829.6999999880791","","","15","9108","2307","r","elianto","#3366ff99"," "," ","1","+10","[1683.0999999642372]","1","2","","","9108","122","8","1","win","go","0"
"pit-trial","241","1440527","0.0-127.0","battery-v0.2","","""event"",""trial"",""time""
""fullscreenenter"",""1"",""4365""
","
","
","""event"",""trial"",""time""
""fullscreenenter"",""1"",""4365""
","
","","","1316.3999999761581","","","15","9108","2307","m","elianto","#3366ff99"," "," ","1","0","[2167.5]","1","2","","","9108","123","9","1","win","go","1"
"pit-trial","242","1445058","0.0-128.0","battery-v0.2","","""event"",""trial"",""time""
""fullscreenenter"",""1"",""4365""
","
","
","""event"",""trial"",""time""
""fullscreenenter"",""1"",""4365""
","
","","","1668.5","","","15","9108","2307","h","elianto","#f73b6a7A"," "," ","1","0","[2524.5]","1","2","","","9108","124","6","3","lose","go","0"
"pit-trial","243","1449106","0.0-129.0","battery-v0.2","","""event"",""trial"",""time""
""fullscreenenter"",""1"",""4365""
","
","
","""event"",""trial"",""time""
""fullscreenenter"",""1"",""4365""
","
","","","1180","","","15","9108","2307","m","elianto","#3366ff99"," "," ","1","+10","[2040.1000000238419]","1","2","","","9108","125","9","1","win","go","0"
"pit-trial","244","1452827","0.0-130.0","battery-v0.2","","""event"",""trial"",""time""
""fullscreenenter"",""1"",""4365""
","
","
","""event"",""trial"",""time""
""fullscreenenter"",""1"",""4365""
","
","","","866.5","","","15","9108","2307","h","elianto","#f73b6a7A"," "," ","1","0","[1717.800000011921]","1","2","","","9108","126","6","3","lose","go","0"
"pit-trial","245","1456826","0.0-131.0","battery-v0.2","","""event"",""trial"",""time""
""fullscreenenter"",""1"",""4365""
","
","
","""event"",""trial"",""time""
""fullscreenenter"",""1"",""4365""
","
","","","1131.2000000476837","","","15","9108","2307","y","elianto","#f73b6a7A","-1"," ","0","0","[1990.7000000476837]","1","2","","","9108","127","7","4","lose","no-go","1"
"pit-trial","246","1460978","0.0-132.0","battery-v0.2","","""event"",""trial"",""time""
""fullscreenenter"",""1"",""4365""
","
","
","""event"",""trial"",""time""
""fullscreenenter"",""1"",""4365""
","
","","","1281.300000011921","","","15","9108","2307","r","elianto","#3366ff99"," "," ","1","+10","[2140]","1","2","","","9108","128","8","1","win","go","0"
"pit-trial","247","1464911","0.0-133.0","battery-v0.2","","""event"",""trial"",""time""
""fullscreenenter"",""1"",""4365""
","
","
","""event"",""trial"",""time""
""fullscreenenter"",""1"",""4365""
","
","","","1069","","","15","9108","2307","m","elianto","#3366ff99"," "," ","1","+10","[1925.3999999761581]","1","2","","","9108","129","9","1","win","go","0"
"pit-trial","248","1468542","0.0-134.0","battery-v0.2","","""event"",""trial"",""time""
""fullscreenenter"",""1"",""4365""
","
","
","""event"",""trial"",""time""
""fullscreenenter"",""1"",""4365""
","
","","","770.6999999880791","","","15","9108","2307","h","elianto","#f73b6a7A"," "," ","1","0","[1625.800000011921]","1","2","","","9108","130","6","3","lose","go","0"
"pit-trial","249","1472125","0.0-135.0","battery-v0.2","","""event"",""trial"",""time""
""fullscreenenter"",""1"",""4365""
","
","
","""event"",""trial"",""time""
""fullscreenenter"",""1"",""4365""
","
","","","719","","","15","9108","2307","y","elianto","#f73b6a7A","-1"," ","0","-10","[1575.4000000357628]","1","2","","","9108","131","7","4","lose","no-go","0"
"pit-trial","250","1475527","0.0-136.0","battery-v0.2","","""event"",""trial"",""time""
""fullscreenenter"",""1"",""4365""
","
","
","""event"",""trial"",""time""
""fullscreenenter"",""1"",""4365""
","
","","","538.8000000119209","","","15","9108","2307","r","elianto","#3366ff99"," "," ","1","+10","[1395.0999999642372]","1","2","","","9108","132","8","1","win","go","0"
"pit-trial","251","1480392","0.0-137.0","battery-v0.2","","""event"",""trial"",""time""
""fullscreenenter"",""1"",""4365""
","
","
","""event"",""trial"",""time""
""fullscreenenter"",""1"",""4365""
","
","","","-1","","","15","9108","2307","y","elianto","#f73b6a7A","-1","-1","1","0","[]","0","2","","","9108","133","7","4","lose","no-go","0"
"pit-trial","252","1483291","0.0-138.0","battery-v0.2","","""event"",""trial"",""time""
""fullscreenenter"",""1"",""4365""
","
","
","""event"",""trial"",""time""
""fullscreenenter"",""1"",""4365""
","
","","","25.30000001192093","","","15","9108","2307","m","elianto","#3366ff99"," "," ","1","+10","[878.6999999880791,2838.800000011921]","2","2","","","9108","134","9","1","win","go","0"
"pit-trial","253","1488169","0.0-139.0","battery-v0.2","","""event"",""trial"",""time""
""fullscreenenter"",""1"",""4365""
","
","
","""event"",""trial"",""time""
""fullscreenenter"",""1"",""4365""
","
","","","-1","","","15","9108","2307","h","elianto","#f73b6a7A"," ","-1","0","-10","[]","0","2","","","9108","135","6","3","lose","go","0"
"pit-trial","254","1491976","0.0-140.0","battery-v0.2","","""event"",""trial"",""time""
""fullscreenenter"",""1"",""4365""
","
","
","""event"",""trial"",""time""
""fullscreenenter"",""1"",""4365""
","
","","","948.8999999761581","","","15","9108","2307","r","elianto","#3366ff99"," "," ","1","+10","[1801.4000000357628,2604.300000011921]","2","2","","","9108","136","8","1","win","go","0"
"pit-trial","255","1495907","0.0-141.0","battery-v0.2","","""event"",""trial"",""time""
""fullscreenenter"",""1"",""4365""
","
","
","""event"",""trial"",""time""
""fullscreenenter"",""1"",""4365""
","
","","","1076.1000000238419","","","15","9108","2307","y","elianto","#f73b6a7A","-1"," ","0","-10","[1926.9000000357628]","1","2","","","9108","137","7","4","lose","no-go","0"
"pit-trial","256","1499264","0.0-142.0","battery-v0.2","","""event"",""trial"",""time""
""fullscreenenter"",""1"",""4365""
","
","
","""event"",""trial"",""time""
""fullscreenenter"",""1"",""4365""
","
","","","489.89999997615814","","","15","9108","2307","m","elianto","#3366ff99"," "," ","1","+10","[1347.800000011921]","1","2","","","9108","138","9","1","win","go","0"
"pit-trial","257","1502832","0.0-143.0","battery-v0.2","","""event"",""trial"",""time""
""fullscreenenter"",""1"",""4365""
","
","
","""event"",""trial"",""time""
""fullscreenenter"",""1"",""4365""
","
","","","705","","","15","9108","2307","r","elianto","#3366ff99"," "," ","1","+10","[1560.699999988079]","1","2","","","9108","139","8","1","win","go","0"
"pit-trial","258","1507693","0.0-144.0","battery-v0.2","","""event"",""trial"",""time""
""fullscreenenter"",""1"",""4365""
","
","
","""event"",""trial"",""time""
""fullscreenenter"",""1"",""4365""
","
","","","-1","","","15","9108","2307","h","elianto","#f73b6a7A"," ","-1","0","-10","[]","0","2","","","9108","140","6","3","lose","go","0"
"pit-instructions","259","1552624","0.0-145.0","battery-v0.2","","""event"",""trial"",""time""
""fullscreenenter"",""1"",""4365""
","
","
","""event"",""trial"",""time""
""fullscreenenter"",""1"",""4365""
","
","","[{""page_index"":0,""viewing_time"":5870.100000023842},{""page_index"":1,""viewing_time"":39050.299999952316}]","44921.10000002384","","","","","","","","","","","","","","","","","","","","","","","",""
"pit-trial","260","1556375","0.0-146.0","battery-v0.2","","""event"",""trial"",""time""
""fullscreenenter"",""1"",""4365""
","
","
","""event"",""trial"",""time""
""fullscreenenter"",""1"",""4365""
","
","","","887.1999999880791","","","15","9108","2307","u","elianto","#f73b6a7A","-1"," ","0","-10","[1739.5]","1","3","","","9108","141","0","4","lose","no-go","0"
"pit-trial","261","1559815","0.0-147.0","battery-v0.2","","""event"",""trial"",""time""
""fullscreenenter"",""1"",""4365""
","
","
","""event"",""trial"",""time""
""fullscreenenter"",""1"",""4365""
","
","","","578.1999999880791","","","15","9108","2307","g","elianto","#f73b6a7A"," "," ","1","0","[1433.300000011921]","1","3","","","9108","142","3","3","lose","go","0"
"pit-trial","262","1563330","0.0-148.0","battery-v0.2","","""event"",""trial"",""time""
""fullscreenenter"",""1"",""4365""
","
","
","""event"",""trial"",""time""
""fullscreenenter"",""1"",""4365""
","
","","","653.5","","","15","9108","2307","l","elianto","#3366ff99"," "," ","1","+10","[1503.5]","1","3","","","9108","143","1","1","win","go","0"
"pit-trial","263","1568193","0.0-149.0","battery-v0.2","","""event"",""trial"",""time""
""fullscreenenter"",""1"",""4365""
","
","
","""event"",""trial"",""time""
""fullscreenenter"",""1"",""4365""
","
","","","-1","","","15","9108","2307","a","elianto","#f73b6a7A","-1","-1","1","0","[]","0","3","","","9108","144","2","4","lose","no-go","0"
"pit-trial","264","1573057","0.0-150.0","battery-v0.2","","""event"",""trial"",""time""
""fullscreenenter"",""1"",""4365""
","
","
","""event"",""trial"",""time""
""fullscreenenter"",""1"",""4365""
","
","","","-1","","","15","9108","2307","g","elianto","#f73b6a7A"," ","-1","0","-10","[]","0","3","","","9108","145","3","3","lose","go","0"
"pit-trial","265","1577916","0.0-151.0","battery-v0.2","","""event"",""trial"",""time""
""fullscreenenter"",""1"",""4365""
","
","
","""event"",""trial"",""time""
""fullscreenenter"",""1"",""4365""
","
","","","-1","","","15","9108","2307","a","elianto","#f73b6a7A","-1","-1","1","0","[]","0","3","","","9108","146","2","4","lose","no-go","0"
"pit-trial","266","1581367","0.0-152.0","battery-v0.2","","""event"",""trial"",""time""
""fullscreenenter"",""1"",""4365""
","
","
","""event"",""trial"",""time""
""fullscreenenter"",""1"",""4365""
","
","","","584.6999999880791","","","15","9108","2307","l","elianto","#3366ff99"," "," ","1","0","[1437.3999999761581]","1","3","","","9108","147","1","1","win","go","1"
