"trial_type","trial_index","time_elapsed","internal_node_id","task_version","subject_id","interactions","blur_events","focus_events","fullscreenenter_events","fullscreenexit_events","success","view_history","rt","responses","num_errors","age","subject","participantId","rune","rune_set","hex","correct","choice","accuracy","outcome","keys","total_keys","block","practice","value","sub","trial","stimulus","robot","valence","action","sham"
"pavlovia","0","21","0.0-0.0","battery-v0.2","","""event"",""trial"",""time""
""fullscreenenter"",""1"",""1671""
","
","
","""event"",""trial"",""time""
""fullscreenenter"",""1"",""1671""
","
","","","","","","","","","","","","","","","","","","","","","","","","","","",""
"fullscreen","1","2605","0.0-1.0","battery-v0.2","","""event"",""trial"",""time""
""fullscreenenter"",""1"",""1671""
","
","
","""event"",""trial"",""time""
""fullscreenenter"",""1"",""1671""
","
","true","","","","","","","","","","","","","","","","","","","","","","","","","",""
"pit-instructions","2","10402","0.0-2.0-0.0","battery-v0.2","","""event"",""trial"",""time""
""fullscreenenter"",""1"",""1671""
","
","
","""event"",""trial"",""time""
""fullscreenenter"",""1"",""1671""
","
","","[{""page_index"":0,""viewing_time"":7788.5}]","7794.399999856949","","","","","","","","","","","","","","","","","","","","","","","",""
"pit-comprehension","3","13738","0.0-2.0-1.0-0.0","battery-v0.2","","""event"",""trial"",""time""
""fullscreenenter"",""1"",""1671""
","
","
","""event"",""trial"",""time""
""fullscreenenter"",""1"",""1671""
","
","","","3327.2000000476837","[""shark""]","0","20","4230","474","","","","","","","","","","","","","","","","","","",""
"pit-instructions","4","15022","0.0-2.0-1.0-1.0","battery-v0.2","","""event"",""trial"",""time""
""fullscreenenter"",""1"",""1671""
","
","
","""event"",""trial"",""time""
""fullscreenenter"",""1"",""1671""
","
","","[{""page_index"":0,""viewing_time"":1250.5999999046326}]","1251.0999999046326","","","","","","","","","","","","","","","","","","","","","","","",""
"pit-comprehension","5","21253","0.0-2.0-2.0-0.0","battery-v0.2","","""event"",""trial"",""time""
""fullscreenenter"",""1"",""1671""
","
","
","""event"",""trial"",""time""
""fullscreenenter"",""1"",""1671""
","
","","","6226.900000095367","[""tiger""]","0","20","4230","474","","","","","","","","","","","","","","","","","","",""
"pit-instructions","6","22237","0.0-2.0-2.0-1.0","battery-v0.2","","""event"",""trial"",""time""
""fullscreenenter"",""1"",""1671""
","
","
","""event"",""trial"",""time""
""fullscreenenter"",""1"",""1671""
","
","","[{""page_index"":0,""viewing_time"":980.2999999523163}]","980.7000000476837","","","","","","","","","","","","","","","","","","","","","","","",""
"pit-instructions","7","125809","0.0-2.0-3.0","battery-v0.2","","""event"",""trial"",""time""
""fullscreenenter"",""1"",""1671""
","
","
","""event"",""trial"",""time""
""fullscreenenter"",""1"",""1671""
","
","","[{""page_index"":0,""viewing_time"":7886.5},{""page_index"":1,""viewing_time"":5656.099999904633},{""page_index"":2,""viewing_time"":6950.099999904633},{""page_index"":3,""viewing_time"":5771.600000143051},{""page_index"":4,""viewing_time"":6360.700000047684},{""page_index"":5,""viewing_time"":7978.799999952316},{""page_index"":6,""viewing_time"":7754.099999904633},{""page_index"":7,""viewing_time"":7959.799999952316},{""page_index"":8,""viewing_time"":7505.300000190735},{""page_index"":9,""viewing_time"":8948.299999952316},{""page_index"":10,""viewing_time"":7381.399999856949},{""page_index"":11,""viewing_time"":9130.600000143051},{""page_index"":12,""viewing_time"":8045.899999856949},{""page_index"":13,""viewing_time"":6240.800000190735}]","103570.39999985695","","","","","","","","","","","","","","","","","","","","","","","",""
"pit-trial","8","129330","0.0-2.0-4.0-0.0","battery-v0.2","","""event"",""trial"",""time""
""fullscreenenter"",""1"",""1671""
","
","
","""event"",""trial"",""time""
""fullscreenenter"",""1"",""1671""
","
","","","667.2000000476837","","","20","4230","474","&#9784;","elianto","#FFFFF080"," "," ","1","&#10004","[1517.2999999523163]","1","0","0","","","","","","","",""
"pit-trial","9","132826","0.0-2.0-4.1-0.1","battery-v0.2","","""event"",""trial"",""time""
""fullscreenenter"",""1"",""1671""
","
","
","""event"",""trial"",""time""
""fullscreenenter"",""1"",""1671""
","
","","","634.6999998092651","","","20","4230","474","&#9784;","elianto","#FFFFF080"," "," ","1","&#10004","[1485]","1","0","0","","","","","","","",""
"pit-trial","10","136300","0.0-2.0-4.2-0.2","battery-v0.2","","""event"",""trial"",""time""
""fullscreenenter"",""1"",""1671""
","
","
","""event"",""trial"",""time""
""fullscreenenter"",""1"",""1671""
","
","","","616.6000001430511","","","20","4230","474","&#9784;","elianto","#FFFFF080"," "," ","1","&#10004","[1466.7000000476837]","1","0","0","","","","","","","",""
"pit-trial","11","139732","0.0-2.0-4.3-0.3","battery-v0.2","","""event"",""trial"",""time""
""fullscreenenter"",""1"",""1671""
","
","
","""event"",""trial"",""time""
""fullscreenenter"",""1"",""1671""
","
","","","573.0999999046326","","","20","4230","474","&#9784;","elianto","#FFFFF080"," "," ","1","&#10004","[1424.6999998092651]","1","0","0","","","","","","","",""
"pit-trial","12","143152","0.0-2.0-4.4-0.4","battery-v0.2","","""event"",""trial"",""time""
""fullscreenenter"",""1"",""1671""
","
","
","""event"",""trial"",""time""
""fullscreenenter"",""1"",""1671""
","
","","","559.7000000476837","","","20","4230","474","&#9784;","elianto","#FFFFF080"," "," ","1","&#10004","[1411]","1","0","0","","","","","","","",""
"pit-instructions","13","214630","0.0-2.0-5.0","battery-v0.2","","""event"",""trial"",""time""
""fullscreenenter"",""1"",""1671""
","
","
","""event"",""trial"",""time""
""fullscreenenter"",""1"",""1671""
","
","","[{""page_index"":0,""viewing_time"":51859.10000014305},{""page_index"":1,""viewing_time"":6190.799999952316},{""page_index"":2,""viewing_time"":7326.399999856949},{""page_index"":3,""viewing_time"":6098.400000095367}]","71475.29999995232","","","","","","","","","","","","","","","","","","","","","","","",""
"pit-trial","14","219485","0.0-2.0-6.0-0.0","battery-v0.2","","""event"",""trial"",""time""
""fullscreenenter"",""1"",""1671""
","
","
","""event"",""trial"",""time""
""fullscreenenter"",""1"",""1671""
","
","","","-1","","","20","4230","474","&#9854;","elianto","#FFFFF080","-1","-1","1","&#10004","[]","0","0","1","","","","","","","",""
"pit-trial","15","224343","0.0-2.0-6.1-0.1","battery-v0.2","","""event"",""trial"",""time""
""fullscreenenter"",""1"",""1671""
","
","
","""event"",""trial"",""time""
""fullscreenenter"",""1"",""1671""
","
","","","-1","","","20","4230","474","&#9854;","elianto","#FFFFF080","-1","-1","1","&#10004","[]","0","0","1","","","","","","","",""
"pit-trial","16","229198","0.0-2.0-6.2-0.2","battery-v0.2","","""event"",""trial"",""time""
""fullscreenenter"",""1"",""1671""
","
","
","""event"",""trial"",""time""
""fullscreenenter"",""1"",""1671""
","
","","","-1","","","20","4230","474","&#9854;","elianto","#FFFFF080","-1","-1","1","&#10004","[]","0","0","1","","","","","","","",""
"pit-trial","17","234056","0.0-2.0-6.3-0.3","battery-v0.2","","""event"",""trial"",""time""
""fullscreenenter"",""1"",""1671""
","
","
","""event"",""trial"",""time""
""fullscreenenter"",""1"",""1671""
","
","","","-1","","","20","4230","474","&#9854;","elianto","#FFFFF080","-1","-1","1","&#10004","[]","0","0","1","","","","","","","",""
"pit-trial","18","238914","0.0-2.0-6.4-0.4","battery-v0.2","","""event"",""trial"",""time""
""fullscreenenter"",""1"",""1671""
","
","
","""event"",""trial"",""time""
""fullscreenenter"",""1"",""1671""
","
","","","-1","","","20","4230","474","&#9854;","elianto","#FFFFF080","-1","-1","1","&#10004","[]","0","0","1","","","","","","","",""
"pit-instructions","19","376638","0.0-2.0-7.0","battery-v0.2","","""event"",""trial"",""time""
""fullscreenenter"",""1"",""1671""
","
","
","""event"",""trial"",""time""
""fullscreenenter"",""1"",""1671""
","
","","[{""page_index"":0,""viewing_time"":5583.599999904633},{""page_index"":1,""viewing_time"":7095.799999952316},{""page_index"":2,""viewing_time"":6390.900000095367},{""page_index"":3,""viewing_time"":6837.5},{""page_index"":4,""viewing_time"":6529.599999904633},{""page_index"":5,""viewing_time"":6125.5},{""page_index"":6,""viewing_time"":6131.400000095367},{""page_index"":7,""viewing_time"":8237.799999952316},{""page_index"":8,""viewing_time"":8860.900000095367},{""page_index"":9,""viewing_time"":6492.5},{""page_index"":10,""viewing_time"":6843.700000047684},{""page_index"":11,""viewing_time"":4471.099999904633},{""page_index"":12,""viewing_time"":6295.400000095367},{""page_index"":13,""viewing_time"":7124.199999809265},{""page_index"":14,""viewing_time"":7592.800000190735},{""page_index"":15,""viewing_time"":12586},{""page_index"":16,""viewing_time"":16890.299999952316},{""page_index"":17,""viewing_time"":7632.200000047684}]","137723.09999990463","","","","","","","","","","","","","","","","","","","","","","","",""
"pit-trial","20","381498","0.0-2.0-8.0-0.0","battery-v0.2","","""event"",""trial"",""time""
""fullscreenenter"",""1"",""1671""
","
","
","""event"",""trial"",""time""
""fullscreenenter"",""1"",""1671""
","
","","","-1","","","20","4230","474","&#9776;","elianto","#3366ff99"," ","-1","0","0","[]","0","0","1","","","","","","","",""
"pit-trial","21","384816","0.0-2.0-8.0-1.0","battery-v0.2","","""event"",""trial"",""time""
""fullscreenenter"",""1"",""1671""
","
","
","""event"",""trial"",""time""
""fullscreenenter"",""1"",""1671""
","
","","","460.7000000476837","","","20","4230","474","&#9776;","elianto","#3366ff99"," "," ","1","+10","[1312.2999999523163]","1","0","1","","","","","","","",""
"pit-trial","22","388128","0.0-2.0-8.0-2.0","battery-v0.2","","""event"",""trial"",""time""
""fullscreenenter"",""1"",""1671""
","
","
","""event"",""trial"",""time""
""fullscreenenter"",""1"",""1671""
","
","","","453.7000000476837","","","20","4230","474","&#9776;","elianto","#3366ff99"," "," ","1","+10","[1304.6000001430511]","1","0","1","","","","","","","",""
"pit-trial","23","391523","0.0-2.0-8.0-3.0","battery-v0.2","","""event"",""trial"",""time""
""fullscreenenter"",""1"",""1671""
","
","
","""event"",""trial"",""time""
""fullscreenenter"",""1"",""1671""
","
","","","534.8999998569489","","","20","4230","474","&#9776;","elianto","#3366ff99"," "," ","1","0","[1386.5]","1","0","1","","","","","","","",""
"pit-trial","24","394779","0.0-2.0-8.0-4.0","battery-v0.2","","""event"",""trial"",""time""
""fullscreenenter"",""1"",""1671""
","
","
","""event"",""trial"",""time""
""fullscreenenter"",""1"",""1671""
","
","","","400","","","20","4230","474","&#9776;","elianto","#3366ff99"," "," ","1","+10","[1251]","1","0","1","","","","","","","",""
"pit-trial","25","398041","0.0-2.0-8.1-0.1","battery-v0.2","","""event"",""trial"",""time""
""fullscreenenter"",""1"",""1671""
","
","
","""event"",""trial"",""time""
""fullscreenenter"",""1"",""1671""
","
","","","404.89999985694885","","","20","4230","474","&#9776;","elianto","#3366ff99"," "," ","1","+10","[1256.2999999523163]","1","0","1","","","","","","","",""
"pit-trial","26","401262","0.0-2.0-8.1-1.1","battery-v0.2","","""event"",""trial"",""time""
""fullscreenenter"",""1"",""1671""
","
","
","""event"",""trial"",""time""
""fullscreenenter"",""1"",""1671""
","
","","","364.89999985694885","","","20","4230","474","&#9776;","elianto","#3366ff99"," "," ","1","+10","[1215.0999999046326]","1","0","1","","","","","","","",""
"pit-trial","27","404488","0.0-2.0-8.1-2.1","battery-v0.2","","""event"",""trial"",""time""
""fullscreenenter"",""1"",""1671""
","
","
","""event"",""trial"",""time""
""fullscreenenter"",""1"",""1671""
","
","","","374.2999999523163","","","20","4230","474","&#9776;","elianto","#3366ff99"," "," ","1","+10","[1224.5]","1","0","1","","","","","","","",""
"pit-trial","28","407691","0.0-2.0-8.1-3.1","battery-v0.2","","""event"",""trial"",""time""
""fullscreenenter"",""1"",""1671""
","
","
","""event"",""trial"",""time""
""fullscreenenter"",""1"",""1671""
","
","","","350.60000014305115","","","20","4230","474","&#9776;","elianto","#3366ff99"," "," ","1","0","[1200.8000001907349]","1","0","1","","","","","","","",""
"pit-trial","29","410901","0.0-2.0-8.1-4.1","battery-v0.2","","""event"",""trial"",""time""
""fullscreenenter"",""1"",""1671""
","
","
","""event"",""trial"",""time""
""fullscreenenter"",""1"",""1671""
","
","","","352.7000000476837","","","20","4230","474","&#9776;","elianto","#3366ff99"," "," ","1","+10","[1203.8999998569489]","1","0","1","","","","","","","",""
"pit-trial","30","414362","0.0-2.0-8.2-0.2","battery-v0.2","","""event"",""trial"",""time""
""fullscreenenter"",""1"",""1671""
","
","
","""event"",""trial"",""time""
""fullscreenenter"",""1"",""1671""
","
","","","603.2999999523163","","","20","4230","474","&#9776;","elianto","#3366ff99"," "," ","1","+10","[1453.5]","1","0","1","","","","","","","",""
"pit-trial","31","417664","0.0-2.0-8.2-1.2","battery-v0.2","","""event"",""trial"",""time""
""fullscreenenter"",""1"",""1671""
","
","
","""event"",""trial"",""time""
""fullscreenenter"",""1"",""1671""
","
","","","446.5","","","20","4230","474","&#9776;","elianto","#3366ff99"," "," ","1","+10","[1297.8999998569489]","1","0","1","","","","","","","",""
"pit-trial","32","420730","0.0-2.0-8.2-2.2","battery-v0.2","","""event"",""trial"",""time""
""fullscreenenter"",""1"",""1671""
","
","
","""event"",""trial"",""time""
""fullscreenenter"",""1"",""1671""
","
","","","211.89999985694885","","","20","4230","474","&#9776;","elianto","#3366ff99"," "," ","1","+10","[1063.2999999523163]","1","0","1","","","","","","","",""
"pit-trial","33","424010","0.0-2.0-8.2-3.2","battery-v0.2","","""event"",""trial"",""time""
""fullscreenenter"",""1"",""1671""
","
","
","""event"",""trial"",""time""
""fullscreenenter"",""1"",""1671""
","
","","","424","","","20","4230","474","&#9776;","elianto","#3366ff99"," "," ","1","0","[1275.1999998092651]","1","0","1","","","","","","","",""
"pit-trial","34","427237","0.0-2.0-8.2-4.2","battery-v0.2","","""event"",""trial"",""time""
""fullscreenenter"",""1"",""1671""
","
","
","""event"",""trial"",""time""
""fullscreenenter"",""1"",""1671""
","
","","","373.5","","","20","4230","474","&#9776;","elianto","#3366ff99"," "," ","1","+10","[1224.0999999046326]","1","0","1","","","","","","","",""
"call-function","35","427239","0.0-2.0-9.0","battery-v0.2","","""event"",""trial"",""time""
""fullscreenenter"",""1"",""1671""
","
","
","""event"",""trial"",""time""
""fullscreenenter"",""1"",""1671""
","
","","","","","","","","","","","","","","","","","","","","","","","","","","",""
"pit-instructions","36","465811","0.0-2.0-10.0","battery-v0.2","","""event"",""trial"",""time""
""fullscreenenter"",""1"",""1671""
","
","
","""event"",""trial"",""time""
""fullscreenenter"",""1"",""1671""
","
","","[{""page_index"":0,""viewing_time"":6103.900000095367},{""page_index"":1,""viewing_time"":6546.299999952316},{""page_index"":2,""viewing_time"":9784.200000047684},{""page_index"":3,""viewing_time"":8543.599999904633},{""page_index"":4,""viewing_time"":7593.200000047684}]","38571.90000009537","","","","","","","","","","","","","","","","","","","","","","","",""
"pit-trial","37","470672","0.0-2.0-11.0-0.0","battery-v0.2","","""event"",""trial"",""time""
""fullscreenenter"",""1"",""1671""
","
","
","""event"",""trial"",""time""
""fullscreenenter"",""1"",""1671""
","
","","","-1","","","20","4230","474","&#9761;","elianto","#3366ff99","-1","-1","1","+10","[]","0","0","2","","","","","","","",""
"pit-trial","38","475527","0.0-2.0-11.0-1.0","battery-v0.2","","""event"",""trial"",""time""
""fullscreenenter"",""1"",""1671""
","
","
","""event"",""trial"",""time""
""fullscreenenter"",""1"",""1671""
","
","","","-1","","","20","4230","474","&#9761;","elianto","#3366ff99","-1","-1","1","+10","[]","0","0","2","","","","","","","",""
"pit-trial","39","480383","0.0-2.0-11.0-2.0","battery-v0.2","","""event"",""trial"",""time""
""fullscreenenter"",""1"",""1671""
","
","
","""event"",""trial"",""time""
""fullscreenenter"",""1"",""1671""
","
","","","-1","","","20","4230","474","&#9761;","elianto","#3366ff99","-1","-1","1","+10","[]","0","0","2","","","","","","","",""
"pit-trial","40","485242","0.0-2.0-11.0-3.0","battery-v0.2","","""event"",""trial"",""time""
""fullscreenenter"",""1"",""1671""
","
","
","""event"",""trial"",""time""
""fullscreenenter"",""1"",""1671""
","
","","","-1","","","20","4230","474","&#9761;","elianto","#3366ff99","-1","-1","1","0","[]","0","0","2","","","","","","","",""
"pit-trial","41","490101","0.0-2.0-11.0-4.0","battery-v0.2","","""event"",""trial"",""time""
""fullscreenenter"",""1"",""1671""
","
","
","""event"",""trial"",""time""
""fullscreenenter"",""1"",""1671""
","
","","","-1","","","20","4230","474","&#9761;","elianto","#3366ff99","-1","-1","1","+10","[]","0","0","2","","","","","","","",""
"pit-trial","42","494956","0.0-2.0-11.1-0.1","battery-v0.2","","""event"",""trial"",""time""
""fullscreenenter"",""1"",""1671""
","
","
","""event"",""trial"",""time""
""fullscreenenter"",""1"",""1671""
","
","","","-1","","","20","4230","474","&#9761;","elianto","#3366ff99","-1","-1","1","+10","[]","0","0","2","","","","","","","",""
"pit-trial","43","499813","0.0-2.0-11.1-1.1","battery-v0.2","","""event"",""trial"",""time""
""fullscreenenter"",""1"",""1671""
","
","
","""event"",""trial"",""time""
""fullscreenenter"",""1"",""1671""
","
","","","-1","","","20","4230","474","&#9761;","elianto","#3366ff99","-1","-1","1","+10","[]","0","0","2","","","","","","","",""
"pit-trial","44","504672","0.0-2.0-11.1-2.1","battery-v0.2","","""event"",""trial"",""time""
""fullscreenenter"",""1"",""1671""
","
","
","""event"",""trial"",""time""
""fullscreenenter"",""1"",""1671""
","
","","","-1","","","20","4230","474","&#9761;","elianto","#3366ff99","-1","-1","1","+10","[]","0","0","2","","","","","","","",""
"pit-trial","45","509531","0.0-2.0-11.1-3.1","battery-v0.2","","""event"",""trial"",""time""
""fullscreenenter"",""1"",""1671""
","
","
","""event"",""trial"",""time""
""fullscreenenter"",""1"",""1671""
","
","","","-1","","","20","4230","474","&#9761;","elianto","#3366ff99","-1","-1","1","0","[]","0","0","2","","","","","","","",""
"pit-trial","46","514389","0.0-2.0-11.1-4.1","battery-v0.2","","""event"",""trial"",""time""
""fullscreenenter"",""1"",""1671""
","
","
","""event"",""trial"",""time""
""fullscreenenter"",""1"",""1671""
","
","","","-1","","","20","4230","474","&#9761;","elianto","#3366ff99","-1","-1","1","+10","[]","0","0","2","","","","","","","",""
"pit-trial","47","519248","0.0-2.0-11.2-0.2","battery-v0.2","","""event"",""trial"",""time""
""fullscreenenter"",""1"",""1671""
","
","
","""event"",""trial"",""time""
""fullscreenenter"",""1"",""1671""
","
","","","-1","","","20","4230","474","&#9761;","elianto","#3366ff99","-1","-1","1","+10","[]","0","0","2","","","","","","","",""
"pit-trial","48","524106","0.0-2.0-11.2-1.2","battery-v0.2","","""event"",""trial"",""time""
""fullscreenenter"",""1"",""1671""
","
","
","""event"",""trial"",""time""
""fullscreenenter"",""1"",""1671""
","
","","","-1","","","20","4230","474","&#9761;","elianto","#3366ff99","-1","-1","1","+10","[]","0","0","2","","","","","","","",""
"pit-trial","49","528960","0.0-2.0-11.2-2.2","battery-v0.2","","""event"",""trial"",""time""
""fullscreenenter"",""1"",""1671""
","
","
","""event"",""trial"",""time""
""fullscreenenter"",""1"",""1671""
","
","","","-1","","","20","4230","474","&#9761;","elianto","#3366ff99","-1","-1","1","+10","[]","0","0","2","","","","","","","",""
"pit-trial","50","533818","0.0-2.0-11.2-3.2","battery-v0.2","","""event"",""trial"",""time""
""fullscreenenter"",""1"",""1671""
","
","
","""event"",""trial"",""time""
""fullscreenenter"",""1"",""1671""
","
","","","-1","","","20","4230","474","&#9761;","elianto","#3366ff99","-1","-1","1","0","[]","0","0","2","","","","","","","",""
"pit-trial","51","538677","0.0-2.0-11.2-4.2","battery-v0.2","","""event"",""trial"",""time""
""fullscreenenter"",""1"",""1671""
","
","
","""event"",""trial"",""time""
""fullscreenenter"",""1"",""1671""
","
","","","-1","","","20","4230","474","&#9761;","elianto","#3366ff99","-1","-1","1","+10","[]","0","0","2","","","","","","","",""
"pit-trial","52","543535","0.0-2.0-11.3-0.3","battery-v0.2","","""event"",""trial"",""time""
""fullscreenenter"",""1"",""1671""
","
","
","""event"",""trial"",""time""
""fullscreenenter"",""1"",""1671""
","
","","","-1","","","20","4230","474","&#9761;","elianto","#3366ff99","-1","-1","1","+10","[]","0","0","2","","","","","","","",""
"pit-trial","53","548394","0.0-2.0-11.3-1.3","battery-v0.2","","""event"",""trial"",""time""
""fullscreenenter"",""1"",""1671""
","
","
","""event"",""trial"",""time""
""fullscreenenter"",""1"",""1671""
","
","","","-1","","","20","4230","474","&#9761;","elianto","#3366ff99","-1","-1","1","+10","[]","0","0","2","","","","","","","",""
"pit-trial","54","553249","0.0-2.0-11.3-2.3","battery-v0.2","","""event"",""trial"",""time""
""fullscreenenter"",""1"",""1671""
","
","
","""event"",""trial"",""time""
""fullscreenenter"",""1"",""1671""
","
","","","-1","","","20","4230","474","&#9761;","elianto","#3366ff99","-1","-1","1","+10","[]","0","0","2","","","","","","","",""
"pit-trial","55","558106","0.0-2.0-11.3-3.3","battery-v0.2","","""event"",""trial"",""time""
""fullscreenenter"",""1"",""1671""
","
","
","""event"",""trial"",""time""
""fullscreenenter"",""1"",""1671""
","
","","","-1","","","20","4230","474","&#9761;","elianto","#3366ff99","-1","-1","1","0","[]","0","0","2","","","","","","","",""
"pit-trial","56","562964","0.0-2.0-11.3-4.3","battery-v0.2","","""event"",""trial"",""time""
""fullscreenenter"",""1"",""1671""
","
","
","""event"",""trial"",""time""
""fullscreenenter"",""1"",""1671""
","
","","","-1","","","20","4230","474","&#9761;","elianto","#3366ff99","-1","-1","1","+10","[]","0","0","2","","","","","","","",""
"call-function","57","562967","0.0-2.0-12.0","battery-v0.2","","""event"",""trial"",""time""
""fullscreenenter"",""1"",""1671""
","
","
","""event"",""trial"",""time""
""fullscreenenter"",""1"",""1671""
","
","","","","","","","","","","","","","","","","","","","","","","","","","","",""
"pit-instructions","58","605102","0.0-2.0-13.0","battery-v0.2","","""event"",""trial"",""time""
""fullscreenenter"",""1"",""1671""
","
","
","""event"",""trial"",""time""
""fullscreenenter"",""1"",""1671""
","
","","[{""page_index"":0,""viewing_time"":6632.599999904633},{""page_index"":1,""viewing_time"":8577.099999904633},{""page_index"":2,""viewing_time"":5561.400000095367},{""page_index"":3,""viewing_time"":11064.799999952316},{""page_index"":4,""viewing_time"":10298.400000095367}]","42135","","","","","","","","","","","","","","","","","","","","","","","",""
"pit-trial","59","609958","0.0-2.0-14.0-0.0","battery-v0.2","","""event"",""trial"",""time""
""fullscreenenter"",""1"",""1671""
","
","
","""event"",""trial"",""time""
""fullscreenenter"",""1"",""1671""
","
","","","-1","","","20","4230","474","&#9826;","elianto","#f73b6a7A","-1","-1","1","0","[]","0","0","3","","","","","","","",""
"pit-trial","60","613328","0.0-2.0-14.0-1.0","battery-v0.2","","""event"",""trial"",""time""
""fullscreenenter"",""1"",""1671""
","
","
","""event"",""trial"",""time""
""fullscreenenter"",""1"",""1671""
","
","","","511.30000019073486","","","20","4230","474","&#9826;","elianto","#f73b6a7A","-1"," ","0","-10","[1364]","1","0","3","","","","","","","",""
"pit-trial","61","618188","0.0-2.0-14.0-2.0","battery-v0.2","","""event"",""trial"",""time""
""fullscreenenter"",""1"",""1671""
","
","
","""event"",""trial"",""time""
""fullscreenenter"",""1"",""1671""
","
","","","-1","","","20","4230","474","&#9826;","elianto","#f73b6a7A","-1","-1","1","0","[]","0","0","3","","","","","","","",""
"pit-trial","62","623046","0.0-2.0-14.0-3.0","battery-v0.2","","""event"",""trial"",""time""
""fullscreenenter"",""1"",""1671""
","
","
","""event"",""trial"",""time""
""fullscreenenter"",""1"",""1671""
","
","","","-1","","","20","4230","474","&#9826;","elianto","#f73b6a7A","-1","-1","1","-10","[]","0","0","3","","","","","","","",""
"pit-trial","63","627908","0.0-2.0-14.0-4.0","battery-v0.2","","""event"",""trial"",""time""
""fullscreenenter"",""1"",""1671""
","
","
","""event"",""trial"",""time""
""fullscreenenter"",""1"",""1671""
","
","","","-1","","","20","4230","474","&#9826;","elianto","#f73b6a7A","-1","-1","1","0","[]","0","0","3","","","","","","","",""
"pit-trial","64","632767","0.0-2.0-14.1-0.1","battery-v0.2","","""event"",""trial"",""time""
""fullscreenenter"",""1"",""1671""
","
","
","""event"",""trial"",""time""
""fullscreenenter"",""1"",""1671""
","
","","","-1","","","20","4230","474","&#9826;","elianto","#f73b6a7A","-1","-1","1","0","[]","0","0","3","","","","","","","",""
"pit-trial","65","637626","0.0-2.0-14.1-1.1","battery-v0.2","","""event"",""trial"",""time""
""fullscreenenter"",""1"",""1671""
","
","
","""event"",""trial"",""time""
""fullscreenenter"",""1"",""1671""
","
","","","-1","","","20","4230","474","&#9826;","elianto","#f73b6a7A","-1","-1","1","0","[]","0","0","3","","","","","","","",""
"pit-trial","66","642485","0.0-2.0-14.1-2.1","battery-v0.2","","""event"",""trial"",""time""
""fullscreenenter"",""1"",""1671""
","
","
","""event"",""trial"",""time""
""fullscreenenter"",""1"",""1671""
","
","","","-1","","","20","4230","474","&#9826;","elianto","#f73b6a7A","-1","-1","1","0","[]","0","0","3","","","","","","","",""
"pit-trial","67","647343","0.0-2.0-14.1-3.1","battery-v0.2","","""event"",""trial"",""time""
""fullscreenenter"",""1"",""1671""
","
","
","""event"",""trial"",""time""
""fullscreenenter"",""1"",""1671""
","
","","","-1","","","20","4230","474","&#9826;","elianto","#f73b6a7A","-1","-1","1","-10","[]","0","0","3","","","","","","","",""
"pit-trial","68","652202","0.0-2.0-14.1-4.1","battery-v0.2","","""event"",""trial"",""time""
""fullscreenenter"",""1"",""1671""
","
","
","""event"",""trial"",""time""
""fullscreenenter"",""1"",""1671""
","
","","","-1","","","20","4230","474","&#9826;","elianto","#f73b6a7A","-1","-1","1","0","[]","0","0","3","","","","","","","",""
"pit-trial","69","657060","0.0-2.0-14.2-0.2","battery-v0.2","","""event"",""trial"",""time""
""fullscreenenter"",""1"",""1671""
","
","
","""event"",""trial"",""time""
""fullscreenenter"",""1"",""1671""
","
","","","-1","","","20","4230","474","&#9826;","elianto","#f73b6a7A","-1","-1","1","0","[]","0","0","3","","","","","","","",""
"pit-trial","70","661919","0.0-2.0-14.2-1.2","battery-v0.2","","""event"",""trial"",""time""
""fullscreenenter"",""1"",""1671""
","
","
","""event"",""trial"",""time""
""fullscreenenter"",""1"",""1671""
","
","","","-1","","","20","4230","474","&#9826;","elianto","#f73b6a7A","-1","-1","1","0","[]","0","0","3","","","","","","","",""
"pit-trial","71","666775","0.0-2.0-14.2-2.2","battery-v0.2","","""event"",""trial"",""time""
""fullscreenenter"",""1"",""1671""
","
","
","""event"",""trial"",""time""
""fullscreenenter"",""1"",""1671""
","
","","","-1","","","20","4230","474","&#9826;","elianto","#f73b6a7A","-1","-1","1","0","[]","0","0","3","","","","","","","",""
"pit-trial","72","671635","0.0-2.0-14.2-3.2","battery-v0.2","","""event"",""trial"",""time""
""fullscreenenter"",""1"",""1671""
","
","
","""event"",""trial"",""time""
""fullscreenenter"",""1"",""1671""
","
","","","-1","","","20","4230","474","&#9826;","elianto","#f73b6a7A","-1","-1","1","-10","[]","0","0","3","","","","","","","",""
"pit-trial","73","676495","0.0-2.0-14.2-4.2","battery-v0.2","","""event"",""trial"",""time""
""fullscreenenter"",""1"",""1671""
","
","
","""event"",""trial"",""time""
""fullscreenenter"",""1"",""1671""
","
","","","-1","","","20","4230","474","&#9826;","elianto","#f73b6a7A","-1","-1","1","0","[]","0","0","3","","","","","","","",""
"pit-trial","74","681353","0.0-2.0-14.3-0.3","battery-v0.2","","""event"",""trial"",""time""
""fullscreenenter"",""1"",""1671""
","
","
","""event"",""trial"",""time""
""fullscreenenter"",""1"",""1671""
","
","","","-1","","","20","4230","474","&#9826;","elianto","#f73b6a7A","-1","-1","1","0","[]","0","0","3","","","","","","","",""
"pit-trial","75","686212","0.0-2.0-14.3-1.3","battery-v0.2","","""event"",""trial"",""time""
""fullscreenenter"",""1"",""1671""
","
","
","""event"",""trial"",""time""
""fullscreenenter"",""1"",""1671""
","
","","","-1","","","20","4230","474","&#9826;","elianto","#f73b6a7A","-1","-1","1","0","[]","0","0","3","","","","","","","",""
"pit-trial","76","691076","0.0-2.0-14.3-2.3","battery-v0.2","","""event"",""trial"",""time""
""fullscreenenter"",""1"",""1671""
","
","
","""event"",""trial"",""time""
""fullscreenenter"",""1"",""1671""
","
","","","-1","","","20","4230","474","&#9826;","elianto","#f73b6a7A","-1","-1","1","0","[]","0","0","3","","","","","","","",""
"pit-trial","77","695934","0.0-2.0-14.3-3.3","battery-v0.2","","""event"",""trial"",""time""
""fullscreenenter"",""1"",""1671""
","
","
","""event"",""trial"",""time""
""fullscreenenter"",""1"",""1671""
","
","","","-1","","","20","4230","474","&#9826;","elianto","#f73b6a7A","-1","-1","1","-10","[]","0","0","3","","","","","","","",""
"pit-trial","78","700793","0.0-2.0-14.3-4.3","battery-v0.2","","""event"",""trial"",""time""
""fullscreenenter"",""1"",""1671""
","
","
","""event"",""trial"",""time""
""fullscreenenter"",""1"",""1671""
","
","","","-1","","","20","4230","474","&#9826;","elianto","#f73b6a7A","-1","-1","1","0","[]","0","0","3","","","","","","","",""
"call-function","79","700795","0.0-2.0-15.0","battery-v0.2","","""event"",""trial"",""time""
""fullscreenenter"",""1"",""1671""
","
","
","""event"",""trial"",""time""
""fullscreenenter"",""1"",""1671""
","
","","","","","","","","","","","","","","","","","","","","","","","","","","",""
"pit-instructions","80","726841","0.0-2.0-16.0","battery-v0.2","","""event"",""trial"",""time""
""fullscreenenter"",""1"",""1671""
","
","
","""event"",""trial"",""time""
""fullscreenenter"",""1"",""1671""
","
","","[{""page_index"":0,""viewing_time"":7611},{""page_index"":1,""viewing_time"":9113.5},{""page_index"":2,""viewing_time"":4245.400000095367},{""page_index"":3,""viewing_time"":5075.299999952316}]","26045.599999904633","","","","","","","","","","","","","","","","","","","","","","","",""
"pit-trial","81","730205","0.0-2.0-17.0-0.0","battery-v0.2","","""event"",""trial"",""time""
""fullscreenenter"",""1"",""1671""
","
","
","""event"",""trial"",""time""
""fullscreenenter"",""1"",""1671""
","
","","","507.59999990463257","","","20","4230","474","&#9789;","elianto","#f73b6a7A"," "," ","1","0","[1357.7999999523163]","1","0","4","","","","","","","",""
"pit-trial","82","733448","0.0-2.0-17.0-1.0","battery-v0.2","","""event"",""trial"",""time""
""fullscreenenter"",""1"",""1671""
","
","
","""event"",""trial"",""time""
""fullscreenenter"",""1"",""1671""
","
","","","382.2999999523163","","","20","4230","474","&#9789;","elianto","#f73b6a7A"," "," ","1","0","[1232.7000000476837]","1","0","4","","","","","","","",""
"pit-trial","83","736712","0.0-2.0-17.0-2.0","battery-v0.2","","""event"",""trial"",""time""
""fullscreenenter"",""1"",""1671""
","
","
","""event"",""trial"",""time""
""fullscreenenter"",""1"",""1671""
","
","","","405","","","20","4230","474","&#9789;","elianto","#f73b6a7A"," "," ","1","0","[1256.5999999046326]","1","0","4","","","","","","","",""
"pit-trial","84","739820","0.0-2.0-17.0-3.0","battery-v0.2","","""event"",""trial"",""time""
""fullscreenenter"",""1"",""1671""
","
","
","""event"",""trial"",""time""
""fullscreenenter"",""1"",""1671""
","
","","","253","","","20","4230","474","&#9789;","elianto","#f73b6a7A"," "," ","1","-10","[1103.2000000476837]","1","0","4","","","","","","","",""
"pit-trial","85","743048","0.0-2.0-17.0-4.0","battery-v0.2","","""event"",""trial"",""time""
""fullscreenenter"",""1"",""1671""
","
","
","""event"",""trial"",""time""
""fullscreenenter"",""1"",""1671""
","
","","","371","","","20","4230","474","&#9789;","elianto","#f73b6a7A"," "," ","1","0","[1222.2000000476837]","1","0","4","","","","","","","",""
"pit-trial","86","746348","0.0-2.0-17.1-0.1","battery-v0.2","","""event"",""trial"",""time""
""fullscreenenter"",""1"",""1671""
","
","
","""event"",""trial"",""time""
""fullscreenenter"",""1"",""1671""
","
","","","441.7000000476837","","","20","4230","474","&#9789;","elianto","#f73b6a7A"," "," ","1","0","[1293.8000001907349]","1","0","4","","","","","","","",""
"pit-trial","87","749626","0.0-2.0-17.1-1.1","battery-v0.2","","""event"",""trial"",""time""
""fullscreenenter"",""1"",""1671""
","
","
","""event"",""trial"",""time""
""fullscreenenter"",""1"",""1671""
","
","","","419","","","20","4230","474","&#9789;","elianto","#f73b6a7A"," "," ","1","0","[1269.8000001907349]","1","0","4","","","","","","","",""
"pit-trial","88","752845","0.0-2.0-17.1-2.1","battery-v0.2","","""event"",""trial"",""time""
""fullscreenenter"",""1"",""1671""
","
","
","""event"",""trial"",""time""
""fullscreenenter"",""1"",""1671""
","
","","","365.40000009536743","","","20","4230","474","&#9789;","elianto","#f73b6a7A"," "," ","1","0","[1215.5]","1","0","4","","","","","","","",""
"pit-trial","89","756030","0.0-2.0-17.1-3.1","battery-v0.2","","""event"",""trial"",""time""
""fullscreenenter"",""1"",""1671""
","
","
","""event"",""trial"",""time""
""fullscreenenter"",""1"",""1671""
","
","","","330.19999980926514","","","20","4230","474","&#9789;","elianto","#f73b6a7A"," "," ","1","-10","[1181.5]","1","0","4","","","","","","","",""
"pit-trial","90","759406","0.0-2.0-17.1-4.1","battery-v0.2","","""event"",""trial"",""time""
""fullscreenenter"",""1"",""1671""
","
","
","""event"",""trial"",""time""
""fullscreenenter"",""1"",""1671""
","
","","","522.5999999046326","","","20","4230","474","&#9789;","elianto","#f73b6a7A"," "," ","1","0","[840.7999999523163,1374]","2","0","4","","","","","","","",""
"pit-trial","91","762628","0.0-2.0-17.2-0.2","battery-v0.2","","""event"",""trial"",""time""
""fullscreenenter"",""1"",""1671""
","
","
","""event"",""trial"",""time""
""fullscreenenter"",""1"",""1671""
","
","","","363.2000000476837","","","20","4230","474","&#9789;","elianto","#f73b6a7A"," "," ","1","0","[1214.1000001430511]","1","0","4","","","","","","","",""
"pit-trial","92","765897","0.0-2.0-17.2-1.2","battery-v0.2","","""event"",""trial"",""time""
""fullscreenenter"",""1"",""1671""
","
","
","""event"",""trial"",""time""
""fullscreenenter"",""1"",""1671""
","
","","","412.7000000476837","","","20","4230","474","&#9789;","elianto","#f73b6a7A"," "," ","1","0","[1263.0999999046326]","1","0","4","","","","","","","",""
"pit-trial","93","769107","0.0-2.0-17.2-2.2","battery-v0.2","","""event"",""trial"",""time""
""fullscreenenter"",""1"",""1671""
","
","
","""event"",""trial"",""time""
""fullscreenenter"",""1"",""1671""
","
","","","352.39999985694885","","","20","4230","474","&#9789;","elianto","#f73b6a7A"," "," ","1","0","[1202.5]","1","0","4","","","","","","","",""
"pit-trial","94","772393","0.0-2.0-17.2-3.2","battery-v0.2","","""event"",""trial"",""time""
""fullscreenenter"",""1"",""1671""
","
","
","""event"",""trial"",""time""
""fullscreenenter"",""1"",""1671""
","
","","","428.7000000476837","","","20","4230","474","&#9789;","elianto","#f73b6a7A"," "," ","1","-10","[1278.9000000953674]","1","0","4","","","","","","","",""
"pit-trial","95","775539","0.0-2.0-17.2-4.2","battery-v0.2","","""event"",""trial"",""time""
""fullscreenenter"",""1"",""1671""
","
","
","""event"",""trial"",""time""
""fullscreenenter"",""1"",""1671""
","
","","","290.2999999523163","","","20","4230","474","&#9789;","elianto","#f73b6a7A"," "," ","1","0","[1141]","1","0","4","","","","","","","",""
"pit-trial","96","778793","0.0-2.0-17.3-0.3","battery-v0.2","","""event"",""trial"",""time""
""fullscreenenter"",""1"",""1671""
","
","
","""event"",""trial"",""time""
""fullscreenenter"",""1"",""1671""
","
","","","397.09999990463257","","","20","4230","474","&#9789;","elianto","#f73b6a7A"," "," ","1","0","[1247.1000001430511]","1","0","4","","","","","","","",""
"pit-trial","97","782025","0.0-2.0-17.3-1.3","battery-v0.2","","""event"",""trial"",""time""
""fullscreenenter"",""1"",""1671""
","
","
","""event"",""trial"",""time""
""fullscreenenter"",""1"",""1671""
","
","","","375.10000014305115","","","20","4230","474","&#9789;","elianto","#f73b6a7A"," "," ","1","0","[1225.1999998092651]","1","0","4","","","","","","","",""
"pit-trial","98","785305","0.0-2.0-17.3-2.3","battery-v0.2","","""event"",""trial"",""time""
""fullscreenenter"",""1"",""1671""
","
","
","""event"",""trial"",""time""
""fullscreenenter"",""1"",""1671""
","
","","","424.10000014305115","","","20","4230","474","&#9789;","elianto","#f73b6a7A"," "," ","1","0","[1274.5999999046326]","1","0","4","","","","","","","",""
"pit-trial","99","788601","0.0-2.0-17.3-3.3","battery-v0.2","","""event"",""trial"",""time""
""fullscreenenter"",""1"",""1671""
","
","
","""event"",""trial"",""time""
""fullscreenenter"",""1"",""1671""
","
","","","437.5","","","20","4230","474","&#9789;","elianto","#f73b6a7A"," "," ","1","-10","[1288.6000001430511]","1","0","4","","","","","","","",""
"pit-trial","100","791878","0.0-2.0-17.3-4.3","battery-v0.2","","""event"",""trial"",""time""
""fullscreenenter"",""1"",""1671""
","
","
","""event"",""trial"",""time""
""fullscreenenter"",""1"",""1671""
","
","","","420.60000014305115","","","20","4230","474","&#9789;","elianto","#f73b6a7A"," "," ","1","0","[1271.3000001907349]","1","0","4","","","","","","","",""
"call-function","101","791879","0.0-2.0-18.0","battery-v0.2","","""event"",""trial"",""time""
""fullscreenenter"",""1"",""1671""
","
","
","""event"",""trial"",""time""
""fullscreenenter"",""1"",""1671""
","
","","","","","","","","","","","","","","","","","","","","","","","","","","",""
"pit-instructions","102","862120","0.0-2.0-19.0","battery-v0.2","","""event"",""trial"",""time""
""fullscreenenter"",""1"",""1671""
","
","
","""event"",""trial"",""time""
""fullscreenenter"",""1"",""1671""
","
","","[{""page_index"":0,""viewing_time"":6440.200000047684},{""page_index"":1,""viewing_time"":5734.899999856949},{""page_index"":2,""viewing_time"":13487.300000190735},{""page_index"":3,""viewing_time"":8524.099999904633},{""page_index"":4,""viewing_time"":8652.099999904633},{""page_index"":5,""viewing_time"":8204.300000190735},{""page_index"":6,""viewing_time"":9026.699999809265},{""page_index"":7,""viewing_time"":6634.700000047684},{""page_index"":8,""viewing_time"":3535.9000000953674}]","70240.90000009537","","","","","","","","","","","","","","","","","","","","","","","",""
"pit-comprehension","103","866545","0.0-2.0-20.0-0.0","battery-v0.2","","""event"",""trial"",""time""
""fullscreenenter"",""1"",""1671""
","
","
","""event"",""trial"",""time""
""fullscreenenter"",""1"",""1671""
","
","","","4414.799999952316","[""SPACE""]","0","20","4230","474","","","","","","","","","","","","","","","","","","",""
"pit-instructions","104","869270","0.0-2.0-20.0-1.0","battery-v0.2","","""event"",""trial"",""time""
""fullscreenenter"",""1"",""1671""
","
","
","""event"",""trial"",""time""
""fullscreenenter"",""1"",""1671""
","
","","[{""page_index"":0,""viewing_time"":2683.899999856949}]","2684.7999999523163","","","","","","","","","","","","","","","","","","","","","","","",""
"pit-comprehension","105","874157","0.0-2.0-21.0-0.0","battery-v0.2","","""event"",""trial"",""time""
""fullscreenenter"",""1"",""1671""
","
","
","""event"",""trial"",""time""
""fullscreenenter"",""1"",""1671""
","
","","","4882.100000143051","[""10""]","0","20","4230","474","","","","","","","","","","","","","","","","","","",""
"pit-instructions","106","875815","0.0-2.0-21.0-1.0","battery-v0.2","","""event"",""trial"",""time""
""fullscreenenter"",""1"",""1671""
","
","
","""event"",""trial"",""time""
""fullscreenenter"",""1"",""1671""
","
","","[{""page_index"":0,""viewing_time"":1622.2999999523163}]","1622.7999999523163","","","","","","","","","","","","","","","","","","","","","","","",""
"pit-comprehension","107","882267","0.0-2.0-22.0-0.0","battery-v0.2","","""event"",""trial"",""time""
""fullscreenenter"",""1"",""1671""
","
","
","""event"",""trial"",""time""
""fullscreenenter"",""1"",""1671""
","
","","","6448.100000143051","[""0""]","0","20","4230","474","","","","","","","","","","","","","","","","","","",""
"pit-instructions","108","883694","0.0-2.0-22.0-1.0","battery-v0.2","","""event"",""trial"",""time""
""fullscreenenter"",""1"",""1671""
","
","
","""event"",""trial"",""time""
""fullscreenenter"",""1"",""1671""
","
","","[{""page_index"":0,""viewing_time"":1388.8999998569489}]","1389.1999998092651","","","","","","","","","","","","","","","","","","","","","","","",""
"pit-comprehension","109","892128","0.0-2.0-23.0-0.0","battery-v0.2","","""event"",""trial"",""time""
""fullscreenenter"",""1"",""1671""
","
","
","""event"",""trial"",""time""
""fullscreenenter"",""1"",""1671""
","
","","","8431.600000143051","[""True""]","0","20","4230","474","","","","","","","","","","","","","","","","","","",""
"pit-instructions","110","893672","0.0-2.0-23.0-1.0","battery-v0.2","","""event"",""trial"",""time""
""fullscreenenter"",""1"",""1671""
","
","
","""event"",""trial"",""time""
""fullscreenenter"",""1"",""1671""
","
","","[{""page_index"":0,""viewing_time"":1498.2000000476837}]","1498.5999999046326","","","","","","","","","","","","","","","","","","","","","","","",""
"pit-comprehension","111","901160","0.0-2.0-24.0-0.0","battery-v0.2","","""event"",""trial"",""time""
""fullscreenenter"",""1"",""1671""
","
","
","""event"",""trial"",""time""
""fullscreenenter"",""1"",""1671""
","
","","","7483.299999952316","[""True""]","0","20","4230","474","","","","","","","","","","","","","","","","","","",""
"pit-instructions","112","903426","0.0-2.0-24.0-1.0","battery-v0.2","","""event"",""trial"",""time""
""fullscreenenter"",""1"",""1671""
","
","
","""event"",""trial"",""time""
""fullscreenenter"",""1"",""1671""
","
","","[{""page_index"":0,""viewing_time"":2229.5}]","2229.899999856949","","","","","","","","","","","","","","","","","","","","","","","",""
"pit-comprehension","113","909906","0.0-2.0-25.0-0.0","battery-v0.2","","""event"",""trial"",""time""
""fullscreenenter"",""1"",""1671""
","
","
","""event"",""trial"",""time""
""fullscreenenter"",""1"",""1671""
","
","","","6474.899999856949","[""True""]","0","20","4230","474","","","","","","","","","","","","","","","","","","",""
"pit-instructions","114","914297","0.0-2.0-25.0-1.0","battery-v0.2","","""event"",""trial"",""time""
""fullscreenenter"",""1"",""1671""
","
","
","""event"",""trial"",""time""
""fullscreenenter"",""1"",""1671""
","
","","[{""page_index"":0,""viewing_time"":4353.400000095367}]","4353.900000095367","","","","","","","","","","","","","","","","","","","","","","","",""
"pit-comprehension","115","919524","0.0-2.0-26.0-0.0","battery-v0.2","","""event"",""trial"",""time""
""fullscreenenter"",""1"",""1671""
","
","
","""event"",""trial"",""time""
""fullscreenenter"",""1"",""1671""
","
","","","5223.099999904633","[""False""]","0","20","4230","474","","","","","","","","","","","","","","","","","","",""
"pit-instructions","116","921087","0.0-2.0-26.0-1.0","battery-v0.2","","""event"",""trial"",""time""
""fullscreenenter"",""1"",""1671""
","
","
","""event"",""trial"",""time""
""fullscreenenter"",""1"",""1671""
","
","","[{""page_index"":0,""viewing_time"":1524.1999998092651}]","1524.6999998092651","","","","","","","","","","","","","","","","","","","","","","","",""
"pit-instructions","117","941078","0.0-3.0","battery-v0.2","","""event"",""trial"",""time""
""fullscreenenter"",""1"",""1671""
","
","
","""event"",""trial"",""time""
""fullscreenenter"",""1"",""1671""
","
","","[{""page_index"":0,""viewing_time"":5755.799999952316},{""page_index"":1,""viewing_time"":6962},{""page_index"":2,""viewing_time"":7268.899999856949}]","19987.099999904633","","","","","","","","","","","","","","","","","","","","","","","",""
"pit-trial","118","945941","0.0-4.0","battery-v0.2","","""event"",""trial"",""time""
""fullscreenenter"",""1"",""1671""
","
","
","""event"",""trial"",""time""
""fullscreenenter"",""1"",""1671""
","
","","","-1","","","20","4230","474","&#9733;","elianto","#3366ff99","-1","-1","1","+10","[]","0","1","","","4230","1","2","2","win","no-go","0"
"pit-trial","119","950800","0.0-5.0","battery-v0.2","","""event"",""trial"",""time""
""fullscreenenter"",""1"",""1671""
","
","
","""event"",""trial"",""time""
""fullscreenenter"",""1"",""1671""
","
","","","-1","","","20","4230","474","&#9728;","elianto","#f73b6a7A","-1","-1","1","0","[]","0","1","","","4230","2","0","4","lose","no-go","0"
"pit-trial","120","955658","0.0-6.0","battery-v0.2","","""event"",""trial"",""time""
""fullscreenenter"",""1"",""1671""
","
","
","""event"",""trial"",""time""
""fullscreenenter"",""1"",""1671""
","
","","","-1","","","20","4230","474","&#9752;","elianto","#f73b6a7A"," ","-1","0","-10","[]","0","1","","","4230","3","3","3","lose","go","0"
"pit-trial","121","960514","0.0-7.0","battery-v0.2","","""event"",""trial"",""time""
""fullscreenenter"",""1"",""1671""
","
","
","""event"",""trial"",""time""
""fullscreenenter"",""1"",""1671""
","
","","","-1","","","20","4230","474","&#9730;","elianto","#3366ff99"," ","-1","0","+10","[]","0","1","","","4230","4","1","1","win","go","1"
"pit-trial","122","964582","0.0-8.0","battery-v0.2","","""event"",""trial"",""time""
""fullscreenenter"",""1"",""1671""
","
","
","""event"",""trial"",""time""
""fullscreenenter"",""1"",""1671""
","
","","","1212.5999999046326","","","20","4230","474","&#9752;","elianto","#f73b6a7A"," "," ","1","0","[2063.2000000476837]","1","1","","","4230","5","3","3","lose","go","0"
"pit-trial","123","969438","0.0-9.0","battery-v0.2","","""event"",""trial"",""time""
""fullscreenenter"",""1"",""1671""
","
","
","""event"",""trial"",""time""
""fullscreenenter"",""1"",""1671""
","
","","","-1","","","20","4230","474","&#9730;","elianto","#3366ff99"," ","-1","0","+10","[]","0","1","","","4230","6","1","1","win","go","1"
"pit-trial","124","974293","0.0-10.0","battery-v0.2","","""event"",""trial"",""time""
""fullscreenenter"",""1"",""1671""
","
","
","""event"",""trial"",""time""
""fullscreenenter"",""1"",""1671""
","
","","","-1","","","20","4230","474","&#9733;","elianto","#3366ff99","-1","-1","1","+10","[]","0","1","","","4230","7","2","2","win","no-go","0"
"pit-trial","125","979151","0.0-11.0","battery-v0.2","","""event"",""trial"",""time""
""fullscreenenter"",""1"",""1671""
","
","
","""event"",""trial"",""time""
""fullscreenenter"",""1"",""1671""
","
","","","-1","","","20","4230","474","&#9728;","elianto","#f73b6a7A","-1","-1","1","0","[]","0","1","","","4230","8","0","4","lose","no-go","0"
"pit-trial","126","984010","0.0-12.0","battery-v0.2","","""event"",""trial"",""time""
""fullscreenenter"",""1"",""1671""
","
","
","""event"",""trial"",""time""
""fullscreenenter"",""1"",""1671""
","
","","","-1","","","20","4230","474","&#9730;","elianto","#3366ff99"," ","-1","0","0","[]","0","1","","","4230","9","1","1","win","go","0"
"pit-trial","127","987604","0.0-13.0","battery-v0.2","","""event"",""trial"",""time""
""fullscreenenter"",""1"",""1671""
","
","
","""event"",""trial"",""time""
""fullscreenenter"",""1"",""1671""
","
","","","739.5","","","20","4230","474","&#9752;","elianto","#f73b6a7A"," "," ","1","0","[1590.3000001907349]","1","1","","","4230","10","3","3","lose","go","0"
"pit-trial","128","992457","0.0-14.0","battery-v0.2","","""event"",""trial"",""time""
""fullscreenenter"",""1"",""1671""
","
","
","""event"",""trial"",""time""
""fullscreenenter"",""1"",""1671""
","
","","","-1","","","20","4230","474","&#9728;","elianto","#f73b6a7A","-1","-1","1","0","[]","0","1","","","4230","11","0","4","lose","no-go","0"
"pit-trial","129","997316","0.0-15.0","battery-v0.2","","""event"",""trial"",""time""
""fullscreenenter"",""1"",""1671""
","
","
","""event"",""trial"",""time""
""fullscreenenter"",""1"",""1671""
","
","","","-1","","","20","4230","474","&#9733;","elianto","#3366ff99","-1","-1","1","+10","[]","0","1","","","4230","12","2","2","win","no-go","0"
"pit-trial","130","1002174","0.0-16.0","battery-v0.2","","""event"",""trial"",""time""
""fullscreenenter"",""1"",""1671""
","
","
","""event"",""trial"",""time""
""fullscreenenter"",""1"",""1671""
","
","","","-1","","","20","4230","474","&#9730;","elianto","#3366ff99"," ","-1","0","0","[3590.5]","1","1","","","4230","13","1","1","win","go","0"
"pit-trial","131","1007033","0.0-17.0","battery-v0.2","","""event"",""trial"",""time""
""fullscreenenter"",""1"",""1671""
","
","
","""event"",""trial"",""time""
""fullscreenenter"",""1"",""1671""
","
","","","-1","","","20","4230","474","&#9733;","elianto","#3366ff99","-1","-1","1","+10","[]","0","1","","","4230","14","2","2","win","no-go","0"
"pit-trial","132","1011887","0.0-18.0","battery-v0.2","","""event"",""trial"",""time""
""fullscreenenter"",""1"",""1671""
","
","
","""event"",""trial"",""time""
""fullscreenenter"",""1"",""1671""
","
","","","-1","","","20","4230","474","&#9728;","elianto","#f73b6a7A","-1","-1","1","0","[]","0","1","","","4230","15","0","4","lose","no-go","0"
"pit-trial","133","1015604","0.0-19.0","battery-v0.2","","""event"",""trial"",""time""
""fullscreenenter"",""1"",""1671""
","
","
","""event"",""trial"",""time""
""fullscreenenter"",""1"",""1671""
","
","","","859.3999998569489","","","20","4230","474","&#9752;","elianto","#f73b6a7A"," "," ","1","-10","[1709.8999998569489]","1","1","","","4230","16","3","3","lose","go","1"
"pit-trial","134","1019097","0.0-20.0","battery-v0.2","","""event"",""trial"",""time""
""fullscreenenter"",""1"",""1671""
","
","
","""event"",""trial"",""time""
""fullscreenenter"",""1"",""1671""
","
","","","635.1000001430511","","","20","4230","474","&#9730;","elianto","#3366ff99"," "," ","1","+10","[1486]","1","1","","","4230","17","1","1","win","go","0"
"pit-trial","135","1022617","0.0-21.0","battery-v0.2","","""event"",""trial"",""time""
""fullscreenenter"",""1"",""1671""
","
","
","""event"",""trial"",""time""
""fullscreenenter"",""1"",""1671""
","
","","","663.7999999523163","","","20","4230","474","&#9752;","elianto","#f73b6a7A"," "," ","1","0","[1515.7000000476837]","1","1","","","4230","18","3","3","lose","go","0"
"pit-trial","136","1027475","0.0-22.0","battery-v0.2","","""event"",""trial"",""time""
""fullscreenenter"",""1"",""1671""
","
","
","""event"",""trial"",""time""
""fullscreenenter"",""1"",""1671""
","
","","","-1","","","20","4230","474","&#9728;","elianto","#f73b6a7A","-1","-1","1","0","[]","0","1","","","4230","19","0","4","lose","no-go","0"
"pit-trial","137","1032334","0.0-23.0","battery-v0.2","","""event"",""trial"",""time""
""fullscreenenter"",""1"",""1671""
","
","
","""event"",""trial"",""time""
""fullscreenenter"",""1"",""1671""
","
","","","-1","","","20","4230","474","&#9733;","elianto","#3366ff99","-1","-1","1","+10","[]","0","1","","","4230","20","2","2","win","no-go","0"
"pit-instructions","138","1044674","0.0-24.0","battery-v0.2","","""event"",""trial"",""time""
""fullscreenenter"",""1"",""1671""
","
","
","""event"",""trial"",""time""
""fullscreenenter"",""1"",""1671""
","
","","[{""page_index"":0,""viewing_time"":5683.899999856949},{""page_index"":1,""viewing_time"":6653.5}]","12337.899999856949","","","","","","","","","","","","","","","","","","","","","","","",""
"pit-trial","139","1049532","0.0-25.0","battery-v0.2","","""event"",""trial"",""time""
""fullscreenenter"",""1"",""1671""
","
","
","""event"",""trial"",""time""
""fullscreenenter"",""1"",""1671""
","
","","","-1","","","20","4230","474","a","elianto","#f73b6a7A"," ","-1","0","-10","[]","0","2","","","4230","21","2","3","lose","go","0"
"pit-trial","140","1054394","0.0-26.0","battery-v0.2","","""event"",""trial"",""time""
""fullscreenenter"",""1"",""1671""
","
","
","""event"",""trial"",""time""
""fullscreenenter"",""1"",""1671""
","
","","","-1","","","20","4230","474","l","elianto","#3366ff99","-1","-1","1","+10","[]","0","2","","","4230","22","1","2","win","no-go","0"
"pit-trial","141","1059252","0.0-27.0","battery-v0.2","","""event"",""trial"",""time""
""fullscreenenter"",""1"",""1671""
","
","
","""event"",""trial"",""time""
""fullscreenenter"",""1"",""1671""
","
","","","-1","","","20","4230","474","u","elianto","#f73b6a7A"," ","-1","0","0","[]","0","2","","","4230","23","0","3","lose","go","1"
"pit-trial","142","1064115","0.0-28.0","battery-v0.2","","""event"",""trial"",""time""
""fullscreenenter"",""1"",""1671""
","
","
","""event"",""trial"",""time""
""fullscreenenter"",""1"",""1671""
","
","","","-1","","","20","4230","474","g","elianto","#f73b6a7A","-1","-1","1","0","[]","0","2","","","4230","24","3","4","lose","no-go","0"
"pit-trial","143","1068978","0.0-29.0","battery-v0.2","","""event"",""trial"",""time""
""fullscreenenter"",""1"",""1671""
","
","
","""event"",""trial"",""time""
""fullscreenenter"",""1"",""1671""
","
","","","-1","","","20","4230","474","l","elianto","#3366ff99","-1","-1","1","+10","[]","0","2","","","4230","25","1","2","win","no-go","0"
"pit-trial","144","1073838","0.0-30.0","battery-v0.2","","""event"",""trial"",""time""
""fullscreenenter"",""1"",""1671""
","
","
","""event"",""trial"",""time""
""fullscreenenter"",""1"",""1671""
","
","","","-1","","","20","4230","474","g","elianto","#f73b6a7A","-1","-1","1","0","[]","0","2","","","4230","26","3","4","lose","no-go","0"
"pit-trial","145","1078698","0.0-31.0","battery-v0.2","","""event"",""trial"",""time""
""fullscreenenter"",""1"",""1671""
","
","
","""event"",""trial"",""time""
""fullscreenenter"",""1"",""1671""
","
","","","-1","","","20","4230","474","u","elianto","#f73b6a7A"," ","-1","0","-10","[]","0","2","","","4230","27","0","3","lose","go","0"
"pit-trial","146","1082121","0.0-32.0","battery-v0.2","","""event"",""trial"",""time""
""fullscreenenter"",""1"",""1671""
","
","
","""event"",""trial"",""time""
""fullscreenenter"",""1"",""1671""
","
","","","569.5","","","20","4230","474","a","elianto","#f73b6a7A"," "," ","1","0","[1420]","1","2","","","4230","28","2","3","lose","go","0"
"pit-trial","147","1085647","0.0-33.0","battery-v0.2","","""event"",""trial"",""time""
""fullscreenenter"",""1"",""1671""
","
","
","""event"",""trial"",""time""
""fullscreenenter"",""1"",""1671""
","
","","","667.5999999046326","","","20","4230","474","a","elianto","#f73b6a7A"," "," ","1","-10","[1518.6000001430511]","1","2","","","4230","29","2","3","lose","go","1"
"pit-trial","148","1090505","0.0-34.0","battery-v0.2","","""event"",""trial"",""time""
""fullscreenenter"",""1"",""1671""
","
","
","""event"",""trial"",""time""
""fullscreenenter"",""1"",""1671""
","
","","","-1","","","20","4230","474","l","elianto","#3366ff99","-1","-1","1","+10","[]","0","2","","","4230","30","1","2","win","no-go","0"
"pit-trial","149","1095364","0.0-35.0","battery-v0.2","","""event"",""trial"",""time""
""fullscreenenter"",""1"",""1671""
","
","
","""event"",""trial"",""time""
""fullscreenenter"",""1"",""1671""
","
","","","-1","","","20","4230","474","g","elianto","#f73b6a7A","-1","-1","1","0","[]","0","2","","","4230","31","3","4","lose","no-go","0"
"pit-trial","150","1099231","0.0-36.0","battery-v0.2","","""event"",""trial"",""time""
""fullscreenenter"",""1"",""1671""
","
","
","""event"",""trial"",""time""
""fullscreenenter"",""1"",""1671""
","
","","","1012.2000000476837","","","20","4230","474","u","elianto","#f73b6a7A"," "," ","1","0","[1862.4000000953674]","1","2","","","4230","32","0","3","lose","go","0"
"pit-trial","151","1104089","0.0-37.0","battery-v0.2","","""event"",""trial"",""time""
""fullscreenenter"",""1"",""1671""
","
","
","""event"",""trial"",""time""
""fullscreenenter"",""1"",""1671""
","
","","","-1","","","20","4230","474","l","elianto","#3366ff99","-1","-1","1","+10","[]","0","2","","","4230","33","1","2","win","no-go","0"
"pit-trial","152","1107492","0.0-38.0","battery-v0.2","","""event"",""trial"",""time""
""fullscreenenter"",""1"",""1671""
","
","
","""event"",""trial"",""time""
""fullscreenenter"",""1"",""1671""
","
","","","548.1000001430511","","","20","4230","474","a","elianto","#f73b6a7A"," "," ","1","0","[1398.7999999523163]","1","2","","","4230","34","2","3","lose","go","0"
"pit-trial","153","1112349","0.0-39.0","battery-v0.2","","""event"",""trial"",""time""
""fullscreenenter"",""1"",""1671""
","
","
","""event"",""trial"",""time""
""fullscreenenter"",""1"",""1671""
","
","","","-1","","","20","4230","474","g","elianto","#f73b6a7A","-1","-1","1","0","[]","0","2","","","4230","35","3","4","lose","no-go","0"
"pit-trial","154","1115934","0.0-40.0","battery-v0.2","","""event"",""trial"",""time""
""fullscreenenter"",""1"",""1671""
","
","
","""event"",""trial"",""time""
""fullscreenenter"",""1"",""1671""
","
","","","727.6999998092651","","","20","4230","474","u","elianto","#f73b6a7A"," "," ","1","0","[1578.5]","1","2","","","4230","36","0","3","lose","go","0"
"pit-trial","155","1120793","0.0-41.0","battery-v0.2","","""event"",""trial"",""time""
""fullscreenenter"",""1"",""1671""
","
","
","""event"",""trial"",""time""
""fullscreenenter"",""1"",""1671""
","
","","","-1","","","20","4230","474","l","elianto","#3366ff99","-1","-1","1","+10","[]","0","2","","","4230","37","1","2","win","no-go","0"
"pit-trial","156","1125651","0.0-42.0","battery-v0.2","","""event"",""trial"",""time""
""fullscreenenter"",""1"",""1671""
","
","
","""event"",""trial"",""time""
""fullscreenenter"",""1"",""1671""
","
","","","-1","","","20","4230","474","g","elianto","#f73b6a7A","-1","-1","1","0","[]","0","2","","","4230","38","3","4","lose","no-go","0"
"pit-trial","157","1129534","0.0-43.0","battery-v0.2","","""event"",""trial"",""time""
""fullscreenenter"",""1"",""1671""
","
","
","""event"",""trial"",""time""
""fullscreenenter"",""1"",""1671""
","
","","","1029","","","20","4230","474","a","elianto","#f73b6a7A"," "," ","1","0","[1880.2000000476837]","1","2","","","4230","39","2","3","lose","go","0"
"pit-trial","158","1132958","0.0-44.0","battery-v0.2","","""event"",""trial"",""time""
""fullscreenenter"",""1"",""1671""
","
","
","""event"",""trial"",""time""
""fullscreenenter"",""1"",""1671""
","
","","","568.3999998569489","","","20","4230","474","u","elianto","#f73b6a7A"," "," ","1","0","[1418.5]","1","2","","","4230","40","0","3","lose","go","0"
"pit-trial","159","1137811","0.0-45.0","battery-v0.2","","""event"",""trial"",""time""
""fullscreenenter"",""1"",""1671""
","
","
","""event"",""trial"",""time""
""fullscreenenter"",""1"",""1671""
","
","","","-1","","","20","4230","474","g","elianto","#f73b6a7A","-1","-1","1","0","[]","0","2","","","4230","41","3","4","lose","no-go","0"
"pit-trial","160","1141230","0.0-46.0","battery-v0.2","","""event"",""trial"",""time""
""fullscreenenter"",""1"",""1671""
","
","
","""event"",""trial"",""time""
""fullscreenenter"",""1"",""1671""
","
","","","564.3999998569489","","","20","4230","474","a","elianto","#f73b6a7A"," "," ","1","0","[1414.7000000476837]","1","2","","","4230","42","2","3","lose","go","0"
"pit-trial","161","1146088","0.0-47.0","battery-v0.2","","""event"",""trial"",""time""
""fullscreenenter"",""1"",""1671""
","
","
","""event"",""trial"",""time""
""fullscreenenter"",""1"",""1671""
","
","","","-1","","","20","4230","474","l","elianto","#3366ff99","-1","-1","1","+10","[]","0","2","","","4230","43","1","2","win","no-go","0"
"pit-trial","162","1149603","0.0-48.0","battery-v0.2","","""event"",""trial"",""time""
""fullscreenenter"",""1"",""1671""
","
","
","""event"",""trial"",""time""
""fullscreenenter"",""1"",""1671""
","
","","","658","","","20","4230","474","u","elianto","#f73b6a7A"," "," ","1","0","[1509.8000001907349]","1","2","","","4230","44","0","3","lose","go","0"
"pit-trial","163","1153006","0.0-49.0","battery-v0.2","","""event"",""trial"",""time""
""fullscreenenter"",""1"",""1671""
","
","
","""event"",""trial"",""time""
""fullscreenenter"",""1"",""1671""
","
","","","545.7000000476837","","","20","4230","474","a","elianto","#f73b6a7A"," "," ","1","0","[1395.9000000953674]","1","2","","","4230","45","2","3","lose","go","0"
"pit-trial","164","1157864","0.0-50.0","battery-v0.2","","""event"",""trial"",""time""
""fullscreenenter"",""1"",""1671""
","
","
","""event"",""trial"",""time""
""fullscreenenter"",""1"",""1671""
","
","","","-1","","","20","4230","474","g","elianto","#f73b6a7A","-1","-1","1","-10","[]","0","2","","","4230","46","3","4","lose","no-go","1"
"pit-trial","165","1161336","0.0-51.0","battery-v0.2","","""event"",""trial"",""time""
""fullscreenenter"",""1"",""1671""
","
","
","""event"",""trial"",""time""
""fullscreenenter"",""1"",""1671""
","
","","","614.9000000953674","","","20","4230","474","u","elianto","#f73b6a7A"," "," ","1","0","[1464.7999999523163]","1","2","","","4230","47","0","3","lose","go","0"
"pit-trial","166","1166194","0.0-52.0","battery-v0.2","","""event"",""trial"",""time""
""fullscreenenter"",""1"",""1671""
","
","
","""event"",""trial"",""time""
""fullscreenenter"",""1"",""1671""
","
","","","-1","","","20","4230","474","l","elianto","#3366ff99","-1","-1","1","+10","[]","0","2","","","4230","48","1","2","win","no-go","0"
"pit-trial","167","1171053","0.0-53.0","battery-v0.2","","""event"",""trial"",""time""
""fullscreenenter"",""1"",""1671""
","
","
","""event"",""trial"",""time""
""fullscreenenter"",""1"",""1671""
","
","","","-1","","","20","4230","474","g","elianto","#f73b6a7A","-1","-1","1","0","[]","0","2","","","4230","49","3","4","lose","no-go","0"
"pit-trial","168","1174610","0.0-54.0","battery-v0.2","","""event"",""trial"",""time""
""fullscreenenter"",""1"",""1671""
","
","
","""event"",""trial"",""time""
""fullscreenenter"",""1"",""1671""
","
","","","703.1999998092651","","","20","4230","474","u","elianto","#f73b6a7A"," "," ","1","0","[1554.3999998569489]","1","2","","","4230","50","0","3","lose","go","0"
"pit-trial","169","1179469","0.0-55.0","battery-v0.2","","""event"",""trial"",""time""
""fullscreenenter"",""1"",""1671""
","
","
","""event"",""trial"",""time""
""fullscreenenter"",""1"",""1671""
","
","","","-1","","","20","4230","474","l","elianto","#3366ff99","-1","-1","1","+10","[]","0","2","","","4230","51","1","2","win","no-go","0"
"pit-trial","170","1182893","0.0-56.0","battery-v0.2","","""event"",""trial"",""time""
""fullscreenenter"",""1"",""1671""
","
","
","""event"",""trial"",""time""
""fullscreenenter"",""1"",""1671""
","
","","","565.9000000953674","","","20","4230","474","a","elianto","#f73b6a7A"," "," ","1","0","[1416.8999998569489]","1","2","","","4230","52","2","3","lose","go","0"
"pit-trial","171","1187752","0.0-57.0","battery-v0.2","","""event"",""trial"",""time""
""fullscreenenter"",""1"",""1671""
","
","
","""event"",""trial"",""time""
""fullscreenenter"",""1"",""1671""
","
","","","-1","","","20","4230","474","g","elianto","#f73b6a7A","-1","-1","1","-10","[]","0","2","","","4230","53","3","4","lose","no-go","1"
"pit-trial","172","1191170","0.0-58.0","battery-v0.2","","""event"",""trial"",""time""
""fullscreenenter"",""1"",""1671""
","
","
","""event"",""trial"",""time""
""fullscreenenter"",""1"",""1671""
","
","","","561.5","","","20","4230","474","a","elianto","#f73b6a7A"," "," ","1","0","[1412.6000001430511]","1","2","","","4230","54","2","3","lose","go","0"
"pit-trial","173","1194615","0.0-59.0","battery-v0.2","","""event"",""trial"",""time""
""fullscreenenter"",""1"",""1671""
","
","
","""event"",""trial"",""time""
""fullscreenenter"",""1"",""1671""
","
","","","591.7000000476837","","","20","4230","474","u","elianto","#f73b6a7A"," "," ","1","0","[1442.6000001430511]","1","2","","","4230","55","0","3","lose","go","0"
"pit-trial","174","1199474","0.0-60.0","battery-v0.2","","""event"",""trial"",""time""
""fullscreenenter"",""1"",""1671""
","
","
","""event"",""trial"",""time""
""fullscreenenter"",""1"",""1671""
","
","","","-1","","","20","4230","474","l","elianto","#3366ff99","-1","-1","1","0","[]","0","2","","","4230","56","1","2","win","no-go","1"
"pit-trial","175","1202951","0.0-61.0","battery-v0.2","","""event"",""trial"",""time""
""fullscreenenter"",""1"",""1671""
","
","
","""event"",""trial"",""time""
""fullscreenenter"",""1"",""1671""
","
","","","620.7000000476837","","","20","4230","474","u","elianto","#f73b6a7A"," "," ","1","0","[1472.0999999046326]","1","2","","","4230","57","0","3","lose","go","0"
"pit-trial","176","1207804","0.0-62.0","battery-v0.2","","""event"",""trial"",""time""
""fullscreenenter"",""1"",""1671""
","
","
","""event"",""trial"",""time""
""fullscreenenter"",""1"",""1671""
","
","","","-1","","","20","4230","474","p","elianto","#3366ff99"," ","-1","0","0","[]","0","2","","","4230","58","4","1","win","go","0"
"pit-trial","177","1211412","0.0-63.0","battery-v0.2","","""event"",""trial"",""time""
""fullscreenenter"",""1"",""1671""
","
","
","""event"",""trial"",""time""
""fullscreenenter"",""1"",""1671""
","
","","","751.7999999523163","","","20","4230","474","a","elianto","#f73b6a7A"," "," ","1","0","[1602.6000001430511]","1","2","","","4230","59","2","3","lose","go","0"
"pit-trial","178","1216270","0.0-64.0","battery-v0.2","","""event"",""trial"",""time""
""fullscreenenter"",""1"",""1671""
","
","
","""event"",""trial"",""time""
""fullscreenenter"",""1"",""1671""
","
","","","-1","","","20","4230","474","g","elianto","#f73b6a7A","-1","-1","1","0","[]","0","2","","","4230","60","3","4","lose","no-go","0"
"pit-trial","179","1221127","0.0-65.0","battery-v0.2","","""event"",""trial"",""time""
""fullscreenenter"",""1"",""1671""
","
","
","""event"",""trial"",""time""
""fullscreenenter"",""1"",""1671""
","
","","","-1","","","20","4230","474","g","elianto","#f73b6a7A","-1","-1","1","0","[]","0","2","","","4230","61","3","4","lose","no-go","0"
"pit-trial","180","1224695","0.0-66.0","battery-v0.2","","""event"",""trial"",""time""
""fullscreenenter"",""1"",""1671""
","
","
","""event"",""trial"",""time""
""fullscreenenter"",""1"",""1671""
","
","","","710.2000000476837","","","20","4230","474","a","elianto","#f73b6a7A"," "," ","1","0","[1560.5]","1","2","","","4230","62","2","3","lose","go","0"
"pit-trial","181","1228199","0.0-67.0","battery-v0.2","","""event"",""trial"",""time""
""fullscreenenter"",""1"",""1671""
","
","
","""event"",""trial"",""time""
""fullscreenenter"",""1"",""1671""
","
","","","646.2000000476837","","","20","4230","474","p","elianto","#3366ff99"," "," ","1","+10","[1496.7000000476837]","1","2","","","4230","63","4","1","win","go","0"
"pit-trial","182","1233057","0.0-68.0","battery-v0.2","","""event"",""trial"",""time""
""fullscreenenter"",""1"",""1671""
","
","
","""event"",""trial"",""time""
""fullscreenenter"",""1"",""1671""
","
","","","-1","","","20","4230","474","l","elianto","#3366ff99","-1","-1","1","0","[]","0","2","","","4230","64","1","2","win","no-go","1"
"pit-trial","183","1237916","0.0-69.0","battery-v0.2","","""event"",""trial"",""time""
""fullscreenenter"",""1"",""1671""
","
","
","""event"",""trial"",""time""
""fullscreenenter"",""1"",""1671""
","
","","","-1","","","20","4230","474","s","elianto","#3366ff99","-1","-1","1","0","[]","0","2","","","4230","65","5","2","win","no-go","1"
"pit-trial","184","1241713","0.0-70.0","battery-v0.2","","""event"",""trial"",""time""
""fullscreenenter"",""1"",""1671""
","
","
","""event"",""trial"",""time""
""fullscreenenter"",""1"",""1671""
","
","","","942.0999999046326","","","20","4230","474","p","elianto","#3366ff99"," "," ","1","+10","[1792.7000000476837]","1","2","","","4230","66","4","1","win","go","0"
"pit-trial","185","1246572","0.0-71.0","battery-v0.2","","""event"",""trial"",""time""
""fullscreenenter"",""1"",""1671""
","
","
","""event"",""trial"",""time""
""fullscreenenter"",""1"",""1671""
","
","","","-1","","","20","4230","474","g","elianto","#f73b6a7A","-1","-1","1","0","[]","0","2","","","4230","67","3","4","lose","no-go","0"
"pit-trial","186","1251431","0.0-72.0","battery-v0.2","","""event"",""trial"",""time""
""fullscreenenter"",""1"",""1671""
","
","
","""event"",""trial"",""time""
""fullscreenenter"",""1"",""1671""
","
","","","-1","","","20","4230","474","l","elianto","#3366ff99","-1","-1","1","+10","[]","0","2","","","4230","68","1","2","win","no-go","0"
"pit-trial","187","1256289","0.0-73.0","battery-v0.2","","""event"",""trial"",""time""
""fullscreenenter"",""1"",""1671""
","
","
","""event"",""trial"",""time""
""fullscreenenter"",""1"",""1671""
","
","","","-1","","","20","4230","474","l","elianto","#3366ff99","-1","-1","1","0","[]","0","2","","","4230","69","1","2","win","no-go","1"
"pit-trial","188","1259851","0.0-74.0","battery-v0.2","","""event"",""trial"",""time""
""fullscreenenter"",""1"",""1671""
","
","
","""event"",""trial"",""time""
""fullscreenenter"",""1"",""1671""
","
","","","704.5","","","20","4230","474","s","elianto","#3366ff99","-1"," ","0","0","[1556.3999998569489]","1","2","","","4230","70","5","2","win","no-go","0"
"pit-trial","189","1263355","0.0-75.0","battery-v0.2","","""event"",""trial"",""time""
""fullscreenenter"",""1"",""1671""
","
","
","""event"",""trial"",""time""
""fullscreenenter"",""1"",""1671""
","
","","","649.5999999046326","","","20","4230","474","p","elianto","#3366ff99"," "," ","1","+10","[1501.2000000476837]","1","2","","","4230","71","4","1","win","go","0"
"pit-trial","190","1266886","0.0-76.0","battery-v0.2","","""event"",""trial"",""time""
""fullscreenenter"",""1"",""1671""
","
","
","""event"",""trial"",""time""
""fullscreenenter"",""1"",""1671""
","
","","","676.1000001430511","","","20","4230","474","a","elianto","#f73b6a7A"," "," ","1","0","[1526.3999998569489]","1","2","","","4230","72","2","3","lose","go","0"
"pit-trial","191","1271745","0.0-77.0","battery-v0.2","","""event"",""trial"",""time""
""fullscreenenter"",""1"",""1671""
","
","
","""event"",""trial"",""time""
""fullscreenenter"",""1"",""1671""
","
","","","-1","","","20","4230","474","l","elianto","#3366ff99","-1","-1","1","+10","[]","0","2","","","4230","73","1","2","win","no-go","0"
"pit-trial","192","1275547","0.0-78.0","battery-v0.2","","""event"",""trial"",""time""
""fullscreenenter"",""1"",""1671""
","
","
","""event"",""trial"",""time""
""fullscreenenter"",""1"",""1671""
","
","","","945","","","20","4230","474","s","elianto","#3366ff99","-1"," ","0","0","[1796.0999999046326]","1","2","","","4230","74","5","2","win","no-go","0"
"pit-trial","193","1280406","0.0-79.0","battery-v0.2","","""event"",""trial"",""time""
""fullscreenenter"",""1"",""1671""
","
","
","""event"",""trial"",""time""
""fullscreenenter"",""1"",""1671""
","
","","","-1","","","20","4230","474","g","elianto","#f73b6a7A","-1","-1","1","0","[]","0","2","","","4230","75","3","4","lose","no-go","0"
"pit-trial","194","1284320","0.0-80.0","battery-v0.2","","""event"",""trial"",""time""
""fullscreenenter"",""1"",""1671""
","
","
","""event"",""trial"",""time""
""fullscreenenter"",""1"",""1671""
","
","","","1055.7999999523163","","","20","4230","474","p","elianto","#3366ff99"," "," ","1","+10","[1906.8999998569489]","1","2","","","4230","76","4","1","win","go","0"
"pit-trial","195","1289179","0.0-81.0","battery-v0.2","","""event"",""trial"",""time""
""fullscreenenter"",""1"",""1671""
","
","
","""event"",""trial"",""time""
""fullscreenenter"",""1"",""1671""
","
","","","-1","","","20","4230","474","s","elianto","#3366ff99","-1","-1","1","+10","[]","0","2","","","4230","77","5","2","win","no-go","0"
"pit-trial","196","1294037","0.0-82.0","battery-v0.2","","""event"",""trial"",""time""
""fullscreenenter"",""1"",""1671""
","
","
","""event"",""trial"",""time""
""fullscreenenter"",""1"",""1671""
","
","","","-1","","","20","4230","474","g","elianto","#f73b6a7A","-1","-1","1","-10","[]","0","2","","","4230","78","3","4","lose","no-go","1"
"pit-trial","197","1297812","0.0-83.0","battery-v0.2","","""event"",""trial"",""time""
""fullscreenenter"",""1"",""1671""
","
","
","""event"",""trial"",""time""
""fullscreenenter"",""1"",""1671""
","
","","","918.1999998092651","","","20","4230","474","p","elianto","#3366ff99"," "," ","1","+10","[1768.7999999523163]","1","2","","","4230","79","4","1","win","go","0"
"pit-trial","198","1301355","0.0-84.0","battery-v0.2","","""event"",""trial"",""time""
""fullscreenenter"",""1"",""1671""
","
","
","""event"",""trial"",""time""
""fullscreenenter"",""1"",""1671""
","
","","","686.2999999523163","","","20","4230","474","p","elianto","#3366ff99"," "," ","1","+10","[1536.3999998569489]","1","2","","","4230","80","4","1","win","go","0"
"pit-trial","199","1304864","0.0-85.0","battery-v0.2","","""event"",""trial"",""time""
""fullscreenenter"",""1"",""1671""
","
","
","""event"",""trial"",""time""
""fullscreenenter"",""1"",""1671""
","
","","","653.8000001907349","","","20","4230","474","p","elianto","#3366ff99"," "," ","1","+10","[1504]","1","2","","","4230","81","4","1","win","go","0"
"pit-trial","200","1309717","0.0-86.0","battery-v0.2","","""event"",""trial"",""time""
""fullscreenenter"",""1"",""1671""
","
","
","""event"",""trial"",""time""
""fullscreenenter"",""1"",""1671""
","
","","","-1","","","20","4230","474","e","elianto","#f73b6a7A","-1","-1","1","0","[]","0","2","","","4230","82","7","4","lose","no-go","0"
"pit-trial","201","1314575","0.0-87.0","battery-v0.2","","""event"",""trial"",""time""
""fullscreenenter"",""1"",""1671""
","
","
","""event"",""trial"",""time""
""fullscreenenter"",""1"",""1671""
","
","","","-1","","","20","4230","474","s","elianto","#3366ff99","-1","-1","1","0","[]","0","2","","","4230","83","5","2","win","no-go","1"
"pit-trial","202","1319434","0.0-88.0","battery-v0.2","","""event"",""trial"",""time""
""fullscreenenter"",""1"",""1671""
","
","
","""event"",""trial"",""time""
""fullscreenenter"",""1"",""1671""
","
","","","-1","","","20","4230","474","g","elianto","#f73b6a7A","-1","-1","1","-10","[]","0","2","","","4230","84","3","4","lose","no-go","1"
"pit-trial","203","1324293","0.0-89.0","battery-v0.2","","""event"",""trial"",""time""
""fullscreenenter"",""1"",""1671""
","
","
","""event"",""trial"",""time""
""fullscreenenter"",""1"",""1671""
","
","","","-1","","","20","4230","474","s","elianto","#3366ff99","-1","-1","1","+10","[]","0","2","","","4230","85","5","2","win","no-go","0"
"pit-trial","204","1327860","0.0-90.0","battery-v0.2","","""event"",""trial"",""time""
""fullscreenenter"",""1"",""1671""
","
","
","""event"",""trial"",""time""
""fullscreenenter"",""1"",""1671""
","
","","","709.2000000476837","","","20","4230","474","p","elianto","#3366ff99"," "," ","1","0","[1559.8999998569489]","1","2","","","4230","86","4","1","win","go","1"
"pit-trial","205","1332719","0.0-91.0","battery-v0.2","","""event"",""trial"",""time""
""fullscreenenter"",""1"",""1671""
","
","
","""event"",""trial"",""time""
""fullscreenenter"",""1"",""1671""
","
","","","-1","","","20","4230","474","w","elianto","#f73b6a7A"," ","-1","0","-10","[]","0","2","","","4230","87","6","3","lose","go","0"
"pit-trial","206","1337578","0.0-92.0","battery-v0.2","","""event"",""trial"",""time""
""fullscreenenter"",""1"",""1671""
","
","
","""event"",""trial"",""time""
""fullscreenenter"",""1"",""1671""
","
","","","-1","","","20","4230","474","e","elianto","#f73b6a7A","-1","-1","1","0","[]","0","2","","","4230","88","7","4","lose","no-go","0"
"pit-trial","207","1341065","0.0-93.0","battery-v0.2","","""event"",""trial"",""time""
""fullscreenenter"",""1"",""1671""
","
","
","""event"",""trial"",""time""
""fullscreenenter"",""1"",""1671""
","
","","","631.0999999046326","","","20","4230","474","p","elianto","#3366ff99"," "," ","1","+10","[1482.0999999046326]","1","2","","","4230","89","4","1","win","go","0"
"pit-trial","208","1345921","0.0-94.0","battery-v0.2","","""event"",""trial"",""time""
""fullscreenenter"",""1"",""1671""
","
","
","""event"",""trial"",""time""
""fullscreenenter"",""1"",""1671""
","
","","","-1","","","20","4230","474","e","elianto","#f73b6a7A","-1","-1","1","-10","[]","0","2","","","4230","90","7","4","lose","no-go","1"
"pit-trial","209","1350778","0.0-95.0","battery-v0.2","","""event"",""trial"",""time""
""fullscreenenter"",""1"",""1671""
","
","
","""event"",""trial"",""time""
""fullscreenenter"",""1"",""1671""
","
","","","-1","","","20","4230","474","s","elianto","#3366ff99","-1","-1","1","+10","[]","0","2","","","4230","91","5","2","win","no-go","0"
"pit-trial","210","1354361","0.0-96.0","battery-v0.2","","""event"",""trial"",""time""
""fullscreenenter"",""1"",""1671""
","
","
","""event"",""trial"",""time""
""fullscreenenter"",""1"",""1671""
","
","","","729.6000001430511","","","20","4230","474","w","elianto","#f73b6a7A"," "," ","1","0","[1580.2000000476837]","1","2","","","4230","92","6","3","lose","go","0"
"pit-trial","211","1359220","0.0-97.0","battery-v0.2","","""event"",""trial"",""time""
""fullscreenenter"",""1"",""1671""
","
","
","""event"",""trial"",""time""
""fullscreenenter"",""1"",""1671""
","
","","","-1","","","20","4230","474","e","elianto","#f73b6a7A","-1","-1","1","-10","[]","0","2","","","4230","93","7","4","lose","no-go","1"
"pit-trial","212","1364075","0.0-98.0","battery-v0.2","","""event"",""trial"",""time""
""fullscreenenter"",""1"",""1671""
","
","
","""event"",""trial"",""time""
""fullscreenenter"",""1"",""1671""
","
","","","-1","","","20","4230","474","d","elianto","#3366ff99"," ","-1","0","0","[]","0","2","","","4230","94","8","1","win","go","0"
"pit-trial","213","1367615","0.0-99.0","battery-v0.2","","""event"",""trial"",""time""
""fullscreenenter"",""1"",""1671""
","
","
","""event"",""trial"",""time""
""fullscreenenter"",""1"",""1671""
","
","","","684.7000000476837","","","20","4230","474","w","elianto","#f73b6a7A"," "," ","1","0","[1534.7000000476837]","1","2","","","4230","95","6","3","lose","go","0"
"pit-trial","214","1372471","0.0-100.0","battery-v0.2","","""event"",""trial"",""time""
""fullscreenenter"",""1"",""1671""
","
","
","""event"",""trial"",""time""
""fullscreenenter"",""1"",""1671""
","
","","","-1","","","20","4230","474","s","elianto","#3366ff99","-1","-1","1","+10","[]","0","2","","","4230","96","5","2","win","no-go","0"
"pit-trial","215","1376041","0.0-101.0","battery-v0.2","","""event"",""trial"",""time""
""fullscreenenter"",""1"",""1671""
","
","
","""event"",""trial"",""time""
""fullscreenenter"",""1"",""1671""
","
","","","714.5999999046326","","","20","4230","474","d","elianto","#3366ff99"," "," ","1","+10","[1565.2000000476837]","1","2","","","4230","97","8","1","win","go","0"
"pit-trial","216","1379396","0.0-102.0","battery-v0.2","","""event"",""trial"",""time""
""fullscreenenter"",""1"",""1671""
","
","
","""event"",""trial"",""time""
""fullscreenenter"",""1"",""1671""
","
","","","495.90000009536743","","","20","4230","474","e","elianto","#f73b6a7A","-1"," ","0","-10","[1346.7000000476837]","1","2","","","4230","98","7","4","lose","no-go","0"
"pit-trial","217","1382947","0.0-103.0","battery-v0.2","","""event"",""trial"",""time""
""fullscreenenter"",""1"",""1671""
","
","
","""event"",""trial"",""time""
""fullscreenenter"",""1"",""1671""
","
","","","693.8999998569489","","","20","4230","474","w","elianto","#f73b6a7A"," "," ","1","-10","[1544.7999999523163]","1","2","","","4230","99","6","3","lose","go","1"
"pit-trial","218","1387806","0.0-104.0","battery-v0.2","","""event"",""trial"",""time""
""fullscreenenter"",""1"",""1671""
","
","
","""event"",""trial"",""time""
""fullscreenenter"",""1"",""1671""
","
","","","-1","","","20","4230","474","s","elianto","#3366ff99","-1","-1","1","+10","[]","0","2","","","4230","100","5","2","win","no-go","0"
"pit-trial","219","1391406","0.0-105.0","battery-v0.2","","""event"",""trial"",""time""
""fullscreenenter"",""1"",""1671""
","
","
","""event"",""trial"",""time""
""fullscreenenter"",""1"",""1671""
","
","","","743.7999999523163","","","20","4230","474","d","elianto","#3366ff99"," "," ","1","+10","[1594.5]","1","2","","","4230","101","8","1","win","go","0"
"pit-trial","220","1395939","0.0-106.0","battery-v0.2","","""event"",""trial"",""time""
""fullscreenenter"",""1"",""1671""
","
","
","""event"",""trial"",""time""
""fullscreenenter"",""1"",""1671""
","
","","","1677.5","","","20","4230","474","e","elianto","#f73b6a7A","-1"," ","0","-10","[2527.600000143051]","1","2","","","4230","102","7","4","lose","no-go","0"
"pit-trial","221","1400793","0.0-107.0","battery-v0.2","","""event"",""trial"",""time""
""fullscreenenter"",""1"",""1671""
","
","
","""event"",""trial"",""time""
""fullscreenenter"",""1"",""1671""
","
","","","-1","","","20","4230","474","j","elianto","#3366ff99"," ","-1","0","0","[]","0","2","","","4230","103","9","1","win","go","0"
"pit-trial","222","1405651","0.0-108.0","battery-v0.2","","""event"",""trial"",""time""
""fullscreenenter"",""1"",""1671""
","
","
","""event"",""trial"",""time""
""fullscreenenter"",""1"",""1671""
","
","","","-1","","","20","4230","474","s","elianto","#3366ff99","-1","-1","1","+10","[]","0","2","","","4230","104","5","2","win","no-go","0"
"pit-trial","223","1409250","0.0-109.0","battery-v0.2","","""event"",""trial"",""time""
""fullscreenenter"",""1"",""1671""
","
","
","""event"",""trial"",""time""
""fullscreenenter"",""1"",""1671""
","
","","","739.7999999523163","","","20","4230","474","w","elianto","#f73b6a7A"," "," ","1","-10","[1591.0999999046326]","1","2","","","4230","105","6","3","lose","go","1"
"pit-trial","224","1412995","0.0-110.0","battery-v0.2","","""event"",""trial"",""time""
""fullscreenenter"",""1"",""1671""
","
","
","""event"",""trial"",""time""
""fullscreenenter"",""1"",""1671""
","
","","","891.7999999523163","","","20","4230","474","d","elianto","#3366ff99"," "," ","1","+10","[1741.7999999523163]","1","2","","","4230","106","8","1","win","go","0"
"pit-trial","225","1416696","0.0-111.0","battery-v0.2","","""event"",""trial"",""time""
""fullscreenenter"",""1"",""1671""
","
","
","""event"",""trial"",""time""
""fullscreenenter"",""1"",""1671""
","
","","","840.0999999046326","","","20","4230","474","p","elianto","#3366ff99"," "," ","1","0","[1692.2999999523163]","1","2","","","4230","107","4","1","win","go","1"
"pit-trial","226","1420420","0.0-112.0","battery-v0.2","","""event"",""trial"",""time""
""fullscreenenter"",""1"",""1671""
","
","
","""event"",""trial"",""time""
""fullscreenenter"",""1"",""1671""
","
","","","869","","","20","4230","474","j","elianto","#3366ff99"," "," ","1","0","[1720.0999999046326]","1","2","","","4230","108","9","1","win","go","1"
"pit-trial","227","1424040","0.0-113.0","battery-v0.2","","""event"",""trial"",""time""
""fullscreenenter"",""1"",""1671""
","
","
","""event"",""trial"",""time""
""fullscreenenter"",""1"",""1671""
","
","","","766.9000000953674","","","20","4230","474","d","elianto","#3366ff99"," "," ","1","+10","[1617.0999999046326]","1","2","","","4230","109","8","1","win","go","0"
"pit-trial","228","1428895","0.0-114.0","battery-v0.2","","""event"",""trial"",""time""
""fullscreenenter"",""1"",""1671""
","
","
","""event"",""trial"",""time""
""fullscreenenter"",""1"",""1671""
","
","","","-1","","","20","4230","474","w","elianto","#f73b6a7A"," ","-1","0","0","[]","0","2","","","4230","110","6","3","lose","go","1"
"pit-trial","229","1433752","0.0-115.0","battery-v0.2","","""event"",""trial"",""time""
""fullscreenenter"",""1"",""1671""
","
","
","""event"",""trial"",""time""
""fullscreenenter"",""1"",""1671""
","
","","","-1","","","20","4230","474","s","elianto","#3366ff99","-1","-1","1","+10","[]","0","2","","","4230","111","5","2","win","no-go","0"
"pit-trial","230","1437368","0.0-116.0","battery-v0.2","","""event"",""trial"",""time""
""fullscreenenter"",""1"",""1671""
","
","
","""event"",""trial"",""time""
""fullscreenenter"",""1"",""1671""
","
","","","761.0999999046326","","","20","4230","474","j","elianto","#3366ff99"," "," ","1","+10","[1611.3999998569489]","1","2","","","4230","112","9","1","win","go","0"
"pit-trial","231","1442226","0.0-117.0","battery-v0.2","","""event"",""trial"",""time""
""fullscreenenter"",""1"",""1671""
","
","
","""event"",""trial"",""time""
""fullscreenenter"",""1"",""1671""
","
","","","-1","","","20","4230","474","w","elianto","#f73b6a7A"," ","-1","0","-10","[]","0","2","","","4230","113","6","3","lose","go","0"
"pit-trial","232","1447080","0.0-118.0","battery-v0.2","","""event"",""trial"",""time""
""fullscreenenter"",""1"",""1671""
","
","
","""event"",""trial"",""time""
""fullscreenenter"",""1"",""1671""
","
","","","-1","","","20","4230","474","s","elianto","#3366ff99","-1","-1","1","0","[]","0","2","","","4230","114","5","2","win","no-go","1"
"pit-trial","233","1450568","0.0-119.0","battery-v0.2","","""event"",""trial"",""time""
""fullscreenenter"",""1"",""1671""
","
","
","""event"",""trial"",""time""
""fullscreenenter"",""1"",""1671""
","
","","","629.5","","","20","4230","474","d","elianto","#3366ff99"," "," ","1","+10","[1480]","1","2","","","4230","115","8","1","win","go","0"
"pit-trial","234","1454156","0.0-120.0","battery-v0.2","","""event"",""trial"",""time""
""fullscreenenter"",""1"",""1671""
","
","
","""event"",""trial"",""time""
""fullscreenenter"",""1"",""1671""
","
","","","733.8999998569489","","","20","4230","474","j","elianto","#3366ff99"," "," ","1","0","[1584.0999999046326]","1","2","","","4230","116","9","1","win","go","1"
"pit-trial","235","1459015","0.0-121.0","battery-v0.2","","""event"",""trial"",""time""
""fullscreenenter"",""1"",""1671""
","
","
","""event"",""trial"",""time""
""fullscreenenter"",""1"",""1671""
","
","","","-1","","","20","4230","474","w","elianto","#f73b6a7A"," ","-1","0","0","[]","0","2","","","4230","117","6","3","lose","go","1"
"pit-trial","236","1462855","0.0-122.0","battery-v0.2","","""event"",""trial"",""time""
""fullscreenenter"",""1"",""1671""
","
","
","""event"",""trial"",""time""
""fullscreenenter"",""1"",""1671""
","
","","","984.0999999046326","","","20","4230","474","d","elianto","#3366ff99"," "," ","1","+10","[1835.0999999046326]","1","2","","","4230","118","8","1","win","go","0"
"pit-trial","237","1467714","0.0-123.0","battery-v0.2","","""event"",""trial"",""time""
""fullscreenenter"",""1"",""1671""
","
","
","""event"",""trial"",""time""
""fullscreenenter"",""1"",""1671""
","
","","","-1","","","20","4230","474","s","elianto","#3366ff99","-1","-1","1","+10","[]","0","2","","","4230","119","5","2","win","no-go","0"
"pit-trial","238","1471388","0.0-124.0","battery-v0.2","","""event"",""trial"",""time""
""fullscreenenter"",""1"",""1671""
","
","
","""event"",""trial"",""time""
""fullscreenenter"",""1"",""1671""
","
","","","820.6000001430511","","","20","4230","474","j","elianto","#3366ff99"," "," ","1","0","[1671]","1","2","","","4230","120","9","1","win","go","1"
"pit-trial","239","1474947","0.0-125.0","battery-v0.2","","""event"",""trial"",""time""
""fullscreenenter"",""1"",""1671""
","
","
","""event"",""trial"",""time""
""fullscreenenter"",""1"",""1671""
","
","","","701.5","","","20","4230","474","d","elianto","#3366ff99"," "," ","1","+10","[1551.4000000953674]","1","2","","","4230","121","8","1","win","go","0"
"pit-trial","240","1479810","0.0-126.0","battery-v0.2","","""event"",""trial"",""time""
""fullscreenenter"",""1"",""1671""
","
","
","""event"",""trial"",""time""
""fullscreenenter"",""1"",""1671""
","
","","","-1","","","20","4230","474","w","elianto","#f73b6a7A"," ","-1","0","-10","[]","0","2","","","4230","122","6","3","lose","go","0"
"pit-trial","241","1484668","0.0-127.0","battery-v0.2","","""event"",""trial"",""time""
""fullscreenenter"",""1"",""1671""
","
","
","""event"",""trial"",""time""
""fullscreenenter"",""1"",""1671""
","
","","","-1","","","20","4230","474","j","elianto","#3366ff99"," ","-1","0","+10","[]","0","2","","","4230","123","9","1","win","go","1"
"pit-trial","242","1488716","0.0-128.0","battery-v0.2","","""event"",""trial"",""time""
""fullscreenenter"",""1"",""1671""
","
","
","""event"",""trial"",""time""
""fullscreenenter"",""1"",""1671""
","
","","","1194.1000001430511","","","20","4230","474","e","elianto","#f73b6a7A","-1"," ","0","0","[2044.6000001430511]","1","2","","","4230","124","7","4","lose","no-go","1"
"pit-trial","243","1493249","0.0-129.0","battery-v0.2","","""event"",""trial"",""time""
""fullscreenenter"",""1"",""1671""
","
","
","""event"",""trial"",""time""
""fullscreenenter"",""1"",""1671""
","
","","","1678.3999998569489","","","20","4230","474","w","elianto","#f73b6a7A"," "," ","1","0","[2528.699999809265]","1","2","","","4230","125","6","3","lose","go","0"
"pit-trial","244","1498108","0.0-130.0","battery-v0.2","","""event"",""trial"",""time""
""fullscreenenter"",""1"",""1671""
","
","
","""event"",""trial"",""time""
""fullscreenenter"",""1"",""1671""
","
","","","-1","","","20","4230","474","j","elianto","#3366ff99"," ","-1","0","0","[]","0","2","","","4230","126","9","1","win","go","0"
"pit-trial","245","1502422","0.0-131.0","battery-v0.2","","""event"",""trial"",""time""
""fullscreenenter"",""1"",""1671""
","
","
","""event"",""trial"",""time""
""fullscreenenter"",""1"",""1671""
","
","","","1458.5","","","20","4230","474","e","elianto","#f73b6a7A","-1"," ","0","-10","[2309.2000000476837]","1","2","","","4230","127","7","4","lose","no-go","0"
"pit-trial","246","1505985","0.0-132.0","battery-v0.2","","""event"",""trial"",""time""
""fullscreenenter"",""1"",""1671""
","
","
","""event"",""trial"",""time""
""fullscreenenter"",""1"",""1671""
","
","","","706.1999998092651","","","20","4230","474","d","elianto","#3366ff99"," "," ","1","+10","[1556.3999998569489]","1","2","","","4230","128","8","1","win","go","0"
"pit-trial","247","1509575","0.0-133.0","battery-v0.2","","""event"",""trial"",""time""
""fullscreenenter"",""1"",""1671""
","
","
","""event"",""trial"",""time""
""fullscreenenter"",""1"",""1671""
","
","","","735.2000000476837","","","20","4230","474","e","elianto","#f73b6a7A","-1"," ","0","-10","[1586]","1","2","","","4230","129","7","4","lose","no-go","0"
"pit-trial","248","1514438","0.0-134.0","battery-v0.2","","""event"",""trial"",""time""
""fullscreenenter"",""1"",""1671""
","
","
","""event"",""trial"",""time""
""fullscreenenter"",""1"",""1671""
","
","","","-1","","","20","4230","474","j","elianto","#3366ff99"," ","-1","0","0","[]","0","2","","","4230","130","9","1","win","go","0"
"pit-trial","249","1517889","0.0-135.0","battery-v0.2","","""event"",""trial"",""time""
""fullscreenenter"",""1"",""1671""
","
","
","""event"",""trial"",""time""
""fullscreenenter"",""1"",""1671""
","
","","","592.9000000953674","","","20","4230","474","d","elianto","#3366ff99"," "," ","1","+10","[1443.7999999523163]","1","2","","","4230","131","8","1","win","go","0"
"pit-trial","250","1521894","0.0-136.0","battery-v0.2","","""event"",""trial"",""time""
""fullscreenenter"",""1"",""1671""
","
","
","""event"",""trial"",""time""
""fullscreenenter"",""1"",""1671""
","
","","","1150.6000001430511","","","20","4230","474","w","elianto","#f73b6a7A"," "," ","1","0","[2002.4000000953674]","1","2","","","4230","132","6","3","lose","go","0"
"pit-trial","251","1525585","0.0-137.0","battery-v0.2","","""event"",""trial"",""time""
""fullscreenenter"",""1"",""1671""
","
","
","""event"",""trial"",""time""
""fullscreenenter"",""1"",""1671""
","
","","","836.5999999046326","","","20","4230","474","w","elianto","#f73b6a7A"," "," ","1","0","[1687.7000000476837]","1","2","","","4230","133","6","3","lose","go","0"
"pit-trial","252","1529157","0.0-138.0","battery-v0.2","","""event"",""trial"",""time""
""fullscreenenter"",""1"",""1671""
","
","
","""event"",""trial"",""time""
""fullscreenenter"",""1"",""1671""
","
","","","715.9000000953674","","","20","4230","474","e","elianto","#f73b6a7A","-1"," ","0","-10","[1566.8000001907349]","1","2","","","4230","134","7","4","lose","no-go","0"
"pit-trial","253","1532784","0.0-139.0","battery-v0.2","","""event"",""trial"",""time""
""fullscreenenter"",""1"",""1671""
","
","
","""event"",""trial"",""time""
""fullscreenenter"",""1"",""1671""
","
","","","772.5","","","20","4230","474","j","elianto","#3366ff99"," "," ","1","+10","[1623.5999999046326]","1","2","","","4230","135","9","1","win","go","0"
"pit-trial","254","1536208","0.0-140.0","battery-v0.2","","""event"",""trial"",""time""
""fullscreenenter"",""1"",""1671""
","
","
","""event"",""trial"",""time""
""fullscreenenter"",""1"",""1671""
","
","","","568.2000000476837","","","20","4230","474","d","elianto","#3366ff99"," "," ","1","+10","[1419.0999999046326]","1","2","","","4230","136","8","1","win","go","0"
"pit-trial","255","1539739","0.0-141.0","battery-v0.2","","""event"",""trial"",""time""
""fullscreenenter"",""1"",""1671""
","
","
","""event"",""trial"",""time""
""fullscreenenter"",""1"",""1671""
","
","","","675.1000001430511","","","20","4230","474","w","elianto","#f73b6a7A"," "," ","1","0","[1527.3999998569489]","1","2","","","4230","137","6","3","lose","go","0"
"pit-trial","256","1543147","0.0-142.0","battery-v0.2","","""event"",""trial"",""time""
""fullscreenenter"",""1"",""1671""
","
","
","""event"",""trial"",""time""
""fullscreenenter"",""1"",""1671""
","
","","","553.7000000476837","","","20","4230","474","e","elianto","#f73b6a7A","-1"," ","0","0","[1403.8999998569489]","1","2","","","4230","138","7","4","lose","no-go","1"
"pit-trial","257","1546613","0.0-143.0","battery-v0.2","","""event"",""trial"",""time""
""fullscreenenter"",""1"",""1671""
","
","
","""event"",""trial"",""time""
""fullscreenenter"",""1"",""1671""
","
","","","609.8999998569489","","","20","4230","474","d","elianto","#3366ff99"," "," ","1","+10","[1460]","1","2","","","4230","139","8","1","win","go","0"
"pit-trial","258","1550342","0.0-144.0","battery-v0.2","","""event"",""trial"",""time""
""fullscreenenter"",""1"",""1671""
","
","
","""event"",""trial"",""time""
""fullscreenenter"",""1"",""1671""
","
","","","872.2999999523163","","","20","4230","474","j","elianto","#3366ff99"," "," ","1","+10","[1723.1999998092651]","1","2","","","4230","140","9","1","win","go","0"
"pit-instructions","259","1748327","0.0-145.0","battery-v0.2","","""event"",""trial"",""time""
""fullscreenenter"",""1"",""1671""
","
","
","""event"",""trial"",""time""
""fullscreenenter"",""1"",""1671""
","
","","[{""page_index"":0,""viewing_time"":173090.29999995232},{""page_index"":1,""viewing_time"":24894.10000014305}]","197984.90000009537","","","","","","","","","","","","","","","","","","","","","","","",""
"pit-trial","260","1753193","0.0-146.0","battery-v0.2","","""event"",""trial"",""time""
""fullscreenenter"",""1"",""1671""
","
","
","""event"",""trial"",""time""
""fullscreenenter"",""1"",""1671""
","
","","","-1","","","20","4230","474","f","elianto","#3366ff99"," ","-1","0","0","[]","0","3","","","4230","141","1","1","win","go","0"
"pit-trial","261","1758051","0.0-147.0","battery-v0.2","","""event"",""trial"",""time""
""fullscreenenter"",""1"",""1671""
","
","
","""event"",""trial"",""time""
""fullscreenenter"",""1"",""1671""
","
","","","-1","","","20","4230","474","n","elianto","#f73b6a7A","-1","-1","1","0","[]","0","3","","","4230","142","0","4","lose","no-go","0"
"pit-trial","262","1762910","0.0-148.0","battery-v0.2","","""event"",""trial"",""time""
""fullscreenenter"",""1"",""1671""
","
","
","""event"",""trial"",""time""
""fullscreenenter"",""1"",""1671""
","
","","","-1","","","20","4230","474","b","elianto","#f73b6a7A"," ","-1","0","-10","[]","0","3","","","4230","143","3","3","lose","go","0"
"pit-trial","263","1767769","0.0-149.0","battery-v0.2","","""event"",""trial"",""time""
""fullscreenenter"",""1"",""1671""
","
","
","""event"",""trial"",""time""
""fullscreenenter"",""1"",""1671""
","
","","","-1","","","20","4230","474","t","elianto","#f73b6a7A","-1","-1","1","0","[]","0","3","","","4230","144","2","4","lose","no-go","0"
"pit-trial","264","1772627","0.0-150.0","battery-v0.2","","""event"",""trial"",""time""
""fullscreenenter"",""1"",""1671""
","
","
","""event"",""trial"",""time""
""fullscreenenter"",""1"",""1671""
","
","","","-1","","","20","4230","474","n","elianto","#f73b6a7A","-1","-1","1","-10","[]","0","3","","","4230","145","0","4","lose","no-go","1"
"pit-trial","265","1776269","0.0-151.0","battery-v0.2","","""event"",""trial"",""time""
""fullscreenenter"",""1"",""1671""
","
","
","""event"",""trial"",""time""
""fullscreenenter"",""1"",""1671""
","
","","","786.8999998569489","","","20","4230","474","b","elianto","#f73b6a7A"," "," ","1","0","[1637.3999998569489]","1","3","","","4230","146","3","3","lose","go","0"
"pit-trial","266","1779854","0.0-152.0","battery-v0.2","","""event"",""trial"",""time""
""fullscreenenter"",""1"",""1671""
","
","
","""event"",""trial"",""time""
""fullscreenenter"",""1"",""1671""
","
","","","726.7999999523163","","","20","4230","474","f","elianto","#3366ff99"," "," ","1","+10","[1577.4000000953674]","1","3","","","4230","147","1","1","win","go","0"
"pit-trial","267","1784712","0.0-153.0","battery-v0.2","","""event"",""trial"",""time""
""fullscreenenter"",""1"",""1671""
","
","
","""event"",""trial"",""time""
""fullscreenenter"",""1"",""1671""
","
","","","-1","","","20","4230","474","t","elianto","#f73b6a7A","-1","-1","1","0","[]","0","3","","","4230","148","2","4","lose","no-go","0"
"pit-trial","268","1788281","0.0-154.0","battery-v0.2","","""event"",""trial"",""time""
""fullscreenenter"",""1"",""1671""
","
","
","""event"",""trial"",""time""
""fullscreenenter"",""1"",""1671""
","
","","","710.5","","","20","4230","474","f","elianto","#3366ff99"," "," ","1","+10","[1562.1000001430511]","1","3","","","4230","149","1","1","win","go","0"
"pit-trial","269","1792184","0.0-155.0","battery-v0.2","","""event"",""trial"",""time""
""fullscreenenter"",""1"",""1671""
","
","
","""event"",""trial"",""time""
""fullscreenenter"",""1"",""1671""
","
