"trial_type","trial_index","time_elapsed","internal_node_id","task_version","subject_id","interactions","blur_events","focus_events","fullscreenenter_events","fullscreenexit_events","success","view_history","rt","responses","num_errors","age","subject","participantId","rune","rune_set","hex","correct","choice","accuracy","outcome","keys","total_keys","block","practice","value","sub","trial","stimulus","robot","valence","action","sham"
"pavlovia","0","12","0.0-0.0","battery-v0.2","","""event"",""trial"",""time""
""fullscreenenter"",""1"",""5020""
","
","
","""event"",""trial"",""time""
""fullscreenenter"",""1"",""5020""
","
","","","","","","","","","","","","","","","","","","","","","","","","","","",""
"fullscreen","1","5994","0.0-1.0","battery-v0.2","","""event"",""trial"",""time""
""fullscreenenter"",""1"",""5020""
","
","
","""event"",""trial"",""time""
""fullscreenenter"",""1"",""5020""
","
","true","","","","","","","","","","","","","","","","","","","","","","","","","",""
"pit-instructions","2","9688","0.0-2.0-0.0","battery-v0.2","","""event"",""trial"",""time""
""fullscreenenter"",""1"",""5020""
","
","
","""event"",""trial"",""time""
""fullscreenenter"",""1"",""5020""
","
","","[{""page_index"":0,""viewing_time"":3687.100000000006}]","3688","","","","","","","","","","","","","","","","","","","","","","","",""
"pit-comprehension","3","12785","0.0-2.0-1.0-0.0","battery-v0.2","","""event"",""trial"",""time""
""fullscreenenter"",""1"",""5020""
","
","
","""event"",""trial"",""time""
""fullscreenenter"",""1"",""5020""
","
","","","3073.4000000000233","[""shark""]","0","18","3016","2771","","","","","","","","","","","","","","","","","","",""
"pit-instructions","4","13945","0.0-2.0-1.0-1.0","battery-v0.2","","""event"",""trial"",""time""
""fullscreenenter"",""1"",""5020""
","
","
","""event"",""trial"",""time""
""fullscreenenter"",""1"",""5020""
","
","","[{""page_index"":0,""viewing_time"":1141.4000000000233}]","1141.8000000000175","","","","","","","","","","","","","","","","","","","","","","","",""
"pit-comprehension","5","19190","0.0-2.0-2.0-0.0","battery-v0.2","","""event"",""trial"",""time""
""fullscreenenter"",""1"",""5020""
","
","
","""event"",""trial"",""time""
""fullscreenenter"",""1"",""5020""
","
","","","5229.5","[""tiger""]","0","18","3016","2771","","","","","","","","","","","","","","","","","","",""
"pit-instructions","6","20714","0.0-2.0-2.0-1.0","battery-v0.2","","""event"",""trial"",""time""
""fullscreenenter"",""1"",""5020""
","
","
","""event"",""trial"",""time""
""fullscreenenter"",""1"",""5020""
","
","","[{""page_index"":0,""viewing_time"":1500.6000000000058}]","1501.2000000000116","","","","","","","","","","","","","","","","","","","","","","","",""
"pit-instructions","7","122813","0.0-2.0-3.0","battery-v0.2","","""event"",""trial"",""time""
""fullscreenenter"",""1"",""5020""
","
","
","""event"",""trial"",""time""
""fullscreenenter"",""1"",""5020""
","
","","[{""page_index"":0,""viewing_time"":9845.300000000017},{""page_index"":1,""viewing_time"":6350},{""page_index"":2,""viewing_time"":6354.1999999999825},{""page_index"":3,""viewing_time"":5518.600000000006},{""page_index"":4,""viewing_time"":8602.700000000012},{""page_index"":5,""viewing_time"":6191},{""page_index"":6,""viewing_time"":7622.5},{""page_index"":7,""viewing_time"":6397.899999999994},{""page_index"":8,""viewing_time"":6980.799999999988},{""page_index"":9,""viewing_time"":9098.900000000023},{""page_index"":10,""viewing_time"":10832.199999999983},{""page_index"":11,""viewing_time"":6033.3000000000175},{""page_index"":12,""viewing_time"":6130.5},{""page_index"":13,""viewing_time"":6122.099999999977}]","102080.80000000002","","","","","","","","","","","","","","","","","","","","","","","",""
"pit-trial","8","126495","0.0-2.0-4.0-0.0","battery-v0.2","","""event"",""trial"",""time""
""fullscreenenter"",""1"",""5020""
","
","
","""event"",""trial"",""time""
""fullscreenenter"",""1"",""5020""
","
","","","807.7000000000116","","","18","3016","2771","&#9784;","elianto","#FFFFF080"," "," ","1","&#10004","[1660.9000000000233]","1","0","0","","","","","","","",""
"pit-trial","9","130168","0.0-2.0-4.1-0.1","battery-v0.2","","""event"",""trial"",""time""
""fullscreenenter"",""1"",""5020""
","
","
","""event"",""trial"",""time""
""fullscreenenter"",""1"",""5020""
","
","","","783.8999999999942","","","18","3016","2771","&#9784;","elianto","#FFFFF080"," "," ","1","&#10004","[1644.3999999999942]","1","0","0","","","","","","","",""
"pit-trial","10","133706","0.0-2.0-4.2-0.2","battery-v0.2","","""event"",""trial"",""time""
""fullscreenenter"",""1"",""5020""
","
","
","""event"",""trial"",""time""
""fullscreenenter"",""1"",""5020""
","
","","","669.5","","","18","3016","2771","&#9784;","elianto","#FFFFF080"," "," ","1","&#10004","[1521.4000000000233]","1","0","0","","","","","","","",""
"pit-trial","11","137144","0.0-2.0-4.3-0.3","battery-v0.2","","""event"",""trial"",""time""
""fullscreenenter"",""1"",""5020""
","
","
","""event"",""trial"",""time""
""fullscreenenter"",""1"",""5020""
","
","","","575","","","18","3016","2771","&#9784;","elianto","#FFFFF080"," "," ","1","&#10004","[1426.8000000000466]","1","0","0","","","","","","","",""
"pit-trial","12","140859","0.0-2.0-4.4-0.4","battery-v0.2","","""event"",""trial"",""time""
""fullscreenenter"",""1"",""5020""
","
","
","""event"",""trial"",""time""
""fullscreenenter"",""1"",""5020""
","
","","","833.5","","","18","3016","2771","&#9784;","elianto","#FFFFF080"," "," ","1","&#10004","[1692.5999999999767]","1","0","0","","","","","","","",""
"pit-instructions","13","162348","0.0-2.0-5.0","battery-v0.2","","""event"",""trial"",""time""
""fullscreenenter"",""1"",""5020""
","
","
","""event"",""trial"",""time""
""fullscreenenter"",""1"",""5020""
","
","","[{""page_index"":0,""viewing_time"":5427.400000000023},{""page_index"":1,""viewing_time"":6152.199999999953},{""page_index"":2,""viewing_time"":4805.100000000035},{""page_index"":3,""viewing_time"":5085}]","21470.20000000001","","","","","","","","","","","","","","","","","","","","","","","",""
"pit-trial","14","167235","0.0-2.0-6.0-0.0","battery-v0.2","","""event"",""trial"",""time""
""fullscreenenter"",""1"",""5020""
","
","
","""event"",""trial"",""time""
""fullscreenenter"",""1"",""5020""
","
","","","-1","","","18","3016","2771","&#9854;","elianto","#FFFFF080","-1","-1","1","&#10004","[]","0","0","1","","","","","","","",""
"pit-trial","15","172123","0.0-2.0-6.1-0.1","battery-v0.2","","""event"",""trial"",""time""
""fullscreenenter"",""1"",""5020""
","
","
","""event"",""trial"",""time""
""fullscreenenter"",""1"",""5020""
","
","","","-1","","","18","3016","2771","&#9854;","elianto","#FFFFF080","-1","-1","1","&#10004","[]","0","0","1","","","","","","","",""
"pit-trial","16","176992","0.0-2.0-6.2-0.2","battery-v0.2","","""event"",""trial"",""time""
""fullscreenenter"",""1"",""5020""
","
","
","""event"",""trial"",""time""
""fullscreenenter"",""1"",""5020""
","
","","","-1","","","18","3016","2771","&#9854;","elianto","#FFFFF080","-1","-1","1","&#10004","[]","0","0","1","","","","","","","",""
"pit-trial","17","181884","0.0-2.0-6.3-0.3","battery-v0.2","","""event"",""trial"",""time""
""fullscreenenter"",""1"",""5020""
","
","
","""event"",""trial"",""time""
""fullscreenenter"",""1"",""5020""
","
","","","-1","","","18","3016","2771","&#9854;","elianto","#FFFFF080","-1","-1","1","&#10004","[]","0","0","1","","","","","","","",""
"pit-trial","18","186766","0.0-2.0-6.4-0.4","battery-v0.2","","""event"",""trial"",""time""
""fullscreenenter"",""1"",""5020""
","
","
","""event"",""trial"",""time""
""fullscreenenter"",""1"",""5020""
","
","","","-1","","","18","3016","2771","&#9854;","elianto","#FFFFF080","-1","-1","1","&#10004","[]","0","0","1","","","","","","","",""
"pit-instructions","19","310481","0.0-2.0-7.0","battery-v0.2","","""event"",""trial"",""time""
""fullscreenenter"",""1"",""5020""
","
","
","""event"",""trial"",""time""
""fullscreenenter"",""1"",""5020""
","
","","[{""page_index"":0,""viewing_time"":6653.700000000012},{""page_index"":1,""viewing_time"":7263.299999999988},{""page_index"":2,""viewing_time"":5616.100000000035},{""page_index"":3,""viewing_time"":7588.5},{""page_index"":4,""viewing_time"":6008.700000000012},{""page_index"":5,""viewing_time"":6859.5},{""page_index"":6,""viewing_time"":6297.799999999988},{""page_index"":7,""viewing_time"":7581.700000000012},{""page_index"":8,""viewing_time"":8434.5},{""page_index"":9,""viewing_time"":6069.399999999965},{""page_index"":10,""viewing_time"":7422.900000000023},{""page_index"":11,""viewing_time"":4338.399999999965},{""page_index"":12,""viewing_time"":7746.200000000012},{""page_index"":13,""viewing_time"":7115.299999999988},{""page_index"":14,""viewing_time"":7464.100000000035},{""page_index"":15,""viewing_time"":6833.5},{""page_index"":16,""viewing_time"":6915.399999999965},{""page_index"":17,""viewing_time"":7486.600000000035}]","123696.60000000003","","","","","","","","","","","","","","","","","","","","","","","",""
"pit-trial","20","314062","0.0-2.0-8.0-0.0","battery-v0.2","","""event"",""trial"",""time""
""fullscreenenter"",""1"",""5020""
","
","
","""event"",""trial"",""time""
""fullscreenenter"",""1"",""5020""
","
","","","711.5","","","18","3016","2771","&#9776;","elianto","#3366ff99"," "," ","1","+10","[1564.4000000000233]","1","0","1","","","","","","","",""
"pit-trial","21","317410","0.0-2.0-8.0-1.0","battery-v0.2","","""event"",""trial"",""time""
""fullscreenenter"",""1"",""5020""
","
","
","""event"",""trial"",""time""
""fullscreenenter"",""1"",""5020""
","
","","","467.6000000000349","","","18","3016","2771","&#9776;","elianto","#3366ff99"," "," ","1","+10","[1328.2000000000116]","1","0","1","","","","","","","",""
"pit-trial","22","320722","0.0-2.0-8.0-2.0","battery-v0.2","","""event"",""trial"",""time""
""fullscreenenter"",""1"",""5020""
","
","
","""event"",""trial"",""time""
""fullscreenenter"",""1"",""5020""
","
","","","431.69999999995343","","","18","3016","2771","&#9776;","elianto","#3366ff99"," "," ","1","+10","[1289.7999999999884]","1","0","1","","","","","","","",""
"pit-trial","23","324093","0.0-2.0-8.0-3.0","battery-v0.2","","""event"",""trial"",""time""
""fullscreenenter"",""1"",""5020""
","
","
","""event"",""trial"",""time""
""fullscreenenter"",""1"",""5020""
","
","","","502.29999999998836","","","18","3016","2771","&#9776;","elianto","#3366ff99"," "," ","1","0","[1352.600000000035]","1","0","1","","","","","","","",""
"pit-trial","24","327437","0.0-2.0-8.0-4.0","battery-v0.2","","""event"",""trial"",""time""
""fullscreenenter"",""1"",""5020""
","
","
","""event"",""trial"",""time""
""fullscreenenter"",""1"",""5020""
","
","","","476.5999999999767","","","18","3016","2771","&#9776;","elianto","#3366ff99"," "," ","1","+10","[1328.100000000035]","1","0","1","","","","","","","",""
"call-function","25","327452","0.0-2.0-9.0","battery-v0.2","","""event"",""trial"",""time""
""fullscreenenter"",""1"",""5020""
","
","
","""event"",""trial"",""time""
""fullscreenenter"",""1"",""5020""
","
","","","","","","","","","","","","","","","","","","","","","","","","","","",""
"pit-instructions","26","367092","0.0-2.0-10.0","battery-v0.2","","""event"",""trial"",""time""
""fullscreenenter"",""1"",""5020""
","
","
","""event"",""trial"",""time""
""fullscreenenter"",""1"",""5020""
","
","","[{""page_index"":0,""viewing_time"":6018.099999999977},{""page_index"":1,""viewing_time"":6248.200000000012},{""page_index"":2,""viewing_time"":9878.100000000035},{""page_index"":3,""viewing_time"":9740.399999999965},{""page_index"":4,""viewing_time"":7753}]","39638.5","","","","","","","","","","","","","","","","","","","","","","","",""
"pit-trial","27","370491","0.0-2.0-11.0-0.0","battery-v0.2","","""event"",""trial"",""time""
""fullscreenenter"",""1"",""5020""
","
","
","""event"",""trial"",""time""
""fullscreenenter"",""1"",""5020""
","
","","","524.1999999999534","","","18","3016","2771","&#9761;","elianto","#3366ff99","-1"," ","0","0","[1382.0999999999767]","1","0","2","","","","","","","",""
"pit-trial","28","373830","0.0-2.0-11.0-1.0","battery-v0.2","","""event"",""trial"",""time""
""fullscreenenter"",""1"",""5020""
","
","
","""event"",""trial"",""time""
""fullscreenenter"",""1"",""5020""
","
","","","457.0999999999767","","","18","3016","2771","&#9761;","elianto","#3366ff99","-1"," ","0","0","[1314.5]","1","0","2","","","","","","","",""
"pit-trial","29","377346","0.0-2.0-11.0-2.0","battery-v0.2","","""event"",""trial"",""time""
""fullscreenenter"",""1"",""5020""
","
","
","""event"",""trial"",""time""
""fullscreenenter"",""1"",""5020""
","
","","","638.8999999999651","","","18","3016","2771","&#9761;","elianto","#3366ff99","-1"," ","0","0","[1499.7999999999884]","1","0","2","","","","","","","",""
"pit-trial","30","382062","0.0-2.0-11.0-3.0","battery-v0.2","","""event"",""trial"",""time""
""fullscreenenter"",""1"",""5020""
","
","
","""event"",""trial"",""time""
""fullscreenenter"",""1"",""5020""
","
","","","1840","","","18","3016","2771","&#9761;","elianto","#3366ff99","-1"," ","0","+10","[2694.6999999999534]","1","0","2","","","","","","","",""
"pit-trial","31","385882","0.0-2.0-11.0-4.0","battery-v0.2","","""event"",""trial"",""time""
""fullscreenenter"",""1"",""5020""
","
","
","""event"",""trial"",""time""
""fullscreenenter"",""1"",""5020""
","
","","","938.5","","","18","3016","2771","&#9761;","elianto","#3366ff99","-1"," ","0","0","[1791.3000000000466]","1","0","2","","","","","","","",""
"pit-trial","32","389442","0.0-2.0-11.1-0.1","battery-v0.2","","""event"",""trial"",""time""
""fullscreenenter"",""1"",""5020""
","
","
","""event"",""trial"",""time""
""fullscreenenter"",""1"",""5020""
","
","","","695.7000000000116","","","18","3016","2771","&#9761;","elianto","#3366ff99","-1"," ","0","0","[1546.5999999999767]","1","0","2","","","","","","","",""
"pit-trial","33","392784","0.0-2.0-11.1-1.1","battery-v0.2","","""event"",""trial"",""time""
""fullscreenenter"",""1"",""5020""
","
","
","""event"",""trial"",""time""
""fullscreenenter"",""1"",""5020""
","
","","","477.29999999998836","","","18","3016","2771","&#9761;","elianto","#3366ff99","-1"," ","0","0","[1330.0999999999767]","1","0","2","","","","","","","",""
"pit-trial","34","396156","0.0-2.0-11.1-2.1","battery-v0.2","","""event"",""trial"",""time""
""fullscreenenter"",""1"",""5020""
","
","
","""event"",""trial"",""time""
""fullscreenenter"",""1"",""5020""
","
","","","508.70000000001164","","","18","3016","2771","&#9761;","elianto","#3366ff99","-1"," ","0","0","[1361.9000000000233]","1","0","2","","","","","","","",""
"pit-trial","35","399660","0.0-2.0-11.1-3.1","battery-v0.2","","""event"",""trial"",""time""
""fullscreenenter"",""1"",""5020""
","
","
","""event"",""trial"",""time""
""fullscreenenter"",""1"",""5020""
","
","","","637.4000000000233","","","18","3016","2771","&#9761;","elianto","#3366ff99","-1"," ","0","+10","[1488.3000000000466]","1","0","2","","","","","","","",""
"pit-trial","36","402784","0.0-2.0-11.1-4.1","battery-v0.2","","""event"",""trial"",""time""
""fullscreenenter"",""1"",""5020""
","
","
","""event"",""trial"",""time""
""fullscreenenter"",""1"",""5020""
","
","","","256.80000000004657","","","18","3016","2771","&#9761;","elianto","#3366ff99","-1"," ","0","0","[1107.5999999999767]","1","0","2","","","","","","","",""
"pit-trial","37","406200","0.0-2.0-11.2-0.2","battery-v0.2","","""event"",""trial"",""time""
""fullscreenenter"",""1"",""5020""
","
","
","""event"",""trial"",""time""
""fullscreenenter"",""1"",""5020""
","
","","","552.5","","","18","3016","2771","&#9761;","elianto","#3366ff99","-1"," ","0","0","[1403.6999999999534]","1","0","2","","","","","","","",""
"pit-trial","38","409577","0.0-2.0-11.2-1.2","battery-v0.2","","""event"",""trial"",""time""
""fullscreenenter"",""1"",""5020""
","
","
","""event"",""trial"",""time""
""fullscreenenter"",""1"",""5020""
","
","","","516.9000000000233","","","18","3016","2771","&#9761;","elianto","#3366ff99","-1"," ","0","0","[1367]","1","0","2","","","","","","","",""
"pit-trial","39","412968","0.0-2.0-11.2-2.2","battery-v0.2","","""event"",""trial"",""time""
""fullscreenenter"",""1"",""5020""
","
","
","""event"",""trial"",""time""
""fullscreenenter"",""1"",""5020""
","
","","","525.5","","","18","3016","2771","&#9761;","elianto","#3366ff99","-1"," ","0","0","[1376.9000000000233]","1","0","2","","","","","","","",""
"pit-trial","40","416386","0.0-2.0-11.2-3.2","battery-v0.2","","""event"",""trial"",""time""
""fullscreenenter"",""1"",""5020""
","
","
","""event"",""trial"",""time""
""fullscreenenter"",""1"",""5020""
","
","","","560.3000000000466","","","18","3016","2771","&#9761;","elianto","#3366ff99","-1"," ","0","+10","[1410.5]","1","0","2","","","","","","","",""
"pit-trial","41","421251","0.0-2.0-11.2-4.2","battery-v0.2","","""event"",""trial"",""time""
""fullscreenenter"",""1"",""5020""
","
","
","""event"",""trial"",""time""
""fullscreenenter"",""1"",""5020""
","
","","","-1","","","18","3016","2771","&#9761;","elianto","#3366ff99","-1","-1","1","+10","[]","0","0","2","","","","","","","",""
"pit-trial","42","426111","0.0-2.0-11.3-0.3","battery-v0.2","","""event"",""trial"",""time""
""fullscreenenter"",""1"",""5020""
","
","
","""event"",""trial"",""time""
""fullscreenenter"",""1"",""5020""
","
","","","-1","","","18","3016","2771","&#9761;","elianto","#3366ff99","-1","-1","1","+10","[]","0","0","2","","","","","","","",""
"pit-trial","43","430970","0.0-2.0-11.3-1.3","battery-v0.2","","""event"",""trial"",""time""
""fullscreenenter"",""1"",""5020""
","
","
","""event"",""trial"",""time""
""fullscreenenter"",""1"",""5020""
","
","","","-1","","","18","3016","2771","&#9761;","elianto","#3366ff99","-1","-1","1","+10","[]","0","0","2","","","","","","","",""
"pit-trial","44","435830","0.0-2.0-11.3-2.3","battery-v0.2","","""event"",""trial"",""time""
""fullscreenenter"",""1"",""5020""
","
","
","""event"",""trial"",""time""
""fullscreenenter"",""1"",""5020""
","
","","","-1","","","18","3016","2771","&#9761;","elianto","#3366ff99","-1","-1","1","+10","[]","0","0","2","","","","","","","",""
"pit-trial","45","440697","0.0-2.0-11.3-3.3","battery-v0.2","","""event"",""trial"",""time""
""fullscreenenter"",""1"",""5020""
","
","
","""event"",""trial"",""time""
""fullscreenenter"",""1"",""5020""
","
","","","-1","","","18","3016","2771","&#9761;","elianto","#3366ff99","-1","-1","1","0","[]","0","0","2","","","","","","","",""
"pit-trial","46","445561","0.0-2.0-11.3-4.3","battery-v0.2","","""event"",""trial"",""time""
""fullscreenenter"",""1"",""5020""
","
","
","""event"",""trial"",""time""
""fullscreenenter"",""1"",""5020""
","
","","","-1","","","18","3016","2771","&#9761;","elianto","#3366ff99","-1","-1","1","+10","[]","0","0","2","","","","","","","",""
"call-function","47","445568","0.0-2.0-12.0","battery-v0.2","","""event"",""trial"",""time""
""fullscreenenter"",""1"",""5020""
","
","
","""event"",""trial"",""time""
""fullscreenenter"",""1"",""5020""
","
","","","","","","","","","","","","","","","","","","","","","","","","","","",""
"pit-instructions","48","478498","0.0-2.0-13.0","battery-v0.2","","""event"",""trial"",""time""
""fullscreenenter"",""1"",""5020""
","
","
","""event"",""trial"",""time""
""fullscreenenter"",""1"",""5020""
","
","","[{""page_index"":0,""viewing_time"":6208},{""page_index"":1,""viewing_time"":7281.900000000023},{""page_index"":2,""viewing_time"":3494.5},{""page_index"":3,""viewing_time"":10806.29999999993},{""page_index"":4,""viewing_time"":5137}]","32928.69999999995","","","","","","","","","","","","","","","","","","","","","","","",""
"pit-trial","49","481880","0.0-2.0-14.0-0.0","battery-v0.2","","""event"",""trial"",""time""
""fullscreenenter"",""1"",""5020""
","
","
","""event"",""trial"",""time""
""fullscreenenter"",""1"",""5020""
","
","","","503.4000000000233","","","18","3016","2771","&#9826;","elianto","#f73b6a7A","-1"," ","0","-10","[1361.8000000000466]","1","0","3","","","","","","","",""
"pit-trial","50","486758","0.0-2.0-14.0-1.0","battery-v0.2","","""event"",""trial"",""time""
""fullscreenenter"",""1"",""5020""
","
","
","""event"",""trial"",""time""
""fullscreenenter"",""1"",""5020""
","
","","","-1","","","18","3016","2771","&#9826;","elianto","#f73b6a7A","-1","-1","1","0","[]","0","0","3","","","","","","","",""
"pit-trial","51","491636","0.0-2.0-14.0-2.0","battery-v0.2","","""event"",""trial"",""time""
""fullscreenenter"",""1"",""5020""
","
","
","""event"",""trial"",""time""
""fullscreenenter"",""1"",""5020""
","
","","","-1","","","18","3016","2771","&#9826;","elianto","#f73b6a7A","-1","-1","1","0","[]","0","0","3","","","","","","","",""
"pit-trial","52","496509","0.0-2.0-14.0-3.0","battery-v0.2","","""event"",""trial"",""time""
""fullscreenenter"",""1"",""5020""
","
","
","""event"",""trial"",""time""
""fullscreenenter"",""1"",""5020""
","
","","","-1","","","18","3016","2771","&#9826;","elianto","#f73b6a7A","-1","-1","1","-10","[]","0","0","3","","","","","","","",""
"pit-trial","53","501381","0.0-2.0-14.0-4.0","battery-v0.2","","""event"",""trial"",""time""
""fullscreenenter"",""1"",""5020""
","
","
","""event"",""trial"",""time""
""fullscreenenter"",""1"",""5020""
","
","","","-1","","","18","3016","2771","&#9826;","elianto","#f73b6a7A","-1","-1","1","0","[]","0","0","3","","","","","","","",""
"call-function","54","501389","0.0-2.0-15.0","battery-v0.2","","""event"",""trial"",""time""
""fullscreenenter"",""1"",""5020""
","
","
","""event"",""trial"",""time""
""fullscreenenter"",""1"",""5020""
","
","","","","","","","","","","","","","","","","","","","","","","","","","","",""
"pit-instructions","55","527808","0.0-2.0-16.0","battery-v0.2","","""event"",""trial"",""time""
""fullscreenenter"",""1"",""5020""
","
","
","""event"",""trial"",""time""
""fullscreenenter"",""1"",""5020""
","
","","[{""page_index"":0,""viewing_time"":7550.20000000007},{""page_index"":1,""viewing_time"":9295.699999999953},{""page_index"":2,""viewing_time"":4340.5},{""page_index"":3,""viewing_time"":5231.4000000000815}]","26418.600000000035","","","","","","","","","","","","","","","","","","","","","","","",""
"pit-trial","56","530814","0.0-2.0-17.0-0.0","battery-v0.2","","""event"",""trial"",""time""
""fullscreenenter"",""1"",""5020""
","
","
","""event"",""trial"",""time""
""fullscreenenter"",""1"",""5020""
","
","","","137.39999999990687","","","18","3016","2771","&#9789;","elianto","#f73b6a7A"," "," ","1","0","[990.2999999999302]","1","0","4","","","","","","","",""
"pit-trial","57","533763","0.0-2.0-17.0-1.0","battery-v0.2","","""event"",""trial"",""time""
""fullscreenenter"",""1"",""5020""
","
","
","""event"",""trial"",""time""
""fullscreenenter"",""1"",""5020""
","
","","","63.90000000002328","","","18","3016","2771","&#9789;","elianto","#f73b6a7A"," "," ","1","0","[924.7999999999302]","1","0","4","","","","","","","",""
"pit-trial","58","538634","0.0-2.0-17.0-2.0","battery-v0.2","","""event"",""trial"",""time""
""fullscreenenter"",""1"",""5020""
","
","
","""event"",""trial"",""time""
""fullscreenenter"",""1"",""5020""
","
","","","-1","","","18","3016","2771","&#9789;","elianto","#f73b6a7A"," ","-1","0","-10","[]","0","0","4","","","","","","","",""
"pit-trial","59","541719","0.0-2.0-17.0-3.0","battery-v0.2","","""event"",""trial"",""time""
""fullscreenenter"",""1"",""5020""
","
","
","""event"",""trial"",""time""
""fullscreenenter"",""1"",""5020""
","
","","","196.5","","","18","3016","2771","&#9789;","elianto","#f73b6a7A"," "," ","1","-10","[1056.0999999999767]","1","0","4","","","","","","","",""
"pit-trial","60","544966","0.0-2.0-17.0-4.0","battery-v0.2","","""event"",""trial"",""time""
""fullscreenenter"",""1"",""5020""
","
","
","""event"",""trial"",""time""
""fullscreenenter"",""1"",""5020""
","
","","","382.4000000000233","","","18","3016","2771","&#9789;","elianto","#f73b6a7A"," "," ","1","0","[1235.5]","1","0","4","","","","","","","",""
"pit-trial","61","548209","0.0-2.0-17.1-0.1","battery-v0.2","","""event"",""trial"",""time""
""fullscreenenter"",""1"",""5020""
","
","
","""event"",""trial"",""time""
""fullscreenenter"",""1"",""5020""
","
","","","372.39999999990687","","","18","3016","2771","&#9789;","elianto","#f73b6a7A"," "," ","1","0","[1223.1999999999534]","1","0","4","","","","","","","",""
"pit-trial","62","551643","0.0-2.0-17.1-1.1","battery-v0.2","","""event"",""trial"",""time""
""fullscreenenter"",""1"",""5020""
","
","
","""event"",""trial"",""time""
""fullscreenenter"",""1"",""5020""
","
","","","566.5999999999767","","","18","3016","2771","&#9789;","elianto","#f73b6a7A"," "," ","1","0","[1417.9000000000233]","1","0","4","","","","","","","",""
"pit-trial","63","555391","0.0-2.0-17.1-2.1","battery-v0.2","","""event"",""trial"",""time""
""fullscreenenter"",""1"",""5020""
","
","
","""event"",""trial"",""time""
""fullscreenenter"",""1"",""5020""
","
","","","879.2000000000698","","","18","3016","2771","&#9789;","elianto","#f73b6a7A"," "," ","1","0","[1730.5]","1","0","4","","","","","","","",""
"pit-trial","64","559746","0.0-2.0-17.1-3.1","battery-v0.2","","""event"",""trial"",""time""
""fullscreenenter"",""1"",""5020""
","
","
","""event"",""trial"",""time""
""fullscreenenter"",""1"",""5020""
","
","","","1490.9000000000233","","","18","3016","2771","&#9789;","elianto","#f73b6a7A"," "," ","1","-10","[2347.79999999993]","1","0","4","","","","","","","",""
"pit-trial","65","563337","0.0-2.0-17.1-4.1","battery-v0.2","","""event"",""trial"",""time""
""fullscreenenter"",""1"",""5020""
","
","
","""event"",""trial"",""time""
""fullscreenenter"",""1"",""5020""
","
","","","734.3000000000466","","","18","3016","2771","&#9789;","elianto","#f73b6a7A"," "," ","1","0","[1584.2000000000698]","1","0","4","","","","","","","",""
"call-function","66","563349","0.0-2.0-18.0","battery-v0.2","","""event"",""trial"",""time""
""fullscreenenter"",""1"",""5020""
","
","
","""event"",""trial"",""time""
""fullscreenenter"",""1"",""5020""
","
","","","","","","","","","","","","","","","","","","","","","","","","","","",""
"pit-instructions","67","638335","0.0-2.0-19.0","battery-v0.2","","""event"",""trial"",""time""
""fullscreenenter"",""1"",""5020""
","
","
","""event"",""trial"",""time""
""fullscreenenter"",""1"",""5020""
","
","","[{""page_index"":0,""viewing_time"":7235.800000000047},{""page_index"":1,""viewing_time"":6030.099999999977},{""page_index"":2,""viewing_time"":12928.400000000023},{""page_index"":3,""viewing_time"":7234.29999999993},{""page_index"":4,""viewing_time"":8587.70000000007},{""page_index"":5,""viewing_time"":10717},{""page_index"":6,""viewing_time"":8926.699999999953},{""page_index"":7,""viewing_time"":7798.599999999977},{""page_index"":8,""viewing_time"":5526.5}]","74985.5","","","","","","","","","","","","","","","","","","","","","","","",""
"pit-comprehension","68","642760","0.0-2.0-20.0-0.0","battery-v0.2","","""event"",""trial"",""time""
""fullscreenenter"",""1"",""5020""
","
","
","""event"",""trial"",""time""
""fullscreenenter"",""1"",""5020""
","
","","","4417","[""SPACE""]","0","18","3016","2771","","","","","","","","","","","","","","","","","","",""
"pit-instructions","69","647399","0.0-2.0-20.0-1.0","battery-v0.2","","""event"",""trial"",""time""
""fullscreenenter"",""1"",""5020""
","
","
","""event"",""trial"",""time""
""fullscreenenter"",""1"",""5020""
","
","","[{""page_index"":0,""viewing_time"":4586.5}]","4587.300000000047","","","","","","","","","","","","","","","","","","","","","","","",""
"pit-comprehension","70","653189","0.0-2.0-21.0-0.0","battery-v0.2","","""event"",""trial"",""time""
""fullscreenenter"",""1"",""5020""
","
","
","""event"",""trial"",""time""
""fullscreenenter"",""1"",""5020""
","
","","","5771.29999999993","[""10""]","0","18","3016","2771","","","","","","","","","","","","","","","","","","",""
"pit-instructions","71","655905","0.0-2.0-21.0-1.0","battery-v0.2","","""event"",""trial"",""time""
""fullscreenenter"",""1"",""5020""
","
","
","""event"",""trial"",""time""
""fullscreenenter"",""1"",""5020""
","
","","[{""page_index"":0,""viewing_time"":2664.4000000000233}]","2665.0999999999767","","","","","","","","","","","","","","","","","","","","","","","",""
"pit-comprehension","72","662408","0.0-2.0-22.0-0.0","battery-v0.2","","""event"",""trial"",""time""
""fullscreenenter"",""1"",""5020""
","
","
","""event"",""trial"",""time""
""fullscreenenter"",""1"",""5020""
","
","","","6486","[""0""]","0","18","3016","2771","","","","","","","","","","","","","","","","","","",""
"pit-instructions","73","666879","0.0-2.0-22.0-1.0","battery-v0.2","","""event"",""trial"",""time""
""fullscreenenter"",""1"",""5020""
","
","
","""event"",""trial"",""time""
""fullscreenenter"",""1"",""5020""
","
","","[{""page_index"":0,""viewing_time"":4428}]","4428.699999999953","","","","","","","","","","","","","","","","","","","","","","","",""
"pit-comprehension","74","675241","0.0-2.0-23.0-0.0","battery-v0.2","","""event"",""trial"",""time""
""fullscreenenter"",""1"",""5020""
","
","
","""event"",""trial"",""time""
""fullscreenenter"",""1"",""5020""
","
","","","8342.900000000023","[""True""]","0","18","3016","2771","","","","","","","","","","","","","","","","","","",""
"pit-instructions","75","679475","0.0-2.0-23.0-1.0","battery-v0.2","","""event"",""trial"",""time""
""fullscreenenter"",""1"",""5020""
","
","
","""event"",""trial"",""time""
""fullscreenenter"",""1"",""5020""
","
","","[{""page_index"":0,""viewing_time"":4185.5}]","4186.099999999977","","","","","","","","","","","","","","","","","","","","","","","",""
"pit-comprehension","76","686865","0.0-2.0-24.0-0.0","battery-v0.2","","""event"",""trial"",""time""
""fullscreenenter"",""1"",""5020""
","
","
","""event"",""trial"",""time""
""fullscreenenter"",""1"",""5020""
","
","","","7371","[""True""]","0","18","3016","2771","","","","","","","","","","","","","","","","","","",""
"pit-instructions","77","688349","0.0-2.0-24.0-1.0","battery-v0.2","","""event"",""trial"",""time""
""fullscreenenter"",""1"",""5020""
","
","
","""event"",""trial"",""time""
""fullscreenenter"",""1"",""5020""
","
","","[{""page_index"":0,""viewing_time"":1449.7999999999302}]","1450.1999999999534","","","","","","","","","","","","","","","","","","","","","","","",""
"pit-comprehension","78","694751","0.0-2.0-25.0-0.0","battery-v0.2","","""event"",""trial"",""time""
""fullscreenenter"",""1"",""5020""
","
","
","""event"",""trial"",""time""
""fullscreenenter"",""1"",""5020""
","
","","","6393.400000000023","[""True""]","0","18","3016","2771","","","","","","","","","","","","","","","","","","",""
"pit-instructions","79","696235","0.0-2.0-25.0-1.0","battery-v0.2","","""event"",""trial"",""time""
""fullscreenenter"",""1"",""5020""
","
","
","""event"",""trial"",""time""
""fullscreenenter"",""1"",""5020""
","
","","[{""page_index"":0,""viewing_time"":1449.5}]","1449.9000000000233","","","","","","","","","","","","","","","","","","","","","","","",""
"pit-comprehension","80","701062","0.0-2.0-26.0-0.0","battery-v0.2","","""event"",""trial"",""time""
""fullscreenenter"",""1"",""5020""
","
","
","""event"",""trial"",""time""
""fullscreenenter"",""1"",""5020""
","
","","","4817.300000000047","[""False""]","0","18","3016","2771","","","","","","","","","","","","","","","","","","",""
"pit-instructions","81","705319","0.0-2.0-26.0-1.0","battery-v0.2","","""event"",""trial"",""time""
""fullscreenenter"",""1"",""5020""
","
","
","""event"",""trial"",""time""
""fullscreenenter"",""1"",""5020""
","
","","[{""page_index"":0,""viewing_time"":4223.099999999977}]","4223.699999999953","","","","","","","","","","","","","","","","","","","","","","","",""
"pit-instructions","82","723065","0.0-3.0","battery-v0.2","","""event"",""trial"",""time""
""fullscreenenter"",""1"",""5020""
","
","
","""event"",""trial"",""time""
""fullscreenenter"",""1"",""5020""
","
","","[{""page_index"":0,""viewing_time"":3873},{""page_index"":1,""viewing_time"":6245.199999999953},{""page_index"":2,""viewing_time"":7611.599999999977}]","17730.29999999993","","","","","","","","","","","","","","","","","","","","","","","",""
"pit-trial","83","727960","0.0-4.0","battery-v0.2","","""event"",""trial"",""time""
""fullscreenenter"",""1"",""5020""
","
","
","""event"",""trial"",""time""
""fullscreenenter"",""1"",""5020""
","
","","","-1","","","18","3016","2771","&#9752;","elianto","#f73b6a7A"," ","-1","0","-10","[]","0","1","","","3016","1","3","3","lose","go","0"
"pit-trial","84","732828","0.0-5.0","battery-v0.2","","""event"",""trial"",""time""
""fullscreenenter"",""1"",""5020""
","
","
","""event"",""trial"",""time""
""fullscreenenter"",""1"",""5020""
","
","","","-1","","","18","3016","2771","&#9728;","elianto","#f73b6a7A","-1","-1","1","0","[3216.5999999999767]","1","1","","","3016","2","0","4","lose","no-go","0"
"pit-trial","85","736630","0.0-6.0","battery-v0.2","","""event"",""trial"",""time""
""fullscreenenter"",""1"",""5020""
","
","
","""event"",""trial"",""time""
""fullscreenenter"",""1"",""5020""
","
","","","937.9000000000233","","","18","3016","2771","&#9733;","elianto","#3366ff99","-1"," ","0","0","[1790.4000000000233]","1","1","","","3016","3","2","2","win","no-go","0"
"pit-trial","86","740479","0.0-7.0","battery-v0.2","","""event"",""trial"",""time""
""fullscreenenter"",""1"",""5020""
","
","
","""event"",""trial"",""time""
""fullscreenenter"",""1"",""5020""
","
","","","987.3999999999069","","","18","3016","2771","&#9730;","elianto","#3366ff99"," "," ","1","+10","[1838.3000000000466]","1","1","","","3016","4","1","1","win","go","0"
"pit-trial","87","745358","0.0-8.0","battery-v0.2","","""event"",""trial"",""time""
""fullscreenenter"",""1"",""5020""
","
","
","""event"",""trial"",""time""
""fullscreenenter"",""1"",""5020""
","
","","","-1","","","18","3016","2771","&#9728;","elianto","#f73b6a7A","-1","-1","1","0","[]","0","1","","","3016","5","0","4","lose","no-go","0"
"pit-trial","88","749929","0.0-9.0","battery-v0.2","","""event"",""trial"",""time""
""fullscreenenter"",""1"",""5020""
","
","
","""event"",""trial"",""time""
""fullscreenenter"",""1"",""5020""
","
","","","1687.7000000000698","","","18","3016","2771","&#9733;","elianto","#3366ff99","-1"," ","0","0","[2543.20000000007]","1","1","","","3016","6","2","2","win","no-go","0"
"pit-trial","89","754184","0.0-10.0","battery-v0.2","","""event"",""trial"",""time""
""fullscreenenter"",""1"",""5020""
","
","
","""event"",""trial"",""time""
""fullscreenenter"",""1"",""5020""
","
","","","1394.5","","","18","3016","2771","&#9730;","elianto","#3366ff99"," "," ","1","+10","[2245.5999999999767]","1","1","","","3016","7","1","1","win","go","0"
"pit-trial","90","758850","0.0-11.0","battery-v0.2","","""event"",""trial"",""time""
""fullscreenenter"",""1"",""5020""
","
","
","""event"",""trial"",""time""
""fullscreenenter"",""1"",""5020""
","
","","","1800.7000000000698","","","18","3016","2771","&#9752;","elianto","#f73b6a7A"," "," ","1","0","[2651.70000000007]","1","1","","","3016","8","3","3","lose","go","0"
"pit-trial","91","763712","0.0-12.0","battery-v0.2","","""event"",""trial"",""time""
""fullscreenenter"",""1"",""5020""
","
","
","""event"",""trial"",""time""
""fullscreenenter"",""1"",""5020""
","
","","","-1","","","18","3016","2771","&#9728;","elianto","#f73b6a7A","-1","-1","1","0","[]","0","1","","","3016","9","0","4","lose","no-go","0"
"pit-trial","92","767303","0.0-13.0","battery-v0.2","","""event"",""trial"",""time""
""fullscreenenter"",""1"",""5020""
","
","
","""event"",""trial"",""time""
""fullscreenenter"",""1"",""5020""
","
","","","722.9000000000233","","","18","3016","2771","&#9752;","elianto","#f73b6a7A"," "," ","1","-10","[1573.5999999999767]","1","1","","","3016","10","3","3","lose","go","1"
"pit-trial","93","772169","0.0-14.0","battery-v0.2","","""event"",""trial"",""time""
""fullscreenenter"",""1"",""5020""
","
","
","""event"",""trial"",""time""
""fullscreenenter"",""1"",""5020""
","
","","","-1","","","18","3016","2771","&#9733;","elianto","#3366ff99","-1","-1","1","+10","[]","0","1","","","3016","11","2","2","win","no-go","0"
"pit-trial","94","775564","0.0-15.0","battery-v0.2","","""event"",""trial"",""time""
""fullscreenenter"",""1"",""5020""
","
","
","""event"",""trial"",""time""
""fullscreenenter"",""1"",""5020""
","
","","","528","","","18","3016","2771","&#9730;","elianto","#3366ff99"," "," ","1","+10","[1378.1999999999534]","1","1","","","3016","12","1","1","win","go","0"
"pit-trial","95","780431","0.0-16.0","battery-v0.2","","""event"",""trial"",""time""
""fullscreenenter"",""1"",""5020""
","
","
","""event"",""trial"",""time""
""fullscreenenter"",""1"",""5020""
","
","","","-1","","","18","3016","2771","&#9728;","elianto","#f73b6a7A","-1","-1","1","0","[]","0","1","","","3016","13","0","4","lose","no-go","0"
"pit-trial","96","784862","0.0-17.0","battery-v0.2","","""event"",""trial"",""time""
""fullscreenenter"",""1"",""5020""
","
","
","""event"",""trial"",""time""
""fullscreenenter"",""1"",""5020""
","
","","","1564.5","","","18","3016","2771","&#9730;","elianto","#3366ff99"," "," ","1","+10","[2415.5999999999767]","1","1","","","3016","14","1","1","win","go","0"
"pit-trial","97","789256","0.0-18.0","battery-v0.2","","""event"",""trial"",""time""
""fullscreenenter"",""1"",""5020""
","
","
","""event"",""trial"",""time""
""fullscreenenter"",""1"",""5020""
","
","","","1534.9000000000233","","","18","3016","2771","&#9752;","elianto","#f73b6a7A"," "," ","1","0","[2386.5999999999767]","1","1","","","3016","15","3","3","lose","go","0"
"pit-trial","98","794115","0.0-19.0","battery-v0.2","","""event"",""trial"",""time""
""fullscreenenter"",""1"",""5020""
","
","
","""event"",""trial"",""time""
""fullscreenenter"",""1"",""5020""
","
","","","-1","","","18","3016","2771","&#9733;","elianto","#3366ff99","-1","-1","1","+10","[]","0","1","","","3016","16","2","2","win","no-go","0"
"pit-trial","99","797800","0.0-20.0","battery-v0.2","","""event"",""trial"",""time""
""fullscreenenter"",""1"",""5020""
","
","
","""event"",""trial"",""time""
""fullscreenenter"",""1"",""5020""
","
","","","819.5999999999767","","","18","3016","2771","&#9730;","elianto","#3366ff99"," "," ","1","+10","[1670.0999999999767]","1","1","","","3016","17","1","1","win","go","0"
"pit-trial","100","802665","0.0-21.0","battery-v0.2","","""event"",""trial"",""time""
""fullscreenenter"",""1"",""5020""
","
","
","""event"",""trial"",""time""
""fullscreenenter"",""1"",""5020""
","
","","","-1","","","18","3016","2771","&#9733;","elianto","#3366ff99","-1","-1","1","+10","[]","0","1","","","3016","18","2","2","win","no-go","0"
"pit-trial","101","806558","0.0-22.0","battery-v0.2","","""event"",""trial"",""time""
""fullscreenenter"",""1"",""5020""
","
","
","""event"",""trial"",""time""
""fullscreenenter"",""1"",""5020""
","
","","","1034.0999999999767","","","18","3016","2771","&#9752;","elianto","#f73b6a7A"," "," ","1","-10","[1884.5]","1","1","","","3016","19","3","3","lose","go","1"
"pit-trial","102","811425","0.0-23.0","battery-v0.2","","""event"",""trial"",""time""
""fullscreenenter"",""1"",""5020""
","
","
","""event"",""trial"",""time""
""fullscreenenter"",""1"",""5020""
","
","","","-1","","","18","3016","2771","&#9728;","elianto","#f73b6a7A","-1","-1","1","-10","[]","0","1","","","3016","20","0","4","lose","no-go","1"
"pit-instructions","103","823901","0.0-24.0","battery-v0.2","","""event"",""trial"",""time""
""fullscreenenter"",""1"",""5020""
","
","
","""event"",""trial"",""time""
""fullscreenenter"",""1"",""5020""
","
","","[{""page_index"":0,""viewing_time"":5603.20000000007},{""page_index"":1,""viewing_time"":6858.400000000023}]","12462.20000000007","","","","","","","","","","","","","","","","","","","","","","","",""
"pit-trial","104","828366","0.0-25.0","battery-v0.2","","""event"",""trial"",""time""
""fullscreenenter"",""1"",""5020""
","
","
","""event"",""trial"",""time""
""fullscreenenter"",""1"",""5020""
","
","","","1582.0999999999767","","","18","3016","2771","l","elianto","#3366ff99"," "," ","1","+10","[2436.0999999999767]","1","2","","","3016","21","1","1","win","go","0"
"pit-trial","105","833242","0.0-26.0","battery-v0.2","","""event"",""trial"",""time""
""fullscreenenter"",""1"",""5020""
","
","
","""event"",""trial"",""time""
""fullscreenenter"",""1"",""5020""
","
","","","-1","","","18","3016","2771","u","elianto","#f73b6a7A","-1","-1","1","-10","[]","0","2","","","3016","22","0","4","lose","no-go","1"
"pit-trial","106","838109","0.0-27.0","battery-v0.2","","""event"",""trial"",""time""
""fullscreenenter"",""1"",""5020""
","
","
","""event"",""trial"",""time""
""fullscreenenter"",""1"",""5020""
","
","","","-1","","","18","3016","2771","g","elianto","#f73b6a7A"," ","-1","0","-10","[]","0","2","","","3016","23","3","3","lose","go","0"
"pit-trial","107","842978","0.0-28.0","battery-v0.2","","""event"",""trial"",""time""
""fullscreenenter"",""1"",""5020""
","
","
","""event"",""trial"",""time""
""fullscreenenter"",""1"",""5020""
","
","","","-1","","","18","3016","2771","a","elianto","#f73b6a7A","-1","-1","1","0","[]","0","2","","","3016","24","2","4","lose","no-go","0"
"pit-trial","108","846369","0.0-29.0","battery-v0.2","","""event"",""trial"",""time""
""fullscreenenter"",""1"",""5020""
","
","
","""event"",""trial"",""time""
""fullscreenenter"",""1"",""5020""
","
","","","523.4000000000233","","","18","3016","2771","l","elianto","#3366ff99"," "," ","1","0","[1376.1000000000931]","1","2","","","3016","25","1","1","win","go","1"
"pit-trial","109","849971","0.0-30.0","battery-v0.2","","""event"",""trial"",""time""
""fullscreenenter"",""1"",""5020""
","
","
","""event"",""trial"",""time""
""fullscreenenter"",""1"",""5020""
","
","","","712.9000000000233","","","18","3016","2771","u","elianto","#f73b6a7A","-1"," ","0","-10","[1574.9000000000233]","1","2","","","3016","26","0","4","lose","no-go","0"
"pit-trial","110","854842","0.0-31.0","battery-v0.2","","""event"",""trial"",""time""
""fullscreenenter"",""1"",""5020""
","
","
","""event"",""trial"",""time""
""fullscreenenter"",""1"",""5020""
","
","","","-1","","","18","3016","2771","a","elianto","#f73b6a7A","-1","-1","1","0","[]","0","2","","","3016","27","2","4","lose","no-go","0"
"pit-trial","111","858282","0.0-32.0","battery-v0.2","","""event"",""trial"",""time""
""fullscreenenter"",""1"",""5020""
","
","
","""event"",""trial"",""time""
""fullscreenenter"",""1"",""5020""
","
","","","578.5999999999767","","","18","3016","2771","g","elianto","#f73b6a7A"," "," ","1","0","[1429.6999999999534]","1","2","","","3016","28","3","3","lose","go","0"
"pit-trial","112","861709","0.0-33.0","battery-v0.2","","""event"",""trial"",""time""
""fullscreenenter"",""1"",""5020""
","
","
","""event"",""trial"",""time""
""fullscreenenter"",""1"",""5020""
","
","","","559.5999999999767","","","18","3016","2771","g","elianto","#f73b6a7A"," "," ","1","0","[1410.2000000000698]","1","2","","","3016","29","3","3","lose","go","0"
"pit-trial","113","865172","0.0-34.0","battery-v0.2","","""event"",""trial"",""time""
""fullscreenenter"",""1"",""5020""
","
","
","""event"",""trial"",""time""
""fullscreenenter"",""1"",""5020""
","
","","","597.7999999999302","","","18","3016","2771","u","elianto","#f73b6a7A","-1"," ","0","-10","[1448.2999999999302]","1","2","","","3016","30","0","4","lose","no-go","0"
"pit-trial","114","868515","0.0-35.0","battery-v0.2","","""event"",""trial"",""time""
""fullscreenenter"",""1"",""5020""
","
","
","""event"",""trial"",""time""
""fullscreenenter"",""1"",""5020""
","
","","","482.70000000006985","","","18","3016","2771","l","elianto","#3366ff99"," "," ","1","+10","[1333.7000000000698]","1","2","","","3016","31","1","1","win","go","0"
"pit-trial","115","873381","0.0-36.0","battery-v0.2","","""event"",""trial"",""time""
""fullscreenenter"",""1"",""5020""
","
","
","""event"",""trial"",""time""
""fullscreenenter"",""1"",""5020""
","
","","","-1","","","18","3016","2771","a","elianto","#f73b6a7A","-1","-1","1","0","[]","0","2","","","3016","32","2","4","lose","no-go","0"
"pit-trial","116","878240","0.0-37.0","battery-v0.2","","""event"",""trial"",""time""
""fullscreenenter"",""1"",""5020""
","
","
","""event"",""trial"",""time""
""fullscreenenter"",""1"",""5020""
","
","","","-1","","","18","3016","2771","a","elianto","#f73b6a7A","-1","-1","1","-10","[]","0","2","","","3016","33","2","4","lose","no-go","1"
"pit-trial","117","881747","0.0-38.0","battery-v0.2","","""event"",""trial"",""time""
""fullscreenenter"",""1"",""5020""
","
","
","""event"",""trial"",""time""
""fullscreenenter"",""1"",""5020""
","
","","","647.2999999999302","","","18","3016","2771","l","elianto","#3366ff99"," "," ","1","+10","[1497.5]","1","2","","","3016","34","1","1","win","go","0"
"pit-trial","118","885144","0.0-39.0","battery-v0.2","","""event"",""trial"",""time""
""fullscreenenter"",""1"",""5020""
","
","
","""event"",""trial"",""time""
""fullscreenenter"",""1"",""5020""
","
","","","532.0999999999767","","","18","3016","2771","g","elianto","#f73b6a7A"," "," ","1","0","[1383.3000000000466]","1","2","","","3016","35","3","3","lose","go","0"
"pit-trial","119","890005","0.0-40.0","battery-v0.2","","""event"",""trial"",""time""
""fullscreenenter"",""1"",""5020""
","
","
","""event"",""trial"",""time""
""fullscreenenter"",""1"",""5020""
","
","","","-1","","","18","3016","2771","u","elianto","#f73b6a7A","-1","-1","1","-10","[]","0","2","","","3016","36","0","4","lose","no-go","1"
"pit-trial","120","894871","0.0-41.0","battery-v0.2","","""event"",""trial"",""time""
""fullscreenenter"",""1"",""5020""
","
","
","""event"",""trial"",""time""
""fullscreenenter"",""1"",""5020""
","
","","","-1","","","18","3016","2771","u","elianto","#f73b6a7A","-1","-1","1","0","[]","0","2","","","3016","37","0","4","lose","no-go","0"
"pit-trial","121","899729","0.0-42.0","battery-v0.2","","""event"",""trial"",""time""
""fullscreenenter"",""1"",""5020""
","
","
","""event"",""trial"",""time""
""fullscreenenter"",""1"",""5020""
","
","","","-1","","","18","3016","2771","a","elianto","#f73b6a7A","-1","-1","1","0","[]","0","2","","","3016","38","2","4","lose","no-go","0"
"pit-trial","122","903247","0.0-43.0","battery-v0.2","","""event"",""trial"",""time""
""fullscreenenter"",""1"",""5020""
","
","
","""event"",""trial"",""time""
""fullscreenenter"",""1"",""5020""
","
","","","660.5","","","18","3016","2771","g","elianto","#f73b6a7A"," "," ","1","-10","[1510.5999999999767]","1","2","","","3016","39","3","3","lose","go","1"
"pit-trial","123","906516","0.0-44.0","battery-v0.2","","""event"",""trial"",""time""
""fullscreenenter"",""1"",""5020""
","
","
","""event"",""trial"",""time""
""fullscreenenter"",""1"",""5020""
","
","","","409.4000000000233","","","18","3016","2771","l","elianto","#3366ff99"," "," ","1","+10","[1259.7000000000698]","1","2","","","3016","40","1","1","win","go","0"
"pit-trial","124","909990","0.0-45.0","battery-v0.2","","""event"",""trial"",""time""
""fullscreenenter"",""1"",""5020""
","
","
","""event"",""trial"",""time""
""fullscreenenter"",""1"",""5020""
","
","","","606","","","18","3016","2771","l","elianto","#3366ff99"," "," ","1","+10","[1456.6999999999534]","1","2","","","3016","41","1","1","win","go","0"
"pit-trial","125","914857","0.0-46.0","battery-v0.2","","""event"",""trial"",""time""
""fullscreenenter"",""1"",""5020""
","
","
","""event"",""trial"",""time""
""fullscreenenter"",""1"",""5020""
","
","","","-1","","","18","3016","2771","u","elianto","#f73b6a7A","-1","-1","1","0","[]","0","2","","","3016","42","0","4","lose","no-go","0"
"pit-trial","126","918243","0.0-47.0","battery-v0.2","","""event"",""trial"",""time""
""fullscreenenter"",""1"",""5020""
","
","
","""event"",""trial"",""time""
""fullscreenenter"",""1"",""5020""
","
","","","508.70000000006985","","","18","3016","2771","g","elianto","#f73b6a7A"," "," ","1","-10","[1371.8000000000466]","1","2","","","3016","43","3","3","lose","go","1"
"pit-trial","127","923109","0.0-48.0","battery-v0.2","","""event"",""trial"",""time""
""fullscreenenter"",""1"",""5020""
","
","
","""event"",""trial"",""time""
""fullscreenenter"",""1"",""5020""
","
","","","-1","","","18","3016","2771","a","elianto","#f73b6a7A","-1","-1","1","0","[]","0","2","","","3016","44","2","4","lose","no-go","0"
"pit-trial","128","927971","0.0-49.0","battery-v0.2","","""event"",""trial"",""time""
""fullscreenenter"",""1"",""5020""
","
","
","""event"",""trial"",""time""
""fullscreenenter"",""1"",""5020""
","
","","","-1","","","18","3016","2771","g","elianto","#f73b6a7A"," ","-1","0","-10","[]","0","2","","","3016","45","3","3","lose","go","0"
"pit-trial","129","932838","0.0-50.0","battery-v0.2","","""event"",""trial"",""time""
""fullscreenenter"",""1"",""5020""
","
","
","""event"",""trial"",""time""
""fullscreenenter"",""1"",""5020""
","
","","","-1","","","18","3016","2771","u","elianto","#f73b6a7A","-1","-1","1","0","[]","0","2","","","3016","46","0","4","lose","no-go","0"
"pit-trial","130","937704","0.0-51.0","battery-v0.2","","""event"",""trial"",""time""
""fullscreenenter"",""1"",""5020""
","
","
","""event"",""trial"",""time""
""fullscreenenter"",""1"",""5020""
","
","","","-1","","","18","3016","2771","a","elianto","#f73b6a7A","-1","-1","1","0","[]","0","2","","","3016","47","2","4","lose","no-go","0"
"pit-trial","131","941492","0.0-52.0","battery-v0.2","","""event"",""trial"",""time""
""fullscreenenter"",""1"",""5020""
","
","
","""event"",""trial"",""time""
""fullscreenenter"",""1"",""5020""
","
","","","923","","","18","3016","2771","p","elianto","#3366ff99","-1"," ","0","0","[1773.1000000000931]","1","2","","","3016","48","4","2","win","no-go","0"
"pit-trial","132","946352","0.0-53.0","battery-v0.2","","""event"",""trial"",""time""
""fullscreenenter"",""1"",""5020""
","
","
","""event"",""trial"",""time""
""fullscreenenter"",""1"",""5020""
","
","","","-1","","","18","3016","2771","p","elianto","#3366ff99","-1","-1","1","+10","[]","0","2","","","3016","49","4","2","win","no-go","0"
"pit-trial","133","950235","0.0-54.0","battery-v0.2","","""event"",""trial"",""time""
""fullscreenenter"",""1"",""5020""
","
","
","""event"",""trial"",""time""
""fullscreenenter"",""1"",""5020""
","
","","","1017","","","18","3016","2771","g","elianto","#f73b6a7A"," "," ","1","0","[1867.2999999998137]","1","2","","","3016","50","3","3","lose","go","0"
"pit-trial","134","953838","0.0-55.0","battery-v0.2","","""event"",""trial"",""time""
""fullscreenenter"",""1"",""5020""
","
","
","""event"",""trial"",""time""
""fullscreenenter"",""1"",""5020""
","
","","","737.6000000000931","","","18","3016","2771","l","elianto","#3366ff99"," "," ","1","+10","[1587.7999999998137]","1","2","","","3016","51","1","1","win","go","0"
"pit-trial","135","958698","0.0-56.0","battery-v0.2","","""event"",""trial"",""time""
""fullscreenenter"",""1"",""5020""
","
","
","""event"",""trial"",""time""
""fullscreenenter"",""1"",""5020""
","
","","","-1","","","18","3016","2771","u","elianto","#f73b6a7A","-1","-1","1","0","[]","0","2","","","3016","52","0","4","lose","no-go","0"
"pit-trial","136","963563","0.0-57.0","battery-v0.2","","""event"",""trial"",""time""
""fullscreenenter"",""1"",""5020""
","
","
","""event"",""trial"",""time""
""fullscreenenter"",""1"",""5020""
","
","","","-1","","","18","3016","2771","p","elianto","#3366ff99","-1","-1","1","+10","[]","0","2","","","3016","53","4","2","win","no-go","0"
"pit-trial","137","967100","0.0-58.0","battery-v0.2","","""event"",""trial"",""time""
""fullscreenenter"",""1"",""5020""
","
","
","""event"",""trial"",""time""
""fullscreenenter"",""1"",""5020""
","
","","","677","","","18","3016","2771","l","elianto","#3366ff99"," "," ","1","+10","[1527.3000000000466]","1","2","","","3016","54","1","1","win","go","0"
"pit-trial","138","971965","0.0-59.0","battery-v0.2","","""event"",""trial"",""time""
""fullscreenenter"",""1"",""5020""
","
","
","""event"",""trial"",""time""
""fullscreenenter"",""1"",""5020""
","
","","","-1","","","18","3016","2771","u","elianto","#f73b6a7A","-1","-1","1","0","[]","0","2","","","3016","55","0","4","lose","no-go","0"
"pit-trial","139","976826","0.0-60.0","battery-v0.2","","""event"",""trial"",""time""
""fullscreenenter"",""1"",""5020""
","
","
","""event"",""trial"",""time""
""fullscreenenter"",""1"",""5020""
","
","","","-1","","","18","3016","2771","a","elianto","#f73b6a7A","-1","-1","1","0","[]","0","2","","","3016","56","2","4","lose","no-go","0"
"pit-trial","140","980152","0.0-61.0","battery-v0.2","","""event"",""trial"",""time""
""fullscreenenter"",""1"",""5020""
","
","
","""event"",""trial"",""time""
""fullscreenenter"",""1"",""5020""
","
","","","464.39999999990687","","","18","3016","2771","l","elianto","#3366ff99"," "," ","1","+10","[1315]","1","2","","","3016","57","1","1","win","go","0"
"pit-trial","141","983611","0.0-62.0","battery-v0.2","","""event"",""trial"",""time""
""fullscreenenter"",""1"",""5020""
","
","
","""event"",""trial"",""time""
""fullscreenenter"",""1"",""5020""
","
","","","593.6000000000931","","","18","3016","2771","g","elianto","#f73b6a7A"," "," ","1","0","[1444]","1","2","","","3016","58","3","3","lose","go","0"
"pit-trial","142","988471","0.0-63.0","battery-v0.2","","""event"",""trial"",""time""
""fullscreenenter"",""1"",""5020""
","
","
","""event"",""trial"",""time""
""fullscreenenter"",""1"",""5020""
","
","","","-1","","","18","3016","2771","p","elianto","#3366ff99","-1","-1","1","+10","[]","0","2","","","3016","59","4","2","win","no-go","0"
"pit-trial","143","993338","0.0-64.0","battery-v0.2","","""event"",""trial"",""time""
""fullscreenenter"",""1"",""5020""
","
","
","""event"",""trial"",""time""
""fullscreenenter"",""1"",""5020""
","
","","","-1","","","18","3016","2771","u","elianto","#f73b6a7A","-1","-1","1","0","[]","0","2","","","3016","60","0","4","lose","no-go","0"
"pit-trial","144","997410","0.0-65.0","battery-v0.2","","""event"",""trial"",""time""
""fullscreenenter"",""1"",""5020""
","
","
","""event"",""trial"",""time""
""fullscreenenter"",""1"",""5020""
","
","","","1205.4000000001397","","","18","3016","2771","g","elianto","#f73b6a7A"," "," ","1","0","[2055.7000000001863]","1","2","","","3016","61","3","3","lose","go","0"
"pit-trial","145","1000775","0.0-66.0","battery-v0.2","","""event"",""trial"",""time""
""fullscreenenter"",""1"",""5020""
","
","
","""event"",""trial"",""time""
""fullscreenenter"",""1"",""5020""
","
","","","493.69999999995343","","","18","3016","2771","l","elianto","#3366ff99"," "," ","1","+10","[1343.8999999999069]","1","2","","","3016","62","1","1","win","go","0"
"pit-trial","146","1005640","0.0-67.0","battery-v0.2","","""event"",""trial"",""time""
""fullscreenenter"",""1"",""5020""
","
","
","""event"",""trial"",""time""
""fullscreenenter"",""1"",""5020""
","
","","","-1","","","18","3016","2771","a","elianto","#f73b6a7A","-1","-1","1","-10","[]","0","2","","","3016","63","2","4","lose","no-go","1"
"pit-trial","147","1010500","0.0-68.0","battery-v0.2","","""event"",""trial"",""time""
""fullscreenenter"",""1"",""5020""
","
","
","""event"",""trial"",""time""
""fullscreenenter"",""1"",""5020""
","
","","","-1","","","18","3016","2771","p","elianto","#3366ff99","-1","-1","1","+10","[]","0","2","","","3016","64","4","2","win","no-go","0"
"pit-trial","148","1015367","0.0-69.0","battery-v0.2","","""event"",""trial"",""time""
""fullscreenenter"",""1"",""5020""
","
","
","""event"",""trial"",""time""
""fullscreenenter"",""1"",""5020""
","
","","","-1","","","18","3016","2771","p","elianto","#3366ff99","-1","-1","1","+10","[]","0","2","","","3016","65","4","2","win","no-go","0"
"pit-trial","149","1020232","0.0-70.0","battery-v0.2","","""event"",""trial"",""time""
""fullscreenenter"",""1"",""5020""
","
","
","""event"",""trial"",""time""
""fullscreenenter"",""1"",""5020""
","
","","","-1","","","18","3016","2771","a","elianto","#f73b6a7A","-1","-1","1","0","[]","0","2","","","3016","66","2","4","lose","no-go","0"
"pit-trial","150","1023945","0.0-71.0","battery-v0.2","","""event"",""trial"",""time""
""fullscreenenter"",""1"",""5020""
","
","
","""event"",""trial"",""time""
""fullscreenenter"",""1"",""5020""
","
","","","857","","","18","3016","2771","l","elianto","#3366ff99"," "," ","1","+10","[1707.3000000000466]","1","2","","","3016","67","1","1","win","go","0"
"pit-trial","151","1027524","0.0-72.0","battery-v0.2","","""event"",""trial"",""time""
""fullscreenenter"",""1"",""5020""
","
","
","""event"",""trial"",""time""
""fullscreenenter"",""1"",""5020""
","
","","","719.6999999999534","","","18","3016","2771","g","elianto","#f73b6a7A"," "," ","1","0","[1570.6000000000931]","1","2","","","3016","68","3","3","lose","go","0"
"pit-trial","152","1030896","0.0-73.0","battery-v0.2","","""event"",""trial"",""time""
""fullscreenenter"",""1"",""5020""
","
","
","""event"",""trial"",""time""
""fullscreenenter"",""1"",""5020""
","
","","","506.5","","","18","3016","2771","l","elianto","#3366ff99"," "," ","1","+10","[1356.7000000001863]","1","2","","","3016","69","1","1","win","go","0"
"pit-trial","153","1035624","0.0-74.0","battery-v0.2","","""event"",""trial"",""time""
""fullscreenenter"",""1"",""5020""
","
","
","""event"",""trial"",""time""
""fullscreenenter"",""1"",""5020""
","
","","","1862.3999999999069","","","18","3016","2771","s","elianto","#3366ff99"," "," ","1","+10","[2713.3000000000466]","1","2","","","3016","70","5","1","win","go","0"
"pit-trial","154","1039428","0.0-75.0","battery-v0.2","","""event"",""trial"",""time""
""fullscreenenter"",""1"",""5020""
","
","
","""event"",""trial"",""time""
""fullscreenenter"",""1"",""5020""
","
","","","945.3000000000466","","","18","3016","2771","g","elianto","#f73b6a7A"," "," ","1","0","[1795.8999999999069]","1","2","","","3016","71","3","3","lose","go","0"
"pit-trial","155","1044295","0.0-76.0","battery-v0.2","","""event"",""trial"",""time""
""fullscreenenter"",""1"",""5020""
","
","
","""event"",""trial"",""time""
""fullscreenenter"",""1"",""5020""
","
","","","-1","","","18","3016","2771","p","elianto","#3366ff99","-1","-1","1","+10","[]","0","2","","","3016","72","4","2","win","no-go","0"
"pit-trial","156","1047771","0.0-77.0","battery-v0.2","","""event"",""trial"",""time""
""fullscreenenter"",""1"",""5020""
","
","
","""event"",""trial"",""time""
""fullscreenenter"",""1"",""5020""
","
","","","616.1999999999534","","","18","3016","2771","g","elianto","#f73b6a7A"," "," ","1","-10","[1466.7999999998137]","1","2","","","3016","73","3","3","lose","go","1"
"pit-trial","157","1051172","0.0-78.0","battery-v0.2","","""event"",""trial"",""time""
""fullscreenenter"",""1"",""5020""
","
","
","""event"",""trial"",""time""
""fullscreenenter"",""1"",""5020""
","
","","","539.8999999999069","","","18","3016","2771","l","elianto","#3366ff99"," "," ","1","+10","[1390.8000000000466]","1","2","","","3016","74","1","1","win","go","0"
"pit-trial","158","1056038","0.0-79.0","battery-v0.2","","""event"",""trial"",""time""
""fullscreenenter"",""1"",""5020""
","
","
","""event"",""trial"",""time""
""fullscreenenter"",""1"",""5020""
","
","","","-1","","","18","3016","2771","p","elianto","#3366ff99","-1","-1","1","+10","[]","0","2","","","3016","75","4","2","win","no-go","0"
"pit-trial","159","1059443","0.0-80.0","battery-v0.2","","""event"",""trial"",""time""
""fullscreenenter"",""1"",""5020""
","
","
","""event"",""trial"",""time""
""fullscreenenter"",""1"",""5020""
","
","","","543.1999999999534","","","18","3016","2771","s","elianto","#3366ff99"," "," ","1","+10","[1393.5999999998603]","1","2","","","3016","76","5","1","win","go","0"
"pit-trial","160","1064307","0.0-81.0","battery-v0.2","","""event"",""trial"",""time""
""fullscreenenter"",""1"",""5020""
","
","
","""event"",""trial"",""time""
""fullscreenenter"",""1"",""5020""
","
","","","-1","","","18","3016","2771","w","elianto","#f73b6a7A","-1","-1","1","0","[3013.600000000093]","1","2","","","3016","77","6","4","lose","no-go","0"
"pit-trial","161","1069168","0.0-82.0","battery-v0.2","","""event"",""trial"",""time""
""fullscreenenter"",""1"",""5020""
","
","
","""event"",""trial"",""time""
""fullscreenenter"",""1"",""5020""
","
","","","-1","","","18","3016","2771","p","elianto","#3366ff99","-1","-1","1","+10","[]","0","2","","","3016","78","4","2","win","no-go","0"
"pit-trial","162","1072694","0.0-83.0","battery-v0.2","","""event"",""trial"",""time""
""fullscreenenter"",""1"",""5020""
","
","
","""event"",""trial"",""time""
""fullscreenenter"",""1"",""5020""
","
","","","661.3999999999069","","","18","3016","2771","s","elianto","#3366ff99"," "," ","1","0","[1511.5]","1","2","","","3016","79","5","1","win","go","1"
"pit-trial","163","1076245","0.0-84.0","battery-v0.2","","""event"",""trial"",""time""
""fullscreenenter"",""1"",""5020""
","
","
","""event"",""trial"",""time""
""fullscreenenter"",""1"",""5020""
","
","","","684.1000000000931","","","18","3016","2771","g","elianto","#f73b6a7A"," "," ","1","0","[1535]","1","2","","","3016","80","3","3","lose","go","0"
"pit-trial","164","1079757","0.0-85.0","battery-v0.2","","""event"",""trial"",""time""
""fullscreenenter"",""1"",""5020""
","
","
","""event"",""trial"",""time""
""fullscreenenter"",""1"",""5020""
","
","","","652","","","18","3016","2771","s","elianto","#3366ff99"," "," ","1","0","[1502.8000000000466]","1","2","","","3016","81","5","1","win","go","1"
"pit-trial","165","1084624","0.0-86.0","battery-v0.2","","""event"",""trial"",""time""
""fullscreenenter"",""1"",""5020""
","
","
","""event"",""trial"",""time""
""fullscreenenter"",""1"",""5020""
","
","","","-1","","","18","3016","2771","p","elianto","#3366ff99","-1","-1","1","+10","[]","0","2","","","3016","82","4","2","win","no-go","0"
"pit-trial","166","1089490","0.0-87.0","battery-v0.2","","""event"",""trial"",""time""
""fullscreenenter"",""1"",""5020""
","
","
","""event"",""trial"",""time""
""fullscreenenter"",""1"",""5020""
","
","","","-1","","","18","3016","2771","w","elianto","#f73b6a7A","-1","-1","1","0","[]","0","2","","","3016","83","6","4","lose","no-go","0"
"pit-trial","167","1094355","0.0-88.0","battery-v0.2","","""event"",""trial"",""time""
""fullscreenenter"",""1"",""5020""
","
","
","""event"",""trial"",""time""
""fullscreenenter"",""1"",""5020""
","
","","","-1","","","18","3016","2771","e","elianto","#f73b6a7A"," ","-1","0","-10","[]","0","2","","","3016","84","7","3","lose","go","0"
"pit-trial","168","1097977","0.0-89.0","battery-v0.2","","""event"",""trial"",""time""
""fullscreenenter"",""1"",""5020""
","
","
","""event"",""trial"",""time""
""fullscreenenter"",""1"",""5020""
","
","","","764.3999999999069","","","18","3016","2771","e","elianto","#f73b6a7A"," "," ","1","0","[1614.5]","1","2","","","3016","85","7","3","lose","go","0"
"pit-trial","169","1102847","0.0-90.0","battery-v0.2","","""event"",""trial"",""time""
""fullscreenenter"",""1"",""5020""
","
","
","""event"",""trial"",""time""
""fullscreenenter"",""1"",""5020""
","
","","","-1","","","18","3016","2771","p","elianto","#3366ff99","-1","-1","1","+10","[]","0","2","","","3016","86","4","2","win","no-go","0"
"pit-trial","170","1107712","0.0-91.0","battery-v0.2","","""event"",""trial"",""time""
""fullscreenenter"",""1"",""5020""
","
","
","""event"",""trial"",""time""
""fullscreenenter"",""1"",""5020""
","
","","","-1","","","18","3016","2771","s","elianto","#3366ff99"," ","-1","0","0","[]","0","2","","","3016","87","5","1","win","go","0"
"pit-trial","171","1112578","0.0-92.0","battery-v0.2","","""event"",""trial"",""time""
""fullscreenenter"",""1"",""5020""
","
","
","""event"",""trial"",""time""
""fullscreenenter"",""1"",""5020""
","
","","","-1","","","18","3016","2771","w","elianto","#f73b6a7A","-1","-1","1","0","[]","0","2","","","3016","88","6","4","lose","no-go","0"
"pit-trial","172","1116753","0.0-93.0","battery-v0.2","","""event"",""trial"",""time""
""fullscreenenter"",""1"",""5020""
","
","
","""event"",""trial"",""time""
""fullscreenenter"",""1"",""5020""
","
","","","1310.3999999999069","","","18","3016","2771","s","elianto","#3366ff99"," "," ","1","+10","[2162.899999999907]","1","2","","","3016","89","5","1","win","go","0"
"pit-trial","173","1121619","0.0-94.0","battery-v0.2","","""event"",""trial"",""time""
""fullscreenenter"",""1"",""5020""
","
","
","""event"",""trial"",""time""
""fullscreenenter"",""1"",""5020""
","
","","","-1","","","18","3016","2771","w","elianto","#f73b6a7A","-1","-1","1","0","[]","0","2","","","3016","90","6","4","lose","no-go","0"
"pit-trial","174","1125634","0.0-95.0","battery-v0.2","","""event"",""trial"",""time""
""fullscreenenter"",""1"",""5020""
","
","
","""event"",""trial"",""time""
""fullscreenenter"",""1"",""5020""
","
","","","1148.3000000000466","","","18","3016","2771","e","elianto","#f73b6a7A"," "," ","1","0","[1998.6000000000931]","1","2","","","3016","91","7","3","lose","go","0"
"pit-trial","175","1130499","0.0-96.0","battery-v0.2","","""event"",""trial"",""time""
""fullscreenenter"",""1"",""5020""
","
","
","""event"",""trial"",""time""
""fullscreenenter"",""1"",""5020""
","
","","","-1","","","18","3016","2771","p","elianto","#3366ff99","-1","-1","1","0","[]","0","2","","","3016","92","4","2","win","no-go","1"
"pit-trial","176","1134040","0.0-97.0","battery-v0.2","","""event"",""trial"",""time""
""fullscreenenter"",""1"",""5020""
","
","
","""event"",""trial"",""time""
""fullscreenenter"",""1"",""5020""
","
","","","682.3000000000466","","","18","3016","2771","s","elianto","#3366ff99"," "," ","1","+10","[1532.1000000000931]","1","2","","","3016","93","5","1","win","go","0"
"pit-trial","177","1138146","0.0-98.0","battery-v0.2","","""event"",""trial"",""time""
""fullscreenenter"",""1"",""5020""
","
","
","""event"",""trial"",""time""
""fullscreenenter"",""1"",""5020""
","
","","","1239","","","18","3016","2771","e","elianto","#f73b6a7A"," "," ","1","0","[2089.4000000001397]","1","2","","","3016","94","7","3","lose","go","0"
"pit-trial","178","1142646","0.0-99.0","battery-v0.2","","""event"",""trial"",""time""
""fullscreenenter"",""1"",""5020""
","
","
","""event"",""trial"",""time""
""fullscreenenter"",""1"",""5020""
","
","","","1640.3999999999069","","","18","3016","2771","d","elianto","#3366ff99","-1"," ","0","0","[2490.8000000000466]","1","2","","","3016","95","8","2","win","no-go","0"
"pit-trial","179","1147508","0.0-100.0","battery-v0.2","","""event"",""trial"",""time""
""fullscreenenter"",""1"",""5020""
","
","
","""event"",""trial"",""time""
""fullscreenenter"",""1"",""5020""
","
","","","-1","","","18","3016","2771","w","elianto","#f73b6a7A","-1","-1","1","0","[]","0","2","","","3016","96","6","4","lose","no-go","0"
"pit-trial","180","1151074","0.0-101.0","battery-v0.2","","""event"",""trial"",""time""
""fullscreenenter"",""1"",""5020""
","
","
","""event"",""trial"",""time""
""fullscreenenter"",""1"",""5020""
","
","","","706.4000000001397","","","18","3016","2771","s","elianto","#3366ff99"," "," ","1","0","[1557.3000000000466]","1","2","","","3016","97","5","1","win","go","1"
"pit-trial","181","1155941","0.0-102.0","battery-v0.2","","""event"",""trial"",""time""
""fullscreenenter"",""1"",""5020""
","
","
","""event"",""trial"",""time""
""fullscreenenter"",""1"",""5020""
","
","","","-1","","","18","3016","2771","w","elianto","#f73b6a7A","-1","-1","1","-10","[]","0","2","","","3016","98","6","4","lose","no-go","1"
"pit-trial","182","1159683","0.0-103.0","battery-v0.2","","""event"",""trial"",""time""
""fullscreenenter"",""1"",""5020""
","
","
","""event"",""trial"",""time""
""fullscreenenter"",""1"",""5020""
","
","","","875.6999999999534","","","18","3016","2771","e","elianto","#f73b6a7A"," "," ","1","0","[1726.9000000001397]","1","2","","","3016","99","7","3","lose","go","0"
"pit-trial","183","1164548","0.0-104.0","battery-v0.2","","""event"",""trial"",""time""
""fullscreenenter"",""1"",""5020""
","
","
","""event"",""trial"",""time""
""fullscreenenter"",""1"",""5020""
","
","","","-1","","","18","3016","2771","d","elianto","#3366ff99","-1","-1","1","+10","[]","0","2","","","3016","100","8","2","win","no-go","0"
"pit-trial","184","1167995","0.0-105.0","battery-v0.2","","""event"",""trial"",""time""
""fullscreenenter"",""1"",""5020""
","
","
","""event"",""trial"",""time""
""fullscreenenter"",""1"",""5020""
","
","","","587.1000000000931","","","18","3016","2771","s","elianto","#3366ff99"," "," ","1","+10","[1437.6000000000931]","1","2","","","3016","101","5","1","win","go","0"
"pit-trial","185","1171776","0.0-106.0","battery-v0.2","","""event"",""trial"",""time""
""fullscreenenter"",""1"",""5020""
","
","
","""event"",""trial"",""time""
""fullscreenenter"",""1"",""5020""
","
","","","914.6999999999534","","","18","3016","2771","d","elianto","#3366ff99","-1"," ","0","0","[1765.8000000000466]","1","2","","","3016","102","8","2","win","no-go","0"
"pit-trial","186","1176642","0.0-107.0","battery-v0.2","","""event"",""trial"",""time""
""fullscreenenter"",""1"",""5020""
","
","
","""event"",""trial"",""time""
""fullscreenenter"",""1"",""5020""
","
","","","-1","","","18","3016","2771","w","elianto","#f73b6a7A","-1","-1","1","0","[]","0","2","","","3016","103","6","4","lose","no-go","0"
"pit-trial","187","1181502","0.0-108.0","battery-v0.2","","""event"",""trial"",""time""
""fullscreenenter"",""1"",""5020""
","
","
","""event"",""trial"",""time""
""fullscreenenter"",""1"",""5020""
","
","","","-1","","","18","3016","2771","j","elianto","#3366ff99","-1","-1","1","+10","[]","0","2","","","3016","104","9","2","win","no-go","0"
"pit-trial","188","1186367","0.0-109.0","battery-v0.2","","""event"",""trial"",""time""
""fullscreenenter"",""1"",""5020""
","
","
","""event"",""trial"",""time""
""fullscreenenter"",""1"",""5020""
","
","","","-1","","","18","3016","2771","w","elianto","#f73b6a7A","-1","-1","1","0","[]","0","2","","","3016","105","6","4","lose","no-go","0"
"pit-trial","189","1191227","0.0-110.0","battery-v0.2","","""event"",""trial"",""time""
""fullscreenenter"",""1"",""5020""
","
","
","""event"",""trial"",""time""
""fullscreenenter"",""1"",""5020""
","
","","","-1","","","18","3016","2771","j","elianto","#3366ff99","-1","-1","1","0","[]","0","2","","","3016","106","9","2","win","no-go","1"
"pit-trial","190","1194735","0.0-111.0","battery-v0.2","","""event"",""trial"",""time""
""fullscreenenter"",""1"",""5020""
","
","
","""event"",""trial"",""time""
""fullscreenenter"",""1"",""5020""
","
","","","642.8999999999069","","","18","3016","2771","s","elianto","#3366ff99"," "," ","1","+10","[1493.2999999998137]","1","2","","","3016","107","5","1","win","go","0"
"pit-trial","191","1199595","0.0-112.0","battery-v0.2","","""event"",""trial"",""time""
""fullscreenenter"",""1"",""5020""
","
","
","""event"",""trial"",""time""
""fullscreenenter"",""1"",""5020""
","
","","","-1","","","18","3016","2771","d","elianto","#3366ff99","-1","-1","1","0","[]","0","2","","","3016","108","8","2","win","no-go","1"
"pit-trial","192","1202946","0.0-113.0","battery-v0.2","","""event"",""trial"",""time""
""fullscreenenter"",""1"",""5020""
","
","
","""event"",""trial"",""time""
""fullscreenenter"",""1"",""5020""
","
","","","484.9000000001397","","","18","3016","2771","s","elianto","#3366ff99"," "," ","1","+10","[1335.3999999999069]","1","2","","","3016","109","5","1","win","go","0"
"pit-trial","193","1207804","0.0-114.0","battery-v0.2","","""event"",""trial"",""time""
""fullscreenenter"",""1"",""5020""
","
","
","""event"",""trial"",""time""
""fullscreenenter"",""1"",""5020""
","
","","","-1","","","18","3016","2771","w","elianto","#f73b6a7A","-1","-1","1","0","[]","0","2","","","3016","110","6","4","lose","no-go","0"
"pit-trial","194","1211835","0.0-115.0","battery-v0.2","","""event"",""trial"",""time""
""fullscreenenter"",""1"",""5020""
","
","
","""event"",""trial"",""time""
""fullscreenenter"",""1"",""5020""
","
","","","1164.4000000001397","","","18","3016","2771","j","elianto","#3366ff99","-1"," ","0","0","[2015.5]","1","2","","","3016","111","9","2","win","no-go","0"
"pit-trial","195","1216701","0.0-116.0","battery-v0.2","","""event"",""trial"",""time""
""fullscreenenter"",""1"",""5020""
","
","
","""event"",""trial"",""time""
""fullscreenenter"",""1"",""5020""
","
","","","-1","","","18","3016","2771","d","elianto","#3366ff99","-1","-1","1","+10","[]","0","2","","","3016","112","8","2","win","no-go","0"
"pit-trial","196","1221561","0.0-117.0","battery-v0.2","","""event"",""trial"",""time""
""fullscreenenter"",""1"",""5020""
","
","
","""event"",""trial"",""time""
""fullscreenenter"",""1"",""5020""
","
","","","-1","","","18","3016","2771","j","elianto","#3366ff99","-1","-1","1","+10","[]","0","2","","","3016","113","9","2","win","no-go","0"
"pit-trial","197","1226428","0.0-118.0","battery-v0.2","","""event"",""trial"",""time""
""fullscreenenter"",""1"",""5020""
","
","
","""event"",""trial"",""time""
""fullscreenenter"",""1"",""5020""
","
","","","-1","","","18","3016","2771","e","elianto","#f73b6a7A"," ","-1","0","-10","[]","0","2","","","3016","114","7","3","lose","go","0"
"pit-trial","198","1231293","0.0-119.0","battery-v0.2","","""event"",""trial"",""time""
""fullscreenenter"",""1"",""5020""
","
","
","""event"",""trial"",""time""
""fullscreenenter"",""1"",""5020""
","
","","","-1","","","18","3016","2771","d","elianto","#3366ff99","-1","-1","1","+10","[]","0","2","","","3016","115","8","2","win","no-go","0"
"pit-trial","199","1234920","0.0-120.0","battery-v0.2","","""event"",""trial"",""time""
""fullscreenenter"",""1"",""5020""
","
","
","""event"",""trial"",""time""
""fullscreenenter"",""1"",""5020""
","
","","","760.5","","","18","3016","2771","s","elianto","#3366ff99"," "," ","1","0","[1610.5999999998603]","1","2","","","3016","116","5","1","win","go","1"
"pit-trial","200","1239781","0.0-121.0","battery-v0.2","","""event"",""trial"",""time""
""fullscreenenter"",""1"",""5020""
","
","
","""event"",""trial"",""time""
""fullscreenenter"",""1"",""5020""
","
","","","-1","","","18","3016","2771","d","elianto","#3366ff99","-1","-1","1","+10","[]","0","2","","","3016","117","8","2","win","no-go","0"
"pit-trial","201","1244641","0.0-122.0","battery-v0.2","","""event"",""trial"",""time""
""fullscreenenter"",""1"",""5020""
","
","
","""event"",""trial"",""time""
""fullscreenenter"",""1"",""5020""
","
","","","-1","","","18","3016","2771","w","elianto","#f73b6a7A","-1","-1","1","0","[]","0","2","","","3016","118","6","4","lose","no-go","0"
"pit-trial","202","1249499","0.0-123.0","battery-v0.2","","""event"",""trial"",""time""
""fullscreenenter"",""1"",""5020""
","
","
","""event"",""trial"",""time""
""fullscreenenter"",""1"",""5020""
","
","","","-1","","","18","3016","2771","j","elianto","#3366ff99","-1","-1","1","+10","[]","0","2","","","3016","119","9","2","win","no-go","0"
"pit-trial","203","1252904","0.0-124.0","battery-v0.2","","""event"",""trial"",""time""
""fullscreenenter"",""1"",""5020""
","
","
","""event"",""trial"",""time""
""fullscreenenter"",""1"",""5020""
","
","","","538.3000000000466","","","18","3016","2771","s","elianto","#3366ff99"," "," ","1","0","[1388.6999999999534]","1","2","","","3016","120","5","1","win","go","1"
"pit-trial","204","1257765","0.0-125.0","battery-v0.2","","""event"",""trial"",""time""
""fullscreenenter"",""1"",""5020""
","
","
","""event"",""trial"",""time""
""fullscreenenter"",""1"",""5020""
","
","","","-1","","","18","3016","2771","d","elianto","#3366ff99","-1","-1","1","+10","[]","0","2","","","3016","121","8","2","win","no-go","0"
"pit-trial","205","1261153","0.0-126.0","battery-v0.2","","""event"",""trial"",""time""
""fullscreenenter"",""1"",""5020""
","
","
","""event"",""trial"",""time""
""fullscreenenter"",""1"",""5020""
","
","","","522.6000000000931","","","18","3016","2771","s","elianto","#3366ff99"," "," ","1","+10","[1373.2999999998137]","1","2","","","3016","122","5","1","win","go","0"
"pit-trial","206","1265111","0.0-127.0","battery-v0.2","","""event"",""trial"",""time""
""fullscreenenter"",""1"",""5020""
","
","
","""event"",""trial"",""time""
""fullscreenenter"",""1"",""5020""
","
","","","1099.6999999999534","","","18","3016","2771","e","elianto","#f73b6a7A"," "," ","1","0","[1949.9000000001397]","1","2","","","3016","123","7","3","lose","go","0"
"pit-trial","207","1269970","0.0-128.0","battery-v0.2","","""event"",""trial"",""time""
""fullscreenenter"",""1"",""5020""
","
","
","""event"",""trial"",""time""
""fullscreenenter"",""1"",""5020""
","
","","","-1","","","18","3016","2771","j","elianto","#3366ff99","-1","-1","1","0","[]","0","2","","","3016","124","9","2","win","no-go","1"
"pit-trial","208","1274835","0.0-129.0","battery-v0.2","","""event"",""trial"",""time""
""fullscreenenter"",""1"",""5020""
","
","
","""event"",""trial"",""time""
""fullscreenenter"",""1"",""5020""
","
","","","-1","","","18","3016","2771","d","elianto","#3366ff99","-1","-1","1","+10","[]","0","2","","","3016","125","8","2","win","no-go","0"
"pit-trial","209","1278314","0.0-130.0","battery-v0.2","","""event"",""trial"",""time""
""fullscreenenter"",""1"",""5020""
","
","
","""event"",""trial"",""time""
""fullscreenenter"",""1"",""5020""
","
","","","618.6999999999534","","","18","3016","2771","e","elianto","#f73b6a7A"," "," ","1","-10","[1469.3000000000466]","1","2","","","3016","126","7","3","lose","go","1"
"pit-trial","210","1283179","0.0-131.0","battery-v0.2","","""event"",""trial"",""time""
""fullscreenenter"",""1"",""5020""
","
","
","""event"",""trial"",""time""
""fullscreenenter"",""1"",""5020""
","
","","","-1","","","18","3016","2771","j","elianto","#3366ff99","-1","-1","1","+10","[]","0","2","","","3016","127","9","2","win","no-go","0"
"pit-trial","211","1288038","0.0-132.0","battery-v0.2","","""event"",""trial"",""time""
""fullscreenenter"",""1"",""5020""
","
","
","""event"",""trial"",""time""
""fullscreenenter"",""1"",""5020""
","
","","","-1","","","18","3016","2771","w","elianto","#f73b6a7A","-1","-1","1","-10","[]","0","2","","","3016","128","6","4","lose","no-go","1"
"pit-trial","212","1292904","0.0-133.0","battery-v0.2","","""event"",""trial"",""time""
""fullscreenenter"",""1"",""5020""
","
","
","""event"",""trial"",""time""
""fullscreenenter"",""1"",""5020""
","
","","","-1","","","18","3016","2771","j","elianto","#3366ff99","-1","-1","1","0","[]","0","2","","","3016","129","9","2","win","no-go","1"
"pit-trial","213","1297764","0.0-134.0","battery-v0.2","","""event"",""trial"",""time""
""fullscreenenter"",""1"",""5020""
","
","
","""event"",""trial"",""time""
""fullscreenenter"",""1"",""5020""
","
","","","-1","","","18","3016","2771","d","elianto","#3366ff99","-1","-1","1","0","[]","0","2","","","3016","130","8","2","win","no-go","1"
"pit-trial","214","1301266","0.0-135.0","battery-v0.2","","""event"",""trial"",""time""
""fullscreenenter"",""1"",""5020""
","
","
","""event"",""trial"",""time""
""fullscreenenter"",""1"",""5020""
","
","","","634.8999999999069","","","18","3016","2771","e","elianto","#f73b6a7A"," "," ","1","0","[1485.4000000001397]","1","2","","","3016","131","7","3","lose","go","0"
"pit-trial","215","1306126","0.0-136.0","battery-v0.2","","""event"",""trial"",""time""
""fullscreenenter"",""1"",""5020""
","
","
","""event"",""trial"",""time""
""fullscreenenter"",""1"",""5020""
","
","","","-1","","","18","3016","2771","w","elianto","#f73b6a7A","-1","-1","1","0","[]","0","2","","","3016","132","6","4","lose","no-go","0"
"pit-trial","216","1310993","0.0-137.0","battery-v0.2","","""event"",""trial"",""time""
""fullscreenenter"",""1"",""5020""
","
","
","""event"",""trial"",""time""
""fullscreenenter"",""1"",""5020""
","
","","","-1","","","18","3016","2771","w","elianto","#f73b6a7A","-1","-1","1","0","[]","0","2","","","3016","133","6","4","lose","no-go","0"
"pit-trial","217","1315857","0.0-138.0","battery-v0.2","","""event"",""trial"",""time""
""fullscreenenter"",""1"",""5020""
","
","
","""event"",""trial"",""time""
""fullscreenenter"",""1"",""5020""
","
","","","-1","","","18","3016","2771","j","elianto","#3366ff99","-1","-1","1","+10","[]","0","2","","","3016","134","9","2","win","no-go","0"
"pit-trial","218","1319376","0.0-139.0","battery-v0.2","","""event"",""trial"",""time""
""fullscreenenter"",""1"",""5020""
","
","
","""event"",""trial"",""time""
""fullscreenenter"",""1"",""5020""
","
","","","652.1000000000931","","","18","3016","2771","e","elianto","#f73b6a7A"," "," ","1","-10","[1504]","1","2","","","3016","135","7","3","lose","go","1"
"pit-trial","219","1324237","0.0-140.0","battery-v0.2","","""event"",""trial"",""time""
""fullscreenenter"",""1"",""5020""
","
","
","""event"",""trial"",""time""
""fullscreenenter"",""1"",""5020""
","
","","","-1","","","18","3016","2771","d","elianto","#3366ff99","-1","-1","1","0","[]","0","2","","","3016","136","8","2","win","no-go","1"
"pit-trial","220","1329102","0.0-141.0","battery-v0.2","","""event"",""trial"",""time""
""fullscreenenter"",""1"",""5020""
","
","
","""event"",""trial"",""time""
""fullscreenenter"",""1"",""5020""
","
","","","-1","","","18","3016","2771","j","elianto","#3366ff99","-1","-1","1","+10","[]","0","2","","","3016","137","9","2","win","no-go","0"
"pit-trial","221","1332468","0.0-142.0","battery-v0.2","","""event"",""trial"",""time""
""fullscreenenter"",""1"",""5020""
","
","
","""event"",""trial"",""time""
""fullscreenenter"",""1"",""5020""
","
","","","501.5","","","18","3016","2771","e","elianto","#f73b6a7A"," "," ","1","0","[1351.8000000000466]","1","2","","","3016","138","7","3","lose","go","0"
"pit-trial","222","1337335","0.0-143.0","battery-v0.2","","""event"",""trial"",""time""
""fullscreenenter"",""1"",""5020""
","
","
","""event"",""trial"",""time""
""fullscreenenter"",""1"",""5020""
","
","","","-1","","","18","3016","2771","d","elianto","#3366ff99","-1","-1","1","+10","[]","0","2","","","3016","139","8","2","win","no-go","0"
"pit-trial","223","1342194","0.0-144.0","battery-v0.2","","""event"",""trial"",""time""
""fullscreenenter"",""1"",""5020""
","
","
","""event"",""trial"",""time""
""fullscreenenter"",""1"",""5020""
","
","","","-1","","","18","3016","2771","w","elianto","#f73b6a7A","-1","-1","1","0","[]","0","2","","","3016","140","6","4","lose","no-go","0"
"pit-instructions","224","1376777","0.0-145.0","battery-v0.2","","""event"",""trial"",""time""
""fullscreenenter"",""1"",""5020""
","
","
","""event"",""trial"",""time""
""fullscreenenter"",""1"",""5020""
","
","","[{""page_index"":0,""viewing_time"":10711.800000000047},{""page_index"":1,""viewing_time"":23856.800000000047}]","34569.30000000005","","","","","","","","","","","","","","","","","","","","","","","",""
"pit-trial","225","1381669","0.0-146.0","battery-v0.2","","""event"",""trial"",""time""
""fullscreenenter"",""1"",""5020""
","
","
","""event"",""trial"",""time""
""fullscreenenter"",""1"",""5020""
","
","","","-1","","","18","3016","2771","h","elianto","#f73b6a7A","-1","-1","1","-10","[]","0","3","","","3016","141","3","4","lose","no-go","1"
"pit-trial","226","1386549","0.0-147.0","battery-v0.2","","""event"",""trial"",""time""
""fullscreenenter"",""1"",""5020""
","
","
","""event"",""trial"",""time""
""fullscreenenter"",""1"",""5020""
","
","","","-1","","","18","3016","2771","m","elianto","#f73b6a7A"," ","-1","0","-10","[]","0","3","","","3016","142","0","3","lose","go","0"
"pit-trial","227","1391420","0.0-148.0","battery-v0.2","","""event"",""trial"",""time""
""fullscreenenter"",""1"",""5020""
","
","
","""event"",""trial"",""time""
""fullscreenenter"",""1"",""5020""
","
","","","-1","","","18","3016","2771","y","elianto","#f73b6a7A"," ","-1","0","-10","[]","0","3","","","3016","143","2","3","lose","go","0"
"pit-trial","228","1396279","0.0-149.0","battery-v0.2","","""event"",""trial"",""time""
""fullscreenenter"",""1"",""5020""
","
","
","""event"",""trial"",""time""
""fullscreenenter"",""1"",""5020""
","
","","","-1","","","18","3016","2771","r","elianto","#3366ff99","-1","-1","1","+10","[]","0","3","","","3016","144","1","2","win","no-go","0"
"pit-trial","229","1401146","0.0-150.0","battery-v0.2","","""event"",""trial"",""time""
""fullscreenenter"",""1"",""5020""
","
","
","""event"",""trial"",""time""
""fullscreenenter"",""1"",""5020""
","
","","","-1","","","18","3016","2771","r","elianto","#3366ff99","-1","-1","1","+10","[]","0","3","","","3016","145","1","2","win","no-go","0"
"pit-trial","230","1404560","0.0-151.0","battery-v0.2","","""event"",""trial"",""time""
""fullscreenenter"",""1"",""5020""
","
","
","""event"",""trial"",""time""
""fullscreenenter"",""1"",""5020""
","
","","","554.5999999998603","","","18","3016","2771","h","elianto","#f73b6a7A","-1"," ","0","-10","[1405.3000000000466]","1","3","","","3016","146","3","4","lose","no-go","0"
"pit-trial","231","1407918","0.0-152.0","battery-v0.2","","""event"",""trial"",""time""
""fullscreenenter"",""1"",""5020""
","
","
","""event"",""trial"",""time""
""fullscreenenter"",""1"",""5020""
","
","","","491.0999999998603","","","18","3016","2771","m","elianto","#f73b6a7A"," "," ","1","-10","[1341.7999999998137]","1","3","","","3016","147","0","3","lose","go","1"
"pit-trial","232","1411254","0.0-153.0","battery-v0.2","","""event"",""trial"",""time""
""fullscreenenter"",""1"",""5020""
","
","
","""event"",""trial"",""time""
""fullscreenenter"",""1"",""5020""
","
","","","476.30000000004657","","","18","3016","2771","y","elianto","#f73b6a7A"," "," ","1","-10","[1327]","1","3","","","3016","148","2","3","lose","go","1"
"pit-trial","233","1416115","0.0-154.0","battery-v0.2","","""event"",""trial"",""time""
""fullscreenenter"",""1"",""5020""
","
","
","""event"",""trial"",""time""
""fullscreenenter"",""1"",""5020""
","
","","","-1","","","18","3016","2771","y","elianto","#f73b6a7A"," ","-1","0","-10","[]","0","3","","","3016","149","2","3","lose","go","0"
"pit-trial","234","1420982","0.0-155.0","battery-v0.2","","""event"",""trial"",""time""
""fullscreenenter"",""1"",""5020""
","
","
","""event"",""trial"",""time""
""fullscreenenter"",""1"",""5020""
","
","","","-1","","","18","3016","2771","r","elianto","#3366ff99","-1","-1","1","+10","[]","0","3","","","3016","150","1","2","win","no-go","0"
"pit-trial","235","1424854","0.0-156.0","battery-v0.2","","""event"",""trial"",""time""
""fullscreenenter"",""1"",""5020""
","
","
","""event"",""trial"",""time""
""fullscreenenter"",""1"",""5020""
","
","","","1011.5","","","18","3016","2771","m","elianto","#f73b6a7A"," "," ","1","0","[1861.6999999999534]","1","3","","","3016","151","0","3","lose","go","0"
"pit-trial","236","1428271","0.0-157.0","battery-v0.2","","""event"",""trial"",""time""
""fullscreenenter"",""1"",""5020""
","
","
","""event"",""trial"",""time""
""fullscreenenter"",""1"",""5020""
","
","","","551","","","18","3016","2771","h","elianto","#f73b6a7A","-1"," ","0","-10","[1401.3000000000466]","1","3","","","3016","152","3","4","lose","no-go","0"
"pit-trial","237","1431787","0.0-158.0","battery-v0.2","","""event"",""trial"",""time""
""fullscreenenter"",""1"",""5020""
","
","
","""event"",""trial"",""time""
""fullscreenenter"",""1"",""5020""
","
","","","650.6000000000931","","","18","3016","2771","m","elianto","#f73b6a7A"," "," ","1","-10","[1501]","1","3","","","3016","153","0","3","lose","go","1"
"pit-trial","238","1435339","0.0-159.0","battery-v0.2","","""event"",""trial"",""time""
""fullscreenenter"",""1"",""5020""
","
","
","""event"",""trial"",""time""
""fullscreenenter"",""1"",""5020""
","
","","","692.5","","","18","3016","2771","y","elianto","#f73b6a7A"," "," ","1","0","[1543.7999999998137]","1","3","","","3016","154","2","3","lose","go","0"
"pit-trial","239","1440202","0.0-160.0","battery-v0.2","","""event"",""trial"",""time""
""fullscreenenter"",""1"",""5020""
","
","
","""event"",""trial"",""time""
""fullscreenenter"",""1"",""5020""
","
","","","-1","","","18","3016","2771","r","elianto","#3366ff99","-1","-1","1","+10","[]","0","3","","","3016","155","1","2","win","no-go","0"
"pit-trial","240","1443545","0.0-161.0","battery-v0.2","","""event"",""trial"",""time""
""fullscreenenter"",""1"",""5020""
","
","
","""event"",""trial"",""time""
""fullscreenenter"",""1"",""5020""
","
","","","479.5","","","18","3016","2771","h","elianto","#f73b6a7A","-1"," ","0","0","[1329.7000000001863]","1","3","","","3016","156","3","4","lose","no-go","1"
"pit-trial","241","1446973","0.0-162.0","battery-v0.2","","""event"",""trial"",""time""
""fullscreenenter"",""1"",""5020""
","
","
","""event"",""trial"",""time""
""fullscreenenter"",""1"",""5020""
","
","","","569.8000000000466","","","18","3016","2771","y","elianto","#f73b6a7A"," "," ","1","0","[1420.1999999999534]","1","3","","","3016","157","2","3","lose","go","0"
"pit-trial","242","1450408","0.0-163.0","battery-v0.2","","""event"",""trial"",""time""
""fullscreenenter"",""1"",""5020""
","
","
","""event"",""trial"",""time""
""fullscreenenter"",""1"",""5020""
","
","","","571.1000000000931","","","18","3016","2771","m","elianto","#f73b6a7A"," "," ","1","0","[1421.4000000001397]","1","3","","","3016","158","0","3","lose","go","0"
"pit-trial","243","1455274","0.0-164.0","battery-v0.2","","""event"",""trial"",""time""
""fullscreenenter"",""1"",""5020""
","
","
","""event"",""trial"",""time""
""fullscreenenter"",""1"",""5020""
","
","","","-1","","","18","3016","2771","r","elianto","#3366ff99","-1","-1","1","+10","[]","0","3","","","3016","159","1","2","win","no-go","0"
"pit-trial","244","1458771","0.0-165.0","battery-v0.2","","""event"",""trial"",""time""
""fullscreenenter"",""1"",""5020""
","
","
","""event"",""trial"",""time""
""fullscreenenter"",""1"",""5020""
","
","","","630.3000000000466","","","18","3016","2771","h","elianto","#f73b6a7A","-1"," ","0","-10","[1481.3000000000466]","1","3","","","3016","160","3","4","lose","no-go","0"
"pit-trial","245","1462105","0.0-166.0","battery-v0.2","","""event"",""trial"",""time""
""fullscreenenter"",""1"",""5020""
","
","
","""event"",""trial"",""time""
""fullscreenenter"",""1"",""5020""
","
","","","469.10000000009313","","","18","3016","2771","y","elianto","#f73b6a7A"," "," ","1","0","[1319.4000000001397]","1","3","","","3016","161","2","3","lose","go","0"
"pit-trial","246","1465387","0.0-167.0","battery-v0.2","","""event"",""trial"",""time""
""fullscreenenter"",""1"",""5020""
","
","
","""event"",""trial"",""time""
""fullscreenenter"",""1"",""5020""
","
","","","416.19999999995343","","","18","3016","2771","m","elianto","#f73b6a7A"," "," ","1","0","[1266.6999999999534]","1","3","","","3016","162","0","3","lose","go","0"
"pit-trial","247","1470254","0.0-168.0","battery-v0.2","","""event"",""trial"",""time""
""fullscreenenter"",""1"",""5020""
","
","
","""event"",""trial"",""time""
""fullscreenenter"",""1"",""5020""
","
","","","-1","","","18","3016","2771","r","elianto","#3366ff99","-1","-1","1","+10","[]","0","3","","","3016","163","1","2","win","no-go","0"
"pit-trial","248","1474065","0.0-169.0","battery-v0.2","","""event"",""trial"",""time""
""fullscreenenter"",""1"",""5020""
","
","
","""event"",""trial"",""time""
""fullscreenenter"",""1"",""5020""
","
","","","953.4000000001397","","","18","3016","2771","h","elianto","#f73b6a7A","-1"," ","0","-10","[1804]","1","3","","","3016","164","3","4","lose","no-go","0"
"pit-trial","249","1478507","0.0-170.0","battery-v0.2","","""event"",""trial"",""time""
""fullscreenenter"",""1"",""5020""
","
","
","""event"",""trial"",""time""
""fullscreenenter"",""1"",""5020""
","
","","","1579.8000000000466","","","18","3016","2771","h","elianto","#f73b6a7A","-1"," ","0","-10","[2430.600000000093]","1","3","","","3016","165","3","4","lose","no-go","0"
"pit-trial","250","1481973","0.0-171.0","battery-v0.2","","""event"",""trial"",""time""
""fullscreenenter"",""1"",""5020""
","
","
","""event"",""trial"",""time""
""fullscreenenter"",""1"",""5020""
","
","","","601.4000000001397","","","18","3016","2771","y","elianto","#f73b6a7A"," "," ","1","0","[1452]","1","3","","","3016","166","2","3","lose","go","0"
"pit-trial","251","1486833","0.0-172.0","battery-v0.2","","""event"",""trial"",""time""
""fullscreenenter"",""1"",""5020""
","
","
","""event"",""trial"",""time""
""fullscreenenter"",""1"",""5020""
","
","","","-1","","","18","3016","2771","r","elianto","#3366ff99","-1","-1","1","0","[]","0","3","","","3016","167","1","2","win","no-go","1"
"pit-trial","252","1490241","0.0-173.0","battery-v0.2","","""event"",""trial"",""time""
""fullscreenenter"",""1"",""5020""
","
","
","""event"",""trial"",""time""
""fullscreenenter"",""1"",""5020""
","
","","","542.5","","","18","3016","2771","m","elianto","#f73b6a7A"," "," ","1","0","[1393.1999999999534]","1","3","","","3016","168","0","3","lose","go","0"
"pit-trial","253","1495101","0.0-174.0","battery-v0.2","","""event"",""trial"",""time""
""fullscreenenter"",""1"",""5020""
","
","
","""event"",""trial"",""time""
""fullscreenenter"",""1"",""5020""
","
","","","-1","","","18","3016","2771","h","elianto","#f73b6a7A","-1","-1","1","0","[]","0","3","","","3016","169","3","4","lose","no-go","0"
"pit-trial","254","1499966","0.0-175.0","battery-v0.2","","""event"",""trial"",""time""
""fullscreenenter"",""1"",""5020""
","
","
","""event"",""trial"",""time""
""fullscreenenter"",""1"",""5020""
","
","","","-1","","","18","3016","2771","r","elianto","#3366ff99","-1","-1","1","+10","[]","0","3","","","3016","170","1","2","win","no-go","0"
"pit-trial","255","1503370","0.0-176.0","battery-v0.2","","""event"",""trial"",""time""
""fullscreenenter"",""1"",""5020""
","
","
","""event"",""trial"",""time""
""fullscreenenter"",""1"",""5020""
","
","","","539.5","","","18","3016","2771","m","elianto","#f73b6a7A"," "," ","1","0","[1391.7999999998137]","1","3","","","3016","171","0","3","lose","go","0"
"pit-trial","256","1506749","0.0-177.0","battery-v0.2","","""event"",""trial"",""time""
""fullscreenenter"",""1"",""5020""
","
","
","""event"",""trial"",""time""
""fullscreenenter"",""1"",""5020""
","
","","","512.4000000001397","","","18","3016","2771","y","elianto","#f73b6a7A"," "," ","1","-10","[1363.3000000000466]","1","3","","","3016","172","2","3","lose","go","1"
"pit-trial","257","1511615","0.0-178.0","battery-v0.2","","""event"",""trial"",""time""
""fullscreenenter"",""1"",""5020""
","
","
","""event"",""trial"",""time""
""fullscreenenter"",""1"",""5020""
","
","","","-1","","","18","3016","2771","r","elianto","#3366ff99","-1","-1","1","+10","[]","0","3","","","3016","173","1","2","win","no-go","0"
"pit-trial","258","1514992","0.0-179.0","battery-v0.2","","""event"",""trial"",""time""
""fullscreenenter"",""1"",""5020""
","
","
","""event"",""trial"",""time""
""fullscreenenter"",""1"",""5020""
","
","","","512.3000000000466","","","18","3016","2771","m","elianto","#f73b6a7A"," "," ","1","0","[1362.6000000000931]","1","3","","","3016","174","0","3","lose","go","0"
"pit-trial","259","1518473","0.0-180.0","battery-v0.2","","""event"",""trial"",""time""
""fullscreenenter"",""1"",""5020""
","
","
","""event"",""trial"",""time""
""fullscreenenter"",""1"",""5020""
","
","","","614.8999999999069","","","18","3016","2771","h","elianto","#f73b6a7A","-1"," ","0","-10","[1465.6000000000931]","1","3","","","3016","175","3","4","lose","no-go","0"
"pit-trial","260","1521939","0.0-181.0","battery-v0.2","","""event"",""trial"",""time""
""fullscreenenter"",""1"",""5020""
","
","
","""event"",""trial"",""time""
""fullscreenenter"",""1"",""5020""
","
","","","599.8999999999069","","","18","3016","2771","y","elianto","#f73b6a7A"," "," ","1","0","[1450.7999999998137]","1","3","","","3016","176","2","3","lose","go","0"
"pit-trial","261","1526801","0.0-182.0","battery-v0.2","","""event"",""trial"",""time""
""fullscreenenter"",""1"",""5020""
","
","
","""event"",""trial"",""time""
""fullscreenenter"",""1"",""5020""
","
","","","-1","","","18","3016","2771","h","elianto","#f73b6a7A","-1","-1","1","-10","[]","0","3","","","3016","177","3","4","lose","no-go","1"
"pit-trial","262","1531668","0.0-183.0","battery-v0.2","","""event"",""trial"",""time""
""fullscreenenter"",""1"",""5020""
","
","
","""event"",""trial"",""time""
""fullscreenenter"",""1"",""5020""
","
","","","-1","","","18","3016","2771","z","elianto","#3366ff99"," ","-1","0","0","[]","0","3","","","3016","178","4","1","win","go","0"
"pit-trial","263","1535251","0.0-184.0","battery-v0.2","","""event"",""trial"",""time""
""fullscreenenter"",""1"",""5020""
","
","
","""event"",""trial"",""time""
""fullscreenenter"",""1"",""5020""
","
","","","716.1000000000931","","","18","3016","2771","y","elianto","#f73b6a7A"," "," ","1","0","[1567]","1","3","","","3016","179","2","3","lose","go","0"
"pit-trial","264","1538671","0.0-185.0","battery-v0.2","","""event"",""trial"",""time""
""fullscreenenter"",""1"",""5020""
","
","
","""event"",""trial"",""time""
""fullscreenenter"",""1"",""5020""
","
","","","554.7000000001863","","","18","3016","2771","m","elianto","#f73b6a7A"," "," ","1","0","[1404.7000000001863]","1","3","","","3016","180","0","3","lose","go","0"
"pit-trial","265","1543539","0.0-186.0","battery-v0.2","","""event"",""trial"",""time""
""fullscreenenter"",""1"",""5020""
","
","
","""event"",""trial"",""time""
""fullscreenenter"",""1"",""5020""
","
","","","-1","","","18","3016","2771","h","elianto","#f73b6a7A","-1","-1","1","0","[]","0","3","","","3016","181","3","4","lose","no-go","0"
"pit-trial","266","1548405","0.0-187.0","battery-v0.2","","""event"",""trial"",""time""
""fullscreenenter"",""1"",""5020""
","
","
","""event"",""trial"",""time""
""fullscreenenter"",""1"",""5020""
","
","","","-1","","","18","3016","2771","r","elianto","#3366ff99","-1","-1","1","+10","[]","0","3","","","3016","182","1","2","win","no-go","0"
"pit-trial","267","1551806","0.0-188.0","battery-v0.2","","""event"",""trial"",""time""
""fullscreenenter"",""1"",""5020""
","
","
","""event"",""trial"",""time""
""fullscreenenter"",""1"",""5020""
","
","","","536.5","","","18","3016","2771","y","elianto","#f73b6a7A"," "," ","1","0","[1389.5]","1","3","","","3016","183","2","3","lose","go","0"
