"trial_type","trial_index","time_elapsed","internal_node_id","task_version","subject_id","interactions","blur_events","focus_events","fullscreenenter_events","fullscreenexit_events","success","view_history","rt","responses","num_errors","age","subject","participantId","rune","rune_set","hex","correct","choice","accuracy","outcome","keys","total_keys","block","practice","value","sub","trial","stimulus","robot","valence","action","sham"
"pavlovia","0","35","0.0-0.0","battery-v0.2","","""event"",""trial"",""time""
""fullscreenenter"",""1"",""1918""
","
","
","""event"",""trial"",""time""
""fullscreenenter"",""1"",""1918""
","
","","","","","","","","","","","","","","","","","","","","","","","","","","",""
"fullscreen","1","2921","0.0-1.0","battery-v0.2","","""event"",""trial"",""time""
""fullscreenenter"",""1"",""1918""
","
","
","""event"",""trial"",""time""
""fullscreenenter"",""1"",""1918""
","
","true","","","","","","","","","","","","","","","","","","","","","","","","","",""
"pit-instructions","2","8581","0.0-2.0-0.0","battery-v0.2","","""event"",""trial"",""time""
""fullscreenenter"",""1"",""1918""
","
","
","""event"",""trial"",""time""
""fullscreenenter"",""1"",""1918""
","
","","[{""page_index"":0,""viewing_time"":5655.099999999977}]","5655.599999999977","","","","","","","","","","","","","","","","","","","","","","","",""
"pit-comprehension","3","13080","0.0-2.0-1.0-0.0","battery-v0.2","","""event"",""trial"",""time""
""fullscreenenter"",""1"",""1918""
","
","
","""event"",""trial"",""time""
""fullscreenenter"",""1"",""1918""
","
","","","4493.800000000047","[""shark""]","0","11","5980","3195","","","","","","","","","","","","","","","","","","",""
"pit-instructions","4","14414","0.0-2.0-1.0-1.0","battery-v0.2","","""event"",""trial"",""time""
""fullscreenenter"",""1"",""1918""
","
","
","""event"",""trial"",""time""
""fullscreenenter"",""1"",""1918""
","
","","[{""page_index"":0,""viewing_time"":1315.8000000000466}]","1316.1999999999534","","","","","","","","","","","","","","","","","","","","","","","",""
"pit-comprehension","5","18314","0.0-2.0-2.0-0.0","battery-v0.2","","""event"",""trial"",""time""
""fullscreenenter"",""1"",""1918""
","
","
","""event"",""trial"",""time""
""fullscreenenter"",""1"",""1918""
","
","","","3896.5","[""tiger""]","0","11","5980","3195","","","","","","","","","","","","","","","","","","",""
"pit-instructions","6","19604","0.0-2.0-2.0-1.0","battery-v0.2","","""event"",""trial"",""time""
""fullscreenenter"",""1"",""1918""
","
","
","""event"",""trial"",""time""
""fullscreenenter"",""1"",""1918""
","
","","[{""page_index"":0,""viewing_time"":1286.0999999999767}]","1286.2999999999302","","","","","","","","","","","","","","","","","","","","","","","",""
"pit-instructions","7","176499","0.0-2.0-3.0","battery-v0.2","","""event"",""trial"",""time""
""fullscreenenter"",""1"",""1918""
","
","
","""event"",""trial"",""time""
""fullscreenenter"",""1"",""1918""
","
","","[{""page_index"":0,""viewing_time"":11103.699999999953},{""page_index"":1,""viewing_time"":7223.20000000007},{""page_index"":2,""viewing_time"":10713.09999999986},{""page_index"":3,""viewing_time"":7964.40000000014},{""page_index"":4,""viewing_time"":7843.5},{""page_index"":5,""viewing_time"":5687.300000000047},{""page_index"":4,""viewing_time"":2874.7999999998137},{""page_index"":5,""viewing_time"":5708.5},{""page_index"":4,""viewing_time"":530.8000000000466},{""page_index"":5,""viewing_time"":4144.40000000014},{""page_index"":4,""viewing_time"":5915.799999999814},{""page_index"":5,""viewing_time"":5523.300000000047},{""page_index"":6,""viewing_time"":6456.40000000014},{""page_index"":7,""viewing_time"":6329.299999999814},{""page_index"":8,""viewing_time"":7160},{""page_index"":9,""viewing_time"":12767.5},{""page_index"":10,""viewing_time"":20468.40000000014},{""page_index"":11,""viewing_time"":4284.300000000047},{""page_index"":12,""viewing_time"":2693.7999999998137},{""page_index"":11,""viewing_time"":8800.100000000093},{""page_index"":12,""viewing_time"":8072.600000000093},{""page_index"":13,""viewing_time"":4628.899999999907}]","156894.59999999998","","","","","","","","","","","","","","","","","","","","","","","",""
"pit-trial","8","181342","0.0-2.0-4.0-0.0","battery-v0.2","","""event"",""trial"",""time""
""fullscreenenter"",""1"",""1918""
","
","
","""event"",""trial"",""time""
""fullscreenenter"",""1"",""1918""
","
","","","1986.6999999999534","","","11","5980","3195","&#9784;","elianto","#FFFFF080"," "," ","1","&#10004","[2836.8000000000466]","1","0","0","","","","","","","",""
"pit-trial","9","185086","0.0-2.0-4.1-0.1","battery-v0.2","","""event"",""trial"",""time""
""fullscreenenter"",""1"",""1918""
","
","
","""event"",""trial"",""time""
""fullscreenenter"",""1"",""1918""
","
","","","879.8999999999069","","","11","5980","3195","&#9784;","elianto","#FFFFF080"," "," ","1","&#10004","[1730.5999999998603]","1","0","0","","","","","","","",""
"pit-trial","10","188319","0.0-2.0-4.2-0.2","battery-v0.2","","""event"",""trial"",""time""
""fullscreenenter"",""1"",""1918""
","
","
","""event"",""trial"",""time""
""fullscreenenter"",""1"",""1918""
","
","","","368.9000000001397","","","11","5980","3195","&#9784;","elianto","#FFFFF080"," "," ","1","&#10004","[1225.3000000000466]","1","0","0","","","","","","","",""
"pit-trial","11","191593","0.0-2.0-4.3-0.3","battery-v0.2","","""event"",""trial"",""time""
""fullscreenenter"",""1"",""1918""
","
","
","""event"",""trial"",""time""
""fullscreenenter"",""1"",""1918""
","
","","","408.5","","","11","5980","3195","&#9784;","elianto","#FFFFF080"," "," ","1","&#10004","[1258.8999999999069]","1","0","0","","","","","","","",""
"pit-trial","12","194821","0.0-2.0-4.4-0.4","battery-v0.2","","""event"",""trial"",""time""
""fullscreenenter"",""1"",""1918""
","
","
","""event"",""trial"",""time""
""fullscreenenter"",""1"",""1918""
","
","","","370.69999999995343","","","11","5980","3195","&#9784;","elianto","#FFFFF080"," "," ","1","&#10004","[1222.1999999999534]","1","0","0","","","","","","","",""
"pit-instructions","13","215566","0.0-2.0-5.0","battery-v0.2","","""event"",""trial"",""time""
""fullscreenenter"",""1"",""1918""
","
","
","""event"",""trial"",""time""
""fullscreenenter"",""1"",""1918""
","
","","[{""page_index"":0,""viewing_time"":4981.100000000093},{""page_index"":1,""viewing_time"":6167.800000000047},{""page_index"":2,""viewing_time"":4133.899999999907},{""page_index"":3,""viewing_time"":5457.800000000047}]","20741","","","","","","","","","","","","","","","","","","","","","","","",""
"pit-trial","14","220432","0.0-2.0-6.0-0.0","battery-v0.2","","""event"",""trial"",""time""
""fullscreenenter"",""1"",""1918""
","
","
","""event"",""trial"",""time""
""fullscreenenter"",""1"",""1918""
","
","","","-1","","","11","5980","3195","&#9854;","elianto","#FFFFF080","-1","-1","1","&#10004","[]","0","0","1","","","","","","","",""
"pit-trial","15","225302","0.0-2.0-6.1-0.1","battery-v0.2","","""event"",""trial"",""time""
""fullscreenenter"",""1"",""1918""
","
","
","""event"",""trial"",""time""
""fullscreenenter"",""1"",""1918""
","
","","","-1","","","11","5980","3195","&#9854;","elianto","#FFFFF080","-1","-1","1","&#10004","[]","0","0","1","","","","","","","",""
"pit-trial","16","230167","0.0-2.0-6.2-0.2","battery-v0.2","","""event"",""trial"",""time""
""fullscreenenter"",""1"",""1918""
","
","
","""event"",""trial"",""time""
""fullscreenenter"",""1"",""1918""
","
","","","-1","","","11","5980","3195","&#9854;","elianto","#FFFFF080","-1","-1","1","&#10004","[]","0","0","1","","","","","","","",""
"pit-trial","17","235037","0.0-2.0-6.3-0.3","battery-v0.2","","""event"",""trial"",""time""
""fullscreenenter"",""1"",""1918""
","
","
","""event"",""trial"",""time""
""fullscreenenter"",""1"",""1918""
","
","","","-1","","","11","5980","3195","&#9854;","elianto","#FFFFF080","-1","-1","1","&#10004","[]","0","0","1","","","","","","","",""
"pit-trial","18","239902","0.0-2.0-6.4-0.4","battery-v0.2","","""event"",""trial"",""time""
""fullscreenenter"",""1"",""1918""
","
","
","""event"",""trial"",""time""
""fullscreenenter"",""1"",""1918""
","
","","","-1","","","11","5980","3195","&#9854;","elianto","#FFFFF080","-1","-1","1","&#10004","[]","0","0","1","","","","","","","",""
"pit-instructions","19","353330","0.0-2.0-7.0","battery-v0.2","","""event"",""trial"",""time""
""fullscreenenter"",""1"",""1918""
","
","
","""event"",""trial"",""time""
""fullscreenenter"",""1"",""1918""
","
","","[{""page_index"":0,""viewing_time"":5530.699999999953},{""page_index"":1,""viewing_time"":7373.40000000014},{""page_index"":2,""viewing_time"":5712.699999999953},{""page_index"":3,""viewing_time"":6043.699999999953},{""page_index"":4,""viewing_time"":6151.800000000047},{""page_index"":5,""viewing_time"":6649.5},{""page_index"":6,""viewing_time"":4077.8000000000466},{""page_index"":7,""viewing_time"":7372.199999999953},{""page_index"":8,""viewing_time"":6062.300000000047},{""page_index"":9,""viewing_time"":5847.699999999953},{""page_index"":10,""viewing_time"":6066.699999999953},{""page_index"":11,""viewing_time"":4581.100000000093},{""page_index"":12,""viewing_time"":7011.199999999953},{""page_index"":13,""viewing_time"":7175.09999999986},{""page_index"":14,""viewing_time"":6845.800000000047},{""page_index"":15,""viewing_time"":6637.5},{""page_index"":16,""viewing_time"":6415.90000000014},{""page_index"":17,""viewing_time"":7870.699999999953}]","113426.1000000001","","","","","","","","","","","","","","","","","","","","","","","",""
"pit-trial","20","356997","0.0-2.0-8.0-0.0","battery-v0.2","","""event"",""trial"",""time""
""fullscreenenter"",""1"",""1918""
","
","
","""event"",""trial"",""time""
""fullscreenenter"",""1"",""1918""
","
","","","800","","","11","5980","3195","&#9776;","elianto","#3366ff99"," "," ","1","+10","[1655.6000000000931]","1","0","1","","","","","","","",""
"pit-trial","21","360306","0.0-2.0-8.0-1.0","battery-v0.2","","""event"",""trial"",""time""
""fullscreenenter"",""1"",""1918""
","
","
","""event"",""trial"",""time""
""fullscreenenter"",""1"",""1918""
","
","","","454.19999999995343","","","11","5980","3195","&#9776;","elianto","#3366ff99"," "," ","1","+10","[1306.1999999999534]","1","0","1","","","","","","","",""
"pit-trial","22","363412","0.0-2.0-8.0-2.0","battery-v0.2","","""event"",""trial"",""time""
""fullscreenenter"",""1"",""1918""
","
","
","""event"",""trial"",""time""
""fullscreenenter"",""1"",""1918""
","
","","","239.80000000004657","","","11","5980","3195","&#9776;","elianto","#3366ff99"," "," ","1","+10","[1094.6000000000931]","1","0","1","","","","","","","",""
"pit-trial","23","366947","0.0-2.0-8.0-3.0","battery-v0.2","","""event"",""trial"",""time""
""fullscreenenter"",""1"",""1918""
","
","
","""event"",""trial"",""time""
""fullscreenenter"",""1"",""1918""
","
","","","680","","","11","5980","3195","&#9776;","elianto","#3366ff99"," "," ","1","0","[1530.1999999999534]","1","0","1","","","","","","","",""
"pit-trial","24","370250","0.0-2.0-8.0-4.0","battery-v0.2","","""event"",""trial"",""time""
""fullscreenenter"",""1"",""1918""
","
","
","""event"",""trial"",""time""
""fullscreenenter"",""1"",""1918""
","
","","","440.60000000009313","","","11","5980","3195","&#9776;","elianto","#3366ff99"," "," ","1","+10","[1293.5]","1","0","1","","","","","","","",""
"pit-trial","25","373501","0.0-2.0-8.1-0.1","battery-v0.2","","""event"",""trial"",""time""
""fullscreenenter"",""1"",""1918""
","
","
","""event"",""trial"",""time""
""fullscreenenter"",""1"",""1918""
","
","","","389","","","11","5980","3195","&#9776;","elianto","#3366ff99"," "," ","1","+10","[1243.1000000000931]","1","0","1","","","","","","","",""
"pit-trial","26","377669","0.0-2.0-8.1-1.1","battery-v0.2","","""event"",""trial"",""time""
""fullscreenenter"",""1"",""1918""
","
","
","""event"",""trial"",""time""
""fullscreenenter"",""1"",""1918""
","
","","","1300.6000000000931","","","11","5980","3195","&#9776;","elianto","#3366ff99"," "," ","1","+10","[2156.600000000093]","1","0","1","","","","","","","",""
"pit-trial","27","381098","0.0-2.0-8.1-2.1","battery-v0.2","","""event"",""trial"",""time""
""fullscreenenter"",""1"",""1918""
","
","
","""event"",""trial"",""time""
""fullscreenenter"",""1"",""1918""
","
","","","564.1999999999534","","","11","5980","3195","&#9776;","elianto","#3366ff99"," "," ","1","+10","[1424.8000000000466]","1","0","1","","","","","","","",""
"pit-trial","28","384524","0.0-2.0-8.1-3.1","battery-v0.2","","""event"",""trial"",""time""
""fullscreenenter"",""1"",""1918""
","
","
","""event"",""trial"",""time""
""fullscreenenter"",""1"",""1918""
","
","","","563.3000000000466","","","11","5980","3195","&#9776;","elianto","#3366ff99"," "," ","1","0","[1414.1000000000931]","1","0","1","","","","","","","",""
"pit-trial","29","387788","0.0-2.0-8.1-4.1","battery-v0.2","","""event"",""trial"",""time""
""fullscreenenter"",""1"",""1918""
","
","
","""event"",""trial"",""time""
""fullscreenenter"",""1"",""1918""
","
","","","404.89999999990687","","","11","5980","3195","&#9776;","elianto","#3366ff99"," "," ","1","+10","[1257.1999999999534]","1","0","1","","","","","","","",""
"pit-trial","30","391067","0.0-2.0-8.2-0.2","battery-v0.2","","""event"",""trial"",""time""
""fullscreenenter"",""1"",""1918""
","
","
","""event"",""trial"",""time""
""fullscreenenter"",""1"",""1918""
","
","","","409.0999999998603","","","11","5980","3195","&#9776;","elianto","#3366ff99"," "," ","1","+10","[1267.5999999998603]","1","0","1","","","","","","","",""
"pit-trial","31","394516","0.0-2.0-8.2-1.2","battery-v0.2","","""event"",""trial"",""time""
""fullscreenenter"",""1"",""1918""
","
","
","""event"",""trial"",""time""
""fullscreenenter"",""1"",""1918""
","
","","","590","","","11","5980","3195","&#9776;","elianto","#3366ff99"," "," ","1","+10","[1441.4000000001397]","1","0","1","","","","","","","",""
"pit-trial","32","397714","0.0-2.0-8.2-2.2","battery-v0.2","","""event"",""trial"",""time""
""fullscreenenter"",""1"",""1918""
","
","
","""event"",""trial"",""time""
""fullscreenenter"",""1"",""1918""
","
","","","336.89999999990687","","","11","5980","3195","&#9776;","elianto","#3366ff99"," "," ","1","+10","[1188.5]","1","0","1","","","","","","","",""
"pit-trial","33","401034","0.0-2.0-8.2-3.2","battery-v0.2","","""event"",""trial"",""time""
""fullscreenenter"",""1"",""1918""
","
","
","""event"",""trial"",""time""
""fullscreenenter"",""1"",""1918""
","
","","","464","","","11","5980","3195","&#9776;","elianto","#3366ff99"," "," ","1","0","[1314.5999999998603]","1","0","1","","","","","","","",""
"pit-trial","34","404029","0.0-2.0-8.2-4.2","battery-v0.2","","""event"",""trial"",""time""
""fullscreenenter"",""1"",""1918""
","
","
","""event"",""trial"",""time""
""fullscreenenter"",""1"",""1918""
","
","","","123.89999999990687","","","11","5980","3195","&#9776;","elianto","#3366ff99"," "," ","1","+10","[980.5]","1","0","1","","","","","","","",""
"call-function","35","404032","0.0-2.0-9.0","battery-v0.2","","""event"",""trial"",""time""
""fullscreenenter"",""1"",""1918""
","
","
","""event"",""trial"",""time""
""fullscreenenter"",""1"",""1918""
","
","","","","","","","","","","","","","","","","","","","","","","","","","","",""
"pit-instructions","36","443102","0.0-2.0-10.0","battery-v0.2","","""event"",""trial"",""time""
""fullscreenenter"",""1"",""1918""
","
","
","""event"",""trial"",""time""
""fullscreenenter"",""1"",""1918""
","
","","[{""page_index"":0,""viewing_time"":5560.199999999953},{""page_index"":1,""viewing_time"":6510.800000000047},{""page_index"":2,""viewing_time"":10082.699999999953},{""page_index"":3,""viewing_time"":8616.300000000047},{""page_index"":4,""viewing_time"":8299.5}]","39069.89999999991","","","","","","","","","","","","","","","","","","","","","","","",""
"pit-trial","37","446784","0.0-2.0-11.0-0.0","battery-v0.2","","""event"",""trial"",""time""
""fullscreenenter"",""1"",""1918""
","
","
","""event"",""trial"",""time""
""fullscreenenter"",""1"",""1918""
","
","","","820.6000000000931","","","11","5980","3195","&#9761;","elianto","#3366ff99","-1"," ","0","0","[1677.9000000001397]","1","0","2","","","","","","","",""
"pit-trial","38","451649","0.0-2.0-11.0-1.0","battery-v0.2","","""event"",""trial"",""time""
""fullscreenenter"",""1"",""1918""
","
","
","""event"",""trial"",""time""
""fullscreenenter"",""1"",""1918""
","
","","","-1","","","11","5980","3195","&#9761;","elianto","#3366ff99","-1","-1","1","+10","[]","0","0","2","","","","","","","",""
"pit-trial","39","456513","0.0-2.0-11.0-2.0","battery-v0.2","","""event"",""trial"",""time""
""fullscreenenter"",""1"",""1918""
","
","
","""event"",""trial"",""time""
""fullscreenenter"",""1"",""1918""
","
","","","-1","","","11","5980","3195","&#9761;","elianto","#3366ff99","-1","-1","1","+10","[]","0","0","2","","","","","","","",""
"pit-trial","40","461378","0.0-2.0-11.0-3.0","battery-v0.2","","""event"",""trial"",""time""
""fullscreenenter"",""1"",""1918""
","
","
","""event"",""trial"",""time""
""fullscreenenter"",""1"",""1918""
","
","","","-1","","","11","5980","3195","&#9761;","elianto","#3366ff99","-1","-1","1","0","[]","0","0","2","","","","","","","",""
"pit-trial","41","466242","0.0-2.0-11.0-4.0","battery-v0.2","","""event"",""trial"",""time""
""fullscreenenter"",""1"",""1918""
","
","
","""event"",""trial"",""time""
""fullscreenenter"",""1"",""1918""
","
","","","-1","","","11","5980","3195","&#9761;","elianto","#3366ff99","-1","-1","1","+10","[]","0","0","2","","","","","","","",""
"pit-trial","42","471112","0.0-2.0-11.1-0.1","battery-v0.2","","""event"",""trial"",""time""
""fullscreenenter"",""1"",""1918""
","
","
","""event"",""trial"",""time""
""fullscreenenter"",""1"",""1918""
","
","","","-1","","","11","5980","3195","&#9761;","elianto","#3366ff99","-1","-1","1","+10","[]","0","0","2","","","","","","","",""
"pit-trial","43","475978","0.0-2.0-11.1-1.1","battery-v0.2","","""event"",""trial"",""time""
""fullscreenenter"",""1"",""1918""
","
","
","""event"",""trial"",""time""
""fullscreenenter"",""1"",""1918""
","
","","","-1","","","11","5980","3195","&#9761;","elianto","#3366ff99","-1","-1","1","+10","[]","0","0","2","","","","","","","",""
"pit-trial","44","480842","0.0-2.0-11.1-2.1","battery-v0.2","","""event"",""trial"",""time""
""fullscreenenter"",""1"",""1918""
","
","
","""event"",""trial"",""time""
""fullscreenenter"",""1"",""1918""
","
","","","-1","","","11","5980","3195","&#9761;","elianto","#3366ff99","-1","-1","1","+10","[]","0","0","2","","","","","","","",""
"pit-trial","45","485707","0.0-2.0-11.1-3.1","battery-v0.2","","""event"",""trial"",""time""
""fullscreenenter"",""1"",""1918""
","
","
","""event"",""trial"",""time""
""fullscreenenter"",""1"",""1918""
","
","","","-1","","","11","5980","3195","&#9761;","elianto","#3366ff99","-1","-1","1","0","[]","0","0","2","","","","","","","",""
"pit-trial","46","490577","0.0-2.0-11.1-4.1","battery-v0.2","","""event"",""trial"",""time""
""fullscreenenter"",""1"",""1918""
","
","
","""event"",""trial"",""time""
""fullscreenenter"",""1"",""1918""
","
","","","-1","","","11","5980","3195","&#9761;","elianto","#3366ff99","-1","-1","1","+10","[]","0","0","2","","","","","","","",""
"pit-trial","47","494948","0.0-2.0-11.2-0.2","battery-v0.2","","""event"",""trial"",""time""
""fullscreenenter"",""1"",""1918""
","
","
","""event"",""trial"",""time""
""fullscreenenter"",""1"",""1918""
","
","","","1505.8000000000466","","","11","5980","3195","&#9761;","elianto","#3366ff99","-1"," ","0","0","[2358.3000000000466]","1","0","2","","","","","","","",""
"pit-trial","48","499819","0.0-2.0-11.2-1.2","battery-v0.2","","""event"",""trial"",""time""
""fullscreenenter"",""1"",""1918""
","
","
","""event"",""trial"",""time""
""fullscreenenter"",""1"",""1918""
","
","","","-1","","","11","5980","3195","&#9761;","elianto","#3366ff99","-1","-1","1","+10","[]","0","0","2","","","","","","","",""
"pit-trial","49","503743","0.0-2.0-11.2-2.2","battery-v0.2","","""event"",""trial"",""time""
""fullscreenenter"",""1"",""1918""
","
","
","""event"",""trial"",""time""
""fullscreenenter"",""1"",""1918""
","
","","","1051.8000000000466","","","11","5980","3195","&#9761;","elianto","#3366ff99","-1"," ","0","0","[1915.4000000001397]","1","0","2","","","","","","","",""
"pit-trial","50","508607","0.0-2.0-11.2-3.2","battery-v0.2","","""event"",""trial"",""time""
""fullscreenenter"",""1"",""1918""
","
","
","""event"",""trial"",""time""
""fullscreenenter"",""1"",""1918""
","
","","","-1","","","11","5980","3195","&#9761;","elianto","#3366ff99","-1","-1","1","0","[]","0","0","2","","","","","","","",""
"pit-trial","51","513472","0.0-2.0-11.2-4.2","battery-v0.2","","""event"",""trial"",""time""
""fullscreenenter"",""1"",""1918""
","
","
","""event"",""trial"",""time""
""fullscreenenter"",""1"",""1918""
","
","","","-1","","","11","5980","3195","&#9761;","elianto","#3366ff99","-1","-1","1","+10","[]","0","0","2","","","","","","","",""
"pit-trial","52","518336","0.0-2.0-11.3-0.3","battery-v0.2","","""event"",""trial"",""time""
""fullscreenenter"",""1"",""1918""
","
","
","""event"",""trial"",""time""
""fullscreenenter"",""1"",""1918""
","
","","","-1","","","11","5980","3195","&#9761;","elianto","#3366ff99","-1","-1","1","+10","[]","0","0","2","","","","","","","",""
"pit-trial","53","523201","0.0-2.0-11.3-1.3","battery-v0.2","","""event"",""trial"",""time""
""fullscreenenter"",""1"",""1918""
","
","
","""event"",""trial"",""time""
""fullscreenenter"",""1"",""1918""
","
","","","-1","","","11","5980","3195","&#9761;","elianto","#3366ff99","-1","-1","1","+10","[]","0","0","2","","","","","","","",""
"pit-trial","54","526794","0.0-2.0-11.3-2.3","battery-v0.2","","""event"",""trial"",""time""
""fullscreenenter"",""1"",""1918""
","
","
","""event"",""trial"",""time""
""fullscreenenter"",""1"",""1918""
","
","","","729.8000000000466","","","11","5980","3195","&#9761;","elianto","#3366ff99","-1"," ","0","0","[1582.7000000001863,2378.3000000000466]","2","0","2","","","","","","","",""
"pit-trial","55","530056","0.0-2.0-11.3-3.3","battery-v0.2","","""event"",""trial"",""time""
""fullscreenenter"",""1"",""1918""
","
","
","""event"",""trial"",""time""
""fullscreenenter"",""1"",""1918""
","
","","","398.80000000004657","","","11","5980","3195","&#9761;","elianto","#3366ff99","-1"," ","0","+10","[1251.1999999999534]","1","0","2","","","","","","","",""
"pit-trial","56","534921","0.0-2.0-11.3-4.3","battery-v0.2","","""event"",""trial"",""time""
""fullscreenenter"",""1"",""1918""
","
","
","""event"",""trial"",""time""
""fullscreenenter"",""1"",""1918""
","
","","","-1","","","11","5980","3195","&#9761;","elianto","#3366ff99","-1","-1","1","+10","[]","0","0","2","","","","","","","",""
"call-function","57","534923","0.0-2.0-12.0","battery-v0.2","","""event"",""trial"",""time""
""fullscreenenter"",""1"",""1918""
","
","
","""event"",""trial"",""time""
""fullscreenenter"",""1"",""1918""
","
","","","","","","","","","","","","","","","","","","","","","","","","","","",""
"pit-instructions","58","572017","0.0-2.0-13.0","battery-v0.2","","""event"",""trial"",""time""
""fullscreenenter"",""1"",""1918""
","
","
","""event"",""trial"",""time""
""fullscreenenter"",""1"",""1918""
","
","","[{""page_index"":0,""viewing_time"":8884.5},{""page_index"":1,""viewing_time"":7873.800000000047},{""page_index"":2,""viewing_time"":5236.800000000047},{""page_index"":3,""viewing_time"":10907.59999999986},{""page_index"":4,""viewing_time"":4190.300000000047}]","37093.5","","","","","","","","","","","","","","","","","","","","","","","",""
"pit-trial","59","576880","0.0-2.0-14.0-0.0","battery-v0.2","","""event"",""trial"",""time""
""fullscreenenter"",""1"",""1918""
","
","
","""event"",""trial"",""time""
""fullscreenenter"",""1"",""1918""
","
","","","-1","","","11","5980","3195","&#9826;","elianto","#f73b6a7A","-1","-1","1","0","[]","0","0","3","","","","","","","",""
"pit-trial","60","581745","0.0-2.0-14.0-1.0","battery-v0.2","","""event"",""trial"",""time""
""fullscreenenter"",""1"",""1918""
","
","
","""event"",""trial"",""time""
""fullscreenenter"",""1"",""1918""
","
","","","-1","","","11","5980","3195","&#9826;","elianto","#f73b6a7A","-1","-1","1","0","[]","0","0","3","","","","","","","",""
"pit-trial","61","586614","0.0-2.0-14.0-2.0","battery-v0.2","","""event"",""trial"",""time""
""fullscreenenter"",""1"",""1918""
","
","
","""event"",""trial"",""time""
""fullscreenenter"",""1"",""1918""
","
","","","-1","","","11","5980","3195","&#9826;","elianto","#f73b6a7A","-1","-1","1","0","[]","0","0","3","","","","","","","",""
"pit-trial","62","590232","0.0-2.0-14.0-3.0","battery-v0.2","","""event"",""trial"",""time""
""fullscreenenter"",""1"",""1918""
","
","
","""event"",""trial"",""time""
""fullscreenenter"",""1"",""1918""
","
","","","758.6999999999534","","","11","5980","3195","&#9826;","elianto","#f73b6a7A","-1"," ","0","0","[1609.3999999999069]","1","0","3","","","","","","","",""
"pit-trial","63","595097","0.0-2.0-14.0-4.0","battery-v0.2","","""event"",""trial"",""time""
""fullscreenenter"",""1"",""1918""
","
","
","""event"",""trial"",""time""
""fullscreenenter"",""1"",""1918""
","
","","","-1","","","11","5980","3195","&#9826;","elianto","#f73b6a7A","-1","-1","1","0","[]","0","0","3","","","","","","","",""
"pit-trial","64","599966","0.0-2.0-14.1-0.1","battery-v0.2","","""event"",""trial"",""time""
""fullscreenenter"",""1"",""1918""
","
","
","""event"",""trial"",""time""
""fullscreenenter"",""1"",""1918""
","
","","","-1","","","11","5980","3195","&#9826;","elianto","#f73b6a7A","-1","-1","1","0","[]","0","0","3","","","","","","","",""
"pit-trial","65","604833","0.0-2.0-14.1-1.1","battery-v0.2","","""event"",""trial"",""time""
""fullscreenenter"",""1"",""1918""
","
","
","""event"",""trial"",""time""
""fullscreenenter"",""1"",""1918""
","
","","","-1","","","11","5980","3195","&#9826;","elianto","#f73b6a7A","-1","-1","1","0","[]","0","0","3","","","","","","","",""
"pit-trial","66","608327","0.0-2.0-14.1-2.1","battery-v0.2","","""event"",""trial"",""time""
""fullscreenenter"",""1"",""1918""
","
","
","""event"",""trial"",""time""
""fullscreenenter"",""1"",""1918""
","
","","","629.5","","","11","5980","3195","&#9826;","elianto","#f73b6a7A","-1"," ","0","-10","[1487]","1","0","3","","","","","","","",""
"pit-trial","67","613192","0.0-2.0-14.1-3.1","battery-v0.2","","""event"",""trial"",""time""
""fullscreenenter"",""1"",""1918""
","
","
","""event"",""trial"",""time""
""fullscreenenter"",""1"",""1918""
","
","","","-1","","","11","5980","3195","&#9826;","elianto","#f73b6a7A","-1","-1","1","-10","[]","0","0","3","","","","","","","",""
"pit-trial","68","618056","0.0-2.0-14.1-4.1","battery-v0.2","","""event"",""trial"",""time""
""fullscreenenter"",""1"",""1918""
","
","
","""event"",""trial"",""time""
""fullscreenenter"",""1"",""1918""
","
","","","-1","","","11","5980","3195","&#9826;","elianto","#f73b6a7A","-1","-1","1","0","[]","0","0","3","","","","","","","",""
"pit-trial","69","622926","0.0-2.0-14.2-0.2","battery-v0.2","","""event"",""trial"",""time""
""fullscreenenter"",""1"",""1918""
","
","
","""event"",""trial"",""time""
""fullscreenenter"",""1"",""1918""
","
","","","-1","","","11","5980","3195","&#9826;","elianto","#f73b6a7A","-1","-1","1","0","[]","0","0","3","","","","","","","",""
"pit-trial","70","627791","0.0-2.0-14.2-1.2","battery-v0.2","","""event"",""trial"",""time""
""fullscreenenter"",""1"",""1918""
","
","
","""event"",""trial"",""time""
""fullscreenenter"",""1"",""1918""
","
","","","-1","","","11","5980","3195","&#9826;","elianto","#f73b6a7A","-1","-1","1","0","[]","0","0","3","","","","","","","",""
"pit-trial","71","631390","0.0-2.0-14.2-2.2","battery-v0.2","","""event"",""trial"",""time""
""fullscreenenter"",""1"",""1918""
","
","
","""event"",""trial"",""time""
""fullscreenenter"",""1"",""1918""
","
","","","736","","","11","5980","3195","&#9826;","elianto","#f73b6a7A","-1"," ","0","-10","[1587]","1","0","3","","","","","","","",""
"pit-trial","72","634669","0.0-2.0-14.2-3.2","battery-v0.2","","""event"",""trial"",""time""
""fullscreenenter"",""1"",""1918""
","
","
","""event"",""trial"",""time""
""fullscreenenter"",""1"",""1918""
","
","","","418.10000000009313","","","11","5980","3195","&#9826;","elianto","#f73b6a7A","-1"," ","0","0","[1270.9000000001397]","1","0","3","","","","","","","",""
"pit-trial","73","639534","0.0-2.0-14.2-4.2","battery-v0.2","","""event"",""trial"",""time""
""fullscreenenter"",""1"",""1918""
","
","
","""event"",""trial"",""time""
""fullscreenenter"",""1"",""1918""
","
","","","-1","","","11","5980","3195","&#9826;","elianto","#f73b6a7A","-1","-1","1","0","[]","0","0","3","","","","","","","",""
"pit-trial","74","644399","0.0-2.0-14.3-0.3","battery-v0.2","","""event"",""trial"",""time""
""fullscreenenter"",""1"",""1918""
","
","
","""event"",""trial"",""time""
""fullscreenenter"",""1"",""1918""
","
","","","-1","","","11","5980","3195","&#9826;","elianto","#f73b6a7A","-1","-1","1","0","[]","0","0","3","","","","","","","",""
"pit-trial","75","649263","0.0-2.0-14.3-1.3","battery-v0.2","","""event"",""trial"",""time""
""fullscreenenter"",""1"",""1918""
","
","
","""event"",""trial"",""time""
""fullscreenenter"",""1"",""1918""
","
","","","-1","","","11","5980","3195","&#9826;","elianto","#f73b6a7A","-1","-1","1","0","[]","0","0","3","","","","","","","",""
"pit-trial","76","654128","0.0-2.0-14.3-2.3","battery-v0.2","","""event"",""trial"",""time""
""fullscreenenter"",""1"",""1918""
","
","
","""event"",""trial"",""time""
""fullscreenenter"",""1"",""1918""
","
","","","-1","","","11","5980","3195","&#9826;","elianto","#f73b6a7A","-1","-1","1","0","[]","0","0","3","","","","","","","",""
"pit-trial","77","658998","0.0-2.0-14.3-3.3","battery-v0.2","","""event"",""trial"",""time""
""fullscreenenter"",""1"",""1918""
","
","
","""event"",""trial"",""time""
""fullscreenenter"",""1"",""1918""
","
","","","-1","","","11","5980","3195","&#9826;","elianto","#f73b6a7A","-1","-1","1","-10","[]","0","0","3","","","","","","","",""
"pit-trial","78","663863","0.0-2.0-14.3-4.3","battery-v0.2","","""event"",""trial"",""time""
""fullscreenenter"",""1"",""1918""
","
","
","""event"",""trial"",""time""
""fullscreenenter"",""1"",""1918""
","
","","","-1","","","11","5980","3195","&#9826;","elianto","#f73b6a7A","-1","-1","1","0","[]","0","0","3","","","","","","","",""
"call-function","79","663865","0.0-2.0-15.0","battery-v0.2","","""event"",""trial"",""time""
""fullscreenenter"",""1"",""1918""
","
","
","""event"",""trial"",""time""
""fullscreenenter"",""1"",""1918""
","
","","","","","","","","","","","","","","","","","","","","","","","","","","",""
"pit-instructions","80","713369","0.0-2.0-16.0","battery-v0.2","","""event"",""trial"",""time""
""fullscreenenter"",""1"",""1918""
","
","
","""event"",""trial"",""time""
""fullscreenenter"",""1"",""1918""
","
","","[{""page_index"":0,""viewing_time"":31483.199999999953},{""page_index"":1,""viewing_time"":9266.199999999953},{""page_index"":2,""viewing_time"":4055.9000000001397},{""page_index"":3,""viewing_time"":4698.199999999953}]","49504.09999999986","","","","","","","","","","","","","","","","","","","","","","","",""
"pit-trial","81","716806","0.0-2.0-17.0-0.0","battery-v0.2","","""event"",""trial"",""time""
""fullscreenenter"",""1"",""1918""
","
","
","""event"",""trial"",""time""
""fullscreenenter"",""1"",""1918""
","
","","","571.8000000000466","","","11","5980","3195","&#9789;","elianto","#f73b6a7A"," "," ","1","0","[1425.8000000000466]","1","0","4","","","","","","","",""
"pit-trial","82","720062","0.0-2.0-17.0-1.0","battery-v0.2","","""event"",""trial"",""time""
""fullscreenenter"",""1"",""1918""
","
","
","""event"",""trial"",""time""
""fullscreenenter"",""1"",""1918""
","
","","","395.19999999995343","","","11","5980","3195","&#9789;","elianto","#f73b6a7A"," "," ","1","0","[1246.6999999999534]","1","0","4","","","","","","","",""
"pit-trial","83","723406","0.0-2.0-17.0-2.0","battery-v0.2","","""event"",""trial"",""time""
""fullscreenenter"",""1"",""1918""
","
","
","""event"",""trial"",""time""
""fullscreenenter"",""1"",""1918""
","
","","","475.19999999995343","","","11","5980","3195","&#9789;","elianto","#f73b6a7A"," "," ","1","0","[1331.5]","1","0","4","","","","","","","",""
"pit-trial","84","726494","0.0-2.0-17.0-3.0","battery-v0.2","","""event"",""trial"",""time""
""fullscreenenter"",""1"",""1918""
","
","
","""event"",""trial"",""time""
""fullscreenenter"",""1"",""1918""
","
","","","228.30000000004657","","","11","5980","3195","&#9789;","elianto","#f73b6a7A"," "," ","1","-10","[1078.8999999999069]","1","0","4","","","","","","","",""
"pit-trial","85","730099","0.0-2.0-17.0-4.0","battery-v0.2","","""event"",""trial"",""time""
""fullscreenenter"",""1"",""1918""
","
","
","""event"",""trial"",""time""
""fullscreenenter"",""1"",""1918""
","
","","","738.1000000000931","","","11","5980","3195","&#9789;","elianto","#f73b6a7A"," "," ","1","0","[1595.1999999999534]","1","0","4","","","","","","","",""
"pit-trial","86","733524","0.0-2.0-17.1-0.1","battery-v0.2","","""event"",""trial"",""time""
""fullscreenenter"",""1"",""1918""
","
","
","""event"",""trial"",""time""
""fullscreenenter"",""1"",""1918""
","
","","","562.6000000000931","","","11","5980","3195","&#9789;","elianto","#f73b6a7A"," "," ","1","0","[1416.0999999998603]","1","0","4","","","","","","","",""
"pit-trial","87","736491","0.0-2.0-17.1-1.1","battery-v0.2","","""event"",""trial"",""time""
""fullscreenenter"",""1"",""1918""
","
","
","""event"",""trial"",""time""
""fullscreenenter"",""1"",""1918""
","
","","","106.5","","","11","5980","3195","&#9789;","elianto","#f73b6a7A"," "," ","1","0","[963.3000000000466]","1","0","4","","","","","","","",""
"pit-trial","88","741355","0.0-2.0-17.1-2.1","battery-v0.2","","""event"",""trial"",""time""
""fullscreenenter"",""1"",""1918""
","
","
","""event"",""trial"",""time""
""fullscreenenter"",""1"",""1918""
","
","","","-1","","","11","5980","3195","&#9789;","elianto","#f73b6a7A"," ","-1","0","-10","[]","0","0","4","","","","","","","",""
"pit-trial","89","746220","0.0-2.0-17.1-3.1","battery-v0.2","","""event"",""trial"",""time""
""fullscreenenter"",""1"",""1918""
","
","
","""event"",""trial"",""time""
""fullscreenenter"",""1"",""1918""
","
","","","-1","","","11","5980","3195","&#9789;","elianto","#f73b6a7A"," ","-1","0","0","[]","0","0","4","","","","","","","",""
"pit-trial","90","749645","0.0-2.0-17.1-4.1","battery-v0.2","","""event"",""trial"",""time""
""fullscreenenter"",""1"",""1918""
","
","
","""event"",""trial"",""time""
""fullscreenenter"",""1"",""1918""
","
","","","563.2999999998137","","","11","5980","3195","&#9789;","elianto","#f73b6a7A"," "," ","1","0","[801,1415]","2","0","4","","","","","","","",""
"pit-trial","91","753651","0.0-2.0-17.2-0.2","battery-v0.2","","""event"",""trial"",""time""
""fullscreenenter"",""1"",""1918""
","
","
","""event"",""trial"",""time""
""fullscreenenter"",""1"",""1918""
","
","","","1142.1000000000931","","","11","5980","3195","&#9789;","elianto","#f73b6a7A"," "," ","1","0","[1998.1000000000931]","1","0","4","","","","","","","",""
"pit-trial","92","756892","0.0-2.0-17.2-1.2","battery-v0.2","","""event"",""trial"",""time""
""fullscreenenter"",""1"",""1918""
","
","
","""event"",""trial"",""time""
""fullscreenenter"",""1"",""1918""
","
","","","375.69999999995343","","","11","5980","3195","&#9789;","elianto","#f73b6a7A"," "," ","1","0","[226.10000000009313,1233.9000000001397]","2","0","4","","","","","","","",""
"pit-trial","93","760431","0.0-2.0-17.2-2.2","battery-v0.2","","""event"",""trial"",""time""
""fullscreenenter"",""1"",""1918""
","
","
","""event"",""trial"",""time""
""fullscreenenter"",""1"",""1918""
","
","","","676","","","11","5980","3195","&#9789;","elianto","#f73b6a7A"," "," ","1","0","[1526.6000000000931]","1","0","4","","","","","","","",""
"pit-trial","94","763781","0.0-2.0-17.2-3.2","battery-v0.2","","""event"",""trial"",""time""
""fullscreenenter"",""1"",""1918""
","
","
","""event"",""trial"",""time""
""fullscreenenter"",""1"",""1918""
","
","","","483","","","11","5980","3195","&#9789;","elianto","#f73b6a7A"," "," ","1","-10","[1341.5999999998603]","1","0","4","","","","","","","",""
"pit-trial","95","766967","0.0-2.0-17.2-4.2","battery-v0.2","","""event"",""trial"",""time""
""fullscreenenter"",""1"",""1918""
","
","
","""event"",""trial"",""time""
""fullscreenenter"",""1"",""1918""
","
","","","321.5999999998603","","","11","5980","3195","&#9789;","elianto","#f73b6a7A"," "," ","1","0","[1173.1999999999534]","1","0","4","","","","","","","",""
"pit-trial","96","770108","0.0-2.0-17.3-0.3","battery-v0.2","","""event"",""trial"",""time""
""fullscreenenter"",""1"",""1918""
","
","
","""event"",""trial"",""time""
""fullscreenenter"",""1"",""1918""
","
","","","274.79999999981374","","","11","5980","3195","&#9789;","elianto","#f73b6a7A"," "," ","1","0","[1133.1999999999534]","1","0","4","","","","","","","",""
"pit-trial","97","773300","0.0-2.0-17.3-1.3","battery-v0.2","","""event"",""trial"",""time""
""fullscreenenter"",""1"",""1918""
","
","
","""event"",""trial"",""time""
""fullscreenenter"",""1"",""1918""
","
","","","331","","","11","5980","3195","&#9789;","elianto","#f73b6a7A"," "," ","1","0","[1182]","1","0","4","","","","","","","",""
"pit-trial","98","777190","0.0-2.0-17.3-2.3","battery-v0.2","","""event"",""trial"",""time""
""fullscreenenter"",""1"",""1918""
","
","
","""event"",""trial"",""time""
""fullscreenenter"",""1"",""1918""
","
","","","1025","","","11","5980","3195","&#9789;","elianto","#f73b6a7A"," "," ","1","0","[1880.3000000000466]","1","0","4","","","","","","","",""
"pit-trial","99","782060","0.0-2.0-17.3-3.3","battery-v0.2","","""event"",""trial"",""time""
""fullscreenenter"",""1"",""1918""
","
","
","""event"",""trial"",""time""
""fullscreenenter"",""1"",""1918""
","
","","","-1","","","11","5980","3195","&#9789;","elianto","#f73b6a7A"," ","-1","0","0","[]","0","0","4","","","","","","","",""
"pit-trial","100","785311","0.0-2.0-17.3-4.3","battery-v0.2","","""event"",""trial"",""time""
""fullscreenenter"",""1"",""1918""
","
","
","""event"",""trial"",""time""
""fullscreenenter"",""1"",""1918""
","
","","","385.5","","","11","5980","3195","&#9789;","elianto","#f73b6a7A"," "," ","1","0","[1241]","1","0","4","","","","","","","",""
"call-function","101","785313","0.0-2.0-18.0","battery-v0.2","","""event"",""trial"",""time""
""fullscreenenter"",""1"",""1918""
","
","
","""event"",""trial"",""time""
""fullscreenenter"",""1"",""1918""
","
","","","","","","","","","","","","","","","","","","","","","","","","","","",""
"pit-instructions","102","876323","0.0-2.0-19.0","battery-v0.2","","""event"",""trial"",""time""
""fullscreenenter"",""1"",""1918""
","
","
","""event"",""trial"",""time""
""fullscreenenter"",""1"",""1918""
","
","","[{""page_index"":0,""viewing_time"":11794.100000000093},{""page_index"":1,""viewing_time"":5808.199999999953},{""page_index"":0,""viewing_time"":4947.800000000047},{""page_index"":1,""viewing_time"":6709.5},{""page_index"":2,""viewing_time"":15055.199999999953},{""page_index"":3,""viewing_time"":7528},{""page_index"":4,""viewing_time"":8418.300000000047},{""page_index"":5,""viewing_time"":8218.899999999907},{""page_index"":6,""viewing_time"":8540.800000000047},{""page_index"":7,""viewing_time"":6883.699999999953},{""page_index"":8,""viewing_time"":7105.899999999907}]","91010.80000000005","","","","","","","","","","","","","","","","","","","","","","","",""
"pit-comprehension","103","883247","0.0-2.0-20.0-0.0","battery-v0.2","","""event"",""trial"",""time""
""fullscreenenter"",""1"",""1918""
","
","
","""event"",""trial"",""time""
""fullscreenenter"",""1"",""1918""
","
","","","6920.100000000093","[""SPACE""]","0","11","5980","3195","","","","","","","","","","","","","","","","","","",""
"pit-instructions","104","885798","0.0-2.0-20.0-1.0","battery-v0.2","","""event"",""trial"",""time""
""fullscreenenter"",""1"",""1918""
","
","
","""event"",""trial"",""time""
""fullscreenenter"",""1"",""1918""
","
","","[{""page_index"":0,""viewing_time"":2503.0999999998603}]","2503.5","","","","","","","","","","","","","","","","","","","","","","","",""
"pit-comprehension","105","893193","0.0-2.0-21.0-0.0","battery-v0.2","","""event"",""trial"",""time""
""fullscreenenter"",""1"",""1918""
","
","
","""event"",""trial"",""time""
""fullscreenenter"",""1"",""1918""
","
","","","7390.5","[""10""]","0","11","5980","3195","","","","","","","","","","","","","","","","","","",""
"pit-instructions","106","894808","0.0-2.0-21.0-1.0","battery-v0.2","","""event"",""trial"",""time""
""fullscreenenter"",""1"",""1918""
","
","
","""event"",""trial"",""time""
""fullscreenenter"",""1"",""1918""
","
","","[{""page_index"":0,""viewing_time"":1567.6000000000931}]","1568","","","","","","","","","","","","","","","","","","","","","","","",""
"pit-comprehension","107","901621","0.0-2.0-22.0-0.0","battery-v0.2","","""event"",""trial"",""time""
""fullscreenenter"",""1"",""1918""
","
","
","""event"",""trial"",""time""
""fullscreenenter"",""1"",""1918""
","
","","","6809.90000000014","[""0""]","0","11","5980","3195","","","","","","","","","","","","","","","","","","",""
"pit-instructions","108","903110","0.0-2.0-22.0-1.0","battery-v0.2","","""event"",""trial"",""time""
""fullscreenenter"",""1"",""1918""
","
","
","""event"",""trial"",""time""
""fullscreenenter"",""1"",""1918""
","
","","[{""page_index"":0,""viewing_time"":1442.6000000000931}]","1442.9000000001397","","","","","","","","","","","","","","","","","","","","","","","",""
"pit-comprehension","109","913344","0.0-2.0-23.0-0.0","battery-v0.2","","""event"",""trial"",""time""
""fullscreenenter"",""1"",""1918""
","
","
","""event"",""trial"",""time""
""fullscreenenter"",""1"",""1918""
","
","","","10230.299999999814","[""True""]","0","11","5980","3195","","","","","","","","","","","","","","","","","","",""
"pit-instructions","110","914835","0.0-2.0-23.0-1.0","battery-v0.2","","""event"",""trial"",""time""
""fullscreenenter"",""1"",""1918""
","
","
","""event"",""trial"",""time""
""fullscreenenter"",""1"",""1918""
","
","","[{""page_index"":0,""viewing_time"":1440.0999999998603}]","1440.5","","","","","","","","","","","","","","","","","","","","","","","",""
"pit-comprehension","111","922215","0.0-2.0-24.0-0.0","battery-v0.2","","""event"",""trial"",""time""
""fullscreenenter"",""1"",""1918""
","
","
","""event"",""trial"",""time""
""fullscreenenter"",""1"",""1918""
","
","","","7376.600000000093","[""True""]","0","11","5980","3195","","","","","","","","","","","","","","","","","","",""
"pit-instructions","112","924758","0.0-2.0-24.0-1.0","battery-v0.2","","""event"",""trial"",""time""
""fullscreenenter"",""1"",""1918""
","
","
","""event"",""trial"",""time""
""fullscreenenter"",""1"",""1918""
","
","","[{""page_index"":0,""viewing_time"":2494}]","2494.4000000001397","","","","","","","","","","","","","","","","","","","","","","","",""
"pit-comprehension","113","933466","0.0-2.0-25.0-0.0","battery-v0.2","","""event"",""trial"",""time""
""fullscreenenter"",""1"",""1918""
","
","
","""event"",""trial"",""time""
""fullscreenenter"",""1"",""1918""
","
","","","8704.199999999953","[""True""]","0","11","5980","3195","","","","","","","","","","","","","","","","","","",""
"pit-instructions","114","934911","0.0-2.0-25.0-1.0","battery-v0.2","","""event"",""trial"",""time""
""fullscreenenter"",""1"",""1918""
","
","
","""event"",""trial"",""time""
""fullscreenenter"",""1"",""1918""
","
","","[{""page_index"":0,""viewing_time"":1395.3000000000466}]","1395.6000000000931","","","","","","","","","","","","","","","","","","","","","","","",""
"pit-comprehension","115","940134","0.0-2.0-26.0-0.0","battery-v0.2","","""event"",""trial"",""time""
""fullscreenenter"",""1"",""1918""
","
","
","""event"",""trial"",""time""
""fullscreenenter"",""1"",""1918""
","
","","","5219.40000000014","[""False""]","0","11","5980","3195","","","","","","","","","","","","","","","","","","",""
"pit-instructions","116","941621","0.0-2.0-26.0-1.0","battery-v0.2","","""event"",""trial"",""time""
""fullscreenenter"",""1"",""1918""
","
","
","""event"",""trial"",""time""
""fullscreenenter"",""1"",""1918""
","
","","[{""page_index"":0,""viewing_time"":1434.9000000001397}]","1435.3000000000466","","","","","","","","","","","","","","","","","","","","","","","",""
"pit-instructions","117","958144","0.0-3.0","battery-v0.2","","""event"",""trial"",""time""
""fullscreenenter"",""1"",""1918""
","
","
","""event"",""trial"",""time""
""fullscreenenter"",""1"",""1918""
","
","","[{""page_index"":0,""viewing_time"":3629.4000000001397},{""page_index"":1,""viewing_time"":5466.5},{""page_index"":2,""viewing_time"":7424.899999999907}]","16521.199999999953","","","","","","","","","","","","","","","","","","","","","","","",""
"pit-trial","118","962276","0.0-4.0","battery-v0.2","","""event"",""trial"",""time""
""fullscreenenter"",""1"",""1918""
","
","
","""event"",""trial"",""time""
""fullscreenenter"",""1"",""1918""
","
","","","1261.7000000001863","","","11","5980","3195","&#9752;","elianto","#f73b6a7A"," "," ","1","0","[2118.7000000001863]","1","1","","","5980","1","3","3","lose","go","0"
"pit-trial","119","966763","0.0-5.0","battery-v0.2","","""event"",""trial"",""time""
""fullscreenenter"",""1"",""1918""
","
","
","""event"",""trial"",""time""
""fullscreenenter"",""1"",""1918""
","
","","","1628.6000000000931","","","11","5980","3195","&#9733;","elianto","#3366ff99","-1"," ","0","0","[2479.5]","1","1","","","5980","2","2","2","win","no-go","0"
"pit-trial","120","971633","0.0-6.0","battery-v0.2","","""event"",""trial"",""time""
""fullscreenenter"",""1"",""1918""
","
","
","""event"",""trial"",""time""
""fullscreenenter"",""1"",""1918""
","
","","","-1","","","11","5980","3195","&#9728;","elianto","#f73b6a7A","-1","-1","1","0","[]","0","1","","","5980","3","0","4","lose","no-go","0"
"pit-trial","121","975743","0.0-7.0","battery-v0.2","","""event"",""trial"",""time""
""fullscreenenter"",""1"",""1918""
","
","
","""event"",""trial"",""time""
""fullscreenenter"",""1"",""1918""
","
","","","1247.8999999999069","","","11","5980","3195","&#9730;","elianto","#3366ff99"," "," ","1","+10","[2102.1999999999534]","1","1","","","5980","4","1","1","win","go","0"
"pit-trial","122","979760","0.0-8.0","battery-v0.2","","""event"",""trial"",""time""
""fullscreenenter"",""1"",""1918""
","
","
","""event"",""trial"",""time""
""fullscreenenter"",""1"",""1918""
","
","","","1160.3000000000466","","","11","5980","3195","&#9730;","elianto","#3366ff99"," "," ","1","+10","[2010.8000000000466]","1","1","","","5980","5","1","1","win","go","0"
"pit-trial","123","984624","0.0-9.0","battery-v0.2","","""event"",""trial"",""time""
""fullscreenenter"",""1"",""1918""
","
","
","""event"",""trial"",""time""
""fullscreenenter"",""1"",""1918""
","
","","","-1","","","11","5980","3195","&#9733;","elianto","#3366ff99","-1","-1","1","0","[]","0","1","","","5980","6","2","2","win","no-go","1"
"pit-trial","124","989490","0.0-10.0","battery-v0.2","","""event"",""trial"",""time""
""fullscreenenter"",""1"",""1918""
","
","
","""event"",""trial"",""time""
""fullscreenenter"",""1"",""1918""
","
","","","-1","","","11","5980","3195","&#9728;","elianto","#f73b6a7A","-1","-1","1","0","[]","0","1","","","5980","7","0","4","lose","no-go","0"
"pit-trial","125","994227","0.0-11.0","battery-v0.2","","""event"",""trial"",""time""
""fullscreenenter"",""1"",""1918""
","
","
","""event"",""trial"",""time""
""fullscreenenter"",""1"",""1918""
","
","","","1865.8000000000466","","","11","5980","3195","&#9752;","elianto","#f73b6a7A"," "," ","1","-10","[2721.9000000001397]","1","1","","","5980","8","3","3","lose","go","1"
"pit-trial","126","998784","0.0-12.0","battery-v0.2","","""event"",""trial"",""time""
""fullscreenenter"",""1"",""1918""
","
","
","""event"",""trial"",""time""
""fullscreenenter"",""1"",""1918""
","
","","","1690.4000000001397","","","11","5980","3195","&#9733;","elianto","#3366ff99","-1"," ","0","0","[2547.100000000093]","1","1","","","5980","9","2","2","win","no-go","0"
"pit-trial","127","1003648","0.0-13.0","battery-v0.2","","""event"",""trial"",""time""
""fullscreenenter"",""1"",""1918""
","
","
","""event"",""trial"",""time""
""fullscreenenter"",""1"",""1918""
","
","","","-1","","","11","5980","3195","&#9752;","elianto","#f73b6a7A"," ","-1","0","-10","[]","0","1","","","5980","10","3","3","lose","go","0"
"pit-trial","128","1007375","0.0-14.0","battery-v0.2","","""event"",""trial"",""time""
""fullscreenenter"",""1"",""1918""
","
","
","""event"",""trial"",""time""
""fullscreenenter"",""1"",""1918""
","
","","","863.1999999999534","","","11","5980","3195","&#9730;","elianto","#3366ff99"," "," ","1","+10","[1715.3000000000466]","1","1","","","5980","11","1","1","win","go","0"
"pit-trial","129","1011914","0.0-15.0","battery-v0.2","","""event"",""trial"",""time""
""fullscreenenter"",""1"",""1918""
","
","
","""event"",""trial"",""time""
""fullscreenenter"",""1"",""1918""
","
","","","1668.1999999999534","","","11","5980","3195","&#9728;","elianto","#f73b6a7A","-1"," ","0","-10","[767.3999999999069,2524.3000000000466]","2","1","","","5980","12","0","4","lose","no-go","0"
"pit-trial","130","1016784","0.0-16.0","battery-v0.2","","""event"",""trial"",""time""
""fullscreenenter"",""1"",""1918""
","
","
","""event"",""trial"",""time""
""fullscreenenter"",""1"",""1918""
","
","","","-1","","","11","5980","3195","&#9728;","elianto","#f73b6a7A","-1","-1","1","-10","[]","0","1","","","5980","13","0","4","lose","no-go","1"
"pit-trial","131","1021649","0.0-17.0","battery-v0.2","","""event"",""trial"",""time""
""fullscreenenter"",""1"",""1918""
","
","
","""event"",""trial"",""time""
""fullscreenenter"",""1"",""1918""
","
","","","-1","","","11","5980","3195","&#9733;","elianto","#3366ff99","-1","-1","1","+10","[]","0","1","","","5980","14","2","2","win","no-go","0"
"pit-trial","132","1025405","0.0-18.0","battery-v0.2","","""event"",""trial"",""time""
""fullscreenenter"",""1"",""1918""
","
","
","""event"",""trial"",""time""
""fullscreenenter"",""1"",""1918""
","
","","","898.4000000001397","","","11","5980","3195","&#9730;","elianto","#3366ff99"," "," ","1","0","[1750.1999999999534]","1","1","","","5980","15","1","1","win","go","1"
"pit-trial","133","1030269","0.0-19.0","battery-v0.2","","""event"",""trial"",""time""
""fullscreenenter"",""1"",""1918""
","
","
","""event"",""trial"",""time""
""fullscreenenter"",""1"",""1918""
","
","","","-1","","","11","5980","3195","&#9752;","elianto","#f73b6a7A"," ","-1","0","-10","[]","0","1","","","5980","16","3","3","lose","go","0"
"pit-trial","134","1033990","0.0-20.0","battery-v0.2","","""event"",""trial"",""time""
""fullscreenenter"",""1"",""1918""
","
","
","""event"",""trial"",""time""
""fullscreenenter"",""1"",""1918""
","
","","","864.4000000001397","","","11","5980","3195","&#9730;","elianto","#3366ff99"," "," ","1","+10","[1715]","1","1","","","5980","17","1","1","win","go","0"
"pit-trial","135","1037822","0.0-21.0","battery-v0.2","","""event"",""trial"",""time""
""fullscreenenter"",""1"",""1918""
","
","
","""event"",""trial"",""time""
""fullscreenenter"",""1"",""1918""
","
","","","967.1000000000931","","","11","5980","3195","&#9752;","elianto","#f73b6a7A"," "," ","1","-10","[1824.1999999999534]","1","1","","","5980","18","3","3","lose","go","1"
"pit-trial","136","1042686","0.0-22.0","battery-v0.2","","""event"",""trial"",""time""
""fullscreenenter"",""1"",""1918""
","
","
","""event"",""trial"",""time""
""fullscreenenter"",""1"",""1918""
","
","","","-1","","","11","5980","3195","&#9728;","elianto","#f73b6a7A","-1","-1","1","0","[]","0","1","","","5980","19","0","4","lose","no-go","0"
"pit-trial","137","1047551","0.0-23.0","battery-v0.2","","""event"",""trial"",""time""
""fullscreenenter"",""1"",""1918""
","
","
","""event"",""trial"",""time""
""fullscreenenter"",""1"",""1918""
","
","","","-1","","","11","5980","3195","&#9733;","elianto","#3366ff99","-1","-1","1","+10","[]","0","1","","","5980","20","2","2","win","no-go","0"
"pit-instructions","138","1059849","0.0-24.0","battery-v0.2","","""event"",""trial"",""time""
""fullscreenenter"",""1"",""1918""
","
","
","""event"",""trial"",""time""
""fullscreenenter"",""1"",""1918""
","
","","[{""page_index"":0,""viewing_time"":5956.300000000047},{""page_index"":1,""viewing_time"":6339.40000000014}]","12296.200000000186","","","","","","","","","","","","","","","","","","","","","","","",""
"pit-trial","139","1064720","0.0-25.0","battery-v0.2","","""event"",""trial"",""time""
""fullscreenenter"",""1"",""1918""
","
","
","""event"",""trial"",""time""
""fullscreenenter"",""1"",""1918""
","
","","","-1","","","11","5980","3195","t","elianto","#f73b6a7A","-1","-1","1","0","[]","0","2","","","5980","21","2","4","lose","no-go","0"
"pit-trial","140","1068958","0.0-26.0","battery-v0.2","","""event"",""trial"",""time""
""fullscreenenter"",""1"",""1918""
","
","
","""event"",""trial"",""time""
""fullscreenenter"",""1"",""1918""
","
","","","1373.3999999999069","","","11","5980","3195","n","elianto","#f73b6a7A","-1"," ","0","-10","[2231.1999999999534]","1","2","","","5980","22","0","4","lose","no-go","0"
"pit-trial","141","1073230","0.0-27.0","battery-v0.2","","""event"",""trial"",""time""
""fullscreenenter"",""1"",""1918""
","
","
","""event"",""trial"",""time""
""fullscreenenter"",""1"",""1918""
","
","","","1417.3000000000466","","","11","5980","3195","b","elianto","#f73b6a7A"," "," ","1","0","[2268.8000000000466]","1","2","","","5980","23","3","3","lose","go","0"
"pit-trial","142","1077557","0.0-28.0","battery-v0.2","","""event"",""trial"",""time""
""fullscreenenter"",""1"",""1918""
","
","
","""event"",""trial"",""time""
""fullscreenenter"",""1"",""1918""
","
","","","1465.6000000000931","","","11","5980","3195","f","elianto","#3366ff99"," "," ","1","+10","[2316.5999999998603]","1","2","","","5980","24","1","1","win","go","0"
"pit-trial","143","1081389","0.0-29.0","battery-v0.2","","""event"",""trial"",""time""
""fullscreenenter"",""1"",""1918""
","
","
","""event"",""trial"",""time""
""fullscreenenter"",""1"",""1918""
","
","","","972.6000000000931","","","11","5980","3195","f","elianto","#3366ff99"," "," ","1","0","[1823.1000000000931]","1","2","","","5980","25","1","1","win","go","1"
"pit-trial","144","1086252","0.0-30.0","battery-v0.2","","""event"",""trial"",""time""
""fullscreenenter"",""1"",""1918""
","
","
","""event"",""trial"",""time""
""fullscreenenter"",""1"",""1918""
","
","","","-1","","","11","5980","3195","b","elianto","#f73b6a7A"," ","-1","0","-10","[]","0","2","","","5980","26","3","3","lose","go","0"
"pit-trial","145","1090449","0.0-31.0","battery-v0.2","","""event"",""trial"",""time""
""fullscreenenter"",""1"",""1918""
","
","
","""event"",""trial"",""time""
""fullscreenenter"",""1"",""1918""
","
","","","1329.8000000000466","","","11","5980","3195","n","elianto","#f73b6a7A","-1"," ","0","0","[2181.2000000001863]","1","2","","","5980","27","0","4","lose","no-go","1"
"pit-trial","146","1095319","0.0-32.0","battery-v0.2","","""event"",""trial"",""time""
""fullscreenenter"",""1"",""1918""
","
","
","""event"",""trial"",""time""
""fullscreenenter"",""1"",""1918""
","
","","","-1","","","11","5980","3195","t","elianto","#f73b6a7A","-1","-1","1","0","[]","0","2","","","5980","28","2","4","lose","no-go","0"
"pit-trial","147","1100190","0.0-33.0","battery-v0.2","","""event"",""trial"",""time""
""fullscreenenter"",""1"",""1918""
","
","
","""event"",""trial"",""time""
""fullscreenenter"",""1"",""1918""
","
","","","-1","","","11","5980","3195","b","elianto","#f73b6a7A"," ","-1","0","-10","[]","0","2","","","5980","29","3","3","lose","go","0"
"pit-trial","148","1104792","0.0-34.0","battery-v0.2","","""event"",""trial"",""time""
""fullscreenenter"",""1"",""1918""
","
","
","""event"",""trial"",""time""
""fullscreenenter"",""1"",""1918""
","
","","","1738.6000000000931","","","11","5980","3195","f","elianto","#3366ff99"," "," ","1","+10","[2589]","1","2","","","5980","30","1","1","win","go","0"
"pit-trial","149","1109663","0.0-35.0","battery-v0.2","","""event"",""trial"",""time""
""fullscreenenter"",""1"",""1918""
","
","
","""event"",""trial"",""time""
""fullscreenenter"",""1"",""1918""
","
","","","-1","","","11","5980","3195","t","elianto","#f73b6a7A","-1","-1","1","0","[]","0","2","","","5980","31","2","4","lose","no-go","0"
"pit-trial","150","1114144","0.0-36.0","battery-v0.2","","""event"",""trial"",""time""
""fullscreenenter"",""1"",""1918""
","
","
","""event"",""trial"",""time""
""fullscreenenter"",""1"",""1918""
","
","","","1615","","","11","5980","3195","n","elianto","#f73b6a7A","-1"," ","0","-10","[2469.5]","1","2","","","5980","32","0","4","lose","no-go","0"
"pit-trial","151","1118127","0.0-37.0","battery-v0.2","","""event"",""trial"",""time""
""fullscreenenter"",""1"",""1918""
","
","
","""event"",""trial"",""time""
""fullscreenenter"",""1"",""1918""
","
","","","1113.6000000000931","","","11","5980","3195","f","elianto","#3366ff99"," "," ","1","+10","[1973]","1","2","","","5980","33","1","1","win","go","0"
"pit-trial","152","1122486","0.0-38.0","battery-v0.2","","""event"",""trial"",""time""
""fullscreenenter"",""1"",""1918""
","
","
","""event"",""trial"",""time""
""fullscreenenter"",""1"",""1918""
","
","","","1493.7000000001863","","","11","5980","3195","b","elianto","#f73b6a7A"," "," ","1","0","[2346.899999999907]","1","2","","","5980","34","3","3","lose","go","0"
"pit-trial","153","1127351","0.0-39.0","battery-v0.2","","""event"",""trial"",""time""
""fullscreenenter"",""1"",""1918""
","
","
","""event"",""trial"",""time""
""fullscreenenter"",""1"",""1918""
","
","","","-1","","","11","5980","3195","n","elianto","#f73b6a7A","-1","-1","1","-10","[3583.7999999998137]","1","2","","","5980","35","0","4","lose","no-go","1"
"pit-trial","154","1132220","0.0-40.0","battery-v0.2","","""event"",""trial"",""time""
""fullscreenenter"",""1"",""1918""
","
","
","""event"",""trial"",""time""
""fullscreenenter"",""1"",""1918""
","
","","","-1","","","11","5980","3195","t","elianto","#f73b6a7A","-1","-1","1","-10","[3164.5]","1","2","","","5980","36","2","4","lose","no-go","1"
"pit-trial","155","1137085","0.0-41.0","battery-v0.2","","""event"",""trial"",""time""
""fullscreenenter"",""1"",""1918""
","
","
","""event"",""trial"",""time""
""fullscreenenter"",""1"",""1918""
","
","","","-1","","","11","5980","3195","t","elianto","#f73b6a7A","-1","-1","1","0","[3177.399999999907]","1","2","","","5980","37","2","4","lose","no-go","0"
"pit-trial","156","1141631","0.0-42.0","battery-v0.2","","""event"",""trial"",""time""
""fullscreenenter"",""1"",""1918""
","
","
","""event"",""trial"",""time""
""fullscreenenter"",""1"",""1918""
","
","","","1682.8999999999069","","","11","5980","3195","n","elianto","#f73b6a7A","-1"," ","0","-10","[2533.6999999997206]","1","2","","","5980","38","0","4","lose","no-go","0"
"pit-trial","157","1145270","0.0-43.0","battery-v0.2","","""event"",""trial"",""time""
""fullscreenenter"",""1"",""1918""
","
","
","""event"",""trial"",""time""
""fullscreenenter"",""1"",""1918""
","
","","","780.2000000001863","","","11","5980","3195","f","elianto","#3366ff99"," "," ","1","+10","[1630.3999999999069]","1","2","","","5980","39","1","1","win","go","0"
"pit-trial","158","1150140","0.0-44.0","battery-v0.2","","""event"",""trial"",""time""
""fullscreenenter"",""1"",""1918""
","
","
","""event"",""trial"",""time""
""fullscreenenter"",""1"",""1918""
","
","","","-1","","","11","5980","3195","b","elianto","#f73b6a7A"," ","-1","0","0","[]","0","2","","","5980","40","3","3","lose","go","1"
"pit-trial","159","1155005","0.0-45.0","battery-v0.2","","""event"",""trial"",""time""
""fullscreenenter"",""1"",""1918""
","
","
","""event"",""trial"",""time""
""fullscreenenter"",""1"",""1918""
","
","","","-1","","","11","5980","3195","n","elianto","#f73b6a7A","-1","-1","1","0","[]","0","2","","","5980","41","0","4","lose","no-go","0"
"pit-trial","160","1158743","0.0-46.0","battery-v0.2","","""event"",""trial"",""time""
""fullscreenenter"",""1"",""1918""
","
","
","""event"",""trial"",""time""
""fullscreenenter"",""1"",""1918""
","
","","","871.3000000002794","","","11","5980","3195","f","elianto","#3366ff99"," "," ","1","+10","[1726]","1","2","","","5980","42","1","1","win","go","0"
"pit-trial","161","1163613","0.0-47.0","battery-v0.2","","""event"",""trial"",""time""
""fullscreenenter"",""1"",""1918""
","
","
","""event"",""trial"",""time""
""fullscreenenter"",""1"",""1918""
","
","","","-1","","","11","5980","3195","t","elianto","#f73b6a7A","-1","-1","1","-10","[3309.5]","1","2","","","5980","43","2","4","lose","no-go","1"
"pit-trial","162","1168478","0.0-48.0","battery-v0.2","","""event"",""trial"",""time""
""fullscreenenter"",""1"",""1918""
","
","
","""event"",""trial"",""time""
""fullscreenenter"",""1"",""1918""
","
","","","-1","","","11","5980","3195","b","elianto","#f73b6a7A"," ","-1","0","-10","[3172.899999999907]","1","2","","","5980","44","3","3","lose","go","0"
"pit-trial","163","1172483","0.0-49.0","battery-v0.2","","""event"",""trial"",""time""
""fullscreenenter"",""1"",""1918""
","
","
","""event"",""trial"",""time""
""fullscreenenter"",""1"",""1918""
","
","","","1149.7999999998137","","","11","5980","3195","n","elianto","#f73b6a7A","-1"," ","0","-10","[2000.2999999998137]","1","2","","","5980","45","0","4","lose","no-go","0"
"pit-trial","164","1176477","0.0-50.0","battery-v0.2","","""event"",""trial"",""time""
""fullscreenenter"",""1"",""1918""
","
","
","""event"",""trial"",""time""
""fullscreenenter"",""1"",""1918""
","
","","","1132.1000000000931","","","11","5980","3195","c","elianto","#3366ff99","-1"," ","0","+10","[1982.1000000000931]","1","2","","","5980","46","4","2","win","no-go","1"
"pit-trial","165","1181342","0.0-51.0","battery-v0.2","","""event"",""trial"",""time""
""fullscreenenter"",""1"",""1918""
","
","
","""event"",""trial"",""time""
""fullscreenenter"",""1"",""1918""
","
","","","-1","","","11","5980","3195","t","elianto","#f73b6a7A","-1","-1","1","0","[]","0","2","","","5980","47","2","4","lose","no-go","0"
"pit-trial","166","1186212","0.0-52.0","battery-v0.2","","""event"",""trial"",""time""
""fullscreenenter"",""1"",""1918""
","
","
","""event"",""trial"",""time""
""fullscreenenter"",""1"",""1918""
","
","","","-1","","","11","5980","3195","b","elianto","#f73b6a7A"," ","-1","0","-10","[3167.2000000001863]","1","2","","","5980","48","3","3","lose","go","0"
"pit-trial","167","1190595","0.0-53.0","battery-v0.2","","""event"",""trial"",""time""
""fullscreenenter"",""1"",""1918""
","
","
","""event"",""trial"",""time""
""fullscreenenter"",""1"",""1918""
","
","","","1517","","","11","5980","3195","c","elianto","#3366ff99","-1"," ","0","0","[2371.6999999997206]","1","2","","","5980","49","4","2","win","no-go","0"
"pit-trial","168","1195459","0.0-54.0","battery-v0.2","","""event"",""trial"",""time""
""fullscreenenter"",""1"",""1918""
","
","
","""event"",""trial"",""time""
""fullscreenenter"",""1"",""1918""
","
","","","-1","","","11","5980","3195","n","elianto","#f73b6a7A","-1","-1","1","0","[]","0","2","","","5980","50","0","4","lose","no-go","0"
"pit-trial","169","1200324","0.0-55.0","battery-v0.2","","""event"",""trial"",""time""
""fullscreenenter"",""1"",""1918""
","
","
","""event"",""trial"",""time""
""fullscreenenter"",""1"",""1918""
","
","","","-1","","","11","5980","3195","b","elianto","#f73b6a7A"," ","-1","0","0","[]","0","2","","","5980","51","3","3","lose","go","1"
"pit-trial","170","1204126","0.0-56.0","battery-v0.2","","""event"",""trial"",""time""
""fullscreenenter"",""1"",""1918""
","
","
","""event"",""trial"",""time""
""fullscreenenter"",""1"",""1918""
","
","","","941.3999999999069","","","11","5980","3195","f","elianto","#3366ff99"," "," ","1","+10","[1791.8000000002794]","1","2","","","5980","52","1","1","win","go","0"
"pit-trial","171","1208996","0.0-57.0","battery-v0.2","","""event"",""trial"",""time""
""fullscreenenter"",""1"",""1918""
","
","
","""event"",""trial"",""time""
""fullscreenenter"",""1"",""1918""
","
","","","-1","","","11","5980","3195","t","elianto","#f73b6a7A","-1","-1","1","0","[]","0","2","","","5980","53","2","4","lose","no-go","0"
"pit-trial","172","1213031","0.0-58.0","battery-v0.2","","""event"",""trial"",""time""
""fullscreenenter"",""1"",""1918""
","
","
","""event"",""trial"",""time""
""fullscreenenter"",""1"",""1918""
","
","","","1176.3000000002794","","","11","5980","3195","f","elianto","#3366ff99"," "," ","1","+10","[2028.5]","1","2","","","5980","54","1","1","win","go","0"
"pit-trial","173","1217901","0.0-59.0","battery-v0.2","","""event"",""trial"",""time""
""fullscreenenter"",""1"",""1918""
","
","
","""event"",""trial"",""time""
""fullscreenenter"",""1"",""1918""
","
","","","-1","","","11","5980","3195","n","elianto","#f73b6a7A","-1","-1","1","0","[]","0","2","","","5980","55","0","4","lose","no-go","0"
"pit-trial","174","1222771","0.0-60.0","battery-v0.2","","""event"",""trial"",""time""
""fullscreenenter"",""1"",""1918""
","
","
","""event"",""trial"",""time""
""fullscreenenter"",""1"",""1918""
","
","","","-1","","","11","5980","3195","c","elianto","#3366ff99","-1","-1","1","+10","[]","0","2","","","5980","56","4","2","win","no-go","0"
"pit-trial","175","1227636","0.0-61.0","battery-v0.2","","""event"",""trial"",""time""
""fullscreenenter"",""1"",""1918""
","
","
","""event"",""trial"",""time""
""fullscreenenter"",""1"",""1918""
","
","","","-1","","","11","5980","3195","c","elianto","#3366ff99","-1","-1","1","+10","[]","0","2","","","5980","57","4","2","win","no-go","0"
"pit-trial","176","1232500","0.0-62.0","battery-v0.2","","""event"",""trial"",""time""
""fullscreenenter"",""1"",""1918""
","
","
","""event"",""trial"",""time""
""fullscreenenter"",""1"",""1918""
","
","","","-1","","","11","5980","3195","n","elianto","#f73b6a7A","-1","-1","1","0","[]","0","2","","","5980","58","0","4","lose","no-go","0"
"pit-trial","177","1237365","0.0-63.0","battery-v0.2","","""event"",""trial"",""time""
""fullscreenenter"",""1"",""1918""
","
","
","""event"",""trial"",""time""
""fullscreenenter"",""1"",""1918""
","
","","","-1","","","11","5980","3195","b","elianto","#f73b6a7A"," ","-1","0","0","[]","0","2","","","5980","59","3","3","lose","go","1"
"pit-trial","178","1241022","0.0-64.0","battery-v0.2","","""event"",""trial"",""time""
""fullscreenenter"",""1"",""1918""
","
","
","""event"",""trial"",""time""
""fullscreenenter"",""1"",""1918""
","
","","","782.5","","","11","5980","3195","f","elianto","#3366ff99"," "," ","1","+10","[1643.2999999998137]","1","2","","","5980","60","1","1","win","go","0"
"pit-trial","179","1244980","0.0-65.0","battery-v0.2","","""event"",""trial"",""time""
""fullscreenenter"",""1"",""1918""
","
","
","""event"",""trial"",""time""
""fullscreenenter"",""1"",""1918""
","
","","","1093.3000000002794","","","11","5980","3195","f","elianto","#3366ff99"," "," ","1","+10","[1951.2000000001863]","1","2","","","5980","61","1","1","win","go","0"
"pit-trial","180","1249851","0.0-66.0","battery-v0.2","","""event"",""trial"",""time""
""fullscreenenter"",""1"",""1918""
","
","
","""event"",""trial"",""time""
""fullscreenenter"",""1"",""1918""
","
","","","-1","","","11","5980","3195","b","elianto","#f73b6a7A"," ","-1","0","-10","[]","0","2","","","5980","62","3","3","lose","go","0"
"pit-trial","181","1253563","0.0-67.0","battery-v0.2","","""event"",""trial"",""time""
""fullscreenenter"",""1"",""1918""
","
","
","""event"",""trial"",""time""
""fullscreenenter"",""1"",""1918""
","
","","","841.7000000001863","","","11","5980","3195","c","elianto","#3366ff99","-1"," ","0","0","[1700.3000000002794]","1","2","","","5980","63","4","2","win","no-go","0"
"pit-trial","182","1258425","0.0-68.0","battery-v0.2","","""event"",""trial"",""time""
""fullscreenenter"",""1"",""1918""
","
","
","""event"",""trial"",""time""
""fullscreenenter"",""1"",""1918""
","
","","","-1","","","11","5980","3195","t","elianto","#f73b6a7A","-1","-1","1","-10","[]","0","2","","","5980","64","2","4","lose","no-go","1"
"pit-trial","183","1262860","0.0-69.0","battery-v0.2","","""event"",""trial"",""time""
""fullscreenenter"",""1"",""1918""
","
","
","""event"",""trial"",""time""
""fullscreenenter"",""1"",""1918""
","
","","","1568.2000000001863","","","11","5980","3195","f","elianto","#3366ff99"," "," ","1","+10","[2428.8000000002794,2583.8000000002794]","2","2","","","5980","65","1","1","win","go","0"
"pit-trial","184","1267724","0.0-70.0","battery-v0.2","","""event"",""trial"",""time""
""fullscreenenter"",""1"",""1918""
","
","
","""event"",""trial"",""time""
""fullscreenenter"",""1"",""1918""
","
","","","-1","","","11","5980","3195","c","elianto","#3366ff99","-1","-1","1","+10","[]","0","2","","","5980","66","4","2","win","no-go","0"
"pit-trial","185","1272594","0.0-71.0","battery-v0.2","","""event"",""trial"",""time""
""fullscreenenter"",""1"",""1918""
","
","
","""event"",""trial"",""time""
""fullscreenenter"",""1"",""1918""
","
","","","-1","","","11","5980","3195","b","elianto","#f73b6a7A"," ","-1","0","0","[]","0","2","","","5980","67","3","3","lose","go","1"
"pit-trial","186","1277459","0.0-72.0","battery-v0.2","","""event"",""trial"",""time""
""fullscreenenter"",""1"",""1918""
","
","
","""event"",""trial"",""time""
""fullscreenenter"",""1"",""1918""
","
","","","-1","","","11","5980","3195","t","elianto","#f73b6a7A","-1","-1","1","0","[3131.5]","1","2","","","5980","68","2","4","lose","no-go","0"
"pit-trial","187","1281186","0.0-73.0","battery-v0.2","","""event"",""trial"",""time""
""fullscreenenter"",""1"",""1918""
","
","
","""event"",""trial"",""time""
""fullscreenenter"",""1"",""1918""
","
","","","863.3000000002794","","","11","5980","3195","f","elianto","#3366ff99"," "," ","1","+10","[1716.8000000002794,2945.5]","2","2","","","5980","69","1","1","win","go","0"
"pit-trial","188","1285696","0.0-74.0","battery-v0.2","","""event"",""trial"",""time""
""fullscreenenter"",""1"",""1918""
","
","
","""event"",""trial"",""time""
""fullscreenenter"",""1"",""1918""
","
","","","1644.7999999998137","","","11","5980","3195","z","elianto","#3366ff99"," "," ","1","+10","[2500.899999999907]","1","2","","","5980","70","5","1","win","go","0"
"pit-trial","189","1290561","0.0-75.0","battery-v0.2","","""event"",""trial"",""time""
""fullscreenenter"",""1"",""1918""
","
","
","""event"",""trial"",""time""
""fullscreenenter"",""1"",""1918""
","
","","","-1","","","11","5980","3195","c","elianto","#3366ff99","-1","-1","1","+10","[]","0","2","","","5980","71","4","2","win","no-go","0"
"pit-trial","190","1295425","0.0-76.0","battery-v0.2","","""event"",""trial"",""time""
""fullscreenenter"",""1"",""1918""
","
","
","""event"",""trial"",""time""
""fullscreenenter"",""1"",""1918""
","
","","","-1","","","11","5980","3195","b","elianto","#f73b6a7A"," ","-1","0","-10","[]","0","2","","","5980","72","3","3","lose","go","0"
"pit-trial","191","1300289","0.0-77.0","battery-v0.2","","""event"",""trial"",""time""
""fullscreenenter"",""1"",""1918""
","
","
","""event"",""trial"",""time""
""fullscreenenter"",""1"",""1918""
","
","","","-1","","","11","5980","3195","b","elianto","#f73b6a7A"," ","-1","0","-10","[]","0","2","","","5980","73","3","3","lose","go","0"
"pit-trial","192","1304114","0.0-78.0","battery-v0.2","","""event"",""trial"",""time""
""fullscreenenter"",""1"",""1918""
","
","
","""event"",""trial"",""time""
""fullscreenenter"",""1"",""1918""
","
","","","961.7999999998137","","","11","5980","3195","f","elianto","#3366ff99"," "," ","1","+10","[1817.8999999999069]","1","2","","","5980","74","1","1","win","go","0"
"pit-trial","193","1308555","0.0-79.0","battery-v0.2","","""event"",""trial"",""time""
""fullscreenenter"",""1"",""1918""
","
","
","""event"",""trial"",""time""
""fullscreenenter"",""1"",""1918""
","
","","","1576.8999999999069","","","11","5980","3195","z","elianto","#3366ff99"," "," ","1","+10","[2427.2000000001863]","1","2","","","5980","75","5","1","win","go","0"
"pit-trial","194","1313420","0.0-80.0","battery-v0.2","","""event"",""trial"",""time""
""fullscreenenter"",""1"",""1918""
","
","
","""event"",""trial"",""time""
""fullscreenenter"",""1"",""1918""
","
","","","-1","","","11","5980","3195","c","elianto","#3366ff99","-1","-1","1","+10","[]","0","2","","","5980","76","4","2","win","no-go","0"
"pit-trial","195","1318290","0.0-81.0","battery-v0.2","","""event"",""trial"",""time""
""fullscreenenter"",""1"",""1918""
","
","
","""event"",""trial"",""time""
""fullscreenenter"",""1"",""1918""
","
","","","-1","","","11","5980","3195","h","elianto","#f73b6a7A","-1","-1","1","0","[3006.3000000002794]","1","2","","","5980","77","6","4","lose","no-go","0"
"pit-trial","196","1322064","0.0-82.0","battery-v0.2","","""event"",""trial"",""time""
""fullscreenenter"",""1"",""1918""
","
","
","""event"",""trial"",""time""
""fullscreenenter"",""1"",""1918""
","
","","","919.1000000000931","","","11","5980","3195","b","elianto","#f73b6a7A"," "," ","1","0","[1770]","1","2","","","5980","78","3","3","lose","go","0"
"pit-trial","197","1326737","0.0-83.0","battery-v0.2","","""event"",""trial"",""time""
""fullscreenenter"",""1"",""1918""
","
","
","""event"",""trial"",""time""
""fullscreenenter"",""1"",""1918""
","
","","","1809.7999999998137","","","11","5980","3195","z","elianto","#3366ff99"," "," ","1","+10","[2665.899999999907]","1","2","","","5980","79","5","1","win","go","0"
"pit-trial","198","1331601","0.0-84.0","battery-v0.2","","""event"",""trial"",""time""
""fullscreenenter"",""1"",""1918""
","
","
","""event"",""trial"",""time""
""fullscreenenter"",""1"",""1918""
","
","","","-1","","","11","5980","3195","c","elianto","#3366ff99","-1","-1","1","0","[]","0","2","","","5980","80","4","2","win","no-go","1"
"pit-trial","199","1335896","0.0-85.0","battery-v0.2","","""event"",""trial"",""time""
""fullscreenenter"",""1"",""1918""
","
","
","""event"",""trial"",""time""
""fullscreenenter"",""1"",""1918""
","
","","","1436.5","","","11","5980","3195","z","elianto","#3366ff99"," "," ","1","+10","[2287.399999999907]","1","2","","","5980","81","5","1","win","go","0"
"pit-trial","200","1340761","0.0-86.0","battery-v0.2","","""event"",""trial"",""time""
""fullscreenenter"",""1"",""1918""
","
","
","""event"",""trial"",""time""
""fullscreenenter"",""1"",""1918""
","
","","","-1","","","11","5980","3195","h","elianto","#f73b6a7A","-1","-1","1","0","[]","0","2","","","5980","82","6","4","lose","no-go","0"
"pit-trial","201","1345626","0.0-87.0","battery-v0.2","","""event"",""trial"",""time""
""fullscreenenter"",""1"",""1918""
","
","
","""event"",""trial"",""time""
""fullscreenenter"",""1"",""1918""
","
","","","-1","","","11","5980","3195","c","elianto","#3366ff99","-1","-1","1","0","[]","0","2","","","5980","83","4","2","win","no-go","1"
"pit-trial","202","1350490","0.0-88.0","battery-v0.2","","""event"",""trial"",""time""
""fullscreenenter"",""1"",""1918""
","
","
","""event"",""trial"",""time""
""fullscreenenter"",""1"",""1918""
","
","","","-1","","","11","5980","3195","y","elianto","#f73b6a7A"," ","-1","0","-10","[2894.2000000001863]","1","2","","","5980","84","7","3","lose","go","0"
"pit-trial","203","1354635","0.0-89.0","battery-v0.2","","""event"",""trial"",""time""
""fullscreenenter"",""1"",""1918""
","
","
","""event"",""trial"",""time""
""fullscreenenter"",""1"",""1918""
","
","","","1277.3999999999069","","","11","5980","3195","c","elianto","#3366ff99","-1"," ","0","0","[2134.2999999998137]","1","2","","","5980","85","4","2","win","no-go","0"
"pit-trial","204","1358640","0.0-90.0","battery-v0.2","","""event"",""trial"",""time""
""fullscreenenter"",""1"",""1918""
","
","
","""event"",""trial"",""time""
""fullscreenenter"",""1"",""1918""
","
","","","1144.7000000001863","","","11","5980","3195","z","elianto","#3366ff99"," "," ","1","+10","[1995.4000000003725]","1","2","","","5980","86","5","1","win","go","0"
"pit-trial","205","1363505","0.0-91.0","battery-v0.2","","""event"",""trial"",""time""
""fullscreenenter"",""1"",""1918""
","
","
","""event"",""trial"",""time""
""fullscreenenter"",""1"",""1918""
","
","","","-1","","","11","5980","3195","y","elianto","#f73b6a7A"," ","-1","0","-10","[]","0","2","","","5980","87","7","3","lose","go","0"
"pit-trial","206","1368369","0.0-92.0","battery-v0.2","","""event"",""trial"",""time""
""fullscreenenter"",""1"",""1918""
","
","
","""event"",""trial"",""time""
""fullscreenenter"",""1"",""1918""
","
","","","-1","","","11","5980","3195","h","elianto","#f73b6a7A","-1","-1","1","0","[]","0","2","","","5980","88","6","4","lose","no-go","0"
"pit-trial","207","1372642","0.0-93.0","battery-v0.2","","""event"",""trial"",""time""
""fullscreenenter"",""1"",""1918""
","
","
","""event"",""trial"",""time""
""fullscreenenter"",""1"",""1918""
","
","","","1410.1000000000931","","","11","5980","3195","z","elianto","#3366ff99"," "," ","1","+10","[2260.7000000001863]","1","2","","","5980","89","5","1","win","go","0"
"pit-trial","208","1377506","0.0-94.0","battery-v0.2","","""event"",""trial"",""time""
""fullscreenenter"",""1"",""1918""
","
","
","""event"",""trial"",""time""
""fullscreenenter"",""1"",""1918""
","
","","","-1","","","11","5980","3195","y","elianto","#f73b6a7A"," ","-1","0","-10","[]","0","2","","","5980","90","7","3","lose","go","0"
"pit-trial","209","1382376","0.0-95.0","battery-v0.2","","""event"",""trial"",""time""
""fullscreenenter"",""1"",""1918""
","
","
","""event"",""trial"",""time""
""fullscreenenter"",""1"",""1918""
","
","","","-1","","","11","5980","3195","c","elianto","#3366ff99","-1","-1","1","0","[]","0","2","","","5980","91","4","2","win","no-go","1"
"pit-trial","210","1387241","0.0-96.0","battery-v0.2","","""event"",""trial"",""time""
""fullscreenenter"",""1"",""1918""
","
","
","""event"",""trial"",""time""
""fullscreenenter"",""1"",""1918""
","
","","","-1","","","11","5980","3195","h","elianto","#f73b6a7A","-1","-1","1","0","[]","0","2","","","5980","92","6","4","lose","no-go","0"
"pit-trial","211","1392105","0.0-97.0","battery-v0.2","","""event"",""trial"",""time""
""fullscreenenter"",""1"",""1918""
","
","
","""event"",""trial"",""time""
""fullscreenenter"",""1"",""1918""
","
","","","-1","","","11","5980","3195","h","elianto","#f73b6a7A","-1","-1","1","0","[]","0","2","","","5980","93","6","4","lose","no-go","0"
"pit-trial","212","1396035","0.0-98.0","battery-v0.2","","""event"",""trial"",""time""
""fullscreenenter"",""1"",""1918""
","
","
","""event"",""trial"",""time""
""fullscreenenter"",""1"",""1918""
","
","","","1065.5","","","11","5980","3195","y","elianto","#f73b6a7A"," "," ","1","0","[1918.9000000003725]","1","2","","","5980","94","7","3","lose","go","0"
"pit-trial","213","1400906","0.0-99.0","battery-v0.2","","""event"",""trial"",""time""
""fullscreenenter"",""1"",""1918""
","
","
","""event"",""trial"",""time""
""fullscreenenter"",""1"",""1918""
","
","","","-1","","","11","5980","3195","z","elianto","#3366ff99"," ","-1","0","0","[3031.100000000093]","1","2","","","5980","95","5","1","win","go","0"
"pit-trial","214","1405091","0.0-100.0","battery-v0.2","","""event"",""trial"",""time""
""fullscreenenter"",""1"",""1918""
","
","
","""event"",""trial"",""time""
""fullscreenenter"",""1"",""1918""
","
","","","1310.3000000002794","","","11","5980","3195","r","elianto","#3366ff99","-1"," ","0","0","[2173.2999999998137]","1","2","","","5980","96","8","2","win","no-go","0"
"pit-trial","215","1409154","0.0-101.0","battery-v0.2","","""event"",""trial"",""time""
""fullscreenenter"",""1"",""1918""
","
","
","""event"",""trial"",""time""
""fullscreenenter"",""1"",""1918""
","
","","","1194.7000000001863","","","11","5980","3195","z","elianto","#3366ff99"," "," ","1","+10","[2055.6999999997206]","1","2","","","5980","97","5","1","win","go","0"
"pit-trial","216","1413583","0.0-102.0","battery-v0.2","","""event"",""trial"",""time""
""fullscreenenter"",""1"",""1918""
","
","
","""event"",""trial"",""time""
""fullscreenenter"",""1"",""1918""
","
","","","1571","","","11","5980","3195","h","elianto","#f73b6a7A","-1"," ","0","-10","[2422.2999999998137]","1","2","","","5980","98","6","4","lose","no-go","0"
"pit-trial","217","1418448","0.0-103.0","battery-v0.2","","""event"",""trial"",""time""
""fullscreenenter"",""1"",""1918""
","
","
","""event"",""trial"",""time""
""fullscreenenter"",""1"",""1918""
","
","","","-1","","","11","5980","3195","y","elianto","#f73b6a7A"," ","-1","0","0","[]","0","2","","","5980","99","7","3","lose","go","1"
"pit-trial","218","1423312","0.0-104.0","battery-v0.2","","""event"",""trial"",""time""
""fullscreenenter"",""1"",""1918""
","
","
","""event"",""trial"",""time""
""fullscreenenter"",""1"",""1918""
","
","","","-1","","","11","5980","3195","r","elianto","#3366ff99","-1","-1","1","+10","[]","0","2","","","5980","100","8","2","win","no-go","0"
"pit-trial","219","1428177","0.0-105.0","battery-v0.2","","""event"",""trial"",""time""
""fullscreenenter"",""1"",""1918""
","
","
","""event"",""trial"",""time""
""fullscreenenter"",""1"",""1918""
","
","","","-1","","","11","5980","3195","r","elianto","#3366ff99","-1","-1","1","+10","[]","0","2","","","5980","101","8","2","win","no-go","0"
"pit-trial","220","1433047","0.0-106.0","battery-v0.2","","""event"",""trial"",""time""
""fullscreenenter"",""1"",""1918""
","
","
","""event"",""trial"",""time""
""fullscreenenter"",""1"",""1918""
","
","","","-1","","","11","5980","3195","h","elianto","#f73b6a7A","-1","-1","1","0","[]","0","2","","","5980","102","6","4","lose","no-go","0"
"pit-trial","221","1437830","0.0-107.0","battery-v0.2","","""event"",""trial"",""time""
""fullscreenenter"",""1"",""1918""
","
","
","""event"",""trial"",""time""
""fullscreenenter"",""1"",""1918""
","
","","","1918","","","11","5980","3195","z","elianto","#3366ff99"," "," ","1","0","[2774.399999999907]","1","2","","","5980","103","5","1","win","go","1"
"pit-trial","222","1442225","0.0-108.0","battery-v0.2","","""event"",""trial"",""time""
""fullscreenenter"",""1"",""1918""
","
","
","""event"",""trial"",""time""
""fullscreenenter"",""1"",""1918""
","
","","","1531.2999999998137","","","11","5980","3195","m","elianto","#3366ff99","-1"," ","0","0","[2386.899999999907]","1","2","","","5980","104","9","2","win","no-go","0"
"pit-trial","223","1447094","0.0-109.0","battery-v0.2","","""event"",""trial"",""time""
""fullscreenenter"",""1"",""1918""
","
","
","""event"",""trial"",""time""
""fullscreenenter"",""1"",""1918""
","
","","","-1","","","11","5980","3195","r","elianto","#3366ff99","-1","-1","1","+10","[]","0","2","","","5980","105","8","2","win","no-go","0"
"pit-trial","224","1451959","0.0-110.0","battery-v0.2","","""event"",""trial"",""time""
""fullscreenenter"",""1"",""1918""
","
","
","""event"",""trial"",""time""
""fullscreenenter"",""1"",""1918""
","
","","","-1","","","11","5980","3195","m","elianto","#3366ff99","-1","-1","1","+10","[]","0","2","","","5980","106","9","2","win","no-go","0"
"pit-trial","225","1456087","0.0-111.0","battery-v0.2","","""event"",""trial"",""time""
""fullscreenenter"",""1"",""1918""
","
","
","""event"",""trial"",""time""
""fullscreenenter"",""1"",""1918""
","
","","","1266.3999999999069","","","11","5980","3195","z","elianto","#3366ff99"," "," ","1","+10","[2120.899999999907]","1","2","","","5980","107","5","1","win","go","0"
"pit-trial","226","1460951","0.0-112.0","battery-v0.2","","""event"",""trial"",""time""
""fullscreenenter"",""1"",""1918""
","
","
","""event"",""trial"",""time""
""fullscreenenter"",""1"",""1918""
","
","","","-1","","","11","5980","3195","h","elianto","#f73b6a7A","-1","-1","1","-10","[]","0","2","","","5980","108","6","4","lose","no-go","1"
"pit-trial","227","1465655","0.0-113.0","battery-v0.2","","""event"",""trial"",""time""
""fullscreenenter"",""1"",""1918""
","
","
","""event"",""trial"",""time""
""fullscreenenter"",""1"",""1918""
","
","","","1841.3999999999069","","","11","5980","3195","r","elianto","#3366ff99","-1"," ","0","0","[2693.7000000001863]","1","2","","","5980","109","8","2","win","no-go","0"
"pit-trial","228","1470518","0.0-114.0","battery-v0.2","","""event"",""trial"",""time""
""fullscreenenter"",""1"",""1918""
","
","
","""event"",""trial"",""time""
""fullscreenenter"",""1"",""1918""
","
","","","-1","","","11","5980","3195","m","elianto","#3366ff99","-1","-1","1","+10","[]","0","2","","","5980","110","9","2","win","no-go","0"
"pit-trial","229","1475382","0.0-115.0","battery-v0.2","","""event"",""trial"",""time""
""fullscreenenter"",""1"",""1918""
","
","
","""event"",""trial"",""time""
""fullscreenenter"",""1"",""1918""
","
","","","-1","","","11","5980","3195","z","elianto","#3366ff99"," ","-1","0","+10","[]","0","2","","","5980","111","5","1","win","go","1"
"pit-trial","230","1479631","0.0-116.0","battery-v0.2","","""event"",""trial"",""time""
""fullscreenenter"",""1"",""1918""
","
","
","""event"",""trial"",""time""
""fullscreenenter"",""1"",""1918""
","
","","","1383.8999999999069","","","11","5980","3195","h","elianto","#f73b6a7A","-1"," ","0","-10","[2240.2999999998137]","1","2","","","5980","112","6","4","lose","no-go","0"
"pit-trial","231","1484495","0.0-117.0","battery-v0.2","","""event"",""trial"",""time""
""fullscreenenter"",""1"",""1918""
","
","
","""event"",""trial"",""time""
""fullscreenenter"",""1"",""1918""
","
","","","-1","","","11","5980","3195","y","elianto","#f73b6a7A"," ","-1","0","-10","[]","0","2","","","5980","113","7","3","lose","go","0"
"pit-trial","232","1489366","0.0-118.0","battery-v0.2","","""event"",""trial"",""time""
""fullscreenenter"",""1"",""1918""
","
","
","""event"",""trial"",""time""
""fullscreenenter"",""1"",""1918""
","
","","","-1","","","11","5980","3195","m","elianto","#3366ff99","-1","-1","1","+10","[]","0","2","","","5980","114","9","2","win","no-go","0"
"pit-trial","233","1493702","0.0-119.0","battery-v0.2","","""event"",""trial"",""time""
""fullscreenenter"",""1"",""1918""
","
","
","""event"",""trial"",""time""
""fullscreenenter"",""1"",""1918""
","
","","","1473.6999999997206","","","11","5980","3195","z","elianto","#3366ff99"," "," ","1","+10","[2329.399999999907]","1","2","","","5980","115","5","1","win","go","0"
"pit-trial","234","1498567","0.0-120.0","battery-v0.2","","""event"",""trial"",""time""
""fullscreenenter"",""1"",""1918""
","
","
","""event"",""trial"",""time""
""fullscreenenter"",""1"",""1918""
","
","","","-1","","","11","5980","3195","r","elianto","#3366ff99","-1","-1","1","+10","[]","0","2","","","5980","116","8","2","win","no-go","0"
"pit-trial","235","1503431","0.0-121.0","battery-v0.2","","""event"",""trial"",""time""
""fullscreenenter"",""1"",""1918""
","
","
","""event"",""trial"",""time""
""fullscreenenter"",""1"",""1918""
","
","","","-1","","","11","5980","3195","h","elianto","#f73b6a7A","-1","-1","1","0","[]","0","2","","","5980","117","6","4","lose","no-go","0"
"pit-trial","236","1507588","0.0-122.0","battery-v0.2","","""event"",""trial"",""time""
""fullscreenenter"",""1"",""1918""
","
","
","""event"",""trial"",""time""
""fullscreenenter"",""1"",""1918""
","
","","","1294.6999999997206","","","11","5980","3195","m","elianto","#3366ff99","-1"," ","0","+10","[2146.2999999998137]","1","2","","","5980","118","9","2","win","no-go","1"
"pit-trial","237","1512452","0.0-123.0","battery-v0.2","","""event"",""trial"",""time""
""fullscreenenter"",""1"",""1918""
","
","
","""event"",""trial"",""time""
""fullscreenenter"",""1"",""1918""
","
","","","-1","","","11","5980","3195","r","elianto","#3366ff99","-1","-1","1","+10","[]","0","2","","","5980","119","8","2","win","no-go","0"
"pit-trial","238","1516220","0.0-124.0","battery-v0.2","","""event"",""trial"",""time""
""fullscreenenter"",""1"",""1918""
","
","
","""event"",""trial"",""time""
""fullscreenenter"",""1"",""1918""
","
","","","908.1000000000931","","","11","5980","3195","z","elianto","#3366ff99"," "," ","1","0","[1763.8999999999069]","1","2","","","5980","120","5","1","win","go","1"
"pit-trial","239","1521084","0.0-125.0","battery-v0.2","","""event"",""trial"",""time""
""fullscreenenter"",""1"",""1918""
","
","
","""event"",""trial"",""time""
""fullscreenenter"",""1"",""1918""
","
","","","-1","","","11","5980","3195","z","elianto","#3366ff99"," ","-1","0","0","[]","0","2","","","5980","121","5","1","win","go","0"
"pit-trial","240","1525948","0.0-126.0","battery-v0.2","","""event"",""trial"",""time""
""fullscreenenter"",""1"",""1918""
","
","
","""event"",""trial"",""time""
""fullscreenenter"",""1"",""1918""
","
","","","-1","","","11","5980","3195","y","elianto","#f73b6a7A"," ","-1","0","-10","[]","0","2","","","5980","122","7","3","lose","go","0"
"pit-trial","241","1530813","0.0-127.0","battery-v0.2","","""event"",""trial"",""time""
""fullscreenenter"",""1"",""1918""
","
","
","""event"",""trial"",""time""
""fullscreenenter"",""1"",""1918""
","
","","","-1","","","11","5980","3195","m","elianto","#3366ff99","-1","-1","1","0","[]","0","2","","","5980","123","9","2","win","no-go","1"
"pit-trial","242","1535677","0.0-128.0","battery-v0.2","","""event"",""trial"",""time""
""fullscreenenter"",""1"",""1918""
","
","
","""event"",""trial"",""time""
""fullscreenenter"",""1"",""1918""
","
","","","-1","","","11","5980","3195","r","elianto","#3366ff99","-1","-1","1","0","[]","0","2","","","5980","124","8","2","win","no-go","1"
"pit-trial","243","1539584","0.0-129.0","battery-v0.2","","""event"",""trial"",""time""
""fullscreenenter"",""1"",""1918""
","
","
","""event"",""trial"",""time""
""fullscreenenter"",""1"",""1918""
","
","","","1041.5","","","11","5980","3195","m","elianto","#3366ff99","-1"," ","0","+10","[1893.7999999998137]","1","2","","","5980","125","9","2","win","no-go","1"
"pit-trial","244","1543839","0.0-130.0","battery-v0.2","","""event"",""trial"",""time""
""fullscreenenter"",""1"",""1918""
","
","
","""event"",""trial"",""time""
""fullscreenenter"",""1"",""1918""
","
","","","1385.2999999998137","","","11","5980","3195","r","elianto","#3366ff99","-1"," ","0","+10","[2247]","1","2","","","5980","126","8","2","win","no-go","1"
"pit-trial","245","1548710","0.0-131.0","battery-v0.2","","""event"",""trial"",""time""
""fullscreenenter"",""1"",""1918""
","
","
","""event"",""trial"",""time""
""fullscreenenter"",""1"",""1918""
","
","","","-1","","","11","5980","3195","h","elianto","#f73b6a7A","-1","-1","1","0","[]","0","2","","","5980","127","6","4","lose","no-go","0"
"pit-trial","246","1552860","0.0-132.0","battery-v0.2","","""event"",""trial"",""time""
""fullscreenenter"",""1"",""1918""
","
","
","""event"",""trial"",""time""
""fullscreenenter"",""1"",""1918""
","
","","","1288.3999999999069","","","11","5980","3195","y","elianto","#f73b6a7A"," "," ","1","0","[2140.399999999907]","1","2","","","5980","128","7","3","lose","go","0"
"pit-trial","247","1557724","0.0-133.0","battery-v0.2","","""event"",""trial"",""time""
""fullscreenenter"",""1"",""1918""
","
","
","""event"",""trial"",""time""
""fullscreenenter"",""1"",""1918""
","
","","","-1","","","11","5980","3195","m","elianto","#3366ff99","-1","-1","1","+10","[3034.7999999998137]","1","2","","","5980","129","9","2","win","no-go","0"
"pit-trial","248","1562589","0.0-134.0","battery-v0.2","","""event"",""trial"",""time""
""fullscreenenter"",""1"",""1918""
","
","
","""event"",""trial"",""time""
""fullscreenenter"",""1"",""1918""
","
","","","-1","","","11","5980","3195","r","elianto","#3366ff99","-1","-1","1","+10","[]","0","2","","","5980","130","8","2","win","no-go","0"
"pit-trial","249","1567453","0.0-135.0","battery-v0.2","","""event"",""trial"",""time""
""fullscreenenter"",""1"",""1918""
","
","
","""event"",""trial"",""time""
""fullscreenenter"",""1"",""1918""
","
","","","-1","","","11","5980","3195","h","elianto","#f73b6a7A","-1","-1","1","0","[3140.600000000093]","1","2","","","5980","131","6","4","lose","no-go","0"
"pit-trial","250","1572208","0.0-136.0","battery-v0.2","","""event"",""trial"",""time""
""fullscreenenter"",""1"",""1918""
","
","
","""event"",""trial"",""time""
""fullscreenenter"",""1"",""1918""
","
","","","1894.2000000001863","","","11","5980","3195","y","elianto","#f73b6a7A"," "," ","1","0","[2745.5]","1","2","","","5980","132","7","3","lose","go","0"
"pit-trial","251","1577078","0.0-137.0","battery-v0.2","","""event"",""trial"",""time""
""fullscreenenter"",""1"",""1918""
","
","
","""event"",""trial"",""time""
""fullscreenenter"",""1"",""1918""
","
","","","-1","","","11","5980","3195","y","elianto","#f73b6a7A"," ","-1","0","0","[]","0","2","","","5980","133","7","3","lose","go","1"
"pit-trial","252","1581687","0.0-138.0","battery-v0.2","","""event"",""trial"",""time""
""fullscreenenter"",""1"",""1918""
","
","
","""event"",""trial"",""time""
""fullscreenenter"",""1"",""1918""
","
","","","1732.7999999998137","","","11","5980","3195","m","elianto","#3366ff99","-1"," ","0","0","[2594.6999999997206]","1","2","","","5980","134","9","2","win","no-go","0"
"pit-trial","253","1586557","0.0-139.0","battery-v0.2","","""event"",""trial"",""time""
""fullscreenenter"",""1"",""1918""
","
","
","""event"",""trial"",""time""
""fullscreenenter"",""1"",""1918""
","
","","","-1","","","11","5980","3195","h","elianto","#f73b6a7A","-1","-1","1","0","[]","0","2","","","5980","135","6","4","lose","no-go","0"
"pit-trial","254","1591422","0.0-140.0","battery-v0.2","","""event"",""trial"",""time""
""fullscreenenter"",""1"",""1918""
","
","
","""event"",""trial"",""time""
""fullscreenenter"",""1"",""1918""
","
","","","-1","","","11","5980","3195","r","elianto","#3366ff99","-1","-1","1","+10","[2858.2999999998137]","1","2","","","5980","136","8","2","win","no-go","0"
"pit-trial","255","1595839","0.0-141.0","battery-v0.2","","""event"",""trial"",""time""
""fullscreenenter"",""1"",""1918""
","
","
","""event"",""trial"",""time""
""fullscreenenter"",""1"",""1918""
","
","","","1552.1000000000931","","","11","5980","3195","y","elianto","#f73b6a7A"," "," ","1","0","[2403]","1","2","","","5980","137","7","3","lose","go","0"
"pit-trial","256","1600709","0.0-142.0","battery-v0.2","","""event"",""trial"",""time""
""fullscreenenter"",""1"",""1918""
","
","
","""event"",""trial"",""time""
""fullscreenenter"",""1"",""1918""
","
","","","-1","","","11","5980","3195","h","elianto","#f73b6a7A","-1","-1","1","0","[]","0","2","","","5980","138","6","4","lose","no-go","0"
"pit-trial","257","1604755","0.0-143.0","battery-v0.2","","""event"",""trial"",""time""
""fullscreenenter"",""1"",""1918""
","
","
","""event"",""trial"",""time""
""fullscreenenter"",""1"",""1918""
","
","","","1190.1000000000931","","","11","5980","3195","r","elianto","#3366ff99","-1"," ","0","0","[2040.7999999998137]","1","2","","","5980","139","8","2","win","no-go","0"
"pit-trial","258","1608691","0.0-144.0","battery-v0.2","","""event"",""trial"",""time""
""fullscreenenter"",""1"",""1918""
","
","
","""event"",""trial"",""time""
""fullscreenenter"",""1"",""1918""
","
","","","1074.2000000001863","","","11","5980","3195","m","elianto","#3366ff99","-1"," ","0","0","[1925.7999999998137]","1","2","","","5980","140","9","2","win","no-go","0"
"pit-instructions","259","1622629","0.0-145.0","battery-v0.2","","""event"",""trial"",""time""
""fullscreenenter"",""1"",""1918""
","
","
","""event"",""trial"",""time""
""fullscreenenter"",""1"",""1918""
","
","","[{""page_index"":0,""viewing_time"":5513.5},{""page_index"":1,""viewing_time"":8421.600000000093}]","13935.5","","","","","","","","","","","","","","","","","","","","","","","",""
"pit-trial","260","1626268","0.0-146.0","battery-v0.2","","""event"",""trial"",""time""
""fullscreenenter"",""1"",""1918""
","
","
","""event"",""trial"",""time""
""fullscreenenter"",""1"",""1918""
","
","","","780","","","11","5980","3195","d","elianto","#3366ff99","-1"," ","0","0","[1631.1000000000931]","1","3","","","5980","141","1","2","win","no-go","0"
"pit-trial","261","1631133","0.0-147.0","battery-v0.2","","""event"",""trial"",""time""
""fullscreenenter"",""1"",""1918""
","
","
","""event"",""trial"",""time""
""fullscreenenter"",""1"",""1918""
","
","","","-1","","","11","5980","3195","w","elianto","#f73b6a7A","-1","-1","1","-10","[]","0","3","","","5980","142","3","4","lose","no-go","1"
"pit-trial","262","1634906","0.0-148.0","battery-v0.2","","""event"",""trial"",""time""
""fullscreenenter"",""1"",""1918""
","
","
","""event"",""trial"",""time""
""fullscreenenter"",""1"",""1918""
","
","","","913.5","","","11","5980","3195","e","elianto","#f73b6a7A"," "," ","1","0","[1764.1999999997206]","1","3","","","5980","143","2","3","lose","go","0"
"pit-trial","263","1639770","0.0-149.0","battery-v0.2","","""event"",""trial"",""time""
""fullscreenenter"",""1"",""1918""
","
","
","""event"",""trial"",""time""
""fullscreenenter"",""1"",""1918""
","
","","","-1","","","11","5980","3195","j","elianto","#f73b6a7A"," ","-1","0","-10","[]","0","3","","","5980","144","0","3","lose","go","0"
"pit-trial","264","1643213","0.0-150.0","battery-v0.2","","""event"",""trial"",""time""
""fullscreenenter"",""1"",""1918""
","
","
","""event"",""trial"",""time""
""fullscreenenter"",""1"",""1918""
","
","","","584.2000000001863","","","11","5980","3195","e","elianto","#f73b6a7A"," "," ","1","0","[1434.8999999999069]","1","3","","","5980","145","2","3","lose","go","0"
"pit-trial","265","1647259","0.0-151.0","battery-v0.2","","""event"",""trial"",""time""
""fullscreenenter"",""1"",""1918""
","
","
","""event"",""trial"",""time""
""fullscreenenter"",""1"",""1918""
","
","","","1180.0999999996275","","","11","5980","3195","w","elianto","#f73b6a7A","-1"," ","0","0","[2034.7999999998137]","1","3","","","5980","146","3","4","lose","no-go","1"
"pit-trial","266","1652125","0.0-152.0","battery-v0.2","","""event"",""trial"",""time""
""fullscreenenter"",""1"",""1918""
","
","
","""event"",""trial"",""time""
""fullscreenenter"",""1"",""1918""
","
