"trial_type","trial_index","time_elapsed","internal_node_id","task_version","subject_id","interactions","blur_events","focus_events","fullscreenenter_events","fullscreenexit_events","success","view_history","rt","responses","num_errors","age","subject","participantId","rune","rune_set","hex","correct","choice","accuracy","outcome","keys","total_keys","block","practice","value","sub","trial","stimulus","robot","valence","action","sham"
"pavlovia","0","9","0.0-0.0","battery-v0.2","","""event"",""trial"",""time""
""fullscreenenter"",""1"",""1181""
","
","
","""event"",""trial"",""time""
""fullscreenenter"",""1"",""1181""
","
","","","","","","","","","","","","","","","","","","","","","","","","","","",""
"fullscreen","1","2159","0.0-1.0","battery-v0.2","","""event"",""trial"",""time""
""fullscreenenter"",""1"",""1181""
","
","
","""event"",""trial"",""time""
""fullscreenenter"",""1"",""1181""
","
","true","","","","","","","","","","","","","","","","","","","","","","","","","",""
"pit-instructions","2","6250","0.0-2.0-0.0","battery-v0.2","","""event"",""trial"",""time""
""fullscreenenter"",""1"",""1181""
","
","
","""event"",""trial"",""time""
""fullscreenenter"",""1"",""1181""
","
","","[{""page_index"":0,""viewing_time"":4088.399999856949}]","4088.5999999046326","","","","","","","","","","","","","","","","","","","","","","","",""
"pit-comprehension","3","9485","0.0-2.0-1.0-0.0","battery-v0.2","","""event"",""trial"",""time""
""fullscreenenter"",""1"",""1181""
","
","
","""event"",""trial"",""time""
""fullscreenenter"",""1"",""1181""
","
","","","3231.9000000953674","[""shark""]","0","20","12420","5517","","","","","","","","","","","","","","","","","","",""
"pit-instructions","4","10454","0.0-2.0-1.0-1.0","battery-v0.2","","""event"",""trial"",""time""
""fullscreenenter"",""1"",""1181""
","
","
","""event"",""trial"",""time""
""fullscreenenter"",""1"",""1181""
","
","","[{""page_index"":0,""viewing_time"":961.1000001430511}]","961.2999999523163","","","","","","","","","","","","","","","","","","","","","","","",""
"pit-comprehension","5","12668","0.0-2.0-2.0-0.0","battery-v0.2","","""event"",""trial"",""time""
""fullscreenenter"",""1"",""1181""
","
","
","""event"",""trial"",""time""
""fullscreenenter"",""1"",""1181""
","
","","","2211.0999999046326","[""tiger""]","0","20","12420","5517","","","","","","","","","","","","","","","","","","",""
"pit-instructions","6","13900","0.0-2.0-2.0-1.0","battery-v0.2","","""event"",""trial"",""time""
""fullscreenenter"",""1"",""1181""
","
","
","""event"",""trial"",""time""
""fullscreenenter"",""1"",""1181""
","
","","[{""page_index"":0,""viewing_time"":1229.7999999523163}]","1230","","","","","","","","","","","","","","","","","","","","","","","",""
"pit-instructions","7","112501","0.0-2.0-3.0","battery-v0.2","","""event"",""trial"",""time""
""fullscreenenter"",""1"",""1181""
","
","
","""event"",""trial"",""time""
""fullscreenenter"",""1"",""1181""
","
","","[{""page_index"":0,""viewing_time"":7037.299999952316},{""page_index"":1,""viewing_time"":5296.399999856949},{""page_index"":2,""viewing_time"":6432.800000190735},{""page_index"":3,""viewing_time"":5349.199999809265},{""page_index"":4,""viewing_time"":5949.600000143051},{""page_index"":5,""viewing_time"":5251.299999952316},{""page_index"":6,""viewing_time"":5101.700000047684},{""page_index"":7,""viewing_time"":6885.299999952316},{""page_index"":8,""viewing_time"":13795.700000047684},{""page_index"":9,""viewing_time"":9321.399999856949},{""page_index"":10,""viewing_time"":7579},{""page_index"":11,""viewing_time"":8267.600000143051},{""page_index"":12,""viewing_time"":6333.700000047684},{""page_index"":13,""viewing_time"":5999.799999952316}]","98601.19999980927","","","","","","","","","","","","","","","","","","","","","","","",""
"pit-trial","8","116063","0.0-2.0-4.0-0.0","battery-v0.2","","""event"",""trial"",""time""
""fullscreenenter"",""1"",""1181""
","
","
","""event"",""trial"",""time""
""fullscreenenter"",""1"",""1181""
","
","","","701","","","20","12420","5517","&#9784;","elianto","#FFFFF080"," "," ","1","&#10004","[1553]","1","0","0","","","","","","","",""
"pit-trial","9","119497","0.0-2.0-4.1-0.1","battery-v0.2","","""event"",""trial"",""time""
""fullscreenenter"",""1"",""1181""
","
","
","""event"",""trial"",""time""
""fullscreenenter"",""1"",""1181""
","
","","","572.4000000953674","","","20","12420","5517","&#9784;","elianto","#FFFFF080"," "," ","1","&#10004","[1423.4000000953674]","1","0","0","","","","","","","",""
"pit-trial","10","122848","0.0-2.0-4.2-0.2","battery-v0.2","","""event"",""trial"",""time""
""fullscreenenter"",""1"",""1181""
","
","
","""event"",""trial"",""time""
""fullscreenenter"",""1"",""1181""
","
","","","490.7000000476837","","","20","12420","5517","&#9784;","elianto","#FFFFF080"," "," ","1","&#10004","[1341.7000000476837]","1","0","0","","","","","","","",""
"pit-trial","11","126239","0.0-2.0-4.3-0.3","battery-v0.2","","""event"",""trial"",""time""
""fullscreenenter"",""1"",""1181""
","
","
","""event"",""trial"",""time""
""fullscreenenter"",""1"",""1181""
","
","","","530.6999998092651","","","20","12420","5517","&#9784;","elianto","#FFFFF080"," "," ","1","&#10004","[1381.1000001430511]","1","0","0","","","","","","","",""
"pit-trial","12","129574","0.0-2.0-4.4-0.4","battery-v0.2","","""event"",""trial"",""time""
""fullscreenenter"",""1"",""1181""
","
","
","""event"",""trial"",""time""
""fullscreenenter"",""1"",""1181""
","
","","","476.09999990463257","","","20","12420","5517","&#9784;","elianto","#FFFFF080"," "," ","1","&#10004","[1329.9000000953674]","1","0","0","","","","","","","",""
"pit-instructions","13","150150","0.0-2.0-5.0","battery-v0.2","","""event"",""trial"",""time""
""fullscreenenter"",""1"",""1181""
","
","
","""event"",""trial"",""time""
""fullscreenenter"",""1"",""1181""
","
","","[{""page_index"":0,""viewing_time"":4688.799999952316},{""page_index"":1,""viewing_time"":5384.799999952316},{""page_index"":2,""viewing_time"":5232.800000190735},{""page_index"":3,""viewing_time"":5266}]","20572.599999904633","","","","","","","","","","","","","","","","","","","","","","","",""
"pit-trial","14","155010","0.0-2.0-6.0-0.0","battery-v0.2","","""event"",""trial"",""time""
""fullscreenenter"",""1"",""1181""
","
","
","""event"",""trial"",""time""
""fullscreenenter"",""1"",""1181""
","
","","","-1","","","20","12420","5517","&#9854;","elianto","#FFFFF080","-1","-1","1","&#10004","[]","0","0","1","","","","","","","",""
"pit-trial","15","159875","0.0-2.0-6.1-0.1","battery-v0.2","","""event"",""trial"",""time""
""fullscreenenter"",""1"",""1181""
","
","
","""event"",""trial"",""time""
""fullscreenenter"",""1"",""1181""
","
","","","-1","","","20","12420","5517","&#9854;","elianto","#FFFFF080","-1","-1","1","&#10004","[]","0","0","1","","","","","","","",""
"pit-trial","16","164741","0.0-2.0-6.2-0.2","battery-v0.2","","""event"",""trial"",""time""
""fullscreenenter"",""1"",""1181""
","
","
","""event"",""trial"",""time""
""fullscreenenter"",""1"",""1181""
","
","","","-1","","","20","12420","5517","&#9854;","elianto","#FFFFF080","-1","-1","1","&#10004","[]","0","0","1","","","","","","","",""
"pit-trial","17","169600","0.0-2.0-6.3-0.3","battery-v0.2","","""event"",""trial"",""time""
""fullscreenenter"",""1"",""1181""
","
","
","""event"",""trial"",""time""
""fullscreenenter"",""1"",""1181""
","
","","","-1","","","20","12420","5517","&#9854;","elianto","#FFFFF080","-1","-1","1","&#10004","[]","0","0","1","","","","","","","",""
"pit-trial","18","174464","0.0-2.0-6.4-0.4","battery-v0.2","","""event"",""trial"",""time""
""fullscreenenter"",""1"",""1181""
","
","
","""event"",""trial"",""time""
""fullscreenenter"",""1"",""1181""
","
","","","-1","","","20","12420","5517","&#9854;","elianto","#FFFFF080","-1","-1","1","&#10004","[]","0","0","1","","","","","","","",""
"pit-instructions","19","301902","0.0-2.0-7.0","battery-v0.2","","""event"",""trial"",""time""
""fullscreenenter"",""1"",""1181""
","
","
","""event"",""trial"",""time""
""fullscreenenter"",""1"",""1181""
","
","","[{""page_index"":0,""viewing_time"":6716.400000095367},{""page_index"":1,""viewing_time"":6415.699999809265},{""page_index"":2,""viewing_time"":5416.800000190735},{""page_index"":3,""viewing_time"":6318.299999952316},{""page_index"":4,""viewing_time"":5367.099999904633},{""page_index"":5,""viewing_time"":5098.700000047684},{""page_index"":6,""viewing_time"":5351.299999952316},{""page_index"":7,""viewing_time"":8365.799999952316},{""page_index"":8,""viewing_time"":7100.800000190735},{""page_index"":9,""viewing_time"":6283.799999952316},{""page_index"":10,""viewing_time"":6236.799999952316},{""page_index"":11,""viewing_time"":5146.299999952316},{""page_index"":12,""viewing_time"":8400.200000047684},{""page_index"":13,""viewing_time"":7269.099999904633},{""page_index"":14,""viewing_time"":7766.800000190735},{""page_index"":15,""viewing_time"":7183},{""page_index"":16,""viewing_time"":7851.899999856949},{""page_index"":17,""viewing_time"":15147.5}]","127436.70000004768","","","","","","","","","","","","","","","","","","","","","","","",""
"pit-trial","20","305736","0.0-2.0-8.0-0.0","battery-v0.2","","""event"",""trial"",""time""
""fullscreenenter"",""1"",""1181""
","
","
","""event"",""trial"",""time""
""fullscreenenter"",""1"",""1181""
","
","","","975.0999999046326","","","20","12420","5517","&#9776;","elianto","#3366ff99"," "," ","1","+10","[1826.7000000476837]","1","0","1","","","","","","","",""
"pit-trial","21","309187","0.0-2.0-8.0-1.0","battery-v0.2","","""event"",""trial"",""time""
""fullscreenenter"",""1"",""1181""
","
","
","""event"",""trial"",""time""
""fullscreenenter"",""1"",""1181""
","
","","","590.6999998092651","","","20","12420","5517","&#9776;","elianto","#3366ff99"," "," ","1","+10","[1442.5]","1","0","1","","","","","","","",""
"pit-trial","22","312577","0.0-2.0-8.0-2.0","battery-v0.2","","""event"",""trial"",""time""
""fullscreenenter"",""1"",""1181""
","
","
","""event"",""trial"",""time""
""fullscreenenter"",""1"",""1181""
","
","","","529.6000001430511","","","20","12420","5517","&#9776;","elianto","#3366ff99"," "," ","1","+10","[1381.2999999523163]","1","0","1","","","","","","","",""
"pit-trial","23","315996","0.0-2.0-8.0-3.0","battery-v0.2","","""event"",""trial"",""time""
""fullscreenenter"",""1"",""1181""
","
","
","""event"",""trial"",""time""
""fullscreenenter"",""1"",""1181""
","
","","","558.2999999523163","","","20","12420","5517","&#9776;","elianto","#3366ff99"," "," ","1","0","[1409.3999998569489]","1","0","1","","","","","","","",""
"pit-trial","24","319302","0.0-2.0-8.0-4.0","battery-v0.2","","""event"",""trial"",""time""
""fullscreenenter"",""1"",""1181""
","
","
","""event"",""trial"",""time""
""fullscreenenter"",""1"",""1181""
","
","","","446.7999999523163","","","20","12420","5517","&#9776;","elianto","#3366ff99"," "," ","1","+10","[1298.2000000476837]","1","0","1","","","","","","","",""
"pit-trial","25","322718","0.0-2.0-8.1-0.1","battery-v0.2","","""event"",""trial"",""time""
""fullscreenenter"",""1"",""1181""
","
","
","""event"",""trial"",""time""
""fullscreenenter"",""1"",""1181""
","
","","","555.2999999523163","","","20","12420","5517","&#9776;","elianto","#3366ff99"," "," ","1","+10","[1407.3000001907349]","1","0","1","","","","","","","",""
"pit-trial","26","325953","0.0-2.0-8.1-1.1","battery-v0.2","","""event"",""trial"",""time""
""fullscreenenter"",""1"",""1181""
","
","
","""event"",""trial"",""time""
""fullscreenenter"",""1"",""1181""
","
","","","378.5","","","20","12420","5517","&#9776;","elianto","#3366ff99"," "," ","1","+10","[1230]","1","0","1","","","","","","","",""
"pit-trial","27","329490","0.0-2.0-8.1-2.1","battery-v0.2","","""event"",""trial"",""time""
""fullscreenenter"",""1"",""1181""
","
","
","""event"",""trial"",""time""
""fullscreenenter"",""1"",""1181""
","
","","","677.1000001430511","","","20","12420","5517","&#9776;","elianto","#3366ff99"," "," ","1","+10","[1528.2999999523163]","1","0","1","","","","","","","",""
"pit-trial","28","332953","0.0-2.0-8.1-3.1","battery-v0.2","","""event"",""trial"",""time""
""fullscreenenter"",""1"",""1181""
","
","
","""event"",""trial"",""time""
""fullscreenenter"",""1"",""1181""
","
","","","600.5","","","20","12420","5517","&#9776;","elianto","#3366ff99"," "," ","1","0","[1454]","1","0","1","","","","","","","",""
"pit-trial","29","336327","0.0-2.0-8.1-4.1","battery-v0.2","","""event"",""trial"",""time""
""fullscreenenter"",""1"",""1181""
","
","
","""event"",""trial"",""time""
""fullscreenenter"",""1"",""1181""
","
","","","514","","","20","12420","5517","&#9776;","elianto","#3366ff99"," "," ","1","+10","[1365.2999999523163]","1","0","1","","","","","","","",""
"pit-trial","30","339632","0.0-2.0-8.2-0.2","battery-v0.2","","""event"",""trial"",""time""
""fullscreenenter"",""1"",""1181""
","
","
","""event"",""trial"",""time""
""fullscreenenter"",""1"",""1181""
","
","","","445","","","20","12420","5517","&#9776;","elianto","#3366ff99"," "," ","1","+10","[1295.4000000953674]","1","0","1","","","","","","","",""
"pit-trial","31","342929","0.0-2.0-8.2-1.2","battery-v0.2","","""event"",""trial"",""time""
""fullscreenenter"",""1"",""1181""
","
","
","""event"",""trial"",""time""
""fullscreenenter"",""1"",""1181""
","
","","","437.7999999523163","","","20","12420","5517","&#9776;","elianto","#3366ff99"," "," ","1","+10","[1288.1999998092651]","1","0","1","","","","","","","",""
"pit-trial","32","346133","0.0-2.0-8.2-2.2","battery-v0.2","","""event"",""trial"",""time""
""fullscreenenter"",""1"",""1181""
","
","
","""event"",""trial"",""time""
""fullscreenenter"",""1"",""1181""
","
","","","346.39999985694885","","","20","12420","5517","&#9776;","elianto","#3366ff99"," "," ","1","+10","[1196.3999998569489]","1","0","1","","","","","","","",""
"pit-trial","33","349360","0.0-2.0-8.2-3.2","battery-v0.2","","""event"",""trial"",""time""
""fullscreenenter"",""1"",""1181""
","
","
","""event"",""trial"",""time""
""fullscreenenter"",""1"",""1181""
","
","","","367.69999980926514","","","20","12420","5517","&#9776;","elianto","#3366ff99"," "," ","1","0","[1218.5]","1","0","1","","","","","","","",""
"pit-trial","34","352342","0.0-2.0-8.2-4.2","battery-v0.2","","""event"",""trial"",""time""
""fullscreenenter"",""1"",""1181""
","
","
","""event"",""trial"",""time""
""fullscreenenter"",""1"",""1181""
","
","","","123.5","","","20","12420","5517","&#9776;","elianto","#3366ff99"," "," ","1","+10","[975,1598.5]","2","0","1","","","","","","","",""
"call-function","35","352345","0.0-2.0-9.0","battery-v0.2","","""event"",""trial"",""time""
""fullscreenenter"",""1"",""1181""
","
","
","""event"",""trial"",""time""
""fullscreenenter"",""1"",""1181""
","
","","","","","","","","","","","","","","","","","","","","","","","","","","",""
"pit-instructions","36","394004","0.0-2.0-10.0","battery-v0.2","","""event"",""trial"",""time""
""fullscreenenter"",""1"",""1181""
","
","
","""event"",""trial"",""time""
""fullscreenenter"",""1"",""1181""
","
","","[{""page_index"":0,""viewing_time"":7674.900000095367},{""page_index"":1,""viewing_time"":6581.400000095367},{""page_index"":2,""viewing_time"":10516.899999856949},{""page_index"":3,""viewing_time"":8970.299999952316},{""page_index"":4,""viewing_time"":7914.700000047684}]","41658.5","","","","","","","","","","","","","","","","","","","","","","","",""
"pit-trial","37","397399","0.0-2.0-11.0-0.0","battery-v0.2","","""event"",""trial"",""time""
""fullscreenenter"",""1"",""1181""
","
","
","""event"",""trial"",""time""
""fullscreenenter"",""1"",""1181""
","
","","","535.5999999046326","","","20","12420","5517","&#9761;","elianto","#3366ff99","-1"," ","0","0","[1387.7999999523163]","1","0","2","","","","","","","",""
"pit-trial","38","400614","0.0-2.0-11.0-1.0","battery-v0.2","","""event"",""trial"",""time""
""fullscreenenter"",""1"",""1181""
","
","
","""event"",""trial"",""time""
""fullscreenenter"",""1"",""1181""
","
","","","354.2999999523163","","","20","12420","5517","&#9761;","elianto","#3366ff99","-1"," ","0","0","[1205.9000000953674]","1","0","2","","","","","","","",""
"pit-trial","39","405478","0.0-2.0-11.0-2.0","battery-v0.2","","""event"",""trial"",""time""
""fullscreenenter"",""1"",""1181""
","
","
","""event"",""trial"",""time""
""fullscreenenter"",""1"",""1181""
","
","","","-1","","","20","12420","5517","&#9761;","elianto","#3366ff99","-1","-1","1","+10","[]","0","0","2","","","","","","","",""
"pit-trial","40","410342","0.0-2.0-11.0-3.0","battery-v0.2","","""event"",""trial"",""time""
""fullscreenenter"",""1"",""1181""
","
","
","""event"",""trial"",""time""
""fullscreenenter"",""1"",""1181""
","
","","","-1","","","20","12420","5517","&#9761;","elianto","#3366ff99","-1","-1","1","0","[]","0","0","2","","","","","","","",""
"pit-trial","41","415206","0.0-2.0-11.0-4.0","battery-v0.2","","""event"",""trial"",""time""
""fullscreenenter"",""1"",""1181""
","
","
","""event"",""trial"",""time""
""fullscreenenter"",""1"",""1181""
","
","","","-1","","","20","12420","5517","&#9761;","elianto","#3366ff99","-1","-1","1","+10","[]","0","0","2","","","","","","","",""
"pit-trial","42","420068","0.0-2.0-11.1-0.1","battery-v0.2","","""event"",""trial"",""time""
""fullscreenenter"",""1"",""1181""
","
","
","""event"",""trial"",""time""
""fullscreenenter"",""1"",""1181""
","
","","","-1","","","20","12420","5517","&#9761;","elianto","#3366ff99","-1","-1","1","+10","[]","0","0","2","","","","","","","",""
"pit-trial","43","424931","0.0-2.0-11.1-1.1","battery-v0.2","","""event"",""trial"",""time""
""fullscreenenter"",""1"",""1181""
","
","
","""event"",""trial"",""time""
""fullscreenenter"",""1"",""1181""
","
","","","-1","","","20","12420","5517","&#9761;","elianto","#3366ff99","-1","-1","1","+10","[]","0","0","2","","","","","","","",""
"pit-trial","44","429796","0.0-2.0-11.1-2.1","battery-v0.2","","""event"",""trial"",""time""
""fullscreenenter"",""1"",""1181""
","
","
","""event"",""trial"",""time""
""fullscreenenter"",""1"",""1181""
","
","","","-1","","","20","12420","5517","&#9761;","elianto","#3366ff99","-1","-1","1","+10","[]","0","0","2","","","","","","","",""
"pit-trial","45","434658","0.0-2.0-11.1-3.1","battery-v0.2","","""event"",""trial"",""time""
""fullscreenenter"",""1"",""1181""
","
","
","""event"",""trial"",""time""
""fullscreenenter"",""1"",""1181""
","
","","","-1","","","20","12420","5517","&#9761;","elianto","#3366ff99","-1","-1","1","0","[]","0","0","2","","","","","","","",""
"pit-trial","46","439522","0.0-2.0-11.1-4.1","battery-v0.2","","""event"",""trial"",""time""
""fullscreenenter"",""1"",""1181""
","
","
","""event"",""trial"",""time""
""fullscreenenter"",""1"",""1181""
","
","","","-1","","","20","12420","5517","&#9761;","elianto","#3366ff99","-1","-1","1","+10","[]","0","0","2","","","","","","","",""
"pit-trial","47","444385","0.0-2.0-11.2-0.2","battery-v0.2","","""event"",""trial"",""time""
""fullscreenenter"",""1"",""1181""
","
","
","""event"",""trial"",""time""
""fullscreenenter"",""1"",""1181""
","
","","","-1","","","20","12420","5517","&#9761;","elianto","#3366ff99","-1","-1","1","+10","[]","0","0","2","","","","","","","",""
"pit-trial","48","449249","0.0-2.0-11.2-1.2","battery-v0.2","","""event"",""trial"",""time""
""fullscreenenter"",""1"",""1181""
","
","
","""event"",""trial"",""time""
""fullscreenenter"",""1"",""1181""
","
","","","-1","","","20","12420","5517","&#9761;","elianto","#3366ff99","-1","-1","1","+10","[]","0","0","2","","","","","","","",""
"pit-trial","49","454110","0.0-2.0-11.2-2.2","battery-v0.2","","""event"",""trial"",""time""
""fullscreenenter"",""1"",""1181""
","
","
","""event"",""trial"",""time""
""fullscreenenter"",""1"",""1181""
","
","","","-1","","","20","12420","5517","&#9761;","elianto","#3366ff99","-1","-1","1","+10","[]","0","0","2","","","","","","","",""
"pit-trial","50","458975","0.0-2.0-11.2-3.2","battery-v0.2","","""event"",""trial"",""time""
""fullscreenenter"",""1"",""1181""
","
","
","""event"",""trial"",""time""
""fullscreenenter"",""1"",""1181""
","
","","","-1","","","20","12420","5517","&#9761;","elianto","#3366ff99","-1","-1","1","0","[]","0","0","2","","","","","","","",""
"pit-trial","51","463839","0.0-2.0-11.2-4.2","battery-v0.2","","""event"",""trial"",""time""
""fullscreenenter"",""1"",""1181""
","
","
","""event"",""trial"",""time""
""fullscreenenter"",""1"",""1181""
","
","","","-1","","","20","12420","5517","&#9761;","elianto","#3366ff99","-1","-1","1","+10","[]","0","0","2","","","","","","","",""
"pit-trial","52","468704","0.0-2.0-11.3-0.3","battery-v0.2","","""event"",""trial"",""time""
""fullscreenenter"",""1"",""1181""
","
","
","""event"",""trial"",""time""
""fullscreenenter"",""1"",""1181""
","
","","","-1","","","20","12420","5517","&#9761;","elianto","#3366ff99","-1","-1","1","+10","[]","0","0","2","","","","","","","",""
"pit-trial","53","473563","0.0-2.0-11.3-1.3","battery-v0.2","","""event"",""trial"",""time""
""fullscreenenter"",""1"",""1181""
","
","
","""event"",""trial"",""time""
""fullscreenenter"",""1"",""1181""
","
","","","-1","","","20","12420","5517","&#9761;","elianto","#3366ff99","-1","-1","1","+10","[]","0","0","2","","","","","","","",""
"pit-trial","54","478424","0.0-2.0-11.3-2.3","battery-v0.2","","""event"",""trial"",""time""
""fullscreenenter"",""1"",""1181""
","
","
","""event"",""trial"",""time""
""fullscreenenter"",""1"",""1181""
","
","","","-1","","","20","12420","5517","&#9761;","elianto","#3366ff99","-1","-1","1","+10","[]","0","0","2","","","","","","","",""
"pit-trial","55","483288","0.0-2.0-11.3-3.3","battery-v0.2","","""event"",""trial"",""time""
""fullscreenenter"",""1"",""1181""
","
","
","""event"",""trial"",""time""
""fullscreenenter"",""1"",""1181""
","
","","","-1","","","20","12420","5517","&#9761;","elianto","#3366ff99","-1","-1","1","0","[]","0","0","2","","","","","","","",""
"pit-trial","56","488153","0.0-2.0-11.3-4.3","battery-v0.2","","""event"",""trial"",""time""
""fullscreenenter"",""1"",""1181""
","
","
","""event"",""trial"",""time""
""fullscreenenter"",""1"",""1181""
","
","","","-1","","","20","12420","5517","&#9761;","elianto","#3366ff99","-1","-1","1","+10","[]","0","0","2","","","","","","","",""
"call-function","57","488156","0.0-2.0-12.0","battery-v0.2","","""event"",""trial"",""time""
""fullscreenenter"",""1"",""1181""
","
","
","""event"",""trial"",""time""
""fullscreenenter"",""1"",""1181""
","
","","","","","","","","","","","","","","","","","","","","","","","","","","",""
"pit-instructions","58","522305","0.0-2.0-13.0","battery-v0.2","","""event"",""trial"",""time""
""fullscreenenter"",""1"",""1181""
","
","
","""event"",""trial"",""time""
""fullscreenenter"",""1"",""1181""
","
","","[{""page_index"":0,""viewing_time"":7363.599999904633},{""page_index"":1,""viewing_time"":7833.5},{""page_index"":2,""viewing_time"":3916.0999999046326},{""page_index"":3,""viewing_time"":10767.200000047684},{""page_index"":4,""viewing_time"":4267.700000047684}]","34148.39999985695","","","","","","","","","","","","","","","","","","","","","","","",""
"pit-trial","59","525677","0.0-2.0-14.0-0.0","battery-v0.2","","""event"",""trial"",""time""
""fullscreenenter"",""1"",""1181""
","
","
","""event"",""trial"",""time""
""fullscreenenter"",""1"",""1181""
","
","","","513.5999999046326","","","20","12420","5517","&#9826;","elianto","#f73b6a7A","-1"," ","0","-10","[1365.5]","1","0","3","","","","","","","",""
"pit-trial","60","528893","0.0-2.0-14.0-1.0","battery-v0.2","","""event"",""trial"",""time""
""fullscreenenter"",""1"",""1181""
","
","
","""event"",""trial"",""time""
""fullscreenenter"",""1"",""1181""
","
","","","354.2999999523163","","","20","12420","5517","&#9826;","elianto","#f73b6a7A","-1"," ","0","-10","[1207.1999998092651]","1","0","3","","","","","","","",""
"pit-trial","61","533756","0.0-2.0-14.0-2.0","battery-v0.2","","""event"",""trial"",""time""
""fullscreenenter"",""1"",""1181""
","
","
","""event"",""trial"",""time""
""fullscreenenter"",""1"",""1181""
","
","","","-1","","","20","12420","5517","&#9826;","elianto","#f73b6a7A","-1","-1","1","0","[]","0","0","3","","","","","","","",""
"pit-trial","62","538618","0.0-2.0-14.0-3.0","battery-v0.2","","""event"",""trial"",""time""
""fullscreenenter"",""1"",""1181""
","
","
","""event"",""trial"",""time""
""fullscreenenter"",""1"",""1181""
","
","","","-1","","","20","12420","5517","&#9826;","elianto","#f73b6a7A","-1","-1","1","-10","[]","0","0","3","","","","","","","",""
"pit-trial","63","543482","0.0-2.0-14.0-4.0","battery-v0.2","","""event"",""trial"",""time""
""fullscreenenter"",""1"",""1181""
","
","
","""event"",""trial"",""time""
""fullscreenenter"",""1"",""1181""
","
","","","-1","","","20","12420","5517","&#9826;","elianto","#f73b6a7A","-1","-1","1","0","[]","0","0","3","","","","","","","",""
"pit-trial","64","548344","0.0-2.0-14.1-0.1","battery-v0.2","","""event"",""trial"",""time""
""fullscreenenter"",""1"",""1181""
","
","
","""event"",""trial"",""time""
""fullscreenenter"",""1"",""1181""
","
","","","-1","","","20","12420","5517","&#9826;","elianto","#f73b6a7A","-1","-1","1","0","[]","0","0","3","","","","","","","",""
"pit-trial","65","553204","0.0-2.0-14.1-1.1","battery-v0.2","","""event"",""trial"",""time""
""fullscreenenter"",""1"",""1181""
","
","
","""event"",""trial"",""time""
""fullscreenenter"",""1"",""1181""
","
","","","-1","","","20","12420","5517","&#9826;","elianto","#f73b6a7A","-1","-1","1","0","[]","0","0","3","","","","","","","",""
"pit-trial","66","558069","0.0-2.0-14.1-2.1","battery-v0.2","","""event"",""trial"",""time""
""fullscreenenter"",""1"",""1181""
","
","
","""event"",""trial"",""time""
""fullscreenenter"",""1"",""1181""
","
","","","-1","","","20","12420","5517","&#9826;","elianto","#f73b6a7A","-1","-1","1","0","[]","0","0","3","","","","","","","",""
"pit-trial","67","562927","0.0-2.0-14.1-3.1","battery-v0.2","","""event"",""trial"",""time""
""fullscreenenter"",""1"",""1181""
","
","
","""event"",""trial"",""time""
""fullscreenenter"",""1"",""1181""
","
","","","-1","","","20","12420","5517","&#9826;","elianto","#f73b6a7A","-1","-1","1","-10","[]","0","0","3","","","","","","","",""
"pit-trial","68","567791","0.0-2.0-14.1-4.1","battery-v0.2","","""event"",""trial"",""time""
""fullscreenenter"",""1"",""1181""
","
","
","""event"",""trial"",""time""
""fullscreenenter"",""1"",""1181""
","
","","","-1","","","20","12420","5517","&#9826;","elianto","#f73b6a7A","-1","-1","1","0","[]","0","0","3","","","","","","","",""
"pit-trial","69","572654","0.0-2.0-14.2-0.2","battery-v0.2","","""event"",""trial"",""time""
""fullscreenenter"",""1"",""1181""
","
","
","""event"",""trial"",""time""
""fullscreenenter"",""1"",""1181""
","
","","","-1","","","20","12420","5517","&#9826;","elianto","#f73b6a7A","-1","-1","1","0","[]","0","0","3","","","","","","","",""
"pit-trial","70","577514","0.0-2.0-14.2-1.2","battery-v0.2","","""event"",""trial"",""time""
""fullscreenenter"",""1"",""1181""
","
","
","""event"",""trial"",""time""
""fullscreenenter"",""1"",""1181""
","
","","","-1","","","20","12420","5517","&#9826;","elianto","#f73b6a7A","-1","-1","1","0","[]","0","0","3","","","","","","","",""
"pit-trial","71","582379","0.0-2.0-14.2-2.2","battery-v0.2","","""event"",""trial"",""time""
""fullscreenenter"",""1"",""1181""
","
","
","""event"",""trial"",""time""
""fullscreenenter"",""1"",""1181""
","
","","","-1","","","20","12420","5517","&#9826;","elianto","#f73b6a7A","-1","-1","1","0","[]","0","0","3","","","","","","","",""
"pit-trial","72","587243","0.0-2.0-14.2-3.2","battery-v0.2","","""event"",""trial"",""time""
""fullscreenenter"",""1"",""1181""
","
","
","""event"",""trial"",""time""
""fullscreenenter"",""1"",""1181""
","
","","","-1","","","20","12420","5517","&#9826;","elianto","#f73b6a7A","-1","-1","1","-10","[]","0","0","3","","","","","","","",""
"pit-trial","73","592106","0.0-2.0-14.2-4.2","battery-v0.2","","""event"",""trial"",""time""
""fullscreenenter"",""1"",""1181""
","
","
","""event"",""trial"",""time""
""fullscreenenter"",""1"",""1181""
","
","","","-1","","","20","12420","5517","&#9826;","elianto","#f73b6a7A","-1","-1","1","0","[]","0","0","3","","","","","","","",""
"pit-trial","74","596971","0.0-2.0-14.3-0.3","battery-v0.2","","""event"",""trial"",""time""
""fullscreenenter"",""1"",""1181""
","
","
","""event"",""trial"",""time""
""fullscreenenter"",""1"",""1181""
","
","","","-1","","","20","12420","5517","&#9826;","elianto","#f73b6a7A","-1","-1","1","0","[]","0","0","3","","","","","","","",""
"pit-trial","75","601834","0.0-2.0-14.3-1.3","battery-v0.2","","""event"",""trial"",""time""
""fullscreenenter"",""1"",""1181""
","
","
","""event"",""trial"",""time""
""fullscreenenter"",""1"",""1181""
","
","","","-1","","","20","12420","5517","&#9826;","elianto","#f73b6a7A","-1","-1","1","0","[]","0","0","3","","","","","","","",""
"pit-trial","76","606697","0.0-2.0-14.3-2.3","battery-v0.2","","""event"",""trial"",""time""
""fullscreenenter"",""1"",""1181""
","
","
","""event"",""trial"",""time""
""fullscreenenter"",""1"",""1181""
","
","","","-1","","","20","12420","5517","&#9826;","elianto","#f73b6a7A","-1","-1","1","0","[]","0","0","3","","","","","","","",""
"pit-trial","77","611561","0.0-2.0-14.3-3.3","battery-v0.2","","""event"",""trial"",""time""
""fullscreenenter"",""1"",""1181""
","
","
","""event"",""trial"",""time""
""fullscreenenter"",""1"",""1181""
","
","","","-1","","","20","12420","5517","&#9826;","elianto","#f73b6a7A","-1","-1","1","-10","[]","0","0","3","","","","","","","",""
"pit-trial","78","616425","0.0-2.0-14.3-4.3","battery-v0.2","","""event"",""trial"",""time""
""fullscreenenter"",""1"",""1181""
","
","
","""event"",""trial"",""time""
""fullscreenenter"",""1"",""1181""
","
","","","-1","","","20","12420","5517","&#9826;","elianto","#f73b6a7A","-1","-1","1","0","[]","0","0","3","","","","","","","",""
"call-function","79","616428","0.0-2.0-15.0","battery-v0.2","","""event"",""trial"",""time""
""fullscreenenter"",""1"",""1181""
","
","
","""event"",""trial"",""time""
""fullscreenenter"",""1"",""1181""
","
","","","","","","","","","","","","","","","","","","","","","","","","","","",""
"pit-instructions","80","640621","0.0-2.0-16.0","battery-v0.2","","""event"",""trial"",""time""
""fullscreenenter"",""1"",""1181""
","
","
","""event"",""trial"",""time""
""fullscreenenter"",""1"",""1181""
","
","","[{""page_index"":0,""viewing_time"":7208.5},{""page_index"":1,""viewing_time"":8300.799999952316},{""page_index"":2,""viewing_time"":4616.900000095367},{""page_index"":3,""viewing_time"":4067.2999999523163}]","24193.700000047684","","","","","","","","","","","","","","","","","","","","","","","",""
"pit-trial","81","644785","0.0-2.0-17.0-0.0","battery-v0.2","","""event"",""trial"",""time""
""fullscreenenter"",""1"",""1181""
","
","
","""event"",""trial"",""time""
""fullscreenenter"",""1"",""1181""
","
","","","1303.7000000476837","","","20","12420","5517","&#9789;","elianto","#f73b6a7A"," "," ","1","0","[2156.300000190735]","1","0","4","","","","","","","",""
"pit-trial","82","648030","0.0-2.0-17.0-1.0","battery-v0.2","","""event"",""trial"",""time""
""fullscreenenter"",""1"",""1181""
","
","
","""event"",""trial"",""time""
""fullscreenenter"",""1"",""1181""
","
","","","386.7999999523163","","","20","12420","5517","&#9789;","elianto","#f73b6a7A"," "," ","1","0","[1238.7999999523163]","1","0","4","","","","","","","",""
"pit-trial","83","651168","0.0-2.0-17.0-2.0","battery-v0.2","","""event"",""trial"",""time""
""fullscreenenter"",""1"",""1181""
","
","
","""event"",""trial"",""time""
""fullscreenenter"",""1"",""1181""
","
","","","279.2999999523163","","","20","12420","5517","&#9789;","elianto","#f73b6a7A"," "," ","1","0","[1129.7999999523163]","1","0","4","","","","","","","",""
"pit-trial","84","654373","0.0-2.0-17.0-3.0","battery-v0.2","","""event"",""trial"",""time""
""fullscreenenter"",""1"",""1181""
","
","
","""event"",""trial"",""time""
""fullscreenenter"",""1"",""1181""
","
","","","347.7999999523163","","","20","12420","5517","&#9789;","elianto","#f73b6a7A"," "," ","1","-10","[1198.5999999046326]","1","0","4","","","","","","","",""
"pit-trial","85","657545","0.0-2.0-17.0-4.0","battery-v0.2","","""event"",""trial"",""time""
""fullscreenenter"",""1"",""1181""
","
","
","""event"",""trial"",""time""
""fullscreenenter"",""1"",""1181""
","
","","","312.5","","","20","12420","5517","&#9789;","elianto","#f73b6a7A"," "," ","1","0","[1165.1000001430511]","1","0","4","","","","","","","",""
"pit-trial","86","660562","0.0-2.0-17.1-0.1","battery-v0.2","","""event"",""trial"",""time""
""fullscreenenter"",""1"",""1181""
","
","
","""event"",""trial"",""time""
""fullscreenenter"",""1"",""1181""
","
","","","155.90000009536743","","","20","12420","5517","&#9789;","elianto","#f73b6a7A"," "," ","1","0","[1007.1000001430511]","1","0","4","","","","","","","",""
"pit-trial","87","663683","0.0-2.0-17.1-1.1","battery-v0.2","","""event"",""trial"",""time""
""fullscreenenter"",""1"",""1181""
","
","
","""event"",""trial"",""time""
""fullscreenenter"",""1"",""1181""
","
","","","260.89999985694885","","","20","12420","5517","&#9789;","elianto","#f73b6a7A"," "," ","1","0","[1112.2999999523163]","1","0","4","","","","","","","",""
"pit-trial","88","666855","0.0-2.0-17.1-2.1","battery-v0.2","","""event"",""trial"",""time""
""fullscreenenter"",""1"",""1181""
","
","
","""event"",""trial"",""time""
""fullscreenenter"",""1"",""1181""
","
","","","311.60000014305115","","","20","12420","5517","&#9789;","elianto","#f73b6a7A"," "," ","1","0","[1162.3999998569489]","1","0","4","","","","","","","",""
"pit-trial","89","670010","0.0-2.0-17.1-3.1","battery-v0.2","","""event"",""trial"",""time""
""fullscreenenter"",""1"",""1181""
","
","
","""event"",""trial"",""time""
""fullscreenenter"",""1"",""1181""
","
","","","296.59999990463257","","","20","12420","5517","&#9789;","elianto","#f73b6a7A"," "," ","1","-10","[1149.5]","1","0","4","","","","","","","",""
"pit-trial","90","673234","0.0-2.0-17.1-4.1","battery-v0.2","","""event"",""trial"",""time""
""fullscreenenter"",""1"",""1181""
","
","
","""event"",""trial"",""time""
""fullscreenenter"",""1"",""1181""
","
","","","361.5","","","20","12420","5517","&#9789;","elianto","#f73b6a7A"," "," ","1","0","[1215.2000000476837]","1","0","4","","","","","","","",""
"pit-trial","91","676502","0.0-2.0-17.2-0.2","battery-v0.2","","""event"",""trial"",""time""
""fullscreenenter"",""1"",""1181""
","
","
","""event"",""trial"",""time""
""fullscreenenter"",""1"",""1181""
","
","","","409","","","20","12420","5517","&#9789;","elianto","#f73b6a7A"," "," ","1","0","[1259]","1","0","4","","","","","","","",""
"pit-trial","92","679806","0.0-2.0-17.2-1.2","battery-v0.2","","""event"",""trial"",""time""
""fullscreenenter"",""1"",""1181""
","
","
","""event"",""trial"",""time""
""fullscreenenter"",""1"",""1181""
","
","","","448.2999999523163","","","20","12420","5517","&#9789;","elianto","#f73b6a7A"," "," ","1","0","[1298.9000000953674]","1","0","4","","","","","","","",""
"pit-trial","93","682948","0.0-2.0-17.2-2.2","battery-v0.2","","""event"",""trial"",""time""
""fullscreenenter"",""1"",""1181""
","
","
","""event"",""trial"",""time""
""fullscreenenter"",""1"",""1181""
","
","","","280.7000000476837","","","20","12420","5517","&#9789;","elianto","#f73b6a7A"," "," ","1","0","[1133.4000000953674]","1","0","4","","","","","","","",""
"pit-trial","94","686038","0.0-2.0-17.2-3.2","battery-v0.2","","""event"",""trial"",""time""
""fullscreenenter"",""1"",""1181""
","
","
","""event"",""trial"",""time""
""fullscreenenter"",""1"",""1181""
","
","","","230.5","","","20","12420","5517","&#9789;","elianto","#f73b6a7A"," "," ","1","-10","[1081.5]","1","0","4","","","","","","","",""
"pit-trial","95","689211","0.0-2.0-17.2-4.2","battery-v0.2","","""event"",""trial"",""time""
""fullscreenenter"",""1"",""1181""
","
","
","""event"",""trial"",""time""
""fullscreenenter"",""1"",""1181""
","
","","","312.2999999523163","","","20","12420","5517","&#9789;","elianto","#f73b6a7A"," "," ","1","0","[1164.4000000953674]","1","0","4","","","","","","","",""
"pit-trial","96","692362","0.0-2.0-17.3-0.3","battery-v0.2","","""event"",""trial"",""time""
""fullscreenenter"",""1"",""1181""
","
","
","""event"",""trial"",""time""
""fullscreenenter"",""1"",""1181""
","
","","","290.7000000476837","","","20","12420","5517","&#9789;","elianto","#f73b6a7A"," "," ","1","0","[1142.7000000476837]","1","0","4","","","","","","","",""
"pit-trial","97","695582","0.0-2.0-17.3-1.3","battery-v0.2","","""event"",""trial"",""time""
""fullscreenenter"",""1"",""1181""
","
","
","""event"",""trial"",""time""
""fullscreenenter"",""1"",""1181""
","
","","","361.5","","","20","12420","5517","&#9789;","elianto","#f73b6a7A"," "," ","1","0","[1214.9000000953674]","1","0","4","","","","","","","",""
"pit-trial","98","699030","0.0-2.0-17.3-2.3","battery-v0.2","","""event"",""trial"",""time""
""fullscreenenter"",""1"",""1181""
","
","
","""event"",""trial"",""time""
""fullscreenenter"",""1"",""1181""
","
","","","588.7999999523163","","","20","12420","5517","&#9789;","elianto","#f73b6a7A"," "," ","1","0","[1439.3999998569489]","1","0","4","","","","","","","",""
"pit-trial","99","702281","0.0-2.0-17.3-3.3","battery-v0.2","","""event"",""trial"",""time""
""fullscreenenter"",""1"",""1181""
","
","
","""event"",""trial"",""time""
""fullscreenenter"",""1"",""1181""
","
","","","390.40000009536743","","","20","12420","5517","&#9789;","elianto","#f73b6a7A"," "," ","1","-10","[1241.7999999523163]","1","0","4","","","","","","","",""
"pit-trial","100","705484","0.0-2.0-17.3-4.3","battery-v0.2","","""event"",""trial"",""time""
""fullscreenenter"",""1"",""1181""
","
","
","""event"",""trial"",""time""
""fullscreenenter"",""1"",""1181""
","
","","","341.7000000476837","","","20","12420","5517","&#9789;","elianto","#f73b6a7A"," "," ","1","0","[1193.5999999046326]","1","0","4","","","","","","","",""
"call-function","101","705486","0.0-2.0-18.0","battery-v0.2","","""event"",""trial"",""time""
""fullscreenenter"",""1"",""1181""
","
","
","""event"",""trial"",""time""
""fullscreenenter"",""1"",""1181""
","
","","","","","","","","","","","","","","","","","","","","","","","","","","",""
"pit-instructions","102","777788","0.0-2.0-19.0","battery-v0.2","","""event"",""trial"",""time""
""fullscreenenter"",""1"",""1181""
","
","
","""event"",""trial"",""time""
""fullscreenenter"",""1"",""1181""
","
","","[{""page_index"":0,""viewing_time"":8183.5},{""page_index"":1,""viewing_time"":5416.399999856949},{""page_index"":2,""viewing_time"":14401.300000190735},{""page_index"":3,""viewing_time"":8654},{""page_index"":4,""viewing_time"":7879},{""page_index"":5,""viewing_time"":8784.099999904633},{""page_index"":6,""viewing_time"":8633.099999904633},{""page_index"":7,""viewing_time"":6201.5},{""page_index"":8,""viewing_time"":4148.800000190735}]","72302","","","","","","","","","","","","","","","","","","","","","","","",""
"pit-comprehension","103","782440","0.0-2.0-20.0-0.0","battery-v0.2","","""event"",""trial"",""time""
""fullscreenenter"",""1"",""1181""
","
","
","""event"",""trial"",""time""
""fullscreenenter"",""1"",""1181""
","
","","","4649.699999809265","[""SPACE""]","0","20","12420","5517","","","","","","","","","","","","","","","","","","",""
"pit-instructions","104","785171","0.0-2.0-20.0-1.0","battery-v0.2","","""event"",""trial"",""time""
""fullscreenenter"",""1"",""1181""
","
","
","""event"",""trial"",""time""
""fullscreenenter"",""1"",""1181""
","
","","[{""page_index"":0,""viewing_time"":2706.7000000476837}]","2706.9000000953674","","","","","","","","","","","","","","","","","","","","","","","",""
"pit-comprehension","105","795056","0.0-2.0-21.0-0.0","battery-v0.2","","""event"",""trial"",""time""
""fullscreenenter"",""1"",""1181""
","
","
","""event"",""trial"",""time""
""fullscreenenter"",""1"",""1181""
","
","","","9882.599999904633","[""10""]","0","20","12420","5517","","","","","","","","","","","","","","","","","","",""
"pit-instructions","106","797721","0.0-2.0-21.0-1.0","battery-v0.2","","""event"",""trial"",""time""
""fullscreenenter"",""1"",""1181""
","
","
","""event"",""trial"",""time""
""fullscreenenter"",""1"",""1181""
","
","","[{""page_index"":0,""viewing_time"":2641.9000000953674}]","2642.2000000476837","","","","","","","","","","","","","","","","","","","","","","","",""
"pit-comprehension","107","814888","0.0-2.0-22.0-0.0","battery-v0.2","","""event"",""trial"",""time""
""fullscreenenter"",""1"",""1181""
","
","
","""event"",""trial"",""time""
""fullscreenenter"",""1"",""1181""
","
","","","17164.599999904633","[""0""]","0","20","12420","5517","","","","","","","","","","","","","","","","","","",""
"pit-instructions","108","818422","0.0-2.0-22.0-1.0","battery-v0.2","","""event"",""trial"",""time""
""fullscreenenter"",""1"",""1181""
","
","
","""event"",""trial"",""time""
""fullscreenenter"",""1"",""1181""
","
","","[{""page_index"":0,""viewing_time"":3512}]","3512.2000000476837","","","","","","","","","","","","","","","","","","","","","","","",""
"pit-comprehension","109","835260","0.0-2.0-23.0-0.0","battery-v0.2","","""event"",""trial"",""time""
""fullscreenenter"",""1"",""1181""
","
","
","""event"",""trial"",""time""
""fullscreenenter"",""1"",""1181""
","
","","","16836.200000047684","[""True""]","0","20","12420","5517","","","","","","","","","","","","","","","","","","",""
"pit-instructions","110","855088","0.0-2.0-23.0-1.0","battery-v0.2","","""event"",""trial"",""time""
""fullscreenenter"",""1"",""1181""
","
","
","""event"",""trial"",""time""
""fullscreenenter"",""1"",""1181""
","
","","[{""page_index"":0,""viewing_time"":19806}]","19806.099999904633","","","","","","","","","","","","","","","","","","","","","","","",""
"pit-comprehension","111","862707","0.0-2.0-24.0-0.0","battery-v0.2","","""event"",""trial"",""time""
""fullscreenenter"",""1"",""1181""
","
","
","""event"",""trial"",""time""
""fullscreenenter"",""1"",""1181""
","
","","","7616.700000047684","[""True""]","0","20","12420","5517","","","","","","","","","","","","","","","","","","",""
"pit-instructions","112","863760","0.0-2.0-24.0-1.0","battery-v0.2","","""event"",""trial"",""time""
""fullscreenenter"",""1"",""1181""
","
","
","""event"",""trial"",""time""
""fullscreenenter"",""1"",""1181""
","
","","[{""page_index"":0,""viewing_time"":1028.7999999523163}]","1028.9000000953674","","","","","","","","","","","","","","","","","","","","","","","",""
"pit-comprehension","113","870390","0.0-2.0-25.0-0.0","battery-v0.2","","""event"",""trial"",""time""
""fullscreenenter"",""1"",""1181""
","
","
","""event"",""trial"",""time""
""fullscreenenter"",""1"",""1181""
","
","","","6627.799999952316","[""True""]","0","20","12420","5517","","","","","","","","","","","","","","","","","","",""
"pit-instructions","114","871905","0.0-2.0-25.0-1.0","battery-v0.2","","""event"",""trial"",""time""
""fullscreenenter"",""1"",""1181""
","
","
","""event"",""trial"",""time""
""fullscreenenter"",""1"",""1181""
","
","","[{""page_index"":0,""viewing_time"":1493.1999998092651}]","1493.2999999523163","","","","","","","","","","","","","","","","","","","","","","","",""
"pit-comprehension","115","877322","0.0-2.0-26.0-0.0","battery-v0.2","","""event"",""trial"",""time""
""fullscreenenter"",""1"",""1181""
","
","
","""event"",""trial"",""time""
""fullscreenenter"",""1"",""1181""
","
","","","5415.200000047684","[""False""]","0","20","12420","5517","","","","","","","","","","","","","","","","","","",""
"pit-instructions","116","878957","0.0-2.0-26.0-1.0","battery-v0.2","","""event"",""trial"",""time""
""fullscreenenter"",""1"",""1181""
""fullscreenexit"",""117"",""902887""
""blur"",""117"",""904363""
""focus"",""117"",""910353""
","""event"",""trial"",""time""
""blur"",""117"",""904363""
","""event"",""trial"",""time""
""focus"",""117"",""910353""
","""event"",""trial"",""time""
""fullscreenenter"",""1"",""1181""
","""event"",""trial"",""time""
""fullscreenexit"",""117"",""902887""
","","[{""page_index"":0,""viewing_time"":1609.1999998092651}]","1609.5999999046326","","","","","","","","","","","","","","","","","","","","","","","",""
"pit-instructions","117","913157","0.0-3.0","battery-v0.2","","""event"",""trial"",""time""
""fullscreenenter"",""1"",""1181""
""fullscreenexit"",""117"",""902887""
""blur"",""117"",""904363""
""focus"",""117"",""910353""
","""event"",""trial"",""time""
""blur"",""117"",""904363""
","""event"",""trial"",""time""
""focus"",""117"",""910353""
","""event"",""trial"",""time""
""fullscreenenter"",""1"",""1181""
","""event"",""trial"",""time""
""fullscreenexit"",""117"",""902887""
","","[{""page_index"":0,""viewing_time"":3579.5},{""page_index"":1,""viewing_time"":5101.300000190735},{""page_index"":2,""viewing_time"":25517.799999952316}]","34199.300000190735","","","","","","","","","","","","","","","","","","","","","","","",""
"pit-trial","118","917408","0.0-4.0","battery-v0.2","","""event"",""trial"",""time""
""fullscreenenter"",""1"",""1181""
""fullscreenexit"",""117"",""902887""
""blur"",""117"",""904363""
""focus"",""117"",""910353""
","""event"",""trial"",""time""
""blur"",""117"",""904363""
","""event"",""trial"",""time""
""focus"",""117"",""910353""
","""event"",""trial"",""time""
""fullscreenenter"",""1"",""1181""
","""event"",""trial"",""time""
""fullscreenexit"",""117"",""902887""
","","","1382.1000001430511","","","20","12420","5517","&#9730;","elianto","#3366ff99"," "," ","1","0","[2241.5999999046326]","1","1","","","12420","1","1","1","win","go","1"
"pit-trial","119","920931","0.0-5.0","battery-v0.2","","""event"",""trial"",""time""
""fullscreenenter"",""1"",""1181""
""fullscreenexit"",""117"",""902887""
""blur"",""117"",""904363""
""focus"",""117"",""910353""
","""event"",""trial"",""time""
""blur"",""117"",""904363""
","""event"",""trial"",""time""
""focus"",""117"",""910353""
","""event"",""trial"",""time""
""fullscreenenter"",""1"",""1181""
","""event"",""trial"",""time""
""fullscreenexit"",""117"",""902887""
","","","664.4000000953674","","","20","12420","5517","&#9733;","elianto","#3366ff99","-1"," ","0","0","[1515.6000001430511]","1","1","","","12420","2","2","2","win","no-go","0"
"pit-trial","120","924901","0.0-6.0","battery-v0.2","","""event"",""trial"",""time""
""fullscreenenter"",""1"",""1181""
""fullscreenexit"",""117"",""902887""
""blur"",""117"",""904363""
""focus"",""117"",""910353""
","""event"",""trial"",""time""
""blur"",""117"",""904363""
","""event"",""trial"",""time""
""focus"",""117"",""910353""
","""event"",""trial"",""time""
""fullscreenenter"",""1"",""1181""
","""event"",""trial"",""time""
""fullscreenexit"",""117"",""902887""
","","","1113.0999999046326","","","20","12420","5517","&#9752;","elianto","#f73b6a7A"," "," ","1","0","[1963.9000000953674]","1","1","","","12420","3","3","3","lose","go","0"
"pit-trial","121","928531","0.0-7.0","battery-v0.2","","""event"",""trial"",""time""
""fullscreenenter"",""1"",""1181""
""fullscreenexit"",""117"",""902887""
""blur"",""117"",""904363""
""focus"",""117"",""910353""
","""event"",""trial"",""time""
""blur"",""117"",""904363""
","""event"",""trial"",""time""
""focus"",""117"",""910353""
","""event"",""trial"",""time""
""fullscreenenter"",""1"",""1181""
","""event"",""trial"",""time""
""fullscreenexit"",""117"",""902887""
","","","772.3000001907349","","","20","12420","5517","&#9728;","elianto","#f73b6a7A","-1"," ","0","-10","[1623.1000001430511]","1","1","","","12420","4","0","4","lose","no-go","0"
"pit-trial","122","932679","0.0-8.0","battery-v0.2","","""event"",""trial"",""time""
""fullscreenenter"",""1"",""1181""
""fullscreenexit"",""117"",""902887""
""blur"",""117"",""904363""
""focus"",""117"",""910353""
","""event"",""trial"",""time""
""blur"",""117"",""904363""
","""event"",""trial"",""time""
""focus"",""117"",""910353""
","""event"",""trial"",""time""
""fullscreenenter"",""1"",""1181""
","""event"",""trial"",""time""
""fullscreenexit"",""117"",""902887""
","","","1290","","","20","12420","5517","&#9728;","elianto","#f73b6a7A","-1"," ","0","0","[2143.4000000953674]","1","1","","","12420","5","0","4","lose","no-go","1"
"pit-trial","123","937544","0.0-9.0","battery-v0.2","","""event"",""trial"",""time""
""fullscreenenter"",""1"",""1181""
""fullscreenexit"",""117"",""902887""
""blur"",""117"",""904363""
""focus"",""117"",""910353""
","""event"",""trial"",""time""
""blur"",""117"",""904363""
","""event"",""trial"",""time""
""focus"",""117"",""910353""
","""event"",""trial"",""time""
""fullscreenenter"",""1"",""1181""
","""event"",""trial"",""time""
""fullscreenexit"",""117"",""902887""
","","","-1","","","20","12420","5517","&#9730;","elianto","#3366ff99"," ","-1","0","0","[]","0","1","","","12420","6","1","1","win","go","0"
"pit-trial","124","941283","0.0-10.0","battery-v0.2","","""event"",""trial"",""time""
""fullscreenenter"",""1"",""1181""
""fullscreenexit"",""117"",""902887""
""blur"",""117"",""904363""
""focus"",""117"",""910353""
","""event"",""trial"",""time""
""blur"",""117"",""904363""
","""event"",""trial"",""time""
""focus"",""117"",""910353""
","""event"",""trial"",""time""
""fullscreenenter"",""1"",""1181""
","""event"",""trial"",""time""
""fullscreenexit"",""117"",""902887""
","","","877.7999999523163","","","20","12420","5517","&#9733;","elianto","#3366ff99","-1"," ","0","+10","[1729.8000001907349]","1","1","","","12420","7","2","2","win","no-go","1"
"pit-trial","125","946146","0.0-11.0","battery-v0.2","","""event"",""trial"",""time""
""fullscreenenter"",""1"",""1181""
""fullscreenexit"",""117"",""902887""
""blur"",""117"",""904363""
""focus"",""117"",""910353""
","""event"",""trial"",""time""
""blur"",""117"",""904363""
","""event"",""trial"",""time""
""focus"",""117"",""910353""
","""event"",""trial"",""time""
""fullscreenenter"",""1"",""1181""
","""event"",""trial"",""time""
""fullscreenexit"",""117"",""902887""
","","","-1","","","20","12420","5517","&#9752;","elianto","#f73b6a7A"," ","-1","0","0","[]","0","1","","","12420","8","3","3","lose","go","1"
"pit-trial","126","950082","0.0-12.0","battery-v0.2","","""event"",""trial"",""time""
""fullscreenenter"",""1"",""1181""
""fullscreenexit"",""117"",""902887""
""blur"",""117"",""904363""
""focus"",""117"",""910353""
","""event"",""trial"",""time""
""blur"",""117"",""904363""
","""event"",""trial"",""time""
""focus"",""117"",""910353""
","""event"",""trial"",""time""
""fullscreenenter"",""1"",""1181""
","""event"",""trial"",""time""
""fullscreenexit"",""117"",""902887""
","","","1072.9000000953674","","","20","12420","5517","&#9728;","elianto","#f73b6a7A","-1"," ","0","-10","[1926.5]","1","1","","","12420","9","0","4","lose","no-go","0"
"pit-trial","127","954945","0.0-13.0","battery-v0.2","","""event"",""trial"",""time""
""fullscreenenter"",""1"",""1181""
""fullscreenexit"",""117"",""902887""
""blur"",""117"",""904363""
""focus"",""117"",""910353""
","""event"",""trial"",""time""
""blur"",""117"",""904363""
","""event"",""trial"",""time""
""focus"",""117"",""910353""
","""event"",""trial"",""time""
""fullscreenenter"",""1"",""1181""
","""event"",""trial"",""time""
""fullscreenexit"",""117"",""902887""
","","","-1","","","20","12420","5517","&#9752;","elianto","#f73b6a7A"," ","-1","0","-10","[]","0","1","","","12420","10","3","3","lose","go","0"
"pit-trial","128","958997","0.0-14.0","battery-v0.2","","""event"",""trial"",""time""
""fullscreenenter"",""1"",""1181""
""fullscreenexit"",""117"",""902887""
""blur"",""117"",""904363""
""focus"",""117"",""910353""
","""event"",""trial"",""time""
""blur"",""117"",""904363""
","""event"",""trial"",""time""
""focus"",""117"",""910353""
","""event"",""trial"",""time""
""fullscreenenter"",""1"",""1181""
","""event"",""trial"",""time""
""fullscreenexit"",""117"",""902887""
","","","1191.2999999523163","","","20","12420","5517","&#9730;","elianto","#3366ff99"," "," ","1","+10","[2042.7999999523163]","1","1","","","12420","11","1","1","win","go","0"
"pit-trial","129","962695","0.0-15.0","battery-v0.2","","""event"",""trial"",""time""
""fullscreenenter"",""1"",""1181""
""fullscreenexit"",""117"",""902887""
""blur"",""117"",""904363""
""focus"",""117"",""910353""
","""event"",""trial"",""time""
""blur"",""117"",""904363""
","""event"",""trial"",""time""
""focus"",""117"",""910353""
","""event"",""trial"",""time""
""fullscreenenter"",""1"",""1181""
","""event"",""trial"",""time""
""fullscreenexit"",""117"",""902887""
","","","838.7000000476837","","","20","12420","5517","&#9733;","elianto","#3366ff99","-1"," ","0","0","[1689.0999999046326]","1","1","","","12420","12","2","2","win","no-go","0"
"pit-trial","130","967560","0.0-16.0","battery-v0.2","","""event"",""trial"",""time""
""fullscreenenter"",""1"",""1181""
""fullscreenexit"",""117"",""902887""
""blur"",""117"",""904363""
""focus"",""117"",""910353""
","""event"",""trial"",""time""
""blur"",""117"",""904363""
","""event"",""trial"",""time""
""focus"",""117"",""910353""
","""event"",""trial"",""time""
""fullscreenenter"",""1"",""1181""
","""event"",""trial"",""time""
""fullscreenexit"",""117"",""902887""
","","","-1","","","20","12420","5517","&#9733;","elianto","#3366ff99","-1","-1","1","+10","[]","0","1","","","12420","13","2","2","win","no-go","0"
"pit-trial","131","971085","0.0-17.0","battery-v0.2","","""event"",""trial"",""time""
""fullscreenenter"",""1"",""1181""
""fullscreenexit"",""117"",""902887""
""blur"",""117"",""904363""
""focus"",""117"",""910353""
","""event"",""trial"",""time""
""blur"",""117"",""904363""
","""event"",""trial"",""time""
""focus"",""117"",""910353""
","""event"",""trial"",""time""
""fullscreenenter"",""1"",""1181""
","""event"",""trial"",""time""
""fullscreenexit"",""117"",""902887""
","","","663.4000000953674","","","20","12420","5517","&#9730;","elianto","#3366ff99"," "," ","1","0","[1515.9000000953674]","1","1","","","12420","14","1","1","win","go","1"
"pit-trial","132","975405","0.0-18.0","battery-v0.2","","""event"",""trial"",""time""
""fullscreenenter"",""1"",""1181""
""fullscreenexit"",""117"",""902887""
""blur"",""117"",""904363""
""focus"",""117"",""910353""
","""event"",""trial"",""time""
""blur"",""117"",""904363""
","""event"",""trial"",""time""
""focus"",""117"",""910353""
","""event"",""trial"",""time""
""fullscreenenter"",""1"",""1181""
","""event"",""trial"",""time""
""fullscreenexit"",""117"",""902887""
","","","1463.7999999523163","","","20","12420","5517","&#9752;","elianto","#f73b6a7A"," "," ","1","-10","[2315.7999999523163]","1","1","","","12420","15","3","3","lose","go","1"
"pit-trial","133","979617","0.0-19.0","battery-v0.2","","""event"",""trial"",""time""
""fullscreenenter"",""1"",""1181""
""fullscreenexit"",""117"",""902887""
""blur"",""117"",""904363""
""focus"",""117"",""910353""
","""event"",""trial"",""time""
""blur"",""117"",""904363""
","""event"",""trial"",""time""
""focus"",""117"",""910353""
","""event"",""trial"",""time""
""fullscreenenter"",""1"",""1181""
","""event"",""trial"",""time""
""fullscreenexit"",""117"",""902887""
","","","1351","","","20","12420","5517","&#9728;","elianto","#f73b6a7A","-1"," ","0","-10","[2202.4000000953674]","1","1","","","12420","16","0","4","lose","no-go","0"
"pit-trial","134","983174","0.0-20.0","battery-v0.2","","""event"",""trial"",""time""
""fullscreenenter"",""1"",""1181""
""fullscreenexit"",""117"",""902887""
""blur"",""117"",""904363""
""focus"",""117"",""910353""
","""event"",""trial"",""time""
""blur"",""117"",""904363""
","""event"",""trial"",""time""
""focus"",""117"",""910353""
","""event"",""trial"",""time""
""fullscreenenter"",""1"",""1181""
","""event"",""trial"",""time""
""fullscreenexit"",""117"",""902887""
","","","699.5","","","20","12420","5517","&#9733;","elianto","#3366ff99","-1"," ","0","+10","[1550.3999998569489]","1","1","","","12420","17","2","2","win","no-go","1"
"pit-trial","135","988037","0.0-21.0","battery-v0.2","","""event"",""trial"",""time""
""fullscreenenter"",""1"",""1181""
""fullscreenexit"",""117"",""902887""
""blur"",""117"",""904363""
""focus"",""117"",""910353""
","""event"",""trial"",""time""
""blur"",""117"",""904363""
","""event"",""trial"",""time""
""focus"",""117"",""910353""
","""event"",""trial"",""time""
""fullscreenenter"",""1"",""1181""
","""event"",""trial"",""time""
""fullscreenexit"",""117"",""902887""
","","","-1","","","20","12420","5517","&#9752;","elianto","#f73b6a7A"," ","-1","0","-10","[]","0","1","","","12420","18","3","3","lose","go","0"
"pit-trial","136","992902","0.0-22.0","battery-v0.2","","""event"",""trial"",""time""
""fullscreenenter"",""1"",""1181""
""fullscreenexit"",""117"",""902887""
""blur"",""117"",""904363""
""focus"",""117"",""910353""
","""event"",""trial"",""time""
""blur"",""117"",""904363""
","""event"",""trial"",""time""
""focus"",""117"",""910353""
","""event"",""trial"",""time""
""fullscreenenter"",""1"",""1181""
","""event"",""trial"",""time""
""fullscreenexit"",""117"",""902887""
","","","-1","","","20","12420","5517","&#9728;","elianto","#f73b6a7A","-1","-1","1","-10","[]","0","1","","","12420","19","0","4","lose","no-go","1"
"pit-trial","137","997766","0.0-23.0","battery-v0.2","","""event"",""trial"",""time""
""fullscreenenter"",""1"",""1181""
""fullscreenexit"",""117"",""902887""
""blur"",""117"",""904363""
""focus"",""117"",""910353""
","""event"",""trial"",""time""
""blur"",""117"",""904363""
","""event"",""trial"",""time""
""focus"",""117"",""910353""
","""event"",""trial"",""time""
""fullscreenenter"",""1"",""1181""
","""event"",""trial"",""time""
""fullscreenexit"",""117"",""902887""
","","","-1","","","20","12420","5517","&#9730;","elianto","#3366ff99"," ","-1","0","0","[]","0","1","","","12420","20","1","1","win","go","0"
"pit-instructions","138","1014274","0.0-24.0","battery-v0.2","","""event"",""trial"",""time""
""fullscreenenter"",""1"",""1181""
""fullscreenexit"",""117"",""902887""
""blur"",""117"",""904363""
""focus"",""117"",""910353""
","""event"",""trial"",""time""
""blur"",""117"",""904363""
","""event"",""trial"",""time""
""focus"",""117"",""910353""
","""event"",""trial"",""time""
""fullscreenenter"",""1"",""1181""
","""event"",""trial"",""time""
""fullscreenexit"",""117"",""902887""
","","[{""page_index"":0,""viewing_time"":6255.5},{""page_index"":1,""viewing_time"":10251.099999904633}]","16506.89999985695","","","","","","","","","","","","","","","","","","","","","","","",""
"pit-trial","139","1019136","0.0-25.0","battery-v0.2","","""event"",""trial"",""time""
""fullscreenenter"",""1"",""1181""
""fullscreenexit"",""117"",""902887""
""blur"",""117"",""904363""
""focus"",""117"",""910353""
","""event"",""trial"",""time""
""blur"",""117"",""904363""
","""event"",""trial"",""time""
""focus"",""117"",""910353""
","""event"",""trial"",""time""
""fullscreenenter"",""1"",""1181""
","""event"",""trial"",""time""
""fullscreenexit"",""117"",""902887""
","","","-1","","","20","12420","5517","y","elianto","#f73b6a7A"," ","-1","0","0","[]","0","2","","","12420","21","2","3","lose","go","1"
"pit-trial","140","1023999","0.0-26.0","battery-v0.2","","""event"",""trial"",""time""
""fullscreenenter"",""1"",""1181""
""fullscreenexit"",""117"",""902887""
""blur"",""117"",""904363""
""focus"",""117"",""910353""
","""event"",""trial"",""time""
""blur"",""117"",""904363""
","""event"",""trial"",""time""
""focus"",""117"",""910353""
","""event"",""trial"",""time""
""fullscreenenter"",""1"",""1181""
","""event"",""trial"",""time""
""fullscreenexit"",""117"",""902887""
","","","-1","","","20","12420","5517","h","elianto","#f73b6a7A","-1","-1","1","0","[]","0","2","","","12420","22","3","4","lose","no-go","0"
"pit-trial","141","1028864","0.0-27.0","battery-v0.2","","""event"",""trial"",""time""
""fullscreenenter"",""1"",""1181""
""fullscreenexit"",""117"",""902887""
""blur"",""117"",""904363""
""focus"",""117"",""910353""
","""event"",""trial"",""time""
""blur"",""117"",""904363""
","""event"",""trial"",""time""
""focus"",""117"",""910353""
","""event"",""trial"",""time""
""fullscreenenter"",""1"",""1181""
","""event"",""trial"",""time""
""fullscreenexit"",""117"",""902887""
","","","-1","","","20","12420","5517","m","elianto","#f73b6a7A"," ","-1","0","-10","[]","0","2","","","12420","23","0","3","lose","go","0"
"pit-trial","142","1033727","0.0-28.0","battery-v0.2","","""event"",""trial"",""time""
""fullscreenenter"",""1"",""1181""
""fullscreenexit"",""117"",""902887""
""blur"",""117"",""904363""
""focus"",""117"",""910353""
","""event"",""trial"",""time""
""blur"",""117"",""904363""
","""event"",""trial"",""time""
""focus"",""117"",""910353""
","""event"",""trial"",""time""
""fullscreenenter"",""1"",""1181""
","""event"",""trial"",""time""
""fullscreenexit"",""117"",""902887""
","","","-1","","","20","12420","5517","r","elianto","#3366ff99","-1","-1","1","+10","[]","0","2","","","12420","24","1","2","win","no-go","0"
"pit-trial","143","1037981","0.0-29.0","battery-v0.2","","""event"",""trial"",""time""
""fullscreenenter"",""1"",""1181""
""fullscreenexit"",""117"",""902887""
""blur"",""117"",""904363""
""focus"",""117"",""910353""
","""event"",""trial"",""time""
""blur"",""117"",""904363""
","""event"",""trial"",""time""
""focus"",""117"",""910353""
","""event"",""trial"",""time""
""fullscreenenter"",""1"",""1181""
","""event"",""trial"",""time""
""fullscreenexit"",""117"",""902887""
","","","1396.1000001430511","","","20","12420","5517","m","elianto","#f73b6a7A"," "," ","1","0","[2246.7000000476837]","1","2","","","12420","25","0","3","lose","go","0"
"pit-trial","144","1042843","0.0-30.0","battery-v0.2","","""event"",""trial"",""time""
""fullscreenenter"",""1"",""1181""
""fullscreenexit"",""117"",""902887""
""blur"",""117"",""904363""
""focus"",""117"",""910353""
","""event"",""trial"",""time""
""blur"",""117"",""904363""
","""event"",""trial"",""time""
""focus"",""117"",""910353""
","""event"",""trial"",""time""
""fullscreenenter"",""1"",""1181""
","""event"",""trial"",""time""
""fullscreenexit"",""117"",""902887""
","","","-1","","","20","12420","5517","h","elianto","#f73b6a7A","-1","-1","1","0","[]","0","2","","","12420","26","3","4","lose","no-go","0"
"pit-trial","145","1047707","0.0-31.0","battery-v0.2","","""event"",""trial"",""time""
""fullscreenenter"",""1"",""1181""
""fullscreenexit"",""117"",""902887""
""blur"",""117"",""904363""
""focus"",""117"",""910353""
","""event"",""trial"",""time""
""blur"",""117"",""904363""
","""event"",""trial"",""time""
""focus"",""117"",""910353""
","""event"",""trial"",""time""
""fullscreenenter"",""1"",""1181""
","""event"",""trial"",""time""
""fullscreenexit"",""117"",""902887""
","","","-1","","","20","12420","5517","r","elianto","#3366ff99","-1","-1","1","+10","[]","0","2","","","12420","27","1","2","win","no-go","0"
"pit-trial","146","1052570","0.0-32.0","battery-v0.2","","""event"",""trial"",""time""
""fullscreenenter"",""1"",""1181""
""fullscreenexit"",""117"",""902887""
""blur"",""117"",""904363""
""focus"",""117"",""910353""
","""event"",""trial"",""time""
""blur"",""117"",""904363""
","""event"",""trial"",""time""
""focus"",""117"",""910353""
","""event"",""trial"",""time""
""fullscreenenter"",""1"",""1181""
","""event"",""trial"",""time""
""fullscreenexit"",""117"",""902887""
","","","-1","","","20","12420","5517","y","elianto","#f73b6a7A"," ","-1","0","-10","[]","0","2","","","12420","28","2","3","lose","go","0"
"pit-trial","147","1057434","0.0-33.0","battery-v0.2","","""event"",""trial"",""time""
""fullscreenenter"",""1"",""1181""
""fullscreenexit"",""117"",""902887""
""blur"",""117"",""904363""
""focus"",""117"",""910353""
","""event"",""trial"",""time""
""blur"",""117"",""904363""
","""event"",""trial"",""time""
""focus"",""117"",""910353""
","""event"",""trial"",""time""
""fullscreenenter"",""1"",""1181""
","""event"",""trial"",""time""
""fullscreenexit"",""117"",""902887""
","","","-1","","","20","12420","5517","h","elianto","#f73b6a7A","-1","-1","1","0","[]","0","2","","","12420","29","3","4","lose","no-go","0"
"pit-trial","148","1062298","0.0-34.0","battery-v0.2","","""event"",""trial"",""time""
""fullscreenenter"",""1"",""1181""
""fullscreenexit"",""117"",""902887""
""blur"",""117"",""904363""
""focus"",""117"",""910353""
","""event"",""trial"",""time""
""blur"",""117"",""904363""
","""event"",""trial"",""time""
""focus"",""117"",""910353""
","""event"",""trial"",""time""
""fullscreenenter"",""1"",""1181""
","""event"",""trial"",""time""
""fullscreenexit"",""117"",""902887""
","","","-1","","","20","12420","5517","r","elianto","#3366ff99","-1","-1","1","0","[]","0","2","","","12420","30","1","2","win","no-go","1"
"pit-trial","149","1066409","0.0-35.0","battery-v0.2","","""event"",""trial"",""time""
""fullscreenenter"",""1"",""1181""
""fullscreenexit"",""117"",""902887""
""blur"",""117"",""904363""
""focus"",""117"",""910353""
","""event"",""trial"",""time""
""blur"",""117"",""904363""
","""event"",""trial"",""time""
""focus"",""117"",""910353""
","""event"",""trial"",""time""
""fullscreenenter"",""1"",""1181""
","""event"",""trial"",""time""
""fullscreenexit"",""117"",""902887""
","","","1251.9000000953674","","","20","12420","5517","y","elianto","#f73b6a7A"," "," ","1","0","[2102.9000000953674]","1","2","","","12420","31","2","3","lose","go","0"
"pit-trial","150","1070390","0.0-36.0","battery-v0.2","","""event"",""trial"",""time""
""fullscreenenter"",""1"",""1181""
""fullscreenexit"",""117"",""902887""
""blur"",""117"",""904363""
""focus"",""117"",""910353""
","""event"",""trial"",""time""
""blur"",""117"",""904363""
","""event"",""trial"",""time""
""focus"",""117"",""910353""
","""event"",""trial"",""time""
""fullscreenenter"",""1"",""1181""
","""event"",""trial"",""time""
""fullscreenexit"",""117"",""902887""
","","","1122.2000000476837","","","20","12420","5517","m","elianto","#f73b6a7A"," "," ","1","0","[1972.4000000953674]","1","2","","","12420","32","0","3","lose","go","0"
"pit-trial","151","1075254","0.0-37.0","battery-v0.2","","""event"",""trial"",""time""
""fullscreenenter"",""1"",""1181""
""fullscreenexit"",""117"",""902887""
""blur"",""117"",""904363""
""focus"",""117"",""910353""
","""event"",""trial"",""time""
""blur"",""117"",""904363""
","""event"",""trial"",""time""
""focus"",""117"",""910353""
","""event"",""trial"",""time""
""fullscreenenter"",""1"",""1181""
","""event"",""trial"",""time""
""fullscreenexit"",""117"",""902887""
","","","-1","","","20","12420","5517","h","elianto","#f73b6a7A","-1","-1","1","0","[]","0","2","","","12420","33","3","4","lose","no-go","0"
"pit-trial","152","1080118","0.0-38.0","battery-v0.2","","""event"",""trial"",""time""
""fullscreenenter"",""1"",""1181""
""fullscreenexit"",""117"",""902887""
""blur"",""117"",""904363""
""focus"",""117"",""910353""
","""event"",""trial"",""time""
""blur"",""117"",""904363""
","""event"",""trial"",""time""
""focus"",""117"",""910353""
","""event"",""trial"",""time""
""fullscreenenter"",""1"",""1181""
","""event"",""trial"",""time""
""fullscreenexit"",""117"",""902887""
","","","-1","","","20","12420","5517","r","elianto","#3366ff99","-1","-1","1","+10","[]","0","2","","","12420","34","1","2","win","no-go","0"
"pit-trial","153","1084277","0.0-39.0","battery-v0.2","","""event"",""trial"",""time""
""fullscreenenter"",""1"",""1181""
""fullscreenexit"",""117"",""902887""
""blur"",""117"",""904363""
""focus"",""117"",""910353""
","""event"",""trial"",""time""
""blur"",""117"",""904363""
","""event"",""trial"",""time""
""focus"",""117"",""910353""
","""event"",""trial"",""time""
""fullscreenenter"",""1"",""1181""
","""event"",""trial"",""time""
""fullscreenexit"",""117"",""902887""
","","","1296.5","","","20","12420","5517","y","elianto","#f73b6a7A"," "," ","1","0","[2149.399999856949]","1","2","","","12420","35","2","3","lose","go","0"
"pit-trial","154","1088807","0.0-40.0","battery-v0.2","","""event"",""trial"",""time""
""fullscreenenter"",""1"",""1181""
""fullscreenexit"",""117"",""902887""
""blur"",""117"",""904363""
""focus"",""117"",""910353""
","""event"",""trial"",""time""
""blur"",""117"",""904363""
","""event"",""trial"",""time""
""focus"",""117"",""910353""
","""event"",""trial"",""time""
""fullscreenenter"",""1"",""1181""
","""event"",""trial"",""time""
""fullscreenexit"",""117"",""902887""
","","","1670.7000000476837","","","20","12420","5517","m","elianto","#f73b6a7A"," "," ","1","0","[2521.2000000476837]","1","2","","","12420","36","0","3","lose","go","0"
"pit-trial","155","1092710","0.0-41.0","battery-v0.2","","""event"",""trial"",""time""
""fullscreenenter"",""1"",""1181""
""fullscreenexit"",""117"",""902887""
""blur"",""117"",""904363""
""focus"",""117"",""910353""
","""event"",""trial"",""time""
""blur"",""117"",""904363""
","""event"",""trial"",""time""
""focus"",""117"",""910353""
","""event"",""trial"",""time""
""fullscreenenter"",""1"",""1181""
","""event"",""trial"",""time""
""fullscreenexit"",""117"",""902887""
","","","1044.7000000476837","","","20","12420","5517","y","elianto","#f73b6a7A"," "," ","1","0","[1896.9000000953674]","1","2","","","12420","37","2","3","lose","go","0"
"pit-trial","156","1097574","0.0-42.0","battery-v0.2","","""event"",""trial"",""time""
""fullscreenenter"",""1"",""1181""
""fullscreenexit"",""117"",""902887""
""blur"",""117"",""904363""
""focus"",""117"",""910353""
","""event"",""trial"",""time""
""blur"",""117"",""904363""
","""event"",""trial"",""time""
""focus"",""117"",""910353""
","""event"",""trial"",""time""
""fullscreenenter"",""1"",""1181""
","""event"",""trial"",""time""
""fullscreenexit"",""117"",""902887""
","","","-1","","","20","12420","5517","h","elianto","#f73b6a7A","-1","-1","1","0","[]","0","2","","","12420","38","3","4","lose","no-go","0"
"pit-trial","157","1100987","0.0-43.0","battery-v0.2","","""event"",""trial"",""time""
""fullscreenenter"",""1"",""1181""
""fullscreenexit"",""117"",""902887""
""blur"",""117"",""904363""
""focus"",""117"",""910353""
","""event"",""trial"",""time""
""blur"",""117"",""904363""
","""event"",""trial"",""time""
""focus"",""117"",""910353""
","""event"",""trial"",""time""
""fullscreenenter"",""1"",""1181""
","""event"",""trial"",""time""
""fullscreenexit"",""117"",""902887""
","","","555.9000000953674","","","20","12420","5517","m","elianto","#f73b6a7A"," "," ","1","0","[1407.2000000476837]","1","2","","","12420","39","0","3","lose","go","0"
"pit-trial","158","1105850","0.0-44.0","battery-v0.2","","""event"",""trial"",""time""
""fullscreenenter"",""1"",""1181""
""fullscreenexit"",""117"",""902887""
""blur"",""117"",""904363""
""focus"",""117"",""910353""
","""event"",""trial"",""time""
""blur"",""117"",""904363""
","""event"",""trial"",""time""
""focus"",""117"",""910353""
","""event"",""trial"",""time""
""fullscreenenter"",""1"",""1181""
","""event"",""trial"",""time""
""fullscreenexit"",""117"",""902887""
","","","-1","","","20","12420","5517","r","elianto","#3366ff99","-1","-1","1","+10","[]","0","2","","","12420","40","1","2","win","no-go","0"
"pit-trial","159","1110174","0.0-45.0","battery-v0.2","","""event"",""trial"",""time""
""fullscreenenter"",""1"",""1181""
""fullscreenexit"",""117"",""902887""
""blur"",""117"",""904363""
""focus"",""117"",""910353""
","""event"",""trial"",""time""
""blur"",""117"",""904363""
","""event"",""trial"",""time""
""focus"",""117"",""910353""
","""event"",""trial"",""time""
""fullscreenenter"",""1"",""1181""
","""event"",""trial"",""time""
""fullscreenexit"",""117"",""902887""
","","","1465","","","20","12420","5517","m","elianto","#f73b6a7A"," "," ","1","0","[2316.2999999523163]","1","2","","","12420","41","0","3","lose","go","0"
"pit-trial","160","1115033","0.0-46.0","battery-v0.2","","""event"",""trial"",""time""
""fullscreenenter"",""1"",""1181""
""fullscreenexit"",""117"",""902887""
""blur"",""117"",""904363""
""focus"",""117"",""910353""
","""event"",""trial"",""time""
""blur"",""117"",""904363""
","""event"",""trial"",""time""
""focus"",""117"",""910353""
","""event"",""trial"",""time""
""fullscreenenter"",""1"",""1181""
","""event"",""trial"",""time""
""fullscreenexit"",""117"",""902887""
","","","-1","","","20","12420","5517","h","elianto","#f73b6a7A","-1","-1","1","-10","[]","0","2","","","12420","42","3","4","lose","no-go","1"
"pit-trial","161","1118813","0.0-47.0","battery-v0.2","","""event"",""trial"",""time""
""fullscreenenter"",""1"",""1181""
""fullscreenexit"",""117"",""902887""
""blur"",""117"",""904363""
""focus"",""117"",""910353""
","""event"",""trial"",""time""
""blur"",""117"",""904363""
","""event"",""trial"",""time""
""focus"",""117"",""910353""
","""event"",""trial"",""time""
""fullscreenenter"",""1"",""1181""
","""event"",""trial"",""time""
""fullscreenexit"",""117"",""902887""
","","","919.7999999523163","","","20","12420","5517","y","elianto","#f73b6a7A"," "," ","1","0","[1770.5]","1","2","","","12420","43","2","3","lose","go","0"
"pit-trial","162","1123675","0.0-48.0","battery-v0.2","","""event"",""trial"",""time""
""fullscreenenter"",""1"",""1181""
""fullscreenexit"",""117"",""902887""
""blur"",""117"",""904363""
""focus"",""117"",""910353""
","""event"",""trial"",""time""
""blur"",""117"",""904363""
","""event"",""trial"",""time""
""focus"",""117"",""910353""
","""event"",""trial"",""time""
""fullscreenenter"",""1"",""1181""
","""event"",""trial"",""time""
""fullscreenexit"",""117"",""902887""
","","","-1","","","20","12420","5517","r","elianto","#3366ff99","-1","-1","1","0","[]","0","2","","","12420","44","1","2","win","no-go","1"
"pit-trial","163","1127706","0.0-49.0","battery-v0.2","","""event"",""trial"",""time""
""fullscreenenter"",""1"",""1181""
""fullscreenexit"",""117"",""902887""
""blur"",""117"",""904363""
""focus"",""117"",""910353""
","""event"",""trial"",""time""
""blur"",""117"",""904363""
","""event"",""trial"",""time""
""focus"",""117"",""910353""
","""event"",""trial"",""time""
""fullscreenenter"",""1"",""1181""
","""event"",""trial"",""time""
""fullscreenexit"",""117"",""902887""
","","","1175","","","20","12420","5517","y","elianto","#f73b6a7A"," "," ","1","-10","[2026.3000001907349]","1","2","","","12420","45","2","3","lose","go","1"
"pit-trial","164","1132570","0.0-50.0","battery-v0.2","","""event"",""trial"",""time""
""fullscreenenter"",""1"",""1181""
""fullscreenexit"",""117"",""902887""
""blur"",""117"",""904363""
""focus"",""117"",""910353""
","""event"",""trial"",""time""
""blur"",""117"",""904363""
","""event"",""trial"",""time""
""focus"",""117"",""910353""
","""event"",""trial"",""time""
""fullscreenenter"",""1"",""1181""
","""event"",""trial"",""time""
""fullscreenexit"",""117"",""902887""
","","","-1","","","20","12420","5517","r","elianto","#3366ff99","-1","-1","1","+10","[]","0","2","","","12420","46","1","2","win","no-go","0"
"pit-trial","165","1137434","0.0-51.0","battery-v0.2","","""event"",""trial"",""time""
""fullscreenenter"",""1"",""1181""
""fullscreenexit"",""117"",""902887""
""blur"",""117"",""904363""
""focus"",""117"",""910353""
","""event"",""trial"",""time""
""blur"",""117"",""904363""
","""event"",""trial"",""time""
""focus"",""117"",""910353""
","""event"",""trial"",""time""
""fullscreenenter"",""1"",""1181""
","""event"",""trial"",""time""
""fullscreenexit"",""117"",""902887""
","","","-1","","","20","12420","5517","h","elianto","#f73b6a7A","-1","-1","1","0","[]","0","2","","","12420","47","3","4","lose","no-go","0"
"pit-trial","166","1141014","0.0-52.0","battery-v0.2","","""event"",""trial"",""time""
""fullscreenenter"",""1"",""1181""
""fullscreenexit"",""117"",""902887""
""blur"",""117"",""904363""
""focus"",""117"",""910353""
","""event"",""trial"",""time""
""blur"",""117"",""904363""
","""event"",""trial"",""time""
""focus"",""117"",""910353""
","""event"",""trial"",""time""
""fullscreenenter"",""1"",""1181""
","""event"",""trial"",""time""
""fullscreenexit"",""117"",""902887""
","","","721.2000000476837","","","20","12420","5517","m","elianto","#f73b6a7A"," "," ","1","0","[1573.8000001907349]","1","2","","","12420","48","0","3","lose","go","0"
"pit-trial","167","1145877","0.0-53.0","battery-v0.2","","""event"",""trial"",""time""
""fullscreenenter"",""1"",""1181""
""fullscreenexit"",""117"",""902887""
""blur"",""117"",""904363""
""focus"",""117"",""910353""
","""event"",""trial"",""time""
""blur"",""117"",""904363""
","""event"",""trial"",""time""
""focus"",""117"",""910353""
","""event"",""trial"",""time""
""fullscreenenter"",""1"",""1181""
","""event"",""trial"",""time""
""fullscreenexit"",""117"",""902887""
","","","-1","","","20","12420","5517","r","elianto","#3366ff99","-1","-1","1","+10","[]","0","2","","","12420","49","1","2","win","no-go","0"
"pit-trial","168","1150735","0.0-54.0","battery-v0.2","","""event"",""trial"",""time""
""fullscreenenter"",""1"",""1181""
""fullscreenexit"",""117"",""902887""
""blur"",""117"",""904363""
""focus"",""117"",""910353""
","""event"",""trial"",""time""
""blur"",""117"",""904363""
","""event"",""trial"",""time""
""focus"",""117"",""910353""
","""event"",""trial"",""time""
""fullscreenenter"",""1"",""1181""
","""event"",""trial"",""time""
""fullscreenexit"",""117"",""902887""
","","","-1","","","20","12420","5517","h","elianto","#f73b6a7A","-1","-1","1","0","[]","0","2","","","12420","50","3","4","lose","no-go","0"
"pit-trial","169","1154163","0.0-55.0","battery-v0.2","","""event"",""trial"",""time""
""fullscreenenter"",""1"",""1181""
""fullscreenexit"",""117"",""902887""
""blur"",""117"",""904363""
""focus"",""117"",""910353""
","""event"",""trial"",""time""
""blur"",""117"",""904363""
","""event"",""trial"",""time""
""focus"",""117"",""910353""
","""event"",""trial"",""time""
""fullscreenenter"",""1"",""1181""
","""event"",""trial"",""time""
""fullscreenexit"",""117"",""902887""
","","","565.5999999046326","","","20","12420","5517","m","elianto","#f73b6a7A"," "," ","1","0","[1419]","1","2","","","12420","51","0","3","lose","go","0"
"pit-trial","170","1157536","0.0-56.0","battery-v0.2","","""event"",""trial"",""time""
""fullscreenenter"",""1"",""1181""
""fullscreenexit"",""117"",""902887""
""blur"",""117"",""904363""
""focus"",""117"",""910353""
","""event"",""trial"",""time""
""blur"",""117"",""904363""
","""event"",""trial"",""time""
""focus"",""117"",""910353""
","""event"",""trial"",""time""
""fullscreenenter"",""1"",""1181""
","""event"",""trial"",""time""
""fullscreenexit"",""117"",""902887""
","","","513.2000000476837","","","20","12420","5517","y","elianto","#f73b6a7A"," "," ","1","0","[1364.2000000476837]","1","2","","","12420","52","2","3","lose","go","0"
"pit-trial","171","1162399","0.0-57.0","battery-v0.2","","""event"",""trial"",""time""
""fullscreenenter"",""1"",""1181""
""fullscreenexit"",""117"",""902887""
""blur"",""117"",""904363""
""focus"",""117"",""910353""
","""event"",""trial"",""time""
""blur"",""117"",""904363""
","""event"",""trial"",""time""
""focus"",""117"",""910353""
","""event"",""trial"",""time""
""fullscreenenter"",""1"",""1181""
","""event"",""trial"",""time""
""fullscreenexit"",""117"",""902887""
","","","-1","","","20","12420","5517","h","elianto","#f73b6a7A","-1","-1","1","-10","[]","0","2","","","12420","53","3","4","lose","no-go","1"
"pit-trial","172","1165880","0.0-58.0","battery-v0.2","","""event"",""trial"",""time""
""fullscreenenter"",""1"",""1181""
""fullscreenexit"",""117"",""902887""
""blur"",""117"",""904363""
""focus"",""117"",""910353""
","""event"",""trial"",""time""
""blur"",""117"",""904363""
","""event"",""trial"",""time""
""focus"",""117"",""910353""
","""event"",""trial"",""time""
""fullscreenenter"",""1"",""1181""
","""event"",""trial"",""time""
""fullscreenexit"",""117"",""902887""
","","","622.1000001430511","","","20","12420","5517","m","elianto","#f73b6a7A"," "," ","1","0","[1471.9000000953674]","1","2","","","12420","54","0","3","lose","go","0"
"pit-trial","173","1169385","0.0-59.0","battery-v0.2","","""event"",""trial"",""time""
""fullscreenenter"",""1"",""1181""
""fullscreenexit"",""117"",""902887""
""blur"",""117"",""904363""
""focus"",""117"",""910353""
","""event"",""trial"",""time""
""blur"",""117"",""904363""
","""event"",""trial"",""time""
""focus"",""117"",""910353""
","""event"",""trial"",""time""
""fullscreenenter"",""1"",""1181""
","""event"",""trial"",""time""
""fullscreenexit"",""117"",""902887""
","","","649.5999999046326","","","20","12420","5517","y","elianto","#f73b6a7A"," "," ","1","0","[1500.3000001907349]","1","2","","","12420","55","2","3","lose","go","0"
"pit-trial","174","1174249","0.0-60.0","battery-v0.2","","""event"",""trial"",""time""
""fullscreenenter"",""1"",""1181""
""fullscreenexit"",""117"",""902887""
""blur"",""117"",""904363""
""focus"",""117"",""910353""
","""event"",""trial"",""time""
""blur"",""117"",""904363""
","""event"",""trial"",""time""
""focus"",""117"",""910353""
","""event"",""trial"",""time""
""fullscreenenter"",""1"",""1181""
","""event"",""trial"",""time""
""fullscreenexit"",""117"",""902887""
","","","-1","","","20","12420","5517","r","elianto","#3366ff99","-1","-1","1","0","[]","0","2","","","12420","56","1","2","win","no-go","1"
"pit-trial","175","1177744","0.0-61.0","battery-v0.2","","""event"",""trial"",""time""
""fullscreenenter"",""1"",""1181""
""fullscreenexit"",""117"",""902887""
""blur"",""117"",""904363""
""focus"",""117"",""910353""
","""event"",""trial"",""time""
""blur"",""117"",""904363""
","""event"",""trial"",""time""
""focus"",""117"",""910353""
","""event"",""trial"",""time""
""fullscreenenter"",""1"",""1181""
","""event"",""trial"",""time""
""fullscreenexit"",""117"",""902887""
","","","636","","","20","12420","5517","m","elianto","#f73b6a7A"," "," ","1","0","[1487.7999999523163]","1","2","","","12420","57","0","3","lose","go","0"
"pit-trial","176","1181117","0.0-62.0","battery-v0.2","","""event"",""trial"",""time""
""fullscreenenter"",""1"",""1181""
""fullscreenexit"",""117"",""902887""
""blur"",""117"",""904363""
""focus"",""117"",""910353""
","""event"",""trial"",""time""
""blur"",""117"",""904363""
","""event"",""trial"",""time""
""focus"",""117"",""910353""
","""event"",""trial"",""time""
""fullscreenenter"",""1"",""1181""
","""event"",""trial"",""time""
""fullscreenexit"",""117"",""902887""
","","","513.8999998569489","","","20","12420","5517","y","elianto","#f73b6a7A"," "," ","1","0","[1364.6000001430511]","1","2","","","12420","58","2","3","lose","go","0"
"pit-trial","177","1185978","0.0-63.0","battery-v0.2","","""event"",""trial"",""time""
""fullscreenenter"",""1"",""1181""
""fullscreenexit"",""117"",""902887""
""blur"",""117"",""904363""
""focus"",""117"",""910353""
","""event"",""trial"",""time""
""blur"",""117"",""904363""
","""event"",""trial"",""time""
""focus"",""117"",""910353""
","""event"",""trial"",""time""
""fullscreenenter"",""1"",""1181""
","""event"",""trial"",""time""
""fullscreenexit"",""117"",""902887""
","","","-1","","","20","12420","5517","z","elianto","#3366ff99"," ","-1","0","0","[]","0","2","","","12420","59","4","1","win","go","0"
"pit-trial","178","1190842","0.0-64.0","battery-v0.2","","""event"",""trial"",""time""
""fullscreenenter"",""1"",""1181""
""fullscreenexit"",""117"",""902887""
""blur"",""117"",""904363""
""focus"",""117"",""910353""
","""event"",""trial"",""time""
""blur"",""117"",""904363""
","""event"",""trial"",""time""
""focus"",""117"",""910353""
","""event"",""trial"",""time""
""fullscreenenter"",""1"",""1181""
","""event"",""trial"",""time""
""fullscreenexit"",""117"",""902887""
","","","-1","","","20","12420","5517","h","elianto","#f73b6a7A","-1","-1","1","0","[]","0","2","","","12420","60","3","4","lose","no-go","0"
"pit-trial","179","1195707","0.0-65.0","battery-v0.2","","""event"",""trial"",""time""
""fullscreenenter"",""1"",""1181""
""fullscreenexit"",""117"",""902887""
""blur"",""117"",""904363""
""focus"",""117"",""910353""
","""event"",""trial"",""time""
""blur"",""117"",""904363""
","""event"",""trial"",""time""
""focus"",""117"",""910353""
","""event"",""trial"",""time""
""fullscreenenter"",""1"",""1181""
","""event"",""trial"",""time""
""fullscreenexit"",""117"",""902887""
","","","-1","","","20","12420","5517","r","elianto","#3366ff99","-1","-1","1","+10","[]","0","2","","","12420","61","1","2","win","no-go","0"
"pit-trial","180","1199322","0.0-66.0","battery-v0.2","","""event"",""trial"",""time""
""fullscreenenter"",""1"",""1181""
""fullscreenexit"",""117"",""902887""
""blur"",""117"",""904363""
""focus"",""117"",""910353""
","""event"",""trial"",""time""
""blur"",""117"",""904363""
","""event"",""trial"",""time""
""focus"",""117"",""910353""
","""event"",""trial"",""time""
""fullscreenenter"",""1"",""1181""
","""event"",""trial"",""time""
""fullscreenexit"",""117"",""902887""
","","","756.2999999523163","","","20","12420","5517","z","elianto","#3366ff99"," "," ","1","0","[1607.7999999523163]","1","2","","","12420","62","4","1","win","go","1"
"pit-trial","181","1204184","0.0-67.0","battery-v0.2","","""event"",""trial"",""time""
""fullscreenenter"",""1"",""1181""
""fullscreenexit"",""117"",""902887""
""blur"",""117"",""904363""
""focus"",""117"",""910353""
","""event"",""trial"",""time""
""blur"",""117"",""904363""
","""event"",""trial"",""time""
""focus"",""117"",""910353""
","""event"",""trial"",""time""
""fullscreenenter"",""1"",""1181""
","""event"",""trial"",""time""
""fullscreenexit"",""117"",""902887""
","","","-1","","","20","12420","5517","h","elianto","#f73b6a7A","-1","-1","1","0","[]","0","2","","","12420","63","3","4","lose","no-go","0"
"pit-trial","182","1207602","0.0-68.0","battery-v0.2","","""event"",""trial"",""time""
""fullscreenenter"",""1"",""1181""
""fullscreenexit"",""117"",""902887""
""blur"",""117"",""904363""
""focus"",""117"",""910353""
","""event"",""trial"",""time""
""blur"",""117"",""904363""
","""event"",""trial"",""time""
""focus"",""117"",""910353""
","""event"",""trial"",""time""
""fullscreenenter"",""1"",""1181""
","""event"",""trial"",""time""
""fullscreenexit"",""117"",""902887""
","","","559.2999999523163","","","20","12420","5517","y","elianto","#f73b6a7A"," "," ","1","-10","[1411.2999999523163]","1","2","","","12420","64","2","3","lose","go","1"
"pit-trial","183","1211582","0.0-69.0","battery-v0.2","","""event"",""trial"",""time""
""fullscreenenter"",""1"",""1181""
""fullscreenexit"",""117"",""902887""
""blur"",""117"",""904363""
""focus"",""117"",""910353""
","""event"",""trial"",""time""
""blur"",""117"",""904363""
","""event"",""trial"",""time""
""focus"",""117"",""910353""
","""event"",""trial"",""time""
""fullscreenenter"",""1"",""1181""
","""event"",""trial"",""time""
""fullscreenexit"",""117"",""902887""
","","","1117.9000000953674","","","20","12420","5517","z","elianto","#3366ff99"," "," ","1","+10","[1970]","1","2","","","12420","65","4","1","win","go","0"
"pit-trial","184","1216445","0.0-70.0","battery-v0.2","","""event"",""trial"",""time""
""fullscreenenter"",""1"",""1181""
""fullscreenexit"",""117"",""902887""
""blur"",""117"",""904363""
""focus"",""117"",""910353""
","""event"",""trial"",""time""
""blur"",""117"",""904363""
","""event"",""trial"",""time""
""focus"",""117"",""910353""
","""event"",""trial"",""time""
""fullscreenenter"",""1"",""1181""
","""event"",""trial"",""time""
""fullscreenexit"",""117"",""902887""
","","","-1","","","20","12420","5517","r","elianto","#3366ff99","-1","-1","1","+10","[]","0","2","","","12420","66","1","2","win","no-go","0"
"pit-trial","185","1221310","0.0-71.0","battery-v0.2","","""event"",""trial"",""time""
""fullscreenenter"",""1"",""1181""
""fullscreenexit"",""117"",""902887""
""blur"",""117"",""904363""
""focus"",""117"",""910353""
","""event"",""trial"",""time""
""blur"",""117"",""904363""
","""event"",""trial"",""time""
""focus"",""117"",""910353""
","""event"",""trial"",""time""
""fullscreenenter"",""1"",""1181""
","""event"",""trial"",""time""
""fullscreenexit"",""117"",""902887""
","","","-1","","","20","12420","5517","c","elianto","#3366ff99","-1","-1","1","0","[]","0","2","","","12420","67","5","2","win","no-go","1"
"pit-trial","186","1226172","0.0-72.0","battery-v0.2","","""event"",""trial"",""time""
""fullscreenenter"",""1"",""1181""
""fullscreenexit"",""117"",""902887""
""blur"",""117"",""904363""
""focus"",""117"",""910353""
","""event"",""trial"",""time""
""blur"",""117"",""904363""
","""event"",""trial"",""time""
""focus"",""117"",""910353""
","""event"",""trial"",""time""
""fullscreenenter"",""1"",""1181""
","""event"",""trial"",""time""
""fullscreenexit"",""117"",""902887""
","","","-1","","","20","12420","5517","h","elianto","#f73b6a7A","-1","-1","1","0","[]","0","2","","","12420","68","3","4","lose","no-go","0"
"pit-trial","187","1230775","0.0-73.0","battery-v0.2","","""event"",""trial"",""time""
""fullscreenenter"",""1"",""1181""
""fullscreenexit"",""117"",""902887""
""blur"",""117"",""904363""
""focus"",""117"",""910353""
","""event"",""trial"",""time""
""blur"",""117"",""904363""
","""event"",""trial"",""time""
""focus"",""117"",""910353""
","""event"",""trial"",""time""
""fullscreenenter"",""1"",""1181""
","""event"",""trial"",""time""
""fullscreenexit"",""117"",""902887""
","","","1745.5","","","20","12420","5517","c","elianto","#3366ff99","-1"," ","0","+10","[2597.699999809265]","1","2","","","12420","69","5","2","win","no-go","1"
"pit-trial","188","1234901","0.0-74.0","battery-v0.2","","""event"",""trial"",""time""
""fullscreenenter"",""1"",""1181""
""fullscreenexit"",""117"",""902887""
""blur"",""117"",""904363""
""focus"",""117"",""910353""
","""event"",""trial"",""time""
""blur"",""117"",""904363""
","""event"",""trial"",""time""
""focus"",""117"",""910353""
","""event"",""trial"",""time""
""fullscreenenter"",""1"",""1181""
","""event"",""trial"",""time""
""fullscreenexit"",""117"",""902887""
","","","1271.7000000476837","","","20","12420","5517","z","elianto","#3366ff99"," "," ","1","0","[2122]","1","2","","","12420","70","4","1","win","go","1"
"pit-trial","189","1238891","0.0-75.0","battery-v0.2","","""event"",""trial"",""time""
""fullscreenenter"",""1"",""1181""
""fullscreenexit"",""117"",""902887""
""blur"",""117"",""904363""
""focus"",""117"",""910353""
","""event"",""trial"",""time""
""blur"",""117"",""904363""
","""event"",""trial"",""time""
""focus"",""117"",""910353""
","""event"",""trial"",""time""
""fullscreenenter"",""1"",""1181""
","""event"",""trial"",""time""
""fullscreenexit"",""117"",""902887""
","","","1133.5999999046326","","","20","12420","5517","y","elianto","#f73b6a7A"," "," ","1","0","[1985.7999999523163]","1","2","","","12420","71","2","3","lose","go","0"
"pit-trial","190","1243751","0.0-76.0","battery-v0.2","","""event"",""trial"",""time""
""fullscreenenter"",""1"",""1181""
""fullscreenexit"",""117"",""902887""
""blur"",""117"",""904363""
""focus"",""117"",""910353""
","""event"",""trial"",""time""
""blur"",""117"",""904363""
","""event"",""trial"",""time""
""focus"",""117"",""910353""
","""event"",""trial"",""time""
""fullscreenenter"",""1"",""1181""
","""event"",""trial"",""time""
""fullscreenexit"",""117"",""902887""
","","","-1","","","20","12420","5517","r","elianto","#3366ff99","-1","-1","1","+10","[]","0","2","","","12420","72","1","2","win","no-go","0"
"pit-trial","191","1247900","0.0-77.0","battery-v0.2","","""event"",""trial"",""time""
""fullscreenenter"",""1"",""1181""
""fullscreenexit"",""117"",""902887""
""blur"",""117"",""904363""
""focus"",""117"",""910353""
","""event"",""trial"",""time""
""blur"",""117"",""904363""
","""event"",""trial"",""time""
""focus"",""117"",""910353""
","""event"",""trial"",""time""
""fullscreenenter"",""1"",""1181""
","""event"",""trial"",""time""
""fullscreenexit"",""117"",""902887""
","","","1292.7000000476837","","","20","12420","5517","z","elianto","#3366ff99"," "," ","1","+10","[2144.5]","1","2","","","12420","73","4","1","win","go","0"
"pit-trial","192","1252759","0.0-78.0","battery-v0.2","","""event"",""trial"",""time""
""fullscreenenter"",""1"",""1181""
""fullscreenexit"",""117"",""902887""
""blur"",""117"",""904363""
""focus"",""117"",""910353""
","""event"",""trial"",""time""
""blur"",""117"",""904363""
","""event"",""trial"",""time""
""focus"",""117"",""910353""
","""event"",""trial"",""time""
""fullscreenenter"",""1"",""1181""
","""event"",""trial"",""time""
""fullscreenexit"",""117"",""902887""
","","","-1","","","20","12420","5517","h","elianto","#f73b6a7A","-1","-1","1","0","[]","0","2","","","12420","74","3","4","lose","no-go","0"
"pit-trial","193","1257617","0.0-79.0","battery-v0.2","","""event"",""trial"",""time""
""fullscreenenter"",""1"",""1181""
""fullscreenexit"",""117"",""902887""
""blur"",""117"",""904363""
""focus"",""117"",""910353""
","""event"",""trial"",""time""
""blur"",""117"",""904363""
","""event"",""trial"",""time""
""focus"",""117"",""910353""
","""event"",""trial"",""time""
""fullscreenenter"",""1"",""1181""
","""event"",""trial"",""time""
""fullscreenexit"",""117"",""902887""
","","","-1","","","20","12420","5517","r","elianto","#3366ff99","-1","-1","1","0","[]","0","2","","","12420","75","1","2","win","no-go","1"
"pit-trial","194","1261605","0.0-80.0","battery-v0.2","","""event"",""trial"",""time""
""fullscreenenter"",""1"",""1181""
""fullscreenexit"",""117"",""902887""
""blur"",""117"",""904363""
""focus"",""117"",""910353""
","""event"",""trial"",""time""
""blur"",""117"",""904363""
","""event"",""trial"",""time""
""focus"",""117"",""910353""
","""event"",""trial"",""time""
""fullscreenenter"",""1"",""1181""
","""event"",""trial"",""time""
""fullscreenexit"",""117"",""902887""
","","","1126.7999999523163","","","20","12420","5517","c","elianto","#3366ff99","-1"," ","0","0","[1978.8999998569489]","1","2","","","12420","76","5","2","win","no-go","0"
"pit-trial","195","1266461","0.0-81.0","battery-v0.2","","""event"",""trial"",""time""
""fullscreenenter"",""1"",""1181""
""fullscreenexit"",""117"",""902887""
""blur"",""117"",""904363""
""focus"",""117"",""910353""
","""event"",""trial"",""time""
""blur"",""117"",""904363""
","""event"",""trial"",""time""
""focus"",""117"",""910353""
","""event"",""trial"",""time""
""fullscreenenter"",""1"",""1181""
","""event"",""trial"",""time""
""fullscreenexit"",""117"",""902887""
","","","-1","","","20","12420","5517","h","elianto","#f73b6a7A","-1","-1","1","0","[]","0","2","","","12420","77","3","4","lose","no-go","0"
"pit-trial","196","1269991","0.0-82.0","battery-v0.2","","""event"",""trial"",""time""
""fullscreenenter"",""1"",""1181""
""fullscreenexit"",""117"",""902887""
""blur"",""117"",""904363""
""focus"",""117"",""910353""
","""event"",""trial"",""time""
""blur"",""117"",""904363""
","""event"",""trial"",""time""
""focus"",""117"",""910353""
","""event"",""trial"",""time""
""fullscreenenter"",""1"",""1181""
","""event"",""trial"",""time""
""fullscreenexit"",""117"",""902887""
","","","669.7000000476837","","","20","12420","5517","z","elianto","#3366ff99"," "," ","1","0","[1520.9000000953674]","1","2","","","12420","78","4","1","win","go","1"
"pit-trial","197","1274850","0.0-83.0","battery-v0.2","","""event"",""trial"",""time""
""fullscreenenter"",""1"",""1181""
""fullscreenexit"",""117"",""902887""
""blur"",""117"",""904363""
""focus"",""117"",""910353""
","""event"",""trial"",""time""
""blur"",""117"",""904363""
","""event"",""trial"",""time""
""focus"",""117"",""910353""
","""event"",""trial"",""time""
""fullscreenenter"",""1"",""1181""
","""event"",""trial"",""time""
""fullscreenexit"",""117"",""902887""
","","","-1","","","20","12420","5517","c","elianto","#3366ff99","-1","-1","1","+10","[]","0","2","","","12420","79","5","2","win","no-go","0"
"pit-trial","198","1278677","0.0-84.0","battery-v0.2","","""event"",""trial"",""time""
""fullscreenenter"",""1"",""1181""
""fullscreenexit"",""117"",""902887""
""blur"",""117"",""904363""
""focus"",""117"",""910353""
","""event"",""trial"",""time""
""blur"",""117"",""904363""
","""event"",""trial"",""time""
""focus"",""117"",""910353""
","""event"",""trial"",""time""
""fullscreenenter"",""1"",""1181""
","""event"",""trial"",""time""
""fullscreenexit"",""117"",""902887""
","","","965.7000000476837","","","20","12420","5517","z","elianto","#3366ff99"," "," ","1","+10","[1817.1000001430511]","1","2","","","12420","80","4","1","win","go","0"
"pit-trial","199","1282514","0.0-85.0","battery-v0.2","","""event"",""trial"",""time""
""fullscreenenter"",""1"",""1181""
""fullscreenexit"",""117"",""902887""
""blur"",""117"",""904363""
""focus"",""117"",""910353""
","""event"",""trial"",""time""
""blur"",""117"",""904363""
","""event"",""trial"",""time""
""focus"",""117"",""910353""
","""event"",""trial"",""time""
""fullscreenenter"",""1"",""1181""
","""event"",""trial"",""time""
""fullscreenexit"",""117"",""902887""
","","","976.5","","","20","12420","5517","z","elianto","#3366ff99"," "," ","1","0","[1827.6000001430511]","1","2","","","12420","81","4","1","win","go","1"
"pit-trial","200","1287377","0.0-86.0","battery-v0.2","","""event"",""trial"",""time""
""fullscreenenter"",""1"",""1181""
""fullscreenexit"",""117"",""902887""
""blur"",""117"",""904363""
""focus"",""117"",""910353""
","""event"",""trial"",""time""
""blur"",""117"",""904363""
","""event"",""trial"",""time""
""focus"",""117"",""910353""
","""event"",""trial"",""time""
""fullscreenenter"",""1"",""1181""
","""event"",""trial"",""time""
""fullscreenexit"",""117"",""902887""
","","","-1","","","20","12420","5517","c","elianto","#3366ff99","-1","-1","1","+10","[]","0","2","","","12420","82","5","2","win","no-go","0"
"pit-trial","201","1292241","0.0-87.0","battery-v0.2","","""event"",""trial"",""time""
""fullscreenenter"",""1"",""1181""
""fullscreenexit"",""117"",""902887""
""blur"",""117"",""904363""
""focus"",""117"",""910353""
","""event"",""trial"",""time""
""blur"",""117"",""904363""
","""event"",""trial"",""time""
""focus"",""117"",""910353""
","""event"",""trial"",""time""
""fullscreenenter"",""1"",""1181""
","""event"",""trial"",""time""
""fullscreenexit"",""117"",""902887""
