"trial_type","trial_index","time_elapsed","internal_node_id","task_version","subject_id","interactions","blur_events","focus_events","fullscreenenter_events","fullscreenexit_events","success","view_history","rt","responses","num_errors","age","subject","participantId","rune","rune_set","hex","correct","choice","accuracy","outcome","keys","total_keys","block","practice","value","sub","trial","stimulus","robot","valence","action","sham"
"pavlovia","0","19","0.0-0.0","battery-v0.2","","""event"",""trial"",""time""
""fullscreenenter"",""1"",""5573""
","
","
","""event"",""trial"",""time""
""fullscreenenter"",""1"",""5573""
","
","","","","","","","","","","","","","","","","","","","","","","","","","","",""
"fullscreen","1","6524","0.0-1.0","battery-v0.2","","""event"",""trial"",""time""
""fullscreenenter"",""1"",""5573""
","
","
","""event"",""trial"",""time""
""fullscreenenter"",""1"",""5573""
","
","true","","","","","","","","","","","","","","","","","","","","","","","","","",""
"pit-instructions","2","11614","0.0-2.0-0.0","battery-v0.2","","""event"",""trial"",""time""
""fullscreenenter"",""1"",""5573""
","
","
","""event"",""trial"",""time""
""fullscreenenter"",""1"",""5573""
","
","","[{""page_index"":0,""viewing_time"":5082.5}]","5083.4000000003725","","","","","","","","","","","","","","","","","","","","","","","",""
"pit-comprehension","3","17223","0.0-2.0-1.0-0.0","battery-v0.2","","""event"",""trial"",""time""
""fullscreenenter"",""1"",""5573""
","
","
","""event"",""trial"",""time""
""fullscreenenter"",""1"",""5573""
","
","","","5596.700000001118","[""shark""]","0","24","18166","2282","","","","","","","","","","","","","","","","","","",""
"pit-instructions","4","18810","0.0-2.0-1.0-1.0","battery-v0.2","","""event"",""trial"",""time""
""fullscreenenter"",""1"",""5573""
","
","
","""event"",""trial"",""time""
""fullscreenenter"",""1"",""5573""
","
","","[{""page_index"":0,""viewing_time"":1567.2000000011176}]","1567.9000000003725","","","","","","","","","","","","","","","","","","","","","","","",""
"pit-comprehension","5","21957","0.0-2.0-2.0-0.0","battery-v0.2","","""event"",""trial"",""time""
""fullscreenenter"",""1"",""5573""
","
","
","""event"",""trial"",""time""
""fullscreenenter"",""1"",""5573""
","
","","","3136.5999999996275","[""tiger""]","0","24","18166","2282","","","","","","","","","","","","","","","","","","",""
"pit-instructions","6","23421","0.0-2.0-2.0-1.0","battery-v0.2","","""event"",""trial"",""time""
""fullscreenenter"",""1"",""5573""
","
","
","""event"",""trial"",""time""
""fullscreenenter"",""1"",""5573""
","
","","[{""page_index"":0,""viewing_time"":1454.0999999996275}]","1455","","","","","","","","","","","","","","","","","","","","","","","",""
"pit-instructions","7","306001","0.0-2.0-3.0","battery-v0.2","","""event"",""trial"",""time""
""fullscreenenter"",""1"",""5573""
","
","
","""event"",""trial"",""time""
""fullscreenenter"",""1"",""5573""
","
","","[{""page_index"":0,""viewing_time"":173840.59999999963},{""page_index"":1,""viewing_time"":9521.5},{""page_index"":2,""viewing_time"":8895.700000001118},{""page_index"":3,""viewing_time"":5709.4000000003725},{""page_index"":4,""viewing_time"":7560.5999999996275},{""page_index"":5,""viewing_time"":6992.5},{""page_index"":6,""viewing_time"":9039.599999999627},{""page_index"":7,""viewing_time"":8372.099999999627},{""page_index"":8,""viewing_time"":8553.200000001118},{""page_index"":9,""viewing_time"":6689.0999999996275},{""page_index"":10,""viewing_time"":8443.599999999627},{""page_index"":11,""viewing_time"":5156.699999999255},{""page_index"":12,""viewing_time"":2552.9000000003725},{""page_index"":11,""viewing_time"":8111.5999999996275},{""page_index"":12,""viewing_time"":7156},{""page_index"":13,""viewing_time"":5974.10000000149}]","282570.30000000075","","","","","","","","","","","","","","","","","","","","","","","",""
"pit-trial","8","309401","0.0-2.0-4.0-0.0","battery-v0.2","","""event"",""trial"",""time""
""fullscreenenter"",""1"",""5573""
","
","
","""event"",""trial"",""time""
""fullscreenenter"",""1"",""5573""
","
","","","541.5999999996275","","","24","18166","2282","&#9784;","elianto","#FFFFF080"," "," ","1","&#10004","[1391.7999999988824]","1","0","0","","","","","","","",""
"pit-trial","9","312938","0.0-2.0-4.1-0.1","battery-v0.2","","""event"",""trial"",""time""
""fullscreenenter"",""1"",""5573""
","
","
","""event"",""trial"",""time""
""fullscreenenter"",""1"",""5573""
","
","","","676.1999999992549","","","24","18166","2282","&#9784;","elianto","#FFFFF080"," "," ","1","&#10004","[1527.2999999988824]","1","0","0","","","","","","","",""
"pit-trial","10","316248","0.0-2.0-4.2-0.2","battery-v0.2","","""event"",""trial"",""time""
""fullscreenenter"",""1"",""5573""
","
","
","""event"",""trial"",""time""
""fullscreenenter"",""1"",""5573""
","
","","","452.69999999925494","","","24","18166","2282","&#9784;","elianto","#FFFFF080"," "," ","1","&#10004","[1302.699999999255]","1","0","0","","","","","","","",""
"pit-trial","11","319638","0.0-2.0-4.3-0.3","battery-v0.2","","""event"",""trial"",""time""
""fullscreenenter"",""1"",""5573""
","
","
","""event"",""trial"",""time""
""fullscreenenter"",""1"",""5573""
","
","","","530","","","24","18166","2282","&#9784;","elianto","#FFFFF080"," "," ","1","&#10004","[1380.4000000003725]","1","0","0","","","","","","","",""
"pit-trial","12","322979","0.0-2.0-4.4-0.4","battery-v0.2","","""event"",""trial"",""time""
""fullscreenenter"",""1"",""5573""
","
","
","""event"",""trial"",""time""
""fullscreenenter"",""1"",""5573""
","
","","","483.19999999925494","","","24","18166","2282","&#9784;","elianto","#FFFFF080"," "," ","1","&#10004","[1333.5999999996275]","1","0","0","","","","","","","",""
"pit-instructions","13","354299","0.0-2.0-5.0","battery-v0.2","","""event"",""trial"",""time""
""fullscreenenter"",""1"",""5573""
","
","
","""event"",""trial"",""time""
""fullscreenenter"",""1"",""5573""
","
","","[{""page_index"":0,""viewing_time"":7325},{""page_index"":1,""viewing_time"":6469.5},{""page_index"":2,""viewing_time"":5768.9000000003725},{""page_index"":3,""viewing_time"":11744.39999999851}]","31308.699999999255","","","","","","","","","","","","","","","","","","","","","","","",""
"pit-trial","14","359158","0.0-2.0-6.0-0.0","battery-v0.2","","""event"",""trial"",""time""
""fullscreenenter"",""1"",""5573""
","
","
","""event"",""trial"",""time""
""fullscreenenter"",""1"",""5573""
","
","","","-1","","","24","18166","2282","&#9854;","elianto","#FFFFF080","-1","-1","1","&#10004","[]","0","0","1","","","","","","","",""
"pit-trial","15","364016","0.0-2.0-6.1-0.1","battery-v0.2","","""event"",""trial"",""time""
""fullscreenenter"",""1"",""5573""
","
","
","""event"",""trial"",""time""
""fullscreenenter"",""1"",""5573""
","
","","","-1","","","24","18166","2282","&#9854;","elianto","#FFFFF080","-1","-1","1","&#10004","[]","0","0","1","","","","","","","",""
"pit-trial","16","368875","0.0-2.0-6.2-0.2","battery-v0.2","","""event"",""trial"",""time""
""fullscreenenter"",""1"",""5573""
","
","
","""event"",""trial"",""time""
""fullscreenenter"",""1"",""5573""
","
","","","-1","","","24","18166","2282","&#9854;","elianto","#FFFFF080","-1","-1","1","&#10004","[]","0","0","1","","","","","","","",""
"pit-trial","17","373732","0.0-2.0-6.3-0.3","battery-v0.2","","""event"",""trial"",""time""
""fullscreenenter"",""1"",""5573""
","
","
","""event"",""trial"",""time""
""fullscreenenter"",""1"",""5573""
","
","","","-1","","","24","18166","2282","&#9854;","elianto","#FFFFF080","-1","-1","1","&#10004","[]","0","0","1","","","","","","","",""
"pit-trial","18","378593","0.0-2.0-6.4-0.4","battery-v0.2","","""event"",""trial"",""time""
""fullscreenenter"",""1"",""5573""
","
","
","""event"",""trial"",""time""
""fullscreenenter"",""1"",""5573""
","
","","","-1","","","24","18166","2282","&#9854;","elianto","#FFFFF080","-1","-1","1","&#10004","[]","0","0","1","","","","","","","",""
"pit-instructions","19","515635","0.0-2.0-7.0","battery-v0.2","","""event"",""trial"",""time""
""fullscreenenter"",""1"",""5573""
","
","
","""event"",""trial"",""time""
""fullscreenenter"",""1"",""5573""
","
","","[{""page_index"":0,""viewing_time"":7732.299999998882},{""page_index"":1,""viewing_time"":7689.10000000149},{""page_index"":2,""viewing_time"":6763.0999999996275},{""page_index"":3,""viewing_time"":7629.0999999996275},{""page_index"":4,""viewing_time"":6026.9000000003725},{""page_index"":5,""viewing_time"":6506},{""page_index"":6,""viewing_time"":5078.699999999255},{""page_index"":7,""viewing_time"":8161},{""page_index"":8,""viewing_time"":9809.300000000745},{""page_index"":9,""viewing_time"":7502.699999999255},{""page_index"":10,""viewing_time"":6908.200000001118},{""page_index"":11,""viewing_time"":5989.299999998882},{""page_index"":12,""viewing_time"":9342.700000001118},{""page_index"":13,""viewing_time"":9136.099999999627},{""page_index"":14,""viewing_time"":9741.400000000373},{""page_index"":15,""viewing_time"":7988.39999999851},{""page_index"":16,""viewing_time"":6932.60000000149},{""page_index"":17,""viewing_time"":8092.39999999851}]","137030.59999999963","","","","","","","","","","","","","","","","","","","","","","","",""
"pit-trial","20","519054","0.0-2.0-8.0-0.0","battery-v0.2","","""event"",""trial"",""time""
""fullscreenenter"",""1"",""5573""
","
","
","""event"",""trial"",""time""
""fullscreenenter"",""1"",""5573""
","
","","","559.9000000003725","","","24","18166","2282","&#9776;","elianto","#3366ff99"," "," ","1","+10","[1411.1000000014901]","1","0","1","","","","","","","",""
"pit-trial","21","522991","0.0-2.0-8.0-1.0","battery-v0.2","","""event"",""trial"",""time""
""fullscreenenter"",""1"",""5573""
","
","
","""event"",""trial"",""time""
""fullscreenenter"",""1"",""5573""
","
","","","1081.2999999988824","","","24","18166","2282","&#9776;","elianto","#3366ff99"," "," ","1","+10","[1931.699999999255]","1","0","1","","","","","","","",""
"pit-trial","22","526488","0.0-2.0-8.0-2.0","battery-v0.2","","""event"",""trial"",""time""
""fullscreenenter"",""1"",""5573""
","
","
","""event"",""trial"",""time""
""fullscreenenter"",""1"",""5573""
","
","","","641.3000000007451","","","24","18166","2282","&#9776;","elianto","#3366ff99"," "," ","1","+10","[1491.800000000745]","1","0","1","","","","","","","",""
"pit-trial","23","529792","0.0-2.0-8.0-3.0","battery-v0.2","","""event"",""trial"",""time""
""fullscreenenter"",""1"",""5573""
","
","
","""event"",""trial"",""time""
""fullscreenenter"",""1"",""5573""
","
","","","437.5","","","24","18166","2282","&#9776;","elianto","#3366ff99"," "," ","1","0","[1295.7000000011176]","1","0","1","","","","","","","",""
"pit-trial","24","533235","0.0-2.0-8.0-4.0","battery-v0.2","","""event"",""trial"",""time""
""fullscreenenter"",""1"",""5573""
","
","
","""event"",""trial"",""time""
""fullscreenenter"",""1"",""5573""
","
","","","586.2000000011176","","","24","18166","2282","&#9776;","elianto","#3366ff99"," "," ","1","+10","[1436.3999999985099]","1","0","1","","","","","","","",""
"pit-trial","25","536472","0.0-2.0-8.1-0.1","battery-v0.2","","""event"",""trial"",""time""
""fullscreenenter"",""1"",""5573""
","
","
","""event"",""trial"",""time""
""fullscreenenter"",""1"",""5573""
","
","","","376.69999999925494","","","24","18166","2282","&#9776;","elianto","#3366ff99"," "," ","1","+10","[1226.9000000003725]","1","0","1","","","","","","","",""
"pit-trial","26","539812","0.0-2.0-8.1-1.1","battery-v0.2","","""event"",""trial"",""time""
""fullscreenenter"",""1"",""5573""
","
","
","""event"",""trial"",""time""
""fullscreenenter"",""1"",""5573""
","
","","","485","","","24","18166","2282","&#9776;","elianto","#3366ff99"," "," ","1","+10","[1335.300000000745]","1","0","1","","","","","","","",""
"pit-trial","27","543204","0.0-2.0-8.1-2.1","battery-v0.2","","""event"",""trial"",""time""
""fullscreenenter"",""1"",""5573""
","
","
","""event"",""trial"",""time""
""fullscreenenter"",""1"",""5573""
","
","","","535.2999999988824","","","24","18166","2282","&#9776;","elianto","#3366ff99"," "," ","1","+10","[1385.9000000003725]","1","0","1","","","","","","","",""
"pit-trial","28","546614","0.0-2.0-8.1-3.1","battery-v0.2","","""event"",""trial"",""time""
""fullscreenenter"",""1"",""5573""
","
","
","""event"",""trial"",""time""
""fullscreenenter"",""1"",""5573""
","
","","","554.5","","","24","18166","2282","&#9776;","elianto","#3366ff99"," "," ","1","0","[1404.800000000745]","1","0","1","","","","","","","",""
"pit-trial","29","549986","0.0-2.0-8.1-4.1","battery-v0.2","","""event"",""trial"",""time""
""fullscreenenter"",""1"",""5573""
","
","
","""event"",""trial"",""time""
""fullscreenenter"",""1"",""5573""
","
","","","513.1999999992549","","","24","18166","2282","&#9776;","elianto","#3366ff99"," "," ","1","+10","[1363.5999999996275]","1","0","1","","","","","","","",""
"pit-trial","30","553476","0.0-2.0-8.2-0.2","battery-v0.2","","""event"",""trial"",""time""
""fullscreenenter"",""1"",""5573""
","
","
","""event"",""trial"",""time""
""fullscreenenter"",""1"",""5573""
","
","","","632.8999999985099","","","24","18166","2282","&#9776;","elianto","#3366ff99"," "," ","1","+10","[1483]","1","0","1","","","","","","","",""
"pit-trial","31","556939","0.0-2.0-8.2-1.2","battery-v0.2","","""event"",""trial"",""time""
""fullscreenenter"",""1"",""5573""
","
","
","""event"",""trial"",""time""
""fullscreenenter"",""1"",""5573""
","
","","","605.8000000007451","","","24","18166","2282","&#9776;","elianto","#3366ff99"," "," ","1","+10","[1456.2000000011176]","1","0","1","","","","","","","",""
"pit-trial","32","560473","0.0-2.0-8.2-2.2","battery-v0.2","","""event"",""trial"",""time""
""fullscreenenter"",""1"",""5573""
","
","
","""event"",""trial"",""time""
""fullscreenenter"",""1"",""5573""
","
","","","667.5","","","24","18166","2282","&#9776;","elianto","#3366ff99"," "," ","1","+10","[1523.4000000003725]","1","0","1","","","","","","","",""
"pit-trial","33","564142","0.0-2.0-8.2-3.2","battery-v0.2","","""event"",""trial"",""time""
""fullscreenenter"",""1"",""5573""
","
","
","""event"",""trial"",""time""
""fullscreenenter"",""1"",""5573""
","
","","","807.2000000011176","","","24","18166","2282","&#9776;","elianto","#3366ff99"," "," ","1","0","[1658]","1","0","1","","","","","","","",""
"pit-trial","34","567688","0.0-2.0-8.2-4.2","battery-v0.2","","""event"",""trial"",""time""
""fullscreenenter"",""1"",""5573""
","
","
","""event"",""trial"",""time""
""fullscreenenter"",""1"",""5573""
","
","","","684.3000000007451","","","24","18166","2282","&#9776;","elianto","#3366ff99"," "," ","1","+10","[1534.300000000745]","1","0","1","","","","","","","",""
"call-function","35","567700","0.0-2.0-9.0","battery-v0.2","","""event"",""trial"",""time""
""fullscreenenter"",""1"",""5573""
","
","
","""event"",""trial"",""time""
""fullscreenenter"",""1"",""5573""
","
","","","","","","","","","","","","","","","","","","","","","","","","","","",""
"pit-instructions","36","626952","0.0-2.0-10.0","battery-v0.2","","""event"",""trial"",""time""
""fullscreenenter"",""1"",""5573""
","
","
","""event"",""trial"",""time""
""fullscreenenter"",""1"",""5573""
","
","","[{""page_index"":0,""viewing_time"":20218},{""page_index"":1,""viewing_time"":7653},{""page_index"":2,""viewing_time"":11313.900000000373},{""page_index"":3,""viewing_time"":11832.800000000745},{""page_index"":4,""viewing_time"":8230.89999999851}]","59250.20000000112","","","","","","","","","","","","","","","","","","","","","","","",""
"pit-trial","37","631809","0.0-2.0-11.0-0.0","battery-v0.2","","""event"",""trial"",""time""
""fullscreenenter"",""1"",""5573""
","
","
","""event"",""trial"",""time""
""fullscreenenter"",""1"",""5573""
","
","","","-1","","","24","18166","2282","&#9761;","elianto","#3366ff99","-1","-1","1","+10","[]","0","0","2","","","","","","","",""
"pit-trial","38","636670","0.0-2.0-11.0-1.0","battery-v0.2","","""event"",""trial"",""time""
""fullscreenenter"",""1"",""5573""
","
","
","""event"",""trial"",""time""
""fullscreenenter"",""1"",""5573""
","
","","","-1","","","24","18166","2282","&#9761;","elianto","#3366ff99","-1","-1","1","+10","[]","0","0","2","","","","","","","",""
"pit-trial","39","641527","0.0-2.0-11.0-2.0","battery-v0.2","","""event"",""trial"",""time""
""fullscreenenter"",""1"",""5573""
","
","
","""event"",""trial"",""time""
""fullscreenenter"",""1"",""5573""
","
","","","-1","","","24","18166","2282","&#9761;","elianto","#3366ff99","-1","-1","1","+10","[]","0","0","2","","","","","","","",""
"pit-trial","40","646384","0.0-2.0-11.0-3.0","battery-v0.2","","""event"",""trial"",""time""
""fullscreenenter"",""1"",""5573""
","
","
","""event"",""trial"",""time""
""fullscreenenter"",""1"",""5573""
","
","","","-1","","","24","18166","2282","&#9761;","elianto","#3366ff99","-1","-1","1","0","[]","0","0","2","","","","","","","",""
"pit-trial","41","651241","0.0-2.0-11.0-4.0","battery-v0.2","","""event"",""trial"",""time""
""fullscreenenter"",""1"",""5573""
","
","
","""event"",""trial"",""time""
""fullscreenenter"",""1"",""5573""
","
","","","-1","","","24","18166","2282","&#9761;","elianto","#3366ff99","-1","-1","1","+10","[]","0","0","2","","","","","","","",""
"pit-trial","42","656099","0.0-2.0-11.1-0.1","battery-v0.2","","""event"",""trial"",""time""
""fullscreenenter"",""1"",""5573""
","
","
","""event"",""trial"",""time""
""fullscreenenter"",""1"",""5573""
","
","","","-1","","","24","18166","2282","&#9761;","elianto","#3366ff99","-1","-1","1","+10","[]","0","0","2","","","","","","","",""
"pit-trial","43","660956","0.0-2.0-11.1-1.1","battery-v0.2","","""event"",""trial"",""time""
""fullscreenenter"",""1"",""5573""
","
","
","""event"",""trial"",""time""
""fullscreenenter"",""1"",""5573""
","
","","","-1","","","24","18166","2282","&#9761;","elianto","#3366ff99","-1","-1","1","+10","[]","0","0","2","","","","","","","",""
"pit-trial","44","665818","0.0-2.0-11.1-2.1","battery-v0.2","","""event"",""trial"",""time""
""fullscreenenter"",""1"",""5573""
","
","
","""event"",""trial"",""time""
""fullscreenenter"",""1"",""5573""
","
","","","-1","","","24","18166","2282","&#9761;","elianto","#3366ff99","-1","-1","1","+10","[]","0","0","2","","","","","","","",""
"pit-trial","45","670675","0.0-2.0-11.1-3.1","battery-v0.2","","""event"",""trial"",""time""
""fullscreenenter"",""1"",""5573""
","
","
","""event"",""trial"",""time""
""fullscreenenter"",""1"",""5573""
","
","","","-1","","","24","18166","2282","&#9761;","elianto","#3366ff99","-1","-1","1","0","[]","0","0","2","","","","","","","",""
"pit-trial","46","675539","0.0-2.0-11.1-4.1","battery-v0.2","","""event"",""trial"",""time""
""fullscreenenter"",""1"",""5573""
","
","
","""event"",""trial"",""time""
""fullscreenenter"",""1"",""5573""
","
","","","-1","","","24","18166","2282","&#9761;","elianto","#3366ff99","-1","-1","1","+10","[]","0","0","2","","","","","","","",""
"pit-trial","47","680403","0.0-2.0-11.2-0.2","battery-v0.2","","""event"",""trial"",""time""
""fullscreenenter"",""1"",""5573""
","
","
","""event"",""trial"",""time""
""fullscreenenter"",""1"",""5573""
","
","","","-1","","","24","18166","2282","&#9761;","elianto","#3366ff99","-1","-1","1","+10","[]","0","0","2","","","","","","","",""
"pit-trial","48","685264","0.0-2.0-11.2-1.2","battery-v0.2","","""event"",""trial"",""time""
""fullscreenenter"",""1"",""5573""
","
","
","""event"",""trial"",""time""
""fullscreenenter"",""1"",""5573""
","
","","","-1","","","24","18166","2282","&#9761;","elianto","#3366ff99","-1","-1","1","+10","[]","0","0","2","","","","","","","",""
"pit-trial","49","690124","0.0-2.0-11.2-2.2","battery-v0.2","","""event"",""trial"",""time""
""fullscreenenter"",""1"",""5573""
","
","
","""event"",""trial"",""time""
""fullscreenenter"",""1"",""5573""
","
","","","-1","","","24","18166","2282","&#9761;","elianto","#3366ff99","-1","-1","1","+10","[]","0","0","2","","","","","","","",""
"pit-trial","50","694980","0.0-2.0-11.2-3.2","battery-v0.2","","""event"",""trial"",""time""
""fullscreenenter"",""1"",""5573""
","
","
","""event"",""trial"",""time""
""fullscreenenter"",""1"",""5573""
","
","","","-1","","","24","18166","2282","&#9761;","elianto","#3366ff99","-1","-1","1","0","[]","0","0","2","","","","","","","",""
"pit-trial","51","699842","0.0-2.0-11.2-4.2","battery-v0.2","","""event"",""trial"",""time""
""fullscreenenter"",""1"",""5573""
","
","
","""event"",""trial"",""time""
""fullscreenenter"",""1"",""5573""
","
","","","-1","","","24","18166","2282","&#9761;","elianto","#3366ff99","-1","-1","1","+10","[]","0","0","2","","","","","","","",""
"pit-trial","52","704706","0.0-2.0-11.3-0.3","battery-v0.2","","""event"",""trial"",""time""
""fullscreenenter"",""1"",""5573""
","
","
","""event"",""trial"",""time""
""fullscreenenter"",""1"",""5573""
","
","","","-1","","","24","18166","2282","&#9761;","elianto","#3366ff99","-1","-1","1","+10","[]","0","0","2","","","","","","","",""
"pit-trial","53","709568","0.0-2.0-11.3-1.3","battery-v0.2","","""event"",""trial"",""time""
""fullscreenenter"",""1"",""5573""
","
","
","""event"",""trial"",""time""
""fullscreenenter"",""1"",""5573""
","
","","","-1","","","24","18166","2282","&#9761;","elianto","#3366ff99","-1","-1","1","+10","[]","0","0","2","","","","","","","",""
"pit-trial","54","714431","0.0-2.0-11.3-2.3","battery-v0.2","","""event"",""trial"",""time""
""fullscreenenter"",""1"",""5573""
","
","
","""event"",""trial"",""time""
""fullscreenenter"",""1"",""5573""
","
","","","-1","","","24","18166","2282","&#9761;","elianto","#3366ff99","-1","-1","1","+10","[]","0","0","2","","","","","","","",""
"pit-trial","55","719289","0.0-2.0-11.3-3.3","battery-v0.2","","""event"",""trial"",""time""
""fullscreenenter"",""1"",""5573""
","
","
","""event"",""trial"",""time""
""fullscreenenter"",""1"",""5573""
","
","","","-1","","","24","18166","2282","&#9761;","elianto","#3366ff99","-1","-1","1","0","[]","0","0","2","","","","","","","",""
"pit-trial","56","724151","0.0-2.0-11.3-4.3","battery-v0.2","","""event"",""trial"",""time""
""fullscreenenter"",""1"",""5573""
","
","
","""event"",""trial"",""time""
""fullscreenenter"",""1"",""5573""
","
","","","-1","","","24","18166","2282","&#9761;","elianto","#3366ff99","-1","-1","1","+10","[]","0","0","2","","","","","","","",""
"call-function","57","724162","0.0-2.0-12.0","battery-v0.2","","""event"",""trial"",""time""
""fullscreenenter"",""1"",""5573""
","
","
","""event"",""trial"",""time""
""fullscreenenter"",""1"",""5573""
","
","","","","","","","","","","","","","","","","","","","","","","","","","","",""
"pit-instructions","58","768513","0.0-2.0-13.0","battery-v0.2","","""event"",""trial"",""time""
""fullscreenenter"",""1"",""5573""
","
","
","""event"",""trial"",""time""
""fullscreenenter"",""1"",""5573""
","
","","[{""page_index"":0,""viewing_time"":10078.5},{""page_index"":1,""viewing_time"":12496.900000000373},{""page_index"":2,""viewing_time"":4703},{""page_index"":3,""viewing_time"":11608.599999999627},{""page_index"":4,""viewing_time"":5460.300000000745}]","44348.40000000037","","","","","","","","","","","","","","","","","","","","","","","",""
"pit-trial","59","772255","0.0-2.0-14.0-0.0","battery-v0.2","","""event"",""trial"",""time""
""fullscreenenter"",""1"",""5573""
","
","
","""event"",""trial"",""time""
""fullscreenenter"",""1"",""5573""
","
","","","884.3000000007451","","","24","18166","2282","&#9826;","elianto","#f73b6a7A","-1"," ","0","-10","[1734.5999999996275]","1","0","3","","","","","","","",""
"pit-trial","60","777112","0.0-2.0-14.0-1.0","battery-v0.2","","""event"",""trial"",""time""
""fullscreenenter"",""1"",""5573""
","
","
","""event"",""trial"",""time""
""fullscreenenter"",""1"",""5573""
","
","","","-1","","","24","18166","2282","&#9826;","elianto","#f73b6a7A","-1","-1","1","0","[]","0","0","3","","","","","","","",""
"pit-trial","61","781969","0.0-2.0-14.0-2.0","battery-v0.2","","""event"",""trial"",""time""
""fullscreenenter"",""1"",""5573""
","
","
","""event"",""trial"",""time""
""fullscreenenter"",""1"",""5573""
","
","","","-1","","","24","18166","2282","&#9826;","elianto","#f73b6a7A","-1","-1","1","0","[]","0","0","3","","","","","","","",""
"pit-trial","62","786829","0.0-2.0-14.0-3.0","battery-v0.2","","""event"",""trial"",""time""
""fullscreenenter"",""1"",""5573""
","
","
","""event"",""trial"",""time""
""fullscreenenter"",""1"",""5573""
","
","","","-1","","","24","18166","2282","&#9826;","elianto","#f73b6a7A","-1","-1","1","-10","[]","0","0","3","","","","","","","",""
"pit-trial","63","791685","0.0-2.0-14.0-4.0","battery-v0.2","","""event"",""trial"",""time""
""fullscreenenter"",""1"",""5573""
","
","
","""event"",""trial"",""time""
""fullscreenenter"",""1"",""5573""
","
","","","-1","","","24","18166","2282","&#9826;","elianto","#f73b6a7A","-1","-1","1","0","[]","0","0","3","","","","","","","",""
"pit-trial","64","796546","0.0-2.0-14.1-0.1","battery-v0.2","","""event"",""trial"",""time""
""fullscreenenter"",""1"",""5573""
","
","
","""event"",""trial"",""time""
""fullscreenenter"",""1"",""5573""
","
","","","-1","","","24","18166","2282","&#9826;","elianto","#f73b6a7A","-1","-1","1","0","[]","0","0","3","","","","","","","",""
"pit-trial","65","801403","0.0-2.0-14.1-1.1","battery-v0.2","","""event"",""trial"",""time""
""fullscreenenter"",""1"",""5573""
","
","
","""event"",""trial"",""time""
""fullscreenenter"",""1"",""5573""
","
","","","-1","","","24","18166","2282","&#9826;","elianto","#f73b6a7A","-1","-1","1","0","[]","0","0","3","","","","","","","",""
"pit-trial","66","806264","0.0-2.0-14.1-2.1","battery-v0.2","","""event"",""trial"",""time""
""fullscreenenter"",""1"",""5573""
","
","
","""event"",""trial"",""time""
""fullscreenenter"",""1"",""5573""
","
","","","-1","","","24","18166","2282","&#9826;","elianto","#f73b6a7A","-1","-1","1","0","[]","0","0","3","","","","","","","",""
"pit-trial","67","811123","0.0-2.0-14.1-3.1","battery-v0.2","","""event"",""trial"",""time""
""fullscreenenter"",""1"",""5573""
","
","
","""event"",""trial"",""time""
""fullscreenenter"",""1"",""5573""
","
","","","-1","","","24","18166","2282","&#9826;","elianto","#f73b6a7A","-1","-1","1","-10","[]","0","0","3","","","","","","","",""
"pit-trial","68","815980","0.0-2.0-14.1-4.1","battery-v0.2","","""event"",""trial"",""time""
""fullscreenenter"",""1"",""5573""
","
","
","""event"",""trial"",""time""
""fullscreenenter"",""1"",""5573""
","
","","","-1","","","24","18166","2282","&#9826;","elianto","#f73b6a7A","-1","-1","1","0","[]","0","0","3","","","","","","","",""
"pit-trial","69","820843","0.0-2.0-14.2-0.2","battery-v0.2","","""event"",""trial"",""time""
""fullscreenenter"",""1"",""5573""
","
","
","""event"",""trial"",""time""
""fullscreenenter"",""1"",""5573""
","
","","","-1","","","24","18166","2282","&#9826;","elianto","#f73b6a7A","-1","-1","1","0","[]","0","0","3","","","","","","","",""
"pit-trial","70","825705","0.0-2.0-14.2-1.2","battery-v0.2","","""event"",""trial"",""time""
""fullscreenenter"",""1"",""5573""
","
","
","""event"",""trial"",""time""
""fullscreenenter"",""1"",""5573""
","
","","","-1","","","24","18166","2282","&#9826;","elianto","#f73b6a7A","-1","-1","1","0","[]","0","0","3","","","","","","","",""
"pit-trial","71","830566","0.0-2.0-14.2-2.2","battery-v0.2","","""event"",""trial"",""time""
""fullscreenenter"",""1"",""5573""
","
","
","""event"",""trial"",""time""
""fullscreenenter"",""1"",""5573""
","
","","","-1","","","24","18166","2282","&#9826;","elianto","#f73b6a7A","-1","-1","1","0","[]","0","0","3","","","","","","","",""
"pit-trial","72","835427","0.0-2.0-14.2-3.2","battery-v0.2","","""event"",""trial"",""time""
""fullscreenenter"",""1"",""5573""
","
","
","""event"",""trial"",""time""
""fullscreenenter"",""1"",""5573""
","
","","","-1","","","24","18166","2282","&#9826;","elianto","#f73b6a7A","-1","-1","1","-10","[]","0","0","3","","","","","","","",""
"pit-trial","73","840288","0.0-2.0-14.2-4.2","battery-v0.2","","""event"",""trial"",""time""
""fullscreenenter"",""1"",""5573""
","
","
","""event"",""trial"",""time""
""fullscreenenter"",""1"",""5573""
","
","","","-1","","","24","18166","2282","&#9826;","elianto","#f73b6a7A","-1","-1","1","0","[]","0","0","3","","","","","","","",""
"pit-trial","74","845153","0.0-2.0-14.3-0.3","battery-v0.2","","""event"",""trial"",""time""
""fullscreenenter"",""1"",""5573""
","
","
","""event"",""trial"",""time""
""fullscreenenter"",""1"",""5573""
","
","","","-1","","","24","18166","2282","&#9826;","elianto","#f73b6a7A","-1","-1","1","0","[]","0","0","3","","","","","","","",""
"pit-trial","75","850014","0.0-2.0-14.3-1.3","battery-v0.2","","""event"",""trial"",""time""
""fullscreenenter"",""1"",""5573""
","
","
","""event"",""trial"",""time""
""fullscreenenter"",""1"",""5573""
","
","","","-1","","","24","18166","2282","&#9826;","elianto","#f73b6a7A","-1","-1","1","0","[]","0","0","3","","","","","","","",""
"pit-trial","76","854875","0.0-2.0-14.3-2.3","battery-v0.2","","""event"",""trial"",""time""
""fullscreenenter"",""1"",""5573""
","
","
","""event"",""trial"",""time""
""fullscreenenter"",""1"",""5573""
","
","","","-1","","","24","18166","2282","&#9826;","elianto","#f73b6a7A","-1","-1","1","0","[]","0","0","3","","","","","","","",""
"pit-trial","77","859737","0.0-2.0-14.3-3.3","battery-v0.2","","""event"",""trial"",""time""
""fullscreenenter"",""1"",""5573""
","
","
","""event"",""trial"",""time""
""fullscreenenter"",""1"",""5573""
","
","","","-1","","","24","18166","2282","&#9826;","elianto","#f73b6a7A","-1","-1","1","-10","[]","0","0","3","","","","","","","",""
"pit-trial","78","864598","0.0-2.0-14.3-4.3","battery-v0.2","","""event"",""trial"",""time""
""fullscreenenter"",""1"",""5573""
","
","
","""event"",""trial"",""time""
""fullscreenenter"",""1"",""5573""
","
","","","-1","","","24","18166","2282","&#9826;","elianto","#f73b6a7A","-1","-1","1","0","[]","0","0","3","","","","","","","",""
"call-function","79","864608","0.0-2.0-15.0","battery-v0.2","","""event"",""trial"",""time""
""fullscreenenter"",""1"",""5573""
","
","
","""event"",""trial"",""time""
""fullscreenenter"",""1"",""5573""
","
","","","","","","","","","","","","","","","","","","","","","","","","","","",""
"pit-instructions","80","893942","0.0-2.0-16.0","battery-v0.2","","""event"",""trial"",""time""
""fullscreenenter"",""1"",""5573""
","
","
","""event"",""trial"",""time""
""fullscreenenter"",""1"",""5573""
","
","","[{""page_index"":0,""viewing_time"":7404.5999999996275},{""page_index"":1,""viewing_time"":8907.10000000149},{""page_index"":2,""viewing_time"":5016.799999998882},{""page_index"":3,""viewing_time"":8000.700000001118}]","29330.900000000373","","","","","","","","","","","","","","","","","","","","","","","",""
"pit-trial","81","897393","0.0-2.0-17.0-0.0","battery-v0.2","","""event"",""trial"",""time""
""fullscreenenter"",""1"",""5573""
","
","
","""event"",""trial"",""time""
""fullscreenenter"",""1"",""5573""
","
","","","592.5","","","24","18166","2282","&#9789;","elianto","#f73b6a7A"," "," ","1","0","[1442.699999999255]","1","0","4","","","","","","","",""
"pit-trial","82","900871","0.0-2.0-17.0-1.0","battery-v0.2","","""event"",""trial"",""time""
""fullscreenenter"",""1"",""5573""
","
","
","""event"",""trial"",""time""
""fullscreenenter"",""1"",""5573""
","
","","","622","","","24","18166","2282","&#9789;","elianto","#f73b6a7A"," "," ","1","0","[1472.4000000003725]","1","0","4","","","","","","","",""
"pit-trial","83","904144","0.0-2.0-17.0-2.0","battery-v0.2","","""event"",""trial"",""time""
""fullscreenenter"",""1"",""5573""
","
","
","""event"",""trial"",""time""
""fullscreenenter"",""1"",""5573""
","
","","","409.7000000011176","","","24","18166","2282","&#9789;","elianto","#f73b6a7A"," "," ","1","0","[1262.3999999985099]","1","0","4","","","","","","","",""
"pit-trial","84","907479","0.0-2.0-17.0-3.0","battery-v0.2","","""event"",""trial"",""time""
""fullscreenenter"",""1"",""5573""
","
","
","""event"",""trial"",""time""
""fullscreenenter"",""1"",""5573""
","
","","","479.1000000014901","","","24","18166","2282","&#9789;","elianto","#f73b6a7A"," "," ","1","-10","[1329.0999999996275]","1","0","4","","","","","","","",""
"pit-trial","85","910640","0.0-2.0-17.0-4.0","battery-v0.2","","""event"",""trial"",""time""
""fullscreenenter"",""1"",""5573""
","
","
","""event"",""trial"",""time""
""fullscreenenter"",""1"",""5573""
","
","","","304.90000000037253","","","24","18166","2282","&#9789;","elianto","#f73b6a7A"," "," ","1","0","[1155.3999999985099]","1","0","4","","","","","","","",""
"pit-trial","86","913814","0.0-2.0-17.1-0.1","battery-v0.2","","""event"",""trial"",""time""
""fullscreenenter"",""1"",""5573""
","
","
","""event"",""trial"",""time""
""fullscreenenter"",""1"",""5573""
","
","","","316.09999999962747","","","24","18166","2282","&#9789;","elianto","#f73b6a7A"," "," ","1","0","[1166.699999999255]","1","0","4","","","","","","","",""
"pit-trial","87","916860","0.0-2.0-17.1-1.1","battery-v0.2","","""event"",""trial"",""time""
""fullscreenenter"",""1"",""5573""
","
","
","""event"",""trial"",""time""
""fullscreenenter"",""1"",""5573""
","
","","","188.80000000074506","","","24","18166","2282","&#9789;","elianto","#f73b6a7A"," "," ","1","0","[1038.9000000003725]","1","0","4","","","","","","","",""
"pit-trial","88","920161","0.0-2.0-17.1-2.1","battery-v0.2","","""event"",""trial"",""time""
""fullscreenenter"",""1"",""5573""
","
","
","""event"",""trial"",""time""
""fullscreenenter"",""1"",""5573""
","
","","","442","","","24","18166","2282","&#9789;","elianto","#f73b6a7A"," "," ","1","0","[1292.1000000014901]","1","0","4","","","","","","","",""
"pit-trial","89","923481","0.0-2.0-17.1-3.1","battery-v0.2","","""event"",""trial"",""time""
""fullscreenenter"",""1"",""5573""
","
","
","""event"",""trial"",""time""
""fullscreenenter"",""1"",""5573""
","
","","","462.7999999988824","","","24","18166","2282","&#9789;","elianto","#f73b6a7A"," "," ","1","-10","[1313.4000000003725]","1","0","4","","","","","","","",""
"pit-trial","90","926630","0.0-2.0-17.1-4.1","battery-v0.2","","""event"",""trial"",""time""
""fullscreenenter"",""1"",""5573""
","
","
","""event"",""trial"",""time""
""fullscreenenter"",""1"",""5573""
","
","","","293.40000000037253","","","24","18166","2282","&#9789;","elianto","#f73b6a7A"," "," ","1","0","[1143.7000000011176]","1","0","4","","","","","","","",""
"pit-trial","91","930058","0.0-2.0-17.2-0.2","battery-v0.2","","""event"",""trial"",""time""
""fullscreenenter"",""1"",""5573""
","
","
","""event"",""trial"",""time""
""fullscreenenter"",""1"",""5573""
","
","","","565.8999999985099","","","24","18166","2282","&#9789;","elianto","#f73b6a7A"," "," ","1","0","[1416.199999999255]","1","0","4","","","","","","","",""
"pit-trial","92","933402","0.0-2.0-17.2-1.2","battery-v0.2","","""event"",""trial"",""time""
""fullscreenenter"",""1"",""5573""
","
","
","""event"",""trial"",""time""
""fullscreenenter"",""1"",""5573""
","
","","","481.7999999988824","","","24","18166","2282","&#9789;","elianto","#f73b6a7A"," "," ","1","0","[1333.5]","1","0","4","","","","","","","",""
"pit-trial","93","936765","0.0-2.0-17.2-2.2","battery-v0.2","","""event"",""trial"",""time""
""fullscreenenter"",""1"",""5573""
","
","
","""event"",""trial"",""time""
""fullscreenenter"",""1"",""5573""
","
","","","505.7000000011176","","","24","18166","2282","&#9789;","elianto","#f73b6a7A"," "," ","1","0","[1355.9000000003725]","1","0","4","","","","","","","",""
"pit-trial","94","940622","0.0-2.0-17.2-3.2","battery-v0.2","","""event"",""trial"",""time""
""fullscreenenter"",""1"",""5573""
","
","
","""event"",""trial"",""time""
""fullscreenenter"",""1"",""5573""
","
","","","995.3000000007451","","","24","18166","2282","&#9789;","elianto","#f73b6a7A"," "," ","1","-10","[1845.7999999988824]","1","0","4","","","","","","","",""
"pit-trial","95","944460","0.0-2.0-17.2-4.2","battery-v0.2","","""event"",""trial"",""time""
""fullscreenenter"",""1"",""5573""
","
","
","""event"",""trial"",""time""
""fullscreenenter"",""1"",""5573""
","
","","","981.4000000003725","","","24","18166","2282","&#9789;","elianto","#f73b6a7A"," "," ","1","0","[1831.9000000003725]","1","0","4","","","","","","","",""
"pit-trial","96","948467","0.0-2.0-17.3-0.3","battery-v0.2","","""event"",""trial"",""time""
""fullscreenenter"",""1"",""5573""
","
","
","""event"",""trial"",""time""
""fullscreenenter"",""1"",""5573""
","
","","","1143.2000000011176","","","24","18166","2282","&#9789;","elianto","#f73b6a7A"," "," ","1","0","[1996.1000000014901]","1","0","4","","","","","","","",""
"pit-trial","97","952093","0.0-2.0-17.3-1.3","battery-v0.2","","""event"",""trial"",""time""
""fullscreenenter"",""1"",""5573""
","
","
","""event"",""trial"",""time""
""fullscreenenter"",""1"",""5573""
","
","","","765.8000000007451","","","24","18166","2282","&#9789;","elianto","#f73b6a7A"," "," ","1","0","[1615.7999999988824]","1","0","4","","","","","","","",""
"pit-trial","98","956195","0.0-2.0-17.3-2.3","battery-v0.2","","""event"",""trial"",""time""
""fullscreenenter"",""1"",""5573""
","
","
","""event"",""trial"",""time""
""fullscreenenter"",""1"",""5573""
","
","","","1241","","","24","18166","2282","&#9789;","elianto","#f73b6a7A"," "," ","1","0","[2091.0999999996275]","1","0","4","","","","","","","",""
"pit-trial","99","959716","0.0-2.0-17.3-3.3","battery-v0.2","","""event"",""trial"",""time""
""fullscreenenter"",""1"",""5573""
","
","
","""event"",""trial"",""time""
""fullscreenenter"",""1"",""5573""
","
","","","659.1999999992549","","","24","18166","2282","&#9789;","elianto","#f73b6a7A"," "," ","1","-10","[1509.5]","1","0","4","","","","","","","",""
"pit-trial","100","963369","0.0-2.0-17.3-4.3","battery-v0.2","","""event"",""trial"",""time""
""fullscreenenter"",""1"",""5573""
","
","
","""event"",""trial"",""time""
""fullscreenenter"",""1"",""5573""
","
","","","792.7999999988824","","","24","18166","2282","&#9789;","elianto","#f73b6a7A"," "," ","1","0","[1642.9000000003725]","1","0","4","","","","","","","",""
"call-function","101","963381","0.0-2.0-18.0","battery-v0.2","","""event"",""trial"",""time""
""fullscreenenter"",""1"",""5573""
","
","
","""event"",""trial"",""time""
""fullscreenenter"",""1"",""5573""
","
","","","","","","","","","","","","","","","","","","","","","","","","","","",""
"pit-instructions","102","1052259","0.0-2.0-19.0","battery-v0.2","","""event"",""trial"",""time""
""fullscreenenter"",""1"",""5573""
","
","
","""event"",""trial"",""time""
""fullscreenenter"",""1"",""5573""
","
","","[{""page_index"":0,""viewing_time"":6967.5},{""page_index"":1,""viewing_time"":7247.60000000149},{""page_index"":2,""viewing_time"":14609.099999999627},{""page_index"":3,""viewing_time"":11686.799999998882},{""page_index"":4,""viewing_time"":10040.400000000373},{""page_index"":5,""viewing_time"":10055.099999999627},{""page_index"":6,""viewing_time"":8789.10000000149},{""page_index"":7,""viewing_time"":6157.5999999996275},{""page_index"":6,""viewing_time"":2299.199999999255},{""page_index"":7,""viewing_time"":6287.0999999996275},{""page_index"":8,""viewing_time"":4735.5}]","88876","","","","","","","","","","","","","","","","","","","","","","","",""
"pit-comprehension","103","1058895","0.0-2.0-20.0-0.0","battery-v0.2","","""event"",""trial"",""time""
""fullscreenenter"",""1"",""5573""
","
","
","""event"",""trial"",""time""
""fullscreenenter"",""1"",""5573""
","
","","","6622.700000001118","[""SPACE""]","0","24","18166","2282","","","","","","","","","","","","","","","","","","",""
"pit-instructions","104","1062924","0.0-2.0-20.0-1.0","battery-v0.2","","""event"",""trial"",""time""
""fullscreenenter"",""1"",""5573""
","
","
","""event"",""trial"",""time""
""fullscreenenter"",""1"",""5573""
","
","","[{""page_index"":0,""viewing_time"":3964.5}]","3965.199999999255","","","","","","","","","","","","","","","","","","","","","","","",""
"pit-comprehension","105","1072202","0.0-2.0-21.0-0.0","battery-v0.2","","""event"",""trial"",""time""
""fullscreenenter"",""1"",""5573""
","
","
","""event"",""trial"",""time""
""fullscreenenter"",""1"",""5573""
","
","","","9265.599999999627","[""10""]","0","24","18166","2282","","","","","","","","","","","","","","","","","","",""
"pit-instructions","106","1074668","0.0-2.0-21.0-1.0","battery-v0.2","","""event"",""trial"",""time""
""fullscreenenter"",""1"",""5573""
","
","
","""event"",""trial"",""time""
""fullscreenenter"",""1"",""5573""
","
","","[{""page_index"":0,""viewing_time"":2403.699999999255}]","2404.699999999255","","","","","","","","","","","","","","","","","","","","","","","",""
"pit-comprehension","107","1082744","0.0-2.0-22.0-0.0","battery-v0.2","","""event"",""trial"",""time""
""fullscreenenter"",""1"",""5573""
","
","
","""event"",""trial"",""time""
""fullscreenenter"",""1"",""5573""
","
","","","8066.199999999255","[""0""]","0","24","18166","2282","","","","","","","","","","","","","","","","","","",""
"pit-instructions","108","1086386","0.0-2.0-22.0-1.0","battery-v0.2","","""event"",""trial"",""time""
""fullscreenenter"",""1"",""5573""
","
","
","""event"",""trial"",""time""
""fullscreenenter"",""1"",""5573""
","
","","[{""page_index"":0,""viewing_time"":3557.9000000003725}]","3558.5999999996275","","","","","","","","","","","","","","","","","","","","","","","",""
"pit-comprehension","109","1106246","0.0-2.0-23.0-0.0","battery-v0.2","","""event"",""trial"",""time""
""fullscreenenter"",""1"",""5573""
","
","
","""event"",""trial"",""time""
""fullscreenenter"",""1"",""5573""
","
","","","19849.39999999851","[""True""]","0","24","18166","2282","","","","","","","","","","","","","","","","","","",""
"pit-instructions","110","1109072","0.0-2.0-23.0-1.0","battery-v0.2","","""event"",""trial"",""time""
""fullscreenenter"",""1"",""5573""
","
","
","""event"",""trial"",""time""
""fullscreenenter"",""1"",""5573""
","
","","[{""page_index"":0,""viewing_time"":2764.10000000149}]","2764.800000000745","","","","","","","","","","","","","","","","","","","","","","","",""
"pit-comprehension","111","1120051","0.0-2.0-24.0-0.0","battery-v0.2","","""event"",""trial"",""time""
""fullscreenenter"",""1"",""5573""
","
","
","""event"",""trial"",""time""
""fullscreenenter"",""1"",""5573""
","
","","","10965.700000001118","[""True""]","0","24","18166","2282","","","","","","","","","","","","","","","","","","",""
"pit-instructions","112","1122226","0.0-2.0-24.0-1.0","battery-v0.2","","""event"",""trial"",""time""
""fullscreenenter"",""1"",""5573""
","
","
","""event"",""trial"",""time""
""fullscreenenter"",""1"",""5573""
","
","","[{""page_index"":0,""viewing_time"":2079.0999999996275}]","2080.0999999996275","","","","","","","","","","","","","","","","","","","","","","","",""
"pit-comprehension","113","1131334","0.0-2.0-25.0-0.0","battery-v0.2","","""event"",""trial"",""time""
""fullscreenenter"",""1"",""5573""
","
","
","""event"",""trial"",""time""
""fullscreenenter"",""1"",""5573""
","
","","","9096.5","[""True""]","0","24","18166","2282","","","","","","","","","","","","","","","","","","",""
"pit-instructions","114","1135860","0.0-2.0-25.0-1.0","battery-v0.2","","""event"",""trial"",""time""
""fullscreenenter"",""1"",""5573""
","
","
","""event"",""trial"",""time""
""fullscreenenter"",""1"",""5573""
","
","","[{""page_index"":0,""viewing_time"":4463.200000001118}]","4464.5999999996275","","","","","","","","","","","","","","","","","","","","","","","",""
"pit-comprehension","115","1145835","0.0-2.0-26.0-0.0","battery-v0.2","","""event"",""trial"",""time""
""fullscreenenter"",""1"",""5573""
","
","
","""event"",""trial"",""time""
""fullscreenenter"",""1"",""5573""
","
","","","9961.900000000373","[""False""]","0","24","18166","2282","","","","","","","","","","","","","","","","","","",""
"pit-instructions","116","1148451","0.0-2.0-26.0-1.0","battery-v0.2","","""event"",""trial"",""time""
""fullscreenenter"",""1"",""5573""
","
","
","""event"",""trial"",""time""
""fullscreenenter"",""1"",""5573""
","
","","[{""page_index"":0,""viewing_time"":2526.199999999255}]","2527.0999999996275","","","","","","","","","","","","","","","","","","","","","","","",""
"pit-instructions","117","1166702","0.0-3.0","battery-v0.2","","""event"",""trial"",""time""
""fullscreenenter"",""1"",""5573""
","
","
","""event"",""trial"",""time""
""fullscreenenter"",""1"",""5573""
","
","","[{""page_index"":0,""viewing_time"":4539.5999999996275},{""page_index"":1,""viewing_time"":6126},{""page_index"":2,""viewing_time"":7577.300000000745}]","18244.199999999255","","","","","","","","","","","","","","","","","","","","","","","",""
"pit-trial","118","1170379","0.0-4.0","battery-v0.2","","""event"",""trial"",""time""
""fullscreenenter"",""1"",""5573""
","
","
","""event"",""trial"",""time""
""fullscreenenter"",""1"",""5573""
","
","","","812.5","","","24","18166","2282","&#9730;","elianto","#3366ff99"," "," ","1","+10","[1663]","1","1","","","18166","1","1","1","win","go","0"
"pit-trial","119","1174517","0.0-5.0","battery-v0.2","","""event"",""trial"",""time""
""fullscreenenter"",""1"",""5573""
","
","
","""event"",""trial"",""time""
""fullscreenenter"",""1"",""5573""
","
","","","1280.0999999996275","","","24","18166","2282","&#9752;","elianto","#f73b6a7A"," "," ","1","-10","[2131.5]","1","1","","","18166","2","3","3","lose","go","1"
"pit-trial","120","1178295","0.0-6.0","battery-v0.2","","""event"",""trial"",""time""
""fullscreenenter"",""1"",""5573""
","
","
","""event"",""trial"",""time""
""fullscreenenter"",""1"",""5573""
","
","","","921.2999999988824","","","24","18166","2282","&#9728;","elianto","#f73b6a7A","-1"," ","0","-10","[1771.2999999988824]","1","1","","","18166","3","0","4","lose","no-go","0"
"pit-trial","121","1182164","0.0-7.0","battery-v0.2","","""event"",""trial"",""time""
""fullscreenenter"",""1"",""5573""
","
","
","""event"",""trial"",""time""
""fullscreenenter"",""1"",""5573""
","
","","","1012.7999999988824","","","24","18166","2282","&#9733;","elianto","#3366ff99","-1"," ","0","0","[1863]","1","1","","","18166","4","2","2","win","no-go","0"
"pit-trial","122","1187022","0.0-8.0","battery-v0.2","","""event"",""trial"",""time""
""fullscreenenter"",""1"",""5573""
","
","
","""event"",""trial"",""time""
""fullscreenenter"",""1"",""5573""
","
","","","-1","","","24","18166","2282","&#9728;","elianto","#f73b6a7A","-1","-1","1","-10","[]","0","1","","","18166","5","0","4","lose","no-go","1"
"pit-trial","123","1191878","0.0-9.0","battery-v0.2","","""event"",""trial"",""time""
""fullscreenenter"",""1"",""5573""
","
","
","""event"",""trial"",""time""
""fullscreenenter"",""1"",""5573""
","
","","","-1","","","24","18166","2282","&#9733;","elianto","#3366ff99","-1","-1","1","+10","[]","0","1","","","18166","6","2","2","win","no-go","0"
"pit-trial","124","1196734","0.0-10.0","battery-v0.2","","""event"",""trial"",""time""
""fullscreenenter"",""1"",""5573""
","
","
","""event"",""trial"",""time""
""fullscreenenter"",""1"",""5573""
","
","","","-1","","","24","18166","2282","&#9752;","elianto","#f73b6a7A"," ","-1","0","-10","[]","0","1","","","18166","7","3","3","lose","go","0"
"pit-trial","125","1200296","0.0-11.0","battery-v0.2","","""event"",""trial"",""time""
""fullscreenenter"",""1"",""5573""
","
","
","""event"",""trial"",""time""
""fullscreenenter"",""1"",""5573""
","
","","","703.1999999992549","","","24","18166","2282","&#9730;","elianto","#3366ff99"," "," ","1","+10","[1553.699999999255]","1","1","","","18166","8","1","1","win","go","0"
"pit-trial","126","1203852","0.0-12.0","battery-v0.2","","""event"",""trial"",""time""
""fullscreenenter"",""1"",""5573""
","
","
","""event"",""trial"",""time""
""fullscreenenter"",""1"",""5573""
","
","","","694.4000000003725","","","24","18166","2282","&#9752;","elianto","#f73b6a7A"," "," ","1","0","[1544.5]","1","1","","","18166","9","3","3","lose","go","0"
"pit-trial","127","1207845","0.0-13.0","battery-v0.2","","""event"",""trial"",""time""
""fullscreenenter"",""1"",""5573""
","
","
","""event"",""trial"",""time""
""fullscreenenter"",""1"",""5573""
","
","","","1130.7999999988824","","","24","18166","2282","&#9730;","elianto","#3366ff99"," "," ","1","0","[1981.199999999255]","1","1","","","18166","10","1","1","win","go","1"
"pit-trial","128","1212707","0.0-14.0","battery-v0.2","","""event"",""trial"",""time""
""fullscreenenter"",""1"",""5573""
","
","
","""event"",""trial"",""time""
""fullscreenenter"",""1"",""5573""
","
","","","-1","","","24","18166","2282","&#9733;","elianto","#3366ff99","-1","-1","1","0","[]","0","1","","","18166","11","2","2","win","no-go","1"
"pit-trial","129","1216923","0.0-15.0","battery-v0.2","","""event"",""trial"",""time""
""fullscreenenter"",""1"",""5573""
","
","
","""event"",""trial"",""time""
""fullscreenenter"",""1"",""5573""
","
","","","1353.800000000745","","","24","18166","2282","&#9728;","elianto","#f73b6a7A","-1"," ","0","0","[56.19999999925494,2203.9000000003725]","2","1","","","18166","12","0","4","lose","no-go","1"
"pit-trial","130","1220754","0.0-16.0","battery-v0.2","","""event"",""trial"",""time""
""fullscreenenter"",""1"",""5573""
","
","
","""event"",""trial"",""time""
""fullscreenenter"",""1"",""5573""
","
","","","970.1000000014901","","","24","18166","2282","&#9752;","elianto","#f73b6a7A"," "," ","1","-10","[1820.2999999988824]","1","1","","","18166","13","3","3","lose","go","1"
"pit-trial","131","1224189","0.0-17.0","battery-v0.2","","""event"",""trial"",""time""
""fullscreenenter"",""1"",""5573""
","
","
","""event"",""trial"",""time""
""fullscreenenter"",""1"",""5573""
","
","","","573.7000000011176","","","24","18166","2282","&#9730;","elianto","#3366ff99"," "," ","1","+10","[1423.800000000745]","1","1","","","18166","14","1","1","win","go","0"
"pit-trial","132","1227862","0.0-18.0","battery-v0.2","","""event"",""trial"",""time""
""fullscreenenter"",""1"",""5573""
","
","
","""event"",""trial"",""time""
""fullscreenenter"",""1"",""5573""
","
","","","810.7999999988824","","","24","18166","2282","&#9733;","elianto","#3366ff99","-1"," ","0","0","[1661.2999999988824]","1","1","","","18166","15","2","2","win","no-go","0"
"pit-trial","133","1232395","0.0-19.0","battery-v0.2","","""event"",""trial"",""time""
""fullscreenenter"",""1"",""5573""
","
","
","""event"",""trial"",""time""
""fullscreenenter"",""1"",""5573""
","
","","","1672.699999999255","","","24","18166","2282","&#9728;","elianto","#f73b6a7A","-1"," ","0","-10","[2522.699999999255]","1","1","","","18166","16","0","4","lose","no-go","0"
"pit-trial","134","1236505","0.0-20.0","battery-v0.2","","""event"",""trial"",""time""
""fullscreenenter"",""1"",""5573""
","
","
","""event"",""trial"",""time""
""fullscreenenter"",""1"",""5573""
","
","","","1244.2999999988824","","","24","18166","2282","&#9752;","elianto","#f73b6a7A"," "," ","1","0","[2098.9000000003725]","1","1","","","18166","17","3","3","lose","go","0"
"pit-trial","135","1241361","0.0-21.0","battery-v0.2","","""event"",""trial"",""time""
""fullscreenenter"",""1"",""5573""
","
","
","""event"",""trial"",""time""
""fullscreenenter"",""1"",""5573""
","
","","","-1","","","24","18166","2282","&#9733;","elianto","#3366ff99","-1","-1","1","+10","[]","0","1","","","18166","18","2","2","win","no-go","0"
"pit-trial","136","1245821","0.0-22.0","battery-v0.2","","""event"",""trial"",""time""
""fullscreenenter"",""1"",""5573""
","
","
","""event"",""trial"",""time""
""fullscreenenter"",""1"",""5573""
","
","","","1598.699999999255","","","24","18166","2282","&#9728;","elianto","#f73b6a7A","-1"," ","0","0","[2448.9000000003725]","1","1","","","18166","19","0","4","lose","no-go","1"
"pit-trial","137","1249306","0.0-23.0","battery-v0.2","","""event"",""trial"",""time""
""fullscreenenter"",""1"",""5573""
","
","
","""event"",""trial"",""time""
""fullscreenenter"",""1"",""5573""
","
","","","623.3000000007451","","","24","18166","2282","&#9730;","elianto","#3366ff99"," "," ","1","+10","[1473.5]","1","1","","","18166","20","1","1","win","go","0"
"pit-instructions","138","1279177","0.0-24.0","battery-v0.2","","""event"",""trial"",""time""
""fullscreenenter"",""1"",""5573""
","
","
","""event"",""trial"",""time""
""fullscreenenter"",""1"",""5573""
","
","","[{""page_index"":0,""viewing_time"":21832.099999999627},{""page_index"":1,""viewing_time"":8027.699999999255}]","29861.299999998882","","","","","","","","","","","","","","","","","","","","","","","",""
"pit-trial","139","1283104","0.0-25.0","battery-v0.2","","""event"",""trial"",""time""
""fullscreenenter"",""1"",""5573""
","
","
","""event"",""trial"",""time""
""fullscreenenter"",""1"",""5573""
","
","","","1064.3999999985099","","","24","18166","2282","d","elianto","#3366ff99","-1"," ","0","0","[1914.699999999255]","1","2","","","18166","21","1","2","win","no-go","0"
"pit-trial","140","1287961","0.0-26.0","battery-v0.2","","""event"",""trial"",""time""
""fullscreenenter"",""1"",""5573""
","
","
","""event"",""trial"",""time""
""fullscreenenter"",""1"",""5573""
","
","","","-1","","","24","18166","2282","j","elianto","#f73b6a7A"," ","-1","0","-10","[]","0","2","","","18166","22","0","3","lose","go","0"
"pit-trial","141","1291782","0.0-27.0","battery-v0.2","","""event"",""trial"",""time""
""fullscreenenter"",""1"",""5573""
","
","
","""event"",""trial"",""time""
""fullscreenenter"",""1"",""5573""
","
","","","965","","","24","18166","2282","w","elianto","#f73b6a7A","-1"," ","0","0","[1815.5]","1","2","","","18166","23","3","4","lose","no-go","1"
"pit-trial","142","1295647","0.0-28.0","battery-v0.2","","""event"",""trial"",""time""
""fullscreenenter"",""1"",""5573""
","
","
","""event"",""trial"",""time""
""fullscreenenter"",""1"",""5573""
","
","","","1004","","","24","18166","2282","e","elianto","#f73b6a7A"," "," ","1","0","[1854.2999999988824]","1","2","","","18166","24","2","3","lose","go","0"
"pit-trial","143","1299296","0.0-29.0","battery-v0.2","","""event"",""trial"",""time""
""fullscreenenter"",""1"",""5573""
","
","
","""event"",""trial"",""time""
""fullscreenenter"",""1"",""5573""
","
","","","791.4000000003725","","","24","18166","2282","j","elianto","#f73b6a7A"," "," ","1","-10","[1641.5999999996275]","1","2","","","18166","25","0","3","lose","go","1"
"pit-trial","144","1303434","0.0-30.0","battery-v0.2","","""event"",""trial"",""time""
""fullscreenenter"",""1"",""5573""
","
","
","""event"",""trial"",""time""
""fullscreenenter"",""1"",""5573""
","
","","","1277.7000000011176","","","24","18166","2282","d","elianto","#3366ff99","-1"," ","0","0","[2128.199999999255]","1","2","","","18166","26","1","2","win","no-go","0"
"pit-trial","145","1306931","0.0-31.0","battery-v0.2","","""event"",""trial"",""time""
""fullscreenenter"",""1"",""5573""
","
","
","""event"",""trial"",""time""
""fullscreenenter"",""1"",""5573""
","
","","","640","","","24","18166","2282","w","elianto","#f73b6a7A","-1"," ","0","-10","[1490.0999999996275]","1","2","","","18166","27","3","4","lose","no-go","0"
"pit-trial","146","1310337","0.0-32.0","battery-v0.2","","""event"",""trial"",""time""
""fullscreenenter"",""1"",""5573""
","
","
","""event"",""trial"",""time""
""fullscreenenter"",""1"",""5573""
","
","","","548.8000000007451","","","24","18166","2282","e","elianto","#f73b6a7A"," "," ","1","0","[1398.8999999985099]","1","2","","","18166","28","2","3","lose","go","0"
"pit-trial","147","1314363","0.0-33.0","battery-v0.2","","""event"",""trial"",""time""
""fullscreenenter"",""1"",""5573""
","
","
","""event"",""trial"",""time""
""fullscreenenter"",""1"",""5573""
","
","","","1165.199999999255","","","24","18166","2282","d","elianto","#3366ff99","-1"," ","0","0","[2018]","1","2","","","18166","29","1","2","win","no-go","0"
"pit-trial","148","1318170","0.0-34.0","battery-v0.2","","""event"",""trial"",""time""
""fullscreenenter"",""1"",""5573""
","
","
","""event"",""trial"",""time""
""fullscreenenter"",""1"",""5573""
","
","","","948","","","24","18166","2282","e","elianto","#f73b6a7A"," "," ","1","0","[1798.5]","1","2","","","18166","30","2","3","lose","go","0"
"pit-trial","149","1323031","0.0-35.0","battery-v0.2","","""event"",""trial"",""time""
""fullscreenenter"",""1"",""5573""
","
","
","""event"",""trial"",""time""
""fullscreenenter"",""1"",""5573""
","
","","","-1","","","24","18166","2282","j","elianto","#f73b6a7A"," ","-1","0","0","[]","0","2","","","18166","31","0","3","lose","go","1"
"pit-trial","150","1326783","0.0-36.0","battery-v0.2","","""event"",""trial"",""time""
""fullscreenenter"",""1"",""5573""
","
","
","""event"",""trial"",""time""
""fullscreenenter"",""1"",""5573""
","
","","","889.0999999996275","","","24","18166","2282","w","elianto","#f73b6a7A","-1"," ","0","-10","[1739.199999999255]","1","2","","","18166","32","3","4","lose","no-go","0"
"pit-trial","151","1331294","0.0-37.0","battery-v0.2","","""event"",""trial"",""time""
""fullscreenenter"",""1"",""5573""
","
","
","""event"",""trial"",""time""
""fullscreenenter"",""1"",""5573""
","
","","","1649.5","","","24","18166","2282","e","elianto","#f73b6a7A"," "," ","1","-10","[2500]","1","2","","","18166","33","2","3","lose","go","1"
"pit-trial","152","1336156","0.0-38.0","battery-v0.2","","""event"",""trial"",""time""
""fullscreenenter"",""1"",""5573""
","
","
","""event"",""trial"",""time""
""fullscreenenter"",""1"",""5573""
","
","","","-1","","","24","18166","2282","j","elianto","#f73b6a7A"," ","-1","0","-10","[]","0","2","","","18166","34","0","3","lose","go","0"
"pit-trial","153","1341017","0.0-39.0","battery-v0.2","","""event"",""trial"",""time""
""fullscreenenter"",""1"",""5573""
","
","
","""event"",""trial"",""time""
""fullscreenenter"",""1"",""5573""
","
","","","-1","","","24","18166","2282","d","elianto","#3366ff99","-1","-1","1","+10","[]","0","2","","","18166","35","1","2","win","no-go","0"
"pit-trial","154","1345878","0.0-40.0","battery-v0.2","","""event"",""trial"",""time""
""fullscreenenter"",""1"",""5573""
","
","
","""event"",""trial"",""time""
""fullscreenenter"",""1"",""5573""
","
","","","-1","","","24","18166","2282","w","elianto","#f73b6a7A","-1","-1","1","0","[]","0","2","","","18166","36","3","4","lose","no-go","0"
"pit-trial","155","1350736","0.0-41.0","battery-v0.2","","""event"",""trial"",""time""
""fullscreenenter"",""1"",""5573""
","
","
","""event"",""trial"",""time""
""fullscreenenter"",""1"",""5573""
","
","","","-1","","","24","18166","2282","w","elianto","#f73b6a7A","-1","-1","1","0","[]","0","2","","","18166","37","3","4","lose","no-go","0"
"pit-trial","156","1355598","0.0-42.0","battery-v0.2","","""event"",""trial"",""time""
""fullscreenenter"",""1"",""5573""
","
","
","""event"",""trial"",""time""
""fullscreenenter"",""1"",""5573""
","
","","","-1","","","24","18166","2282","j","elianto","#f73b6a7A"," ","-1","0","-10","[]","0","2","","","18166","38","0","3","lose","go","0"
"pit-trial","157","1360460","0.0-43.0","battery-v0.2","","""event"",""trial"",""time""
""fullscreenenter"",""1"",""5573""
","
","
","""event"",""trial"",""time""
""fullscreenenter"",""1"",""5573""
","
","","","-1","","","24","18166","2282","e","elianto","#f73b6a7A"," ","-1","0","-10","[]","0","2","","","18166","39","2","3","lose","go","0"
"pit-trial","158","1364005","0.0-44.0","battery-v0.2","","""event"",""trial"",""time""
""fullscreenenter"",""1"",""5573""
","
","
","""event"",""trial"",""time""
""fullscreenenter"",""1"",""5573""
","
","","","681.6000000014901","","","24","18166","2282","d","elianto","#3366ff99","-1"," ","0","0","[1538.199999999255]","1","2","","","18166","40","1","2","win","no-go","0"
"pit-trial","159","1368867","0.0-45.0","battery-v0.2","","""event"",""trial"",""time""
""fullscreenenter"",""1"",""5573""
","
","
","""event"",""trial"",""time""
""fullscreenenter"",""1"",""5573""
","
","","","-1","","","24","18166","2282","w","elianto","#f73b6a7A","-1","-1","1","0","[]","0","2","","","18166","41","3","4","lose","no-go","0"
"pit-trial","160","1372900","0.0-46.0","battery-v0.2","","""event"",""trial"",""time""
""fullscreenenter"",""1"",""5573""
","
","
","""event"",""trial"",""time""
""fullscreenenter"",""1"",""5573""
","
","","","1171","","","24","18166","2282","d","elianto","#3366ff99","-1"," ","0","0","[2021]","1","2","","","18166","42","1","2","win","no-go","0"
"pit-trial","161","1377762","0.0-47.0","battery-v0.2","","""event"",""trial"",""time""
""fullscreenenter"",""1"",""5573""
","
","
","""event"",""trial"",""time""
""fullscreenenter"",""1"",""5573""
","
","","","-1","","","24","18166","2282","e","elianto","#f73b6a7A"," ","-1","0","-10","[3287.9000000003725]","1","2","","","18166","43","2","3","lose","go","0"
"pit-trial","162","1382004","0.0-48.0","battery-v0.2","","""event"",""trial"",""time""
""fullscreenenter"",""1"",""5573""
","
","
","""event"",""trial"",""time""
""fullscreenenter"",""1"",""5573""
","
","","","1382.5","","","24","18166","2282","j","elianto","#f73b6a7A"," "," ","1","0","[2232.5999999996275]","1","2","","","18166","44","0","3","lose","go","0"
"pit-trial","163","1385747","0.0-49.0","battery-v0.2","","""event"",""trial"",""time""
""fullscreenenter"",""1"",""5573""
","
","
","""event"",""trial"",""time""
""fullscreenenter"",""1"",""5573""
","
","","","879.5999999996275","","","24","18166","2282","j","elianto","#f73b6a7A"," "," ","1","-10","[1729.699999999255]","1","2","","","18166","45","0","3","lose","go","1"
"pit-trial","164","1389851","0.0-50.0","battery-v0.2","","""event"",""trial"",""time""
""fullscreenenter"",""1"",""5573""
","
","
","""event"",""trial"",""time""
""fullscreenenter"",""1"",""5573""
","
","","","1242.800000000745","","","24","18166","2282","e","elianto","#f73b6a7A"," "," ","1","0","[2093.800000000745]","1","2","","","18166","46","2","3","lose","go","0"
"pit-trial","165","1394713","0.0-51.0","battery-v0.2","","""event"",""trial"",""time""
""fullscreenenter"",""1"",""5573""
","
","
","""event"",""trial"",""time""
""fullscreenenter"",""1"",""5573""
","
","","","-1","","","24","18166","2282","w","elianto","#f73b6a7A","-1","-1","1","0","[]","0","2","","","18166","47","3","4","lose","no-go","0"
"pit-trial","166","1399575","0.0-52.0","battery-v0.2","","""event"",""trial"",""time""
""fullscreenenter"",""1"",""5573""
","
","
","""event"",""trial"",""time""
""fullscreenenter"",""1"",""5573""
","
","","","-1","","","24","18166","2282","d","elianto","#3366ff99","-1","-1","1","0","[]","0","2","","","18166","48","1","2","win","no-go","1"
"pit-trial","167","1404437","0.0-53.0","battery-v0.2","","""event"",""trial"",""time""
""fullscreenenter"",""1"",""5573""
","
","
","""event"",""trial"",""time""
""fullscreenenter"",""1"",""5573""
","
","","","-1","","","24","18166","2282","w","elianto","#f73b6a7A","-1","-1","1","-10","[]","0","2","","","18166","49","3","4","lose","no-go","1"
"pit-trial","168","1409299","0.0-54.0","battery-v0.2","","""event"",""trial"",""time""
""fullscreenenter"",""1"",""5573""
","
","
","""event"",""trial"",""time""
""fullscreenenter"",""1"",""5573""
","
","","","-1","","","24","18166","2282","d","elianto","#3366ff99","-1","-1","1","+10","[]","0","2","","","18166","50","1","2","win","no-go","0"
"pit-trial","169","1414160","0.0-55.0","battery-v0.2","","""event"",""trial"",""time""
""fullscreenenter"",""1"",""5573""
","
","
","""event"",""trial"",""time""
""fullscreenenter"",""1"",""5573""
","
","","","-1","","","24","18166","2282","j","elianto","#f73b6a7A"," ","-1","0","-10","[]","0","2","","","18166","51","0","3","lose","go","0"
"pit-trial","170","1418981","0.0-56.0","battery-v0.2","","""event"",""trial"",""time""
""fullscreenenter"",""1"",""5573""
","
","
","""event"",""trial"",""time""
""fullscreenenter"",""1"",""5573""
","
","","","1959.4000000003725","","","24","18166","2282","e","elianto","#f73b6a7A"," "," ","1","0","[2809.5]","1","2","","","18166","52","2","3","lose","go","0"
"pit-trial","171","1422746","0.0-57.0","battery-v0.2","","""event"",""trial"",""time""
""fullscreenenter"",""1"",""5573""
","
","
","""event"",""trial"",""time""
""fullscreenenter"",""1"",""5573""
","
","","","902.7000000011176","","","24","18166","2282","e","elianto","#f73b6a7A"," "," ","1","0","[1753.2000000011176]","1","2","","","18166","53","2","3","lose","go","0"
"pit-trial","172","1427609","0.0-58.0","battery-v0.2","","""event"",""trial"",""time""
""fullscreenenter"",""1"",""5573""
","
","
","""event"",""trial"",""time""
""fullscreenenter"",""1"",""5573""
","
","","","-1","","","24","18166","2282","d","elianto","#3366ff99","-1","-1","1","+10","[]","0","2","","","18166","54","1","2","win","no-go","0"
"pit-trial","173","1432127","0.0-59.0","battery-v0.2","","""event"",""trial"",""time""
""fullscreenenter"",""1"",""5573""
","
","
","""event"",""trial"",""time""
""fullscreenenter"",""1"",""5573""
","
","","","1654.2000000011176","","","24","18166","2282","w","elianto","#f73b6a7A","-1"," ","0","-10","[2504.5]","1","2","","","18166","55","3","4","lose","no-go","0"
"pit-trial","174","1436271","0.0-60.0","battery-v0.2","","""event"",""trial"",""time""
""fullscreenenter"",""1"",""5573""
","
","
","""event"",""trial"",""time""
""fullscreenenter"",""1"",""5573""
","
","","","1282.6000000014901","","","24","18166","2282","j","elianto","#f73b6a7A"," "," ","1","0","[2132.699999999255]","1","2","","","18166","56","0","3","lose","go","0"
"pit-trial","175","1440906","0.0-61.0","battery-v0.2","","""event"",""trial"",""time""
""fullscreenenter"",""1"",""5573""
","
","
","""event"",""trial"",""time""
""fullscreenenter"",""1"",""5573""
","
","","","1772.1000000014901","","","24","18166","2282","s","elianto","#3366ff99"," "," ","1","0","[2622.0999999996275]","1","2","","","18166","57","4","1","win","go","1"
"pit-trial","176","1445767","0.0-62.0","battery-v0.2","","""event"",""trial"",""time""
""fullscreenenter"",""1"",""5573""
","
","
","""event"",""trial"",""time""
""fullscreenenter"",""1"",""5573""
","
","","","-1","","","24","18166","2282","e","elianto","#f73b6a7A"," ","-1","0","-10","[3408]","1","2","","","18166","58","2","3","lose","go","0"
"pit-trial","177","1450629","0.0-63.0","battery-v0.2","","""event"",""trial"",""time""
""fullscreenenter"",""1"",""5573""
","
","
","""event"",""trial"",""time""
""fullscreenenter"",""1"",""5573""
","
","","","-1","","","24","18166","2282","w","elianto","#f73b6a7A","-1","-1","1","-10","[]","0","2","","","18166","59","3","4","lose","no-go","1"
"pit-trial","178","1455403","0.0-64.0","battery-v0.2","","""event"",""trial"",""time""
""fullscreenenter"",""1"",""5573""
","
","
","""event"",""trial"",""time""
""fullscreenenter"",""1"",""5573""
","
","","","1912","","","24","18166","2282","j","elianto","#f73b6a7A"," "," ","1","0","[2762.0999999996275]","1","2","","","18166","60","0","3","lose","go","0"
"pit-trial","179","1460265","0.0-65.0","battery-v0.2","","""event"",""trial"",""time""
""fullscreenenter"",""1"",""5573""
","
","
","""event"",""trial"",""time""
""fullscreenenter"",""1"",""5573""
","
","","","-1","","","24","18166","2282","d","elianto","#3366ff99","-1","-1","1","0","[]","0","2","","","18166","61","1","2","win","no-go","1"
"pit-trial","180","1465126","0.0-66.0","battery-v0.2","","""event"",""trial"",""time""
""fullscreenenter"",""1"",""5573""
","
","
","""event"",""trial"",""time""
""fullscreenenter"",""1"",""5573""
","
","","","-1","","","24","18166","2282","s","elianto","#3366ff99"," ","-1","0","0","[]","0","2","","","18166","62","4","1","win","go","0"
"pit-trial","181","1469326","0.0-67.0","battery-v0.2","","""event"",""trial"",""time""
""fullscreenenter"",""1"",""5573""
","
","
","""event"",""trial"",""time""
""fullscreenenter"",""1"",""5573""
","
","","","1340","","","24","18166","2282","e","elianto","#f73b6a7A"," "," ","1","-10","[2190.0999999996275]","1","2","","","18166","63","2","3","lose","go","1"
"pit-trial","182","1474187","0.0-68.0","battery-v0.2","","""event"",""trial"",""time""
""fullscreenenter"",""1"",""5573""
","
","
","""event"",""trial"",""time""
""fullscreenenter"",""1"",""5573""
","
","","","-1","","","24","18166","2282","w","elianto","#f73b6a7A","-1","-1","1","-10","[]","0","2","","","18166","64","3","4","lose","no-go","1"
"pit-trial","183","1478817","0.0-69.0","battery-v0.2","","""event"",""trial"",""time""
""fullscreenenter"",""1"",""5573""
","
","
","""event"",""trial"",""time""
""fullscreenenter"",""1"",""5573""
","
","","","1768.2999999988824","","","24","18166","2282","s","elianto","#3366ff99"," "," ","1","+10","[2618.4000000003725]","1","2","","","18166","65","4","1","win","go","0"
"pit-trial","184","1483679","0.0-70.0","battery-v0.2","","""event"",""trial"",""time""
""fullscreenenter"",""1"",""5573""
","
","
","""event"",""trial"",""time""
""fullscreenenter"",""1"",""5573""
","
","","","-1","","","24","18166","2282","p","elianto","#3366ff99","-1","-1","1","0","[]","0","2","","","18166","66","5","2","win","no-go","1"
"pit-trial","185","1488541","0.0-71.0","battery-v0.2","","""event"",""trial"",""time""
""fullscreenenter"",""1"",""5573""
","
","
","""event"",""trial"",""time""
""fullscreenenter"",""1"",""5573""
","
","","","-1","","","24","18166","2282","w","elianto","#f73b6a7A","-1","-1","1","0","[]","0","2","","","18166","67","3","4","lose","no-go","0"
"pit-trial","186","1493402","0.0-72.0","battery-v0.2","","""event"",""trial"",""time""
""fullscreenenter"",""1"",""5573""
","
","
","""event"",""trial"",""time""
""fullscreenenter"",""1"",""5573""
","
","","","-1","","","24","18166","2282","d","elianto","#3366ff99","-1","-1","1","+10","[]","0","2","","","18166","68","1","2","win","no-go","0"
"pit-trial","187","1498264","0.0-73.0","battery-v0.2","","""event"",""trial"",""time""
""fullscreenenter"",""1"",""5573""
","
","
","""event"",""trial"",""time""
""fullscreenenter"",""1"",""5573""
","
","","","-1","","","24","18166","2282","e","elianto","#f73b6a7A"," ","-1","0","-10","[]","0","2","","","18166","69","2","3","lose","go","0"
"pit-trial","188","1503125","0.0-74.0","battery-v0.2","","""event"",""trial"",""time""
""fullscreenenter"",""1"",""5573""
","
","
","""event"",""trial"",""time""
""fullscreenenter"",""1"",""5573""
","
","","","-1","","","24","18166","2282","d","elianto","#3366ff99","-1","-1","1","0","[]","0","2","","","18166","70","1","2","win","no-go","1"
"pit-trial","189","1507331","0.0-75.0","battery-v0.2","","""event"",""trial"",""time""
""fullscreenenter"",""1"",""5573""
","
","
","""event"",""trial"",""time""
""fullscreenenter"",""1"",""5573""
","
","","","1351","","","24","18166","2282","s","elianto","#3366ff99"," "," ","1","+10","[2201.0999999996275]","1","2","","","18166","71","4","1","win","go","0"
"pit-trial","190","1511579","0.0-76.0","battery-v0.2","","""event"",""trial"",""time""
""fullscreenenter"",""1"",""5573""
","
","
","""event"",""trial"",""time""
""fullscreenenter"",""1"",""5573""
","
","","","1388.300000000745","","","24","18166","2282","p","elianto","#3366ff99","-1"," ","0","0","[2241.5]","1","2","","","18166","72","5","2","win","no-go","0"
"pit-trial","191","1516440","0.0-77.0","battery-v0.2","","""event"",""trial"",""time""
""fullscreenenter"",""1"",""5573""
","
","
","""event"",""trial"",""time""
""fullscreenenter"",""1"",""5573""
","
","","","-1","","","24","18166","2282","d","elianto","#3366ff99","-1","-1","1","0","[]","0","2","","","18166","73","1","2","win","no-go","1"
"pit-trial","192","1521089","0.0-78.0","battery-v0.2","","""event"",""trial"",""time""
""fullscreenenter"",""1"",""5573""
","
","
","""event"",""trial"",""time""
""fullscreenenter"",""1"",""5573""
","
","","","1787.3999999985099","","","24","18166","2282","w","elianto","#f73b6a7A","-1"," ","0","-10","[2636.9000000003725]","1","2","","","18166","74","3","4","lose","no-go","0"
"pit-trial","193","1525950","0.0-79.0","battery-v0.2","","""event"",""trial"",""time""
""fullscreenenter"",""1"",""5573""
","
","
","""event"",""trial"",""time""
""fullscreenenter"",""1"",""5573""
","
","","","-1","","","24","18166","2282","p","elianto","#3366ff99","-1","-1","1","+10","[]","0","2","","","18166","75","5","2","win","no-go","0"
"pit-trial","194","1530472","0.0-80.0","battery-v0.2","","""event"",""trial"",""time""
""fullscreenenter"",""1"",""5573""
","
","
","""event"",""trial"",""time""
""fullscreenenter"",""1"",""5573""
","
","","","1660.7999999988824","","","24","18166","2282","s","elianto","#3366ff99"," "," ","1","0","[2510.9000000003725]","1","2","","","18166","76","4","1","win","go","1"
"pit-trial","195","1534396","0.0-81.0","battery-v0.2","","""event"",""trial"",""time""
""fullscreenenter"",""1"",""5573""
","
","
","""event"",""trial"",""time""
""fullscreenenter"",""1"",""5573""
","
","","","1058.0999999996275","","","24","18166","2282","s","elianto","#3366ff99"," "," ","1","+10","[1911.5]","1","2","","","18166","77","4","1","win","go","0"
"pit-trial","196","1539257","0.0-82.0","battery-v0.2","","""event"",""trial"",""time""
""fullscreenenter"",""1"",""5573""
","
","
","""event"",""trial"",""time""
""fullscreenenter"",""1"",""5573""
","
","","","-1","","","24","18166","2282","w","elianto","#f73b6a7A","-1","-1","1","0","[]","0","2","","","18166","78","3","4","lose","no-go","0"
"pit-trial","197","1544118","0.0-83.0","battery-v0.2","","""event"",""trial"",""time""
""fullscreenenter"",""1"",""5573""
","
","
","""event"",""trial"",""time""
""fullscreenenter"",""1"",""5573""
","
","","","-1","","","24","18166","2282","p","elianto","#3366ff99","-1","-1","1","0","[3091.5999999996275]","1","2","","","18166","79","5","2","win","no-go","1"
"pit-trial","198","1548845","0.0-84.0","battery-v0.2","","""event"",""trial"",""time""
""fullscreenenter"",""1"",""5573""
","
","
","""event"",""trial"",""time""
""fullscreenenter"",""1"",""5573""
","
","","","1867.2000000011176","","","24","18166","2282","s","elianto","#3366ff99"," "," ","1","+10","[2717.4000000003725]","1","2","","","18166","80","4","1","win","go","0"
"pit-trial","199","1553707","0.0-85.0","battery-v0.2","","""event"",""trial"",""time""
""fullscreenenter"",""1"",""5573""
","
","
","""event"",""trial"",""time""
""fullscreenenter"",""1"",""5573""
","
","","","-1","","","24","18166","2282","w","elianto","#f73b6a7A","-1","-1","1","0","[]","0","2","","","18166","81","3","4","lose","no-go","0"
"pit-trial","200","1558122","0.0-86.0","battery-v0.2","","""event"",""trial"",""time""
""fullscreenenter"",""1"",""5573""
","
","
","""event"",""trial"",""time""
""fullscreenenter"",""1"",""5573""
","
","","","1551","","","24","18166","2282","a","elianto","#f73b6a7A","-1"," ","0","-10","[2401.39999999851]","1","2","","","18166","82","7","4","lose","no-go","0"
"pit-trial","201","1561977","0.0-87.0","battery-v0.2","","""event"",""trial"",""time""
""fullscreenenter"",""1"",""5573""
","
","
","""event"",""trial"",""time""
""fullscreenenter"",""1"",""5573""
","
","","","998.5999999996275","","","24","18166","2282","s","elianto","#3366ff99"," "," ","1","+10","[1848.6000000014901]","1","2","","","18166","83","4","1","win","go","0"
"pit-trial","202","1565714","0.0-88.0","battery-v0.2","","""event"",""trial"",""time""
""fullscreenenter"",""1"",""5573""
","
","
","""event"",""trial"",""time""
""fullscreenenter"",""1"",""5573""
","
","","","874.9000000003725","","","24","18166","2282","p","elianto","#3366ff99","-1"," ","0","+10","[1725.5]","1","2","","","18166","84","5","2","win","no-go","1"
"pit-trial","203","1569858","0.0-89.0","battery-v0.2","","""event"",""trial"",""time""
""fullscreenenter"",""1"",""5573""
","
","
","""event"",""trial"",""time""
""fullscreenenter"",""1"",""5573""
","
","","","1283.5","","","24","18166","2282","p","elianto","#3366ff99","-1"," ","0","0","[2133.7000000011176]","1","2","","","18166","85","5","2","win","no-go","0"
"pit-trial","204","1574350","0.0-90.0","battery-v0.2","","""event"",""trial"",""time""
""fullscreenenter"",""1"",""5573""
","
","
","""event"",""trial"",""time""
""fullscreenenter"",""1"",""5573""
","
","","","1628.9000000003725","","","24","18166","2282","g","elianto","#f73b6a7A"," "," ","1","0","[2479]","1","2","","","18166","86","6","3","lose","go","0"
"pit-trial","205","1579211","0.0-91.0","battery-v0.2","","""event"",""trial"",""time""
""fullscreenenter"",""1"",""5573""
","
","
","""event"",""trial"",""time""
""fullscreenenter"",""1"",""5573""
","
","","","-1","","","24","18166","2282","a","elianto","#f73b6a7A","-1","-1","1","0","[]","0","2","","","18166","87","7","4","lose","no-go","0"
"pit-trial","206","1583269","0.0-92.0","battery-v0.2","","""event"",""trial"",""time""
""fullscreenenter"",""1"",""5573""
","
","
","""event"",""trial"",""time""
""fullscreenenter"",""1"",""5573""
","
","","","1196.1000000014901","","","24","18166","2282","s","elianto","#3366ff99"," "," ","1","+10","[2046.2000000011176]","1","2","","","18166","88","4","1","win","go","0"
"pit-trial","207","1586839","0.0-93.0","battery-v0.2","","""event"",""trial"",""time""
""fullscreenenter"",""1"",""5573""
","
","
","""event"",""trial"",""time""
""fullscreenenter"",""1"",""5573""
","
","","","706.6000000014901","","","24","18166","2282","s","elianto","#3366ff99"," "," ","1","+10","[1558.2999999988824]","1","2","","","18166","89","4","1","win","go","0"
"pit-trial","208","1591702","0.0-94.0","battery-v0.2","","""event"",""trial"",""time""
""fullscreenenter"",""1"",""5573""
","
","
","""event"",""trial"",""time""
""fullscreenenter"",""1"",""5573""
","
","","","-1","","","24","18166","2282","g","elianto","#f73b6a7A"," ","-1","0","-10","[]","0","2","","","18166","90","6","3","lose","go","0"
"pit-trial","209","1595606","0.0-95.0","battery-v0.2","","""event"",""trial"",""time""
""fullscreenenter"",""1"",""5573""
","
","
","""event"",""trial"",""time""
""fullscreenenter"",""1"",""5573""
","
","","","1044.4000000003725","","","24","18166","2282","p","elianto","#3366ff99","-1"," ","0","0","[1894.5]","1","2","","","18166","91","5","2","win","no-go","0"
"pit-trial","210","1600468","0.0-96.0","battery-v0.2","","""event"",""trial"",""time""
""fullscreenenter"",""1"",""5573""
","
","
","""event"",""trial"",""time""
""fullscreenenter"",""1"",""5573""
","
","","","-1","","","24","18166","2282","a","elianto","#f73b6a7A","-1","-1","1","-10","[4053.7000000011176]","1","2","","","18166","92","7","4","lose","no-go","1"
"pit-trial","211","1604117","0.0-97.0","battery-v0.2","","""event"",""trial"",""time""
""fullscreenenter"",""1"",""5573""
","
","
","""event"",""trial"",""time""
""fullscreenenter"",""1"",""5573""
","
","","","786.1999999992549","","","24","18166","2282","a","elianto","#f73b6a7A","-1"," ","0","0","[1638]","1","2","","","18166","93","7","4","lose","no-go","1"
"pit-trial","212","1607698","0.0-98.0","battery-v0.2","","""event"",""trial"",""time""
""fullscreenenter"",""1"",""5573""
","
","
","""event"",""trial"",""time""
""fullscreenenter"",""1"",""5573""
","
","","","716.4000000003725","","","24","18166","2282","p","elianto","#3366ff99","-1"," ","0","0","[1572]","1","2","","","18166","94","5","2","win","no-go","0"
"pit-trial","213","1611791","0.0-99.0","battery-v0.2","","""event"",""trial"",""time""
""fullscreenenter"",""1"",""5573""
","
","
","""event"",""trial"",""time""
""fullscreenenter"",""1"",""5573""
","
","","","1231.1000000014901","","","24","18166","2282","l","elianto","#3366ff99"," "," ","1","+10","[2081.0999999996275]","1","2","","","18166","95","8","1","win","go","0"
"pit-trial","214","1615929","0.0-100.0","battery-v0.2","","""event"",""trial"",""time""
""fullscreenenter"",""1"",""5573""
","
","
","""event"",""trial"",""time""
""fullscreenenter"",""1"",""5573""
","
","","","1273","","","24","18166","2282","g","elianto","#f73b6a7A"," "," ","1","0","[2125.9000000003725]","1","2","","","18166","96","6","3","lose","go","0"
"pit-trial","215","1619751","0.0-101.0","battery-v0.2","","""event"",""trial"",""time""
""fullscreenenter"",""1"",""5573""
","
","
","""event"",""trial"",""time""
""fullscreenenter"",""1"",""5573""
","
","","","960.9000000003725","","","24","18166","2282","g","elianto","#f73b6a7A"," "," ","1","0","[1811.0999999996275]","1","2","","","18166","97","6","3","lose","go","0"
"pit-trial","216","1623269","0.0-102.0","battery-v0.2","","""event"",""trial"",""time""
""fullscreenenter"",""1"",""5573""
","
","
","""event"",""trial"",""time""
""fullscreenenter"",""1"",""5573""
","
","","","659.5","","","24","18166","2282","p","elianto","#3366ff99","-1"," ","0","0","[1509.699999999255]","1","2","","","18166","98","5","2","win","no-go","0"
"pit-trial","217","1627171","0.0-103.0","battery-v0.2","","""event"",""trial"",""time""
""fullscreenenter"",""1"",""5573""
","
","
","""event"",""trial"",""time""
""fullscreenenter"",""1"",""5573""
","
","","","1040.699999999255","","","24","18166","2282","a","elianto","#f73b6a7A","-1"," ","0","-10","[1890.7999999988824]","1","2","","","18166","99","7","4","lose","no-go","0"
"pit-trial","218","1631037","0.0-104.0","battery-v0.2","","""event"",""trial"",""time""
""fullscreenenter"",""1"",""5573""
","
","
","""event"",""trial"",""time""
""fullscreenenter"",""1"",""5573""
","
","","","1003.4000000003725","","","24","18166","2282","l","elianto","#3366ff99"," "," ","1","+10","[1853.9000000003725]","1","2","","","18166","100","8","1","win","go","0"
"pit-trial","219","1634584","0.0-105.0","battery-v0.2","","""event"",""trial"",""time""
""fullscreenenter"",""1"",""5573""
","
","
","""event"",""trial"",""time""
""fullscreenenter"",""1"",""5573""
","
","","","686.5999999996275","","","24","18166","2282","l","elianto","#3366ff99"," "," ","1","0","[1537.0999999996275]","1","2","","","18166","101","8","1","win","go","1"
"pit-trial","220","1638384","0.0-106.0","battery-v0.2","","""event"",""trial"",""time""
""fullscreenenter"",""1"",""5573""
","
","
","""event"",""trial"",""time""
""fullscreenenter"",""1"",""5573""
","
","","","937.7000000011176","","","24","18166","2282","u","elianto","#3366ff99"," "," ","1","+10","[1789.199999999255]","1","2","","","18166","102","9","1","win","go","0"
"pit-trial","221","1641923","0.0-107.0","battery-v0.2","","""event"",""trial"",""time""
""fullscreenenter"",""1"",""5573""
","
","
","""event"",""trial"",""time""
""fullscreenenter"",""1"",""5573""
","
","","","676.8000000007451","","","24","18166","2282","p","elianto","#3366ff99","-1"," ","0","+10","[1527.3999999985099]","1","2","","","18166","103","5","2","win","no-go","1"
"pit-trial","222","1646786","0.0-108.0","battery-v0.2","","""event"",""trial"",""time""
""fullscreenenter"",""1"",""5573""
","
","
","""event"",""trial"",""time""
""fullscreenenter"",""1"",""5573""
","
","","","-1","","","24","18166","2282","a","elianto","#f73b6a7A","-1","-1","1","0","[]","0","2","","","18166","104","7","4","lose","no-go","0"
"pit-trial","223","1650470","0.0-109.0","battery-v0.2","","""event"",""trial"",""time""
""fullscreenenter"",""1"",""5573""
","
","
","""event"",""trial"",""time""
""fullscreenenter"",""1"",""5573""
","
","","","822","","","24","18166","2282","l","elianto","#3366ff99"," "," ","1","+10","[1672.300000000745]","1","2","","","18166","105","8","1","win","go","0"
"pit-trial","224","1654209","0.0-110.0","battery-v0.2","","""event"",""trial"",""time""
""fullscreenenter"",""1"",""5573""
","
","
","""event"",""trial"",""time""
""fullscreenenter"",""1"",""5573""
","
","","","875.6999999992549","","","24","18166","2282","s","elianto","#3366ff99"," "," ","1","+10","[1727.5999999996275]","1","2","","","18166","106","4","1","win","go","0"
"pit-trial","225","1658414","0.0-111.0","battery-v0.2","","""event"",""trial"",""time""
""fullscreenenter"",""1"",""5573""
","
","
","""event"",""trial"",""time""
""fullscreenenter"",""1"",""5573""
","
","","","1342.9000000003725","","","24","18166","2282","g","elianto","#f73b6a7A"," "," ","1","0","[2193.300000000745]","1","2","","","18166","107","6","3","lose","go","0"
"pit-trial","226","1662800","0.0-112.0","battery-v0.2","","""event"",""trial"",""time""
""fullscreenenter"",""1"",""5573""
","
","
","""event"",""trial"",""time""
""fullscreenenter"",""1"",""5573""
","
","","","1525.5999999996275","","","24","18166","2282","u","elianto","#3366ff99"," "," ","1","+10","[2375.9000000003725]","1","2","","","18166","108","9","1","win","go","0"
"pit-trial","227","1666428","0.0-113.0","battery-v0.2","","""event"",""trial"",""time""
""fullscreenenter"",""1"",""5573""
","
","
","""event"",""trial"",""time""
""fullscreenenter"",""1"",""5573""
","
","","","765.5999999996275","","","24","18166","2282","l","elianto","#3366ff99"," "," ","1","+10","[1615.5]","1","2","","","18166","109","8","1","win","go","0"
"pit-trial","228","1670211","0.0-114.0","battery-v0.2","","""event"",""trial"",""time""
""fullscreenenter"",""1"",""5573""
","
","
","""event"",""trial"",""time""
""fullscreenenter"",""1"",""5573""
","
","","","920.9000000003725","","","24","18166","2282","u","elianto","#3366ff99"," "," ","1","+10","[1771.199999999255]","1","2","","","18166","110","9","1","win","go","0"
"pit-trial","229","1674475","0.0-115.0","battery-v0.2","","""event"",""trial"",""time""
""fullscreenenter"",""1"",""5573""
","
","
","""event"",""trial"",""time""
""fullscreenenter"",""1"",""5573""
","
","","","1403.5999999996275","","","24","18166","2282","g","elianto","#f73b6a7A"," "," ","1","0","[2253.7999999988824]","1","2","","","18166","111","6","3","lose","go","0"
"pit-trial","230","1678011","0.0-116.0","battery-v0.2","","""event"",""trial"",""time""
""fullscreenenter"",""1"",""5573""
","
","
","""event"",""trial"",""time""
""fullscreenenter"",""1"",""5573""
","
","","","670.1999999992549","","","24","18166","2282","p","elianto","#3366ff99","-1"," ","0","0","[1520.6000000014901]","1","2","","","18166","112","5","2","win","no-go","0"
"pit-trial","231","1681651","0.0-117.0","battery-v0.2","","""event"",""trial"",""time""
""fullscreenenter"",""1"",""5573""
","
","
","""event"",""trial"",""time""
""fullscreenenter"",""1"",""5573""
","
","","","774.3999999985099","","","24","18166","2282","p","elianto","#3366ff99","-1"," ","0","+10","[1627]","1","2","","","18166","113","5","2","win","no-go","1"
"pit-trial","232","1685369","0.0-118.0","battery-v0.2","","""event"",""trial"",""time""
""fullscreenenter"",""1"",""5573""
","
","
","""event"",""trial"",""time""
""fullscreenenter"",""1"",""5573""
","
","","","856.9000000003725","","","24","18166","2282","u","elianto","#3366ff99"," "," ","1","+10","[1707.0999999996275]","1","2","","","18166","114","9","1","win","go","0"
"pit-trial","233","1688949","0.0-119.0","battery-v0.2","","""event"",""trial"",""time""
""fullscreenenter"",""1"",""5573""
","
","
","""event"",""trial"",""time""
""fullscreenenter"",""1"",""5573""
","
","","","722.0999999996275","","","24","18166","2282","l","elianto","#3366ff99"," "," ","1","+10","[1572.2999999988824]","1","2","","","18166","115","8","1","win","go","0"
"pit-trial","234","1692622","0.0-120.0","battery-v0.2","","""event"",""trial"",""time""
""fullscreenenter"",""1"",""5573""
","
","
","""event"",""trial"",""time""
""fullscreenenter"",""1"",""5573""
","
","","","809.7000000011176","","","24","18166","2282","g","elianto","#f73b6a7A"," "," ","1","0","[1661.3999999985099]","1","2","","","18166","116","6","3","lose","go","0"
"pit-trial","235","1696271","0.0-121.0","battery-v0.2","","""event"",""trial"",""time""
""fullscreenenter"",""1"",""5573""
","
","
","""event"",""trial"",""time""
""fullscreenenter"",""1"",""5573""
","
","","","786.3999999985099","","","24","18166","2282","l","elianto","#3366ff99"," "," ","1","0","[1636.7999999988824]","1","2","","","18166","117","8","1","win","go","1"
"pit-trial","236","1699724","0.0-122.0","battery-v0.2","","""event"",""trial"",""time""
""fullscreenenter"",""1"",""5573""
","
","
","""event"",""trial"",""time""
""fullscreenenter"",""1"",""5573""
","
","","","591.6000000014901","","","24","18166","2282","u","elianto","#3366ff99"," "," ","1","0","[1442.1000000014901]","1","2","","","18166","118","9","1","win","go","1"
"pit-trial","237","1703496","0.0-123.0","battery-v0.2","","""event"",""trial"",""time""
""fullscreenenter"",""1"",""5573""
","
","
","""event"",""trial"",""time""
""fullscreenenter"",""1"",""5573""
","
","","","906.4000000003725","","","24","18166","2282","p","elianto","#3366ff99","-1"," ","0","0","[1755.7000000011176]","1","2","","","18166","119","5","2","win","no-go","0"
"pit-trial","238","1707433","0.0-124.0","battery-v0.2","","""event"",""trial"",""time""
""fullscreenenter"",""1"",""5573""
","
","
","""event"",""trial"",""time""
""fullscreenenter"",""1"",""5573""
","
","","","1078","","","24","18166","2282","g","elianto","#f73b6a7A"," "," ","1","0","[1928.0999999996275]","1","2","","","18166","120","6","3","lose","go","0"
"pit-trial","239","1711333","0.0-125.0","battery-v0.2","","""event"",""trial"",""time""
""fullscreenenter"",""1"",""5573""
","
","
","""event"",""trial"",""time""
""fullscreenenter"",""1"",""5573""
","
","","","1037.9000000003725","","","24","18166","2282","g","elianto","#f73b6a7A"," "," ","1","0","[1888]","1","2","","","18166","121","6","3","lose","go","0"
"pit-trial","240","1714823","0.0-126.0","battery-v0.2","","""event"",""trial"",""time""
""fullscreenenter"",""1"",""5573""
","
","
","""event"",""trial"",""time""
""fullscreenenter"",""1"",""5573""
","
","","","628.0999999996275","","","24","18166","2282","l","elianto","#3366ff99"," "," ","1","+10","[1478.199999999255]","1","2","","","18166","122","8","1","win","go","0"
"pit-trial","241","1718452","0.0-127.0","battery-v0.2","","""event"",""trial"",""time""
""fullscreenenter"",""1"",""5573""
","
","
","""event"",""trial"",""time""
""fullscreenenter"",""1"",""5573""
","
","","","766.9000000003725","","","24","18166","2282","u","elianto","#3366ff99"," "," ","1","+10","[1616.8999999985099]","1","2","","","18166","123","9","1","win","go","0"
"pit-trial","242","1722855","0.0-128.0","battery-v0.2","","""event"",""trial"",""time""
""fullscreenenter"",""1"",""5573""
","
","
","""event"",""trial"",""time""
""fullscreenenter"",""1"",""5573""
","
","","","1539.1000000014901","","","24","18166","2282","a","elianto","#f73b6a7A","-1"," ","0","0","[2391.9000000003725]","1","2","","","18166","124","7","4","lose","no-go","1"
"pit-trial","243","1726620","0.0-129.0","battery-v0.2","","""event"",""trial"",""time""
""fullscreenenter"",""1"",""5573""
","
","
","""event"",""trial"",""time""
""fullscreenenter"",""1"",""5573""
","
","","","903.6999999992549","","","24","18166","2282","u","elianto","#3366ff99"," "," ","1","+10","[1753.8999999985099]","1","2","","","18166","125","9","1","win","go","0"
"pit-trial","244","1731481","0.0-130.0","battery-v0.2","","""event"",""trial"",""time""
""fullscreenenter"",""1"",""5573""
","
","
","""event"",""trial"",""time""
""fullscreenenter"",""1"",""5573""
","
","","","-1","","","24","18166","2282","a","elianto","#f73b6a7A","-1","-1","1","-10","[3530.300000000745]","1","2","","","18166","126","7","4","lose","no-go","1"
"pit-trial","245","1735119","0.0-131.0","battery-v0.2","","""event"",""trial"",""time""
""fullscreenenter"",""1"",""5573""
","
","
","""event"",""trial"",""time""
""fullscreenenter"",""1"",""5573""
","
","","","775.0999999996275","","","24","18166","2282","l","elianto","#3366ff99"," "," ","1","+10","[1626.300000000745]","1","2","","","18166","127","8","1","win","go","0"
"pit-trial","246","1739572","0.0-132.0","battery-v0.2","","""event"",""trial"",""time""
""fullscreenenter"",""1"",""5573""
","
","
","""event"",""trial"",""time""
""fullscreenenter"",""1"",""5573""
","
","","","1595.300000000745","","","24","18166","2282","g","elianto","#f73b6a7A"," "," ","1","0","[2445.800000000745]","1","2","","","18166","128","6","3","lose","go","0"
"pit-trial","247","1743216","0.0-133.0","battery-v0.2","","""event"",""trial"",""time""
""fullscreenenter"",""1"",""5573""
","
","
","""event"",""trial"",""time""
""fullscreenenter"",""1"",""5573""
","
","","","781.5","","","24","18166","2282","a","elianto","#f73b6a7A","-1"," ","0","0","[1631]","1","2","","","18166","129","7","4","lose","no-go","1"
"pit-trial","248","1746827","0.0-134.0","battery-v0.2","","""event"",""trial"",""time""
""fullscreenenter"",""1"",""5573""
","
","
","""event"",""trial"",""time""
""fullscreenenter"",""1"",""5573""
","
","","","748.5","","","24","18166","2282","u","elianto","#3366ff99"," "," ","1","+10","[1600]","1","2","","","18166","130","9","1","win","go","0"
"pit-trial","249","1750469","0.0-135.0","battery-v0.2","","""event"",""trial"",""time""
""fullscreenenter"",""1"",""5573""
","
","
","""event"",""trial"",""time""
""fullscreenenter"",""1"",""5573""
","
","","","777.5","","","24","18166","2282","l","elianto","#3366ff99"," "," ","1","+10","[1631.300000000745]","1","2","","","18166","131","8","1","win","go","0"
"pit-trial","250","1754123","0.0-136.0","battery-v0.2","","""event"",""trial"",""time""
""fullscreenenter"",""1"",""5573""
","
","
","""event"",""trial"",""time""
""fullscreenenter"",""1"",""5573""
","
","","","791.8000000007451","","","24","18166","2282","g","elianto","#f73b6a7A"," "," ","1","-10","[1642.2000000011176]","1","2","","","18166","132","6","3","lose","go","1"
"pit-trial","251","1757597","0.0-137.0","battery-v0.2","","""event"",""trial"",""time""
""fullscreenenter"",""1"",""5573""
","
","
","""event"",""trial"",""time""
""fullscreenenter"",""1"",""5573""
","
","","","615.5","","","24","18166","2282","l","elianto","#3366ff99"," "," ","1","+10","[1468.0999999996275]","1","2","","","18166","133","8","1","win","go","0"
"pit-trial","252","1761185","0.0-138.0","battery-v0.2","","""event"",""trial"",""time""
""fullscreenenter"",""1"",""5573""
","
","
","""event"",""trial"",""time""
""fullscreenenter"",""1"",""5573""
","
","","","726.9000000003725","","","24","18166","2282","a","elianto","#f73b6a7A","-1"," ","0","-10","[1577]","1","2","","","18166","134","7","4","lose","no-go","0"
"pit-trial","253","1764868","0.0-139.0","battery-v0.2","","""event"",""trial"",""time""
""fullscreenenter"",""1"",""5573""
","
","
","""event"",""trial"",""time""
""fullscreenenter"",""1"",""5573""
","
","","","820.8000000007451","","","24","18166","2282","g","elianto","#f73b6a7A"," "," ","1","0","[1670.8999999985099]","1","2","","","18166","135","6","3","lose","go","0"
"pit-trial","254","1768353","0.0-140.0","battery-v0.2","","""event"",""trial"",""time""
""fullscreenenter"",""1"",""5573""
","
","
","""event"",""trial"",""time""
""fullscreenenter"",""1"",""5573""
","
","","","626","","","24","18166","2282","u","elianto","#3366ff99"," "," ","1","+10","[1475.5]","1","2","","","18166","136","9","1","win","go","0"
"pit-trial","255","1771987","0.0-141.0","battery-v0.2","","""event"",""trial"",""time""
""fullscreenenter"",""1"",""5573""
","
","
","""event"",""trial"",""time""
""fullscreenenter"",""1"",""5573""
","
","","","772.8999999985099","","","24","18166","2282","a","elianto","#f73b6a7A","-1"," ","0","-10","[1623.0999999996275]","1","2","","","18166","137","7","4","lose","no-go","0"
"pit-trial","256","1775469","0.0-142.0","battery-v0.2","","""event"",""trial"",""time""
""fullscreenenter"",""1"",""5573""
","
","
","""event"",""trial"",""time""
""fullscreenenter"",""1"",""5573""
","
","","","619.9000000003725","","","24","18166","2282","l","elianto","#3366ff99"," "," ","1","0","[1470]","1","2","","","18166","138","8","1","win","go","1"
"pit-trial","257","1778986","0.0-143.0","battery-v0.2","","""event"",""trial"",""time""
""fullscreenenter"",""1"",""5573""
","
","
","""event"",""trial"",""time""
""fullscreenenter"",""1"",""5573""
","
","","","655.2999999988824","","","24","18166","2282","u","elianto","#3366ff99"," "," ","1","+10","[1505.9000000003725]","1","2","","","18166","139","9","1","win","go","0"
"pit-trial","258","1782586","0.0-144.0","battery-v0.2","","""event"",""trial"",""time""
""fullscreenenter"",""1"",""5573""
","
","
","""event"",""trial"",""time""
""fullscreenenter"",""1"",""5573""
","
","","","738.8000000007451","","","24","18166","2282","g","elianto","#f73b6a7A"," "," ","1","0","[1589.300000000745]","1","2","","","18166","140","6","3","lose","go","0"
"pit-instructions","259","1803805","0.0-145.0","battery-v0.2","","""event"",""trial"",""time""
""fullscreenenter"",""1"",""5573""
","
","
","""event"",""trial"",""time""
""fullscreenenter"",""1"",""5573""
","
","","[{""page_index"":0,""viewing_time"":9477.5},{""page_index"":1,""viewing_time"":11730.900000000373}]","21209.099999999627","","","","","","","","","","","","","","","","","","","","","","","",""
"pit-trial","260","1807396","0.0-146.0","battery-v0.2","","""event"",""trial"",""time""
""fullscreenenter"",""1"",""5573""
","
","
","""event"",""trial"",""time""
""fullscreenenter"",""1"",""5573""
","
","","","726.9000000003725","","","24","18166","2282","f","elianto","#3366ff99"," "," ","1","+10","[1577.2000000011176]","1","3","","","18166","141","1","1","win","go","0"
"pit-trial","261","1811010","0.0-147.0","battery-v0.2","","""event"",""trial"",""time""
""fullscreenenter"",""1"",""5573""
","
","
","""event"",""trial"",""time""
""fullscreenenter"",""1"",""5573""
","
","","","757.2999999988824","","","24","18166","2282","b","elianto","#f73b6a7A"," "," ","1","-10","[1607.5]","1","3","","","18166","142","3","3","lose","go","1"
"pit-trial","262","1815005","0.0-148.0","battery-v0.2","","""event"",""trial"",""time""
""fullscreenenter"",""1"",""5573""
","
","
","""event"",""trial"",""time""
""fullscreenenter"",""1"",""5573""
","
","","","1136.3999999985099","","","24","18166","2282","n","elianto","#f73b6a7A","-1"," ","0","-10","[1986.699999999255]","1","3","","","18166","143","0","4","lose","no-go","0"
"pit-trial","263","1819106","0.0-149.0","battery-v0.2","","""event"",""trial"",""time""
""fullscreenenter"",""1"",""5573""
","
","
","""event"",""trial"",""time""
""fullscreenenter"",""1"",""5573""
","
","","","1245.0999999996275","","","24","18166","2282","t","elianto","#f73b6a7A","-1"," ","0","-10","[2095.39999999851]","1","3","","","18166","144","2","4","lose","no-go","0"
"pit-trial","264","1823963","0.0-150.0","battery-v0.2","","""event"",""trial"",""time""
""fullscreenenter"",""1"",""5573""
","
","
","""event"",""trial"",""time""
""fullscreenenter"",""1"",""5573""
","
