"trial_type","trial_index","time_elapsed","internal_node_id","task_version","subject_id","interactions","blur_events","focus_events","fullscreenenter_events","fullscreenexit_events","success","view_history","rt","responses","num_errors","age","subject","participantId","rune","rune_set","hex","correct","choice","accuracy","outcome","keys","total_keys","block","practice","value","sub","trial","stimulus","robot","valence","action","sham"
"pavlovia","0","14","0.0-0.0","battery-v0.2","","""event"",""trial"",""time""
""fullscreenenter"",""1"",""1588""
""blur"",""1"",""2179""
","""event"",""trial"",""time""
""blur"",""1"",""2179""
","
","""event"",""trial"",""time""
""fullscreenenter"",""1"",""1588""
","
","","","","","","","","","","","","","","","","","","","","","","","","","","",""
"fullscreen","1","2583","0.0-1.0","battery-v0.2","","""event"",""trial"",""time""
""fullscreenenter"",""1"",""1588""
""blur"",""1"",""2179""
""focus"",""2"",""7729""
","""event"",""trial"",""time""
""blur"",""1"",""2179""
","""event"",""trial"",""time""
""focus"",""2"",""7729""
","""event"",""trial"",""time""
""fullscreenenter"",""1"",""1588""
","
","true","","","","","","","","","","","","","","","","","","","","","","","","","",""
"pit-instructions","2","8375","0.0-2.0-0.0","battery-v0.2","","""event"",""trial"",""time""
""fullscreenenter"",""1"",""1588""
""blur"",""1"",""2179""
""focus"",""2"",""7729""
","""event"",""trial"",""time""
""blur"",""1"",""2179""
","""event"",""trial"",""time""
""focus"",""2"",""7729""
","""event"",""trial"",""time""
""fullscreenenter"",""1"",""1588""
","
","","[{""page_index"":0,""viewing_time"":5788.799999952316}]","5789.099999904633","","","","","","","","","","","","","","","","","","","","","","","",""
"pit-comprehension","3","10645","0.0-2.0-1.0-0.0","battery-v0.2","","""event"",""trial"",""time""
""fullscreenenter"",""1"",""1588""
""blur"",""1"",""2179""
""focus"",""2"",""7729""
","""event"",""trial"",""time""
""blur"",""1"",""2179""
","""event"",""trial"",""time""
""focus"",""2"",""7729""
","""event"",""trial"",""time""
""fullscreenenter"",""1"",""1588""
","
","","","2266.2999999523163","[""shark""]","0","20","10936","2650","","","","","","","","","","","","","","","","","","",""
"pit-instructions","4","13664","0.0-2.0-1.0-1.0","battery-v0.2","","""event"",""trial"",""time""
""fullscreenenter"",""1"",""1588""
""blur"",""1"",""2179""
""focus"",""2"",""7729""
","""event"",""trial"",""time""
""blur"",""1"",""2179""
","""event"",""trial"",""time""
""focus"",""2"",""7729""
","""event"",""trial"",""time""
""fullscreenenter"",""1"",""1588""
","
","","[{""page_index"":0,""viewing_time"":3011.2000000476837}]","3011.4000000953674","","","","","","","","","","","","","","","","","","","","","","","",""
"pit-comprehension","5","16342","0.0-2.0-2.0-0.0","battery-v0.2","","""event"",""trial"",""time""
""fullscreenenter"",""1"",""1588""
""blur"",""1"",""2179""
""focus"",""2"",""7729""
","""event"",""trial"",""time""
""blur"",""1"",""2179""
","""event"",""trial"",""time""
""focus"",""2"",""7729""
","""event"",""trial"",""time""
""fullscreenenter"",""1"",""1588""
","
","","","2675.100000143051","[""tiger""]","0","20","10936","2650","","","","","","","","","","","","","","","","","","",""
"pit-instructions","6","17579","0.0-2.0-2.0-1.0","battery-v0.2","","""event"",""trial"",""time""
""fullscreenenter"",""1"",""1588""
""blur"",""1"",""2179""
""focus"",""2"",""7729""
","""event"",""trial"",""time""
""blur"",""1"",""2179""
","""event"",""trial"",""time""
""focus"",""2"",""7729""
","""event"",""trial"",""time""
""fullscreenenter"",""1"",""1588""
","
","","[{""page_index"":0,""viewing_time"":1234.4000000953674}]","1234.5","","","","","","","","","","","","","","","","","","","","","","","",""
"pit-instructions","7","158041","0.0-2.0-3.0","battery-v0.2","","""event"",""trial"",""time""
""fullscreenenter"",""1"",""1588""
""blur"",""1"",""2179""
""focus"",""2"",""7729""
","""event"",""trial"",""time""
""blur"",""1"",""2179""
","""event"",""trial"",""time""
""focus"",""2"",""7729""
","""event"",""trial"",""time""
""fullscreenenter"",""1"",""1588""
","
","","[{""page_index"":0,""viewing_time"":8349.299999952316},{""page_index"":1,""viewing_time"":7772},{""page_index"":2,""viewing_time"":8585},{""page_index"":3,""viewing_time"":8101.299999952316},{""page_index"":4,""viewing_time"":10486.600000143051},{""page_index"":5,""viewing_time"":7033.399999856949},{""page_index"":6,""viewing_time"":7084.100000143051},{""page_index"":7,""viewing_time"":9309},{""page_index"":8,""viewing_time"":9624.599999904633},{""page_index"":9,""viewing_time"":8293.5},{""page_index"":10,""viewing_time"":22815.900000095367},{""page_index"":11,""viewing_time"":21134.599999904633},{""page_index"":12,""viewing_time"":6893.099999904633},{""page_index"":13,""viewing_time"":4976.200000047684}]","140459.70000004768","","","","","","","","","","","","","","","","","","","","","","","",""
"pit-trial","8","161973","0.0-2.0-4.0-0.0","battery-v0.2","","""event"",""trial"",""time""
""fullscreenenter"",""1"",""1588""
""blur"",""1"",""2179""
""focus"",""2"",""7729""
","""event"",""trial"",""time""
""blur"",""1"",""2179""
","""event"",""trial"",""time""
""focus"",""2"",""7729""
","""event"",""trial"",""time""
""fullscreenenter"",""1"",""1588""
","
","","","1064.5999999046326","","","20","10936","2650","&#9784;","elianto","#FFFFF080"," "," ","1","&#10004","[1920]","1","0","0","","","","","","","",""
"pit-trial","9","165479","0.0-2.0-4.1-0.1","battery-v0.2","","""event"",""trial"",""time""
""fullscreenenter"",""1"",""1588""
""blur"",""1"",""2179""
""focus"",""2"",""7729""
","""event"",""trial"",""time""
""blur"",""1"",""2179""
","""event"",""trial"",""time""
""focus"",""2"",""7729""
","""event"",""trial"",""time""
""fullscreenenter"",""1"",""1588""
","
","","","634.8999998569489","","","20","10936","2650","&#9784;","elianto","#FFFFF080"," "," ","1","&#10004","[1492.5999999046326]","1","0","0","","","","","","","",""
"pit-trial","10","168983","0.0-2.0-4.2-0.2","battery-v0.2","","""event"",""trial"",""time""
""fullscreenenter"",""1"",""1588""
""blur"",""1"",""2179""
""focus"",""2"",""7729""
","""event"",""trial"",""time""
""blur"",""1"",""2179""
","""event"",""trial"",""time""
""focus"",""2"",""7729""
","""event"",""trial"",""time""
""fullscreenenter"",""1"",""1588""
","
","","","632.8999998569489","","","20","10936","2650","&#9784;","elianto","#FFFFF080"," "," ","1","&#10004","[1488.4000000953674]","1","0","0","","","","","","","",""
"pit-trial","11","172446","0.0-2.0-4.3-0.3","battery-v0.2","","""event"",""trial"",""time""
""fullscreenenter"",""1"",""1588""
""blur"",""1"",""2179""
""focus"",""2"",""7729""
","""event"",""trial"",""time""
""blur"",""1"",""2179""
","""event"",""trial"",""time""
""focus"",""2"",""7729""
","""event"",""trial"",""time""
""fullscreenenter"",""1"",""1588""
","
","","","602.5","","","20","10936","2650","&#9784;","elianto","#FFFFF080"," "," ","1","&#10004","[1453.6000001430511]","1","0","0","","","","","","","",""
"pit-trial","12","175743","0.0-2.0-4.4-0.4","battery-v0.2","","""event"",""trial"",""time""
""fullscreenenter"",""1"",""1588""
""blur"",""1"",""2179""
""focus"",""2"",""7729""
","""event"",""trial"",""time""
""blur"",""1"",""2179""
","""event"",""trial"",""time""
""focus"",""2"",""7729""
","""event"",""trial"",""time""
""fullscreenenter"",""1"",""1588""
","
","","","427.5","","","20","10936","2650","&#9784;","elianto","#FFFFF080"," "," ","1","&#10004","[1282.4000000953674]","1","0","0","","","","","","","",""
"pit-instructions","13","200248","0.0-2.0-5.0","battery-v0.2","","""event"",""trial"",""time""
""fullscreenenter"",""1"",""1588""
""blur"",""1"",""2179""
""focus"",""2"",""7729""
","""event"",""trial"",""time""
""blur"",""1"",""2179""
","""event"",""trial"",""time""
""focus"",""2"",""7729""
","""event"",""trial"",""time""
""fullscreenenter"",""1"",""1588""
","
","","[{""page_index"":0,""viewing_time"":5825.700000047684},{""page_index"":1,""viewing_time"":6815},{""page_index"":2,""viewing_time"":6083.5},{""page_index"":3,""viewing_time"":5774.900000095367}]","24499.5","","","","","","","","","","","","","","","","","","","","","","","",""
"pit-trial","14","205121","0.0-2.0-6.0-0.0","battery-v0.2","","""event"",""trial"",""time""
""fullscreenenter"",""1"",""1588""
""blur"",""1"",""2179""
""focus"",""2"",""7729""
","""event"",""trial"",""time""
""blur"",""1"",""2179""
","""event"",""trial"",""time""
""focus"",""2"",""7729""
","""event"",""trial"",""time""
""fullscreenenter"",""1"",""1588""
","
","","","-1","","","20","10936","2650","&#9854;","elianto","#FFFFF080","-1","-1","1","&#10004","[]","0","0","1","","","","","","","",""
"pit-trial","15","209988","0.0-2.0-6.1-0.1","battery-v0.2","","""event"",""trial"",""time""
""fullscreenenter"",""1"",""1588""
""blur"",""1"",""2179""
""focus"",""2"",""7729""
","""event"",""trial"",""time""
""blur"",""1"",""2179""
","""event"",""trial"",""time""
""focus"",""2"",""7729""
","""event"",""trial"",""time""
""fullscreenenter"",""1"",""1588""
","
","","","-1","","","20","10936","2650","&#9854;","elianto","#FFFFF080","-1","-1","1","&#10004","[]","0","0","1","","","","","","","",""
"pit-trial","16","214859","0.0-2.0-6.2-0.2","battery-v0.2","","""event"",""trial"",""time""
""fullscreenenter"",""1"",""1588""
""blur"",""1"",""2179""
""focus"",""2"",""7729""
","""event"",""trial"",""time""
""blur"",""1"",""2179""
","""event"",""trial"",""time""
""focus"",""2"",""7729""
","""event"",""trial"",""time""
""fullscreenenter"",""1"",""1588""
","
","","","-1","","","20","10936","2650","&#9854;","elianto","#FFFFF080","-1","-1","1","&#10004","[]","0","0","1","","","","","","","",""
"pit-trial","17","219727","0.0-2.0-6.3-0.3","battery-v0.2","","""event"",""trial"",""time""
""fullscreenenter"",""1"",""1588""
""blur"",""1"",""2179""
""focus"",""2"",""7729""
","""event"",""trial"",""time""
""blur"",""1"",""2179""
","""event"",""trial"",""time""
""focus"",""2"",""7729""
","""event"",""trial"",""time""
""fullscreenenter"",""1"",""1588""
","
","","","-1","","","20","10936","2650","&#9854;","elianto","#FFFFF080","-1","-1","1","&#10004","[]","0","0","1","","","","","","","",""
"pit-trial","18","224598","0.0-2.0-6.4-0.4","battery-v0.2","","""event"",""trial"",""time""
""fullscreenenter"",""1"",""1588""
""blur"",""1"",""2179""
""focus"",""2"",""7729""
","""event"",""trial"",""time""
""blur"",""1"",""2179""
","""event"",""trial"",""time""
""focus"",""2"",""7729""
","""event"",""trial"",""time""
""fullscreenenter"",""1"",""1588""
","
","","","-1","","","20","10936","2650","&#9854;","elianto","#FFFFF080","-1","-1","1","&#10004","[]","0","0","1","","","","","","","",""
"pit-instructions","19","374088","0.0-2.0-7.0","battery-v0.2","","""event"",""trial"",""time""
""fullscreenenter"",""1"",""1588""
""blur"",""1"",""2179""
""focus"",""2"",""7729""
","""event"",""trial"",""time""
""blur"",""1"",""2179""
","""event"",""trial"",""time""
""focus"",""2"",""7729""
","""event"",""trial"",""time""
""fullscreenenter"",""1"",""1588""
","
","","[{""page_index"":0,""viewing_time"":5992.5},{""page_index"":1,""viewing_time"":7323.900000095367},{""page_index"":2,""viewing_time"":10431.799999952316},{""page_index"":3,""viewing_time"":7169.400000095367},{""page_index"":4,""viewing_time"":5598.299999952316},{""page_index"":5,""viewing_time"":6453.099999904633},{""page_index"":6,""viewing_time"":5501.400000095367},{""page_index"":7,""viewing_time"":10473.099999904633},{""page_index"":8,""viewing_time"":7397.5},{""page_index"":9,""viewing_time"":6664.900000095367},{""page_index"":10,""viewing_time"":6631.299999952316},{""page_index"":11,""viewing_time"":5528.5},{""page_index"":12,""viewing_time"":9752.799999952316},{""page_index"":13,""viewing_time"":8816.200000047684},{""page_index"":14,""viewing_time"":19977.200000047684},{""page_index"":15,""viewing_time"":11192.799999952316},{""page_index"":16,""viewing_time"":6778.5},{""page_index"":17,""viewing_time"":7803.700000047684}]","149487.30000019073","","","","","","","","","","","","","","","","","","","","","","","",""
"pit-trial","20","377696","0.0-2.0-8.0-0.0","battery-v0.2","","""event"",""trial"",""time""
""fullscreenenter"",""1"",""1588""
""blur"",""1"",""2179""
""focus"",""2"",""7729""
","""event"",""trial"",""time""
""blur"",""1"",""2179""
","""event"",""trial"",""time""
""focus"",""2"",""7729""
","""event"",""trial"",""time""
""fullscreenenter"",""1"",""1588""
","
","","","737.7999999523163","","","20","10936","2650","&#9776;","elianto","#3366ff99"," "," ","1","+10","[1594.7999999523163]","1","0","1","","","","","","","",""
"pit-trial","21","381102","0.0-2.0-8.0-1.0","battery-v0.2","","""event"",""trial"",""time""
""fullscreenenter"",""1"",""1588""
""blur"",""1"",""2179""
""focus"",""2"",""7729""
","""event"",""trial"",""time""
""blur"",""1"",""2179""
","""event"",""trial"",""time""
""focus"",""2"",""7729""
","""event"",""trial"",""time""
""fullscreenenter"",""1"",""1588""
","
","","","546.5","","","20","10936","2650","&#9776;","elianto","#3366ff99"," "," ","1","+10","[1398.9000000953674]","1","0","1","","","","","","","",""
"pit-trial","22","384391","0.0-2.0-8.0-2.0","battery-v0.2","","""event"",""trial"",""time""
""fullscreenenter"",""1"",""1588""
""blur"",""1"",""2179""
""focus"",""2"",""7729""
","""event"",""trial"",""time""
""blur"",""1"",""2179""
","""event"",""trial"",""time""
""focus"",""2"",""7729""
","""event"",""trial"",""time""
""fullscreenenter"",""1"",""1588""
","
","","","418.19999980926514","","","20","10936","2650","&#9776;","elianto","#3366ff99"," "," ","1","+10","[1278.2000000476837]","1","0","1","","","","","","","",""
"pit-trial","23","387703","0.0-2.0-8.0-3.0","battery-v0.2","","""event"",""trial"",""time""
""fullscreenenter"",""1"",""1588""
""blur"",""1"",""2179""
""focus"",""2"",""7729""
","""event"",""trial"",""time""
""blur"",""1"",""2179""
","""event"",""trial"",""time""
""focus"",""2"",""7729""
","""event"",""trial"",""time""
""fullscreenenter"",""1"",""1588""
","
","","","444.7000000476837","","","20","10936","2650","&#9776;","elianto","#3366ff99"," "," ","1","0","[1302.1000001430511]","1","0","1","","","","","","","",""
"pit-trial","24","392576","0.0-2.0-8.0-4.0","battery-v0.2","","""event"",""trial"",""time""
""fullscreenenter"",""1"",""1588""
""blur"",""1"",""2179""
""focus"",""2"",""7729""
","""event"",""trial"",""time""
""blur"",""1"",""2179""
","""event"",""trial"",""time""
""focus"",""2"",""7729""
","""event"",""trial"",""time""
""fullscreenenter"",""1"",""1588""
","
","","","-1","","","20","10936","2650","&#9776;","elianto","#3366ff99"," ","-1","0","0","[]","0","0","1","","","","","","","",""
"pit-trial","25","395875","0.0-2.0-8.1-0.1","battery-v0.2","","""event"",""trial"",""time""
""fullscreenenter"",""1"",""1588""
""blur"",""1"",""2179""
""focus"",""2"",""7729""
","""event"",""trial"",""time""
""blur"",""1"",""2179""
","""event"",""trial"",""time""
""focus"",""2"",""7729""
","""event"",""trial"",""time""
""fullscreenenter"",""1"",""1588""
","
","","","431.7000000476837","","","20","10936","2650","&#9776;","elianto","#3366ff99"," "," ","1","+10","[1286.5]","1","0","1","","","","","","","",""
"pit-trial","26","399224","0.0-2.0-8.1-1.1","battery-v0.2","","""event"",""trial"",""time""
""fullscreenenter"",""1"",""1588""
""blur"",""1"",""2179""
""focus"",""2"",""7729""
","""event"",""trial"",""time""
""blur"",""1"",""2179""
","""event"",""trial"",""time""
""focus"",""2"",""7729""
","""event"",""trial"",""time""
""fullscreenenter"",""1"",""1588""
","
","","","470.2000000476837","","","20","10936","2650","&#9776;","elianto","#3366ff99"," "," ","1","+10","[1334.4000000953674]","1","0","1","","","","","","","",""
"pit-trial","27","402447","0.0-2.0-8.1-2.1","battery-v0.2","","""event"",""trial"",""time""
""fullscreenenter"",""1"",""1588""
""blur"",""1"",""2179""
""focus"",""2"",""7729""
","""event"",""trial"",""time""
""blur"",""1"",""2179""
","""event"",""trial"",""time""
""focus"",""2"",""7729""
","""event"",""trial"",""time""
""fullscreenenter"",""1"",""1588""
","
","","","353.39999985694885","","","20","10936","2650","&#9776;","elianto","#3366ff99"," "," ","1","+10","[1211.8999998569489]","1","0","1","","","","","","","",""
"pit-trial","28","406231","0.0-2.0-8.1-3.1","battery-v0.2","","""event"",""trial"",""time""
""fullscreenenter"",""1"",""1588""
""blur"",""1"",""2179""
""focus"",""2"",""7729""
","""event"",""trial"",""time""
""blur"",""1"",""2179""
","""event"",""trial"",""time""
""focus"",""2"",""7729""
","""event"",""trial"",""time""
""fullscreenenter"",""1"",""1588""
","
","","","917.8999998569489","","","20","10936","2650","&#9776;","elianto","#3366ff99"," "," ","1","0","[1769.5]","1","0","1","","","","","","","",""
"pit-trial","29","409815","0.0-2.0-8.1-4.1","battery-v0.2","","""event"",""trial"",""time""
""fullscreenenter"",""1"",""1588""
""blur"",""1"",""2179""
""focus"",""2"",""7729""
","""event"",""trial"",""time""
""blur"",""1"",""2179""
","""event"",""trial"",""time""
""focus"",""2"",""7729""
","""event"",""trial"",""time""
""fullscreenenter"",""1"",""1588""
","
","","","725.4000000953674","","","20","10936","2650","&#9776;","elianto","#3366ff99"," "," ","1","+10","[1575.5]","1","0","1","","","","","","","",""
"pit-trial","30","413615","0.0-2.0-8.2-0.2","battery-v0.2","","""event"",""trial"",""time""
""fullscreenenter"",""1"",""1588""
""blur"",""1"",""2179""
""focus"",""2"",""7729""
","""event"",""trial"",""time""
""blur"",""1"",""2179""
","""event"",""trial"",""time""
""focus"",""2"",""7729""
","""event"",""trial"",""time""
""fullscreenenter"",""1"",""1588""
","
","","","935.5999999046326","","","20","10936","2650","&#9776;","elianto","#3366ff99"," "," ","1","+10","[1786.0999999046326]","1","0","1","","","","","","","",""
"pit-trial","31","416915","0.0-2.0-8.2-1.2","battery-v0.2","","""event"",""trial"",""time""
""fullscreenenter"",""1"",""1588""
""blur"",""1"",""2179""
""focus"",""2"",""7729""
","""event"",""trial"",""time""
""blur"",""1"",""2179""
","""event"",""trial"",""time""
""focus"",""2"",""7729""
","""event"",""trial"",""time""
""fullscreenenter"",""1"",""1588""
","
","","","443.90000009536743","","","20","10936","2650","&#9776;","elianto","#3366ff99"," "," ","1","+10","[1294.2000000476837]","1","0","1","","","","","","","",""
"pit-trial","32","420512","0.0-2.0-8.2-2.2","battery-v0.2","","""event"",""trial"",""time""
""fullscreenenter"",""1"",""1588""
""blur"",""1"",""2179""
""focus"",""2"",""7729""
","""event"",""trial"",""time""
""blur"",""1"",""2179""
","""event"",""trial"",""time""
""focus"",""2"",""7729""
","""event"",""trial"",""time""
""fullscreenenter"",""1"",""1588""
","
","","","735.2999999523163","","","20","10936","2650","&#9776;","elianto","#3366ff99"," "," ","1","+10","[1585.5]","1","0","1","","","","","","","",""
"pit-trial","33","424351","0.0-2.0-8.2-3.2","battery-v0.2","","""event"",""trial"",""time""
""fullscreenenter"",""1"",""1588""
""blur"",""1"",""2179""
""focus"",""2"",""7729""
","""event"",""trial"",""time""
""blur"",""1"",""2179""
","""event"",""trial"",""time""
""focus"",""2"",""7729""
","""event"",""trial"",""time""
""fullscreenenter"",""1"",""1588""
","
","","","975.0999999046326","","","20","10936","2650","&#9776;","elianto","#3366ff99"," "," ","1","0","[1829.0999999046326]","1","0","1","","","","","","","",""
"pit-trial","34","428837","0.0-2.0-8.2-4.2","battery-v0.2","","""event"",""trial"",""time""
""fullscreenenter"",""1"",""1588""
""blur"",""1"",""2179""
""focus"",""2"",""7729""
","""event"",""trial"",""time""
""blur"",""1"",""2179""
","""event"",""trial"",""time""
""focus"",""2"",""7729""
","""event"",""trial"",""time""
""fullscreenenter"",""1"",""1588""
","
","","","1619.5","","","20","10936","2650","&#9776;","elianto","#3366ff99"," "," ","1","+10","[2478.9000000953674]","1","0","1","","","","","","","",""
"call-function","35","428841","0.0-2.0-9.0","battery-v0.2","","""event"",""trial"",""time""
""fullscreenenter"",""1"",""1588""
""blur"",""1"",""2179""
""focus"",""2"",""7729""
","""event"",""trial"",""time""
""blur"",""1"",""2179""
","""event"",""trial"",""time""
""focus"",""2"",""7729""
","""event"",""trial"",""time""
""fullscreenenter"",""1"",""1588""
","
","","","","","","","","","","","","","","","","","","","","","","","","","","",""
"pit-instructions","36","479502","0.0-2.0-10.0","battery-v0.2","","""event"",""trial"",""time""
""fullscreenenter"",""1"",""1588""
""blur"",""1"",""2179""
""focus"",""2"",""7729""
","""event"",""trial"",""time""
""blur"",""1"",""2179""
","""event"",""trial"",""time""
""focus"",""2"",""7729""
","""event"",""trial"",""time""
""fullscreenenter"",""1"",""1588""
","
","","[{""page_index"":0,""viewing_time"":7543.599999904633},{""page_index"":1,""viewing_time"":14743.600000143051},{""page_index"":2,""viewing_time"":10626.299999952316},{""page_index"":3,""viewing_time"":10036.700000047684},{""page_index"":4,""viewing_time"":7709.099999904633}]","50659.799999952316","","","","","","","","","","","","","","","","","","","","","","","",""
"pit-trial","37","482791","0.0-2.0-11.0-0.0","battery-v0.2","","""event"",""trial"",""time""
""fullscreenenter"",""1"",""1588""
""blur"",""1"",""2179""
""focus"",""2"",""7729""
","""event"",""trial"",""time""
""blur"",""1"",""2179""
","""event"",""trial"",""time""
""focus"",""2"",""7729""
","""event"",""trial"",""time""
""fullscreenenter"",""1"",""1588""
","
","","","417.30000019073486","","","20","10936","2650","&#9761;","elianto","#3366ff99","-1"," ","0","0","[1278.2000000476837]","1","0","2","","","","","","","",""
"pit-trial","38","486071","0.0-2.0-11.0-1.0","battery-v0.2","","""event"",""trial"",""time""
""fullscreenenter"",""1"",""1588""
""blur"",""1"",""2179""
""focus"",""2"",""7729""
","""event"",""trial"",""time""
""blur"",""1"",""2179""
","""event"",""trial"",""time""
""focus"",""2"",""7729""
","""event"",""trial"",""time""
""fullscreenenter"",""1"",""1588""
","
","","","410.2999999523163","","","20","10936","2650","&#9761;","elianto","#3366ff99","-1"," ","0","0","[1267.4000000953674]","1","0","2","","","","","","","",""
"pit-trial","39","489115","0.0-2.0-11.0-2.0","battery-v0.2","","""event"",""trial"",""time""
""fullscreenenter"",""1"",""1588""
""blur"",""1"",""2179""
""focus"",""2"",""7729""
","""event"",""trial"",""time""
""blur"",""1"",""2179""
","""event"",""trial"",""time""
""focus"",""2"",""7729""
","""event"",""trial"",""time""
""fullscreenenter"",""1"",""1588""
","
","","","175","","","20","10936","2650","&#9761;","elianto","#3366ff99","-1"," ","0","0","[1034]","1","0","2","","","","","","","",""
"pit-trial","40","493981","0.0-2.0-11.0-3.0","battery-v0.2","","""event"",""trial"",""time""
""fullscreenenter"",""1"",""1588""
""blur"",""1"",""2179""
""focus"",""2"",""7729""
","""event"",""trial"",""time""
""blur"",""1"",""2179""
","""event"",""trial"",""time""
""focus"",""2"",""7729""
","""event"",""trial"",""time""
""fullscreenenter"",""1"",""1588""
","
","","","-1","","","20","10936","2650","&#9761;","elianto","#3366ff99","-1","-1","1","0","[]","0","0","2","","","","","","","",""
"pit-trial","41","498855","0.0-2.0-11.0-4.0","battery-v0.2","","""event"",""trial"",""time""
""fullscreenenter"",""1"",""1588""
""blur"",""1"",""2179""
""focus"",""2"",""7729""
","""event"",""trial"",""time""
""blur"",""1"",""2179""
","""event"",""trial"",""time""
""focus"",""2"",""7729""
","""event"",""trial"",""time""
""fullscreenenter"",""1"",""1588""
","
","","","-1","","","20","10936","2650","&#9761;","elianto","#3366ff99","-1","-1","1","+10","[]","0","0","2","","","","","","","",""
"pit-trial","42","503724","0.0-2.0-11.1-0.1","battery-v0.2","","""event"",""trial"",""time""
""fullscreenenter"",""1"",""1588""
""blur"",""1"",""2179""
""focus"",""2"",""7729""
","""event"",""trial"",""time""
""blur"",""1"",""2179""
","""event"",""trial"",""time""
""focus"",""2"",""7729""
","""event"",""trial"",""time""
""fullscreenenter"",""1"",""1588""
","
","","","-1","","","20","10936","2650","&#9761;","elianto","#3366ff99","-1","-1","1","+10","[]","0","0","2","","","","","","","",""
"pit-trial","43","508588","0.0-2.0-11.1-1.1","battery-v0.2","","""event"",""trial"",""time""
""fullscreenenter"",""1"",""1588""
""blur"",""1"",""2179""
""focus"",""2"",""7729""
","""event"",""trial"",""time""
""blur"",""1"",""2179""
","""event"",""trial"",""time""
""focus"",""2"",""7729""
","""event"",""trial"",""time""
""fullscreenenter"",""1"",""1588""
","
","","","-1","","","20","10936","2650","&#9761;","elianto","#3366ff99","-1","-1","1","+10","[]","0","0","2","","","","","","","",""
"pit-trial","44","513455","0.0-2.0-11.1-2.1","battery-v0.2","","""event"",""trial"",""time""
""fullscreenenter"",""1"",""1588""
""blur"",""1"",""2179""
""focus"",""2"",""7729""
","""event"",""trial"",""time""
""blur"",""1"",""2179""
","""event"",""trial"",""time""
""focus"",""2"",""7729""
","""event"",""trial"",""time""
""fullscreenenter"",""1"",""1588""
","
","","","-1","","","20","10936","2650","&#9761;","elianto","#3366ff99","-1","-1","1","+10","[]","0","0","2","","","","","","","",""
"pit-trial","45","518323","0.0-2.0-11.1-3.1","battery-v0.2","","""event"",""trial"",""time""
""fullscreenenter"",""1"",""1588""
""blur"",""1"",""2179""
""focus"",""2"",""7729""
","""event"",""trial"",""time""
""blur"",""1"",""2179""
","""event"",""trial"",""time""
""focus"",""2"",""7729""
","""event"",""trial"",""time""
""fullscreenenter"",""1"",""1588""
","
","","","-1","","","20","10936","2650","&#9761;","elianto","#3366ff99","-1","-1","1","0","[]","0","0","2","","","","","","","",""
"pit-trial","46","523190","0.0-2.0-11.1-4.1","battery-v0.2","","""event"",""trial"",""time""
""fullscreenenter"",""1"",""1588""
""blur"",""1"",""2179""
""focus"",""2"",""7729""
","""event"",""trial"",""time""
""blur"",""1"",""2179""
","""event"",""trial"",""time""
""focus"",""2"",""7729""
","""event"",""trial"",""time""
""fullscreenenter"",""1"",""1588""
","
","","","-1","","","20","10936","2650","&#9761;","elianto","#3366ff99","-1","-1","1","+10","[]","0","0","2","","","","","","","",""
"pit-trial","47","528062","0.0-2.0-11.2-0.2","battery-v0.2","","""event"",""trial"",""time""
""fullscreenenter"",""1"",""1588""
""blur"",""1"",""2179""
""focus"",""2"",""7729""
","""event"",""trial"",""time""
""blur"",""1"",""2179""
","""event"",""trial"",""time""
""focus"",""2"",""7729""
","""event"",""trial"",""time""
""fullscreenenter"",""1"",""1588""
","
","","","-1","","","20","10936","2650","&#9761;","elianto","#3366ff99","-1","-1","1","+10","[]","0","0","2","","","","","","","",""
"pit-trial","48","532935","0.0-2.0-11.2-1.2","battery-v0.2","","""event"",""trial"",""time""
""fullscreenenter"",""1"",""1588""
""blur"",""1"",""2179""
""focus"",""2"",""7729""
","""event"",""trial"",""time""
""blur"",""1"",""2179""
","""event"",""trial"",""time""
""focus"",""2"",""7729""
","""event"",""trial"",""time""
""fullscreenenter"",""1"",""1588""
","
","","","-1","","","20","10936","2650","&#9761;","elianto","#3366ff99","-1","-1","1","+10","[]","0","0","2","","","","","","","",""
"pit-trial","49","537808","0.0-2.0-11.2-2.2","battery-v0.2","","""event"",""trial"",""time""
""fullscreenenter"",""1"",""1588""
""blur"",""1"",""2179""
""focus"",""2"",""7729""
","""event"",""trial"",""time""
""blur"",""1"",""2179""
","""event"",""trial"",""time""
""focus"",""2"",""7729""
","""event"",""trial"",""time""
""fullscreenenter"",""1"",""1588""
","
","","","-1","","","20","10936","2650","&#9761;","elianto","#3366ff99","-1","-1","1","+10","[]","0","0","2","","","","","","","",""
"pit-trial","50","542679","0.0-2.0-11.2-3.2","battery-v0.2","","""event"",""trial"",""time""
""fullscreenenter"",""1"",""1588""
""blur"",""1"",""2179""
""focus"",""2"",""7729""
","""event"",""trial"",""time""
""blur"",""1"",""2179""
","""event"",""trial"",""time""
""focus"",""2"",""7729""
","""event"",""trial"",""time""
""fullscreenenter"",""1"",""1588""
","
","","","-1","","","20","10936","2650","&#9761;","elianto","#3366ff99","-1","-1","1","0","[]","0","0","2","","","","","","","",""
"pit-trial","51","547548","0.0-2.0-11.2-4.2","battery-v0.2","","""event"",""trial"",""time""
""fullscreenenter"",""1"",""1588""
""blur"",""1"",""2179""
""focus"",""2"",""7729""
","""event"",""trial"",""time""
""blur"",""1"",""2179""
","""event"",""trial"",""time""
""focus"",""2"",""7729""
","""event"",""trial"",""time""
""fullscreenenter"",""1"",""1588""
","
","","","-1","","","20","10936","2650","&#9761;","elianto","#3366ff99","-1","-1","1","+10","[]","0","0","2","","","","","","","",""
"pit-trial","52","552419","0.0-2.0-11.3-0.3","battery-v0.2","","""event"",""trial"",""time""
""fullscreenenter"",""1"",""1588""
""blur"",""1"",""2179""
""focus"",""2"",""7729""
","""event"",""trial"",""time""
""blur"",""1"",""2179""
","""event"",""trial"",""time""
""focus"",""2"",""7729""
","""event"",""trial"",""time""
""fullscreenenter"",""1"",""1588""
","
","","","-1","","","20","10936","2650","&#9761;","elianto","#3366ff99","-1","-1","1","+10","[]","0","0","2","","","","","","","",""
"pit-trial","53","557288","0.0-2.0-11.3-1.3","battery-v0.2","","""event"",""trial"",""time""
""fullscreenenter"",""1"",""1588""
""blur"",""1"",""2179""
""focus"",""2"",""7729""
","""event"",""trial"",""time""
""blur"",""1"",""2179""
","""event"",""trial"",""time""
""focus"",""2"",""7729""
","""event"",""trial"",""time""
""fullscreenenter"",""1"",""1588""
","
","","","-1","","","20","10936","2650","&#9761;","elianto","#3366ff99","-1","-1","1","+10","[]","0","0","2","","","","","","","",""
"pit-trial","54","562158","0.0-2.0-11.3-2.3","battery-v0.2","","""event"",""trial"",""time""
""fullscreenenter"",""1"",""1588""
""blur"",""1"",""2179""
""focus"",""2"",""7729""
","""event"",""trial"",""time""
""blur"",""1"",""2179""
","""event"",""trial"",""time""
""focus"",""2"",""7729""
","""event"",""trial"",""time""
""fullscreenenter"",""1"",""1588""
","
","","","-1","","","20","10936","2650","&#9761;","elianto","#3366ff99","-1","-1","1","+10","[]","0","0","2","","","","","","","",""
"pit-trial","55","567032","0.0-2.0-11.3-3.3","battery-v0.2","","""event"",""trial"",""time""
""fullscreenenter"",""1"",""1588""
""blur"",""1"",""2179""
""focus"",""2"",""7729""
","""event"",""trial"",""time""
""blur"",""1"",""2179""
","""event"",""trial"",""time""
""focus"",""2"",""7729""
","""event"",""trial"",""time""
""fullscreenenter"",""1"",""1588""
","
","","","-1","","","20","10936","2650","&#9761;","elianto","#3366ff99","-1","-1","1","0","[]","0","0","2","","","","","","","",""
"pit-trial","56","571902","0.0-2.0-11.3-4.3","battery-v0.2","","""event"",""trial"",""time""
""fullscreenenter"",""1"",""1588""
""blur"",""1"",""2179""
""focus"",""2"",""7729""
","""event"",""trial"",""time""
""blur"",""1"",""2179""
","""event"",""trial"",""time""
""focus"",""2"",""7729""
","""event"",""trial"",""time""
""fullscreenenter"",""1"",""1588""
","
","","","-1","","","20","10936","2650","&#9761;","elianto","#3366ff99","-1","-1","1","+10","[]","0","0","2","","","","","","","",""
"call-function","57","571906","0.0-2.0-12.0","battery-v0.2","","""event"",""trial"",""time""
""fullscreenenter"",""1"",""1588""
""blur"",""1"",""2179""
""focus"",""2"",""7729""
","""event"",""trial"",""time""
""blur"",""1"",""2179""
","""event"",""trial"",""time""
""focus"",""2"",""7729""
","""event"",""trial"",""time""
""fullscreenenter"",""1"",""1588""
","
","","","","","","","","","","","","","","","","","","","","","","","","","","",""
"pit-instructions","58","607048","0.0-2.0-13.0","battery-v0.2","","""event"",""trial"",""time""
""fullscreenenter"",""1"",""1588""
""blur"",""1"",""2179""
""focus"",""2"",""7729""
","""event"",""trial"",""time""
""blur"",""1"",""2179""
","""event"",""trial"",""time""
""focus"",""2"",""7729""
","""event"",""trial"",""time""
""fullscreenenter"",""1"",""1588""
","
","","[{""page_index"":0,""viewing_time"":6414.899999856949},{""page_index"":1,""viewing_time"":7446.400000095367},{""page_index"":2,""viewing_time"":4108.700000047684},{""page_index"":3,""viewing_time"":13020.099999904633},{""page_index"":4,""viewing_time"":4150.200000047684}]","35140.59999990463","","","","","","","","","","","","","","","","","","","","","","","",""
"pit-trial","59","611383","0.0-2.0-14.0-0.0","battery-v0.2","","""event"",""trial"",""time""
""fullscreenenter"",""1"",""1588""
""blur"",""1"",""2179""
""focus"",""2"",""7729""
","""event"",""trial"",""time""
""blur"",""1"",""2179""
","""event"",""trial"",""time""
""focus"",""2"",""7729""
","""event"",""trial"",""time""
""fullscreenenter"",""1"",""1588""
","
","","","1476.9000000953674","","","20","10936","2650","&#9826;","elianto","#f73b6a7A","-1"," ","0","-10","[2328]","1","0","3","","","","","","","",""
"pit-trial","60","614528","0.0-2.0-14.0-1.0","battery-v0.2","","""event"",""trial"",""time""
""fullscreenenter"",""1"",""1588""
""blur"",""1"",""2179""
""focus"",""2"",""7729""
","""event"",""trial"",""time""
""blur"",""1"",""2179""
","""event"",""trial"",""time""
""focus"",""2"",""7729""
","""event"",""trial"",""time""
""fullscreenenter"",""1"",""1588""
","
","","","272.40000009536743","","","20","10936","2650","&#9826;","elianto","#f73b6a7A","-1"," ","0","-10","[1130.9000000953674]","1","0","3","","","","","","","",""
"pit-trial","61","619398","0.0-2.0-14.0-2.0","battery-v0.2","","""event"",""trial"",""time""
""fullscreenenter"",""1"",""1588""
""blur"",""1"",""2179""
""focus"",""2"",""7729""
","""event"",""trial"",""time""
""blur"",""1"",""2179""
","""event"",""trial"",""time""
""focus"",""2"",""7729""
","""event"",""trial"",""time""
""fullscreenenter"",""1"",""1588""
","
","","","-1","","","20","10936","2650","&#9826;","elianto","#f73b6a7A","-1","-1","1","0","[]","0","0","3","","","","","","","",""
"pit-trial","62","624272","0.0-2.0-14.0-3.0","battery-v0.2","","""event"",""trial"",""time""
""fullscreenenter"",""1"",""1588""
""blur"",""1"",""2179""
""focus"",""2"",""7729""
","""event"",""trial"",""time""
""blur"",""1"",""2179""
","""event"",""trial"",""time""
""focus"",""2"",""7729""
","""event"",""trial"",""time""
""fullscreenenter"",""1"",""1588""
","
","","","-1","","","20","10936","2650","&#9826;","elianto","#f73b6a7A","-1","-1","1","-10","[]","0","0","3","","","","","","","",""
"pit-trial","63","629144","0.0-2.0-14.0-4.0","battery-v0.2","","""event"",""trial"",""time""
""fullscreenenter"",""1"",""1588""
""blur"",""1"",""2179""
""focus"",""2"",""7729""
","""event"",""trial"",""time""
""blur"",""1"",""2179""
","""event"",""trial"",""time""
""focus"",""2"",""7729""
","""event"",""trial"",""time""
""fullscreenenter"",""1"",""1588""
","
","","","-1","","","20","10936","2650","&#9826;","elianto","#f73b6a7A","-1","-1","1","0","[]","0","0","3","","","","","","","",""
"pit-trial","64","634013","0.0-2.0-14.1-0.1","battery-v0.2","","""event"",""trial"",""time""
""fullscreenenter"",""1"",""1588""
""blur"",""1"",""2179""
""focus"",""2"",""7729""
","""event"",""trial"",""time""
""blur"",""1"",""2179""
","""event"",""trial"",""time""
""focus"",""2"",""7729""
","""event"",""trial"",""time""
""fullscreenenter"",""1"",""1588""
","
","","","-1","","","20","10936","2650","&#9826;","elianto","#f73b6a7A","-1","-1","1","0","[]","0","0","3","","","","","","","",""
"pit-trial","65","638887","0.0-2.0-14.1-1.1","battery-v0.2","","""event"",""trial"",""time""
""fullscreenenter"",""1"",""1588""
""blur"",""1"",""2179""
""focus"",""2"",""7729""
","""event"",""trial"",""time""
""blur"",""1"",""2179""
","""event"",""trial"",""time""
""focus"",""2"",""7729""
","""event"",""trial"",""time""
""fullscreenenter"",""1"",""1588""
","
","","","-1","","","20","10936","2650","&#9826;","elianto","#f73b6a7A","-1","-1","1","0","[]","0","0","3","","","","","","","",""
"pit-trial","66","643759","0.0-2.0-14.1-2.1","battery-v0.2","","""event"",""trial"",""time""
""fullscreenenter"",""1"",""1588""
""blur"",""1"",""2179""
""focus"",""2"",""7729""
","""event"",""trial"",""time""
""blur"",""1"",""2179""
","""event"",""trial"",""time""
""focus"",""2"",""7729""
","""event"",""trial"",""time""
""fullscreenenter"",""1"",""1588""
","
","","","-1","","","20","10936","2650","&#9826;","elianto","#f73b6a7A","-1","-1","1","0","[]","0","0","3","","","","","","","",""
"pit-trial","67","648632","0.0-2.0-14.1-3.1","battery-v0.2","","""event"",""trial"",""time""
""fullscreenenter"",""1"",""1588""
""blur"",""1"",""2179""
""focus"",""2"",""7729""
","""event"",""trial"",""time""
""blur"",""1"",""2179""
","""event"",""trial"",""time""
""focus"",""2"",""7729""
","""event"",""trial"",""time""
""fullscreenenter"",""1"",""1588""
","
","","","-1","","","20","10936","2650","&#9826;","elianto","#f73b6a7A","-1","-1","1","-10","[]","0","0","3","","","","","","","",""
"pit-trial","68","653503","0.0-2.0-14.1-4.1","battery-v0.2","","""event"",""trial"",""time""
""fullscreenenter"",""1"",""1588""
""blur"",""1"",""2179""
""focus"",""2"",""7729""
","""event"",""trial"",""time""
""blur"",""1"",""2179""
","""event"",""trial"",""time""
""focus"",""2"",""7729""
","""event"",""trial"",""time""
""fullscreenenter"",""1"",""1588""
","
","","","-1","","","20","10936","2650","&#9826;","elianto","#f73b6a7A","-1","-1","1","0","[]","0","0","3","","","","","","","",""
"pit-trial","69","658376","0.0-2.0-14.2-0.2","battery-v0.2","","""event"",""trial"",""time""
""fullscreenenter"",""1"",""1588""
""blur"",""1"",""2179""
""focus"",""2"",""7729""
","""event"",""trial"",""time""
""blur"",""1"",""2179""
","""event"",""trial"",""time""
""focus"",""2"",""7729""
","""event"",""trial"",""time""
""fullscreenenter"",""1"",""1588""
","
","","","-1","","","20","10936","2650","&#9826;","elianto","#f73b6a7A","-1","-1","1","0","[]","0","0","3","","","","","","","",""
"pit-trial","70","663245","0.0-2.0-14.2-1.2","battery-v0.2","","""event"",""trial"",""time""
""fullscreenenter"",""1"",""1588""
""blur"",""1"",""2179""
""focus"",""2"",""7729""
","""event"",""trial"",""time""
""blur"",""1"",""2179""
","""event"",""trial"",""time""
""focus"",""2"",""7729""
","""event"",""trial"",""time""
""fullscreenenter"",""1"",""1588""
","
","","","-1","","","20","10936","2650","&#9826;","elianto","#f73b6a7A","-1","-1","1","0","[]","0","0","3","","","","","","","",""
"pit-trial","71","668112","0.0-2.0-14.2-2.2","battery-v0.2","","""event"",""trial"",""time""
""fullscreenenter"",""1"",""1588""
""blur"",""1"",""2179""
""focus"",""2"",""7729""
","""event"",""trial"",""time""
""blur"",""1"",""2179""
","""event"",""trial"",""time""
""focus"",""2"",""7729""
","""event"",""trial"",""time""
""fullscreenenter"",""1"",""1588""
","
","","","-1","","","20","10936","2650","&#9826;","elianto","#f73b6a7A","-1","-1","1","0","[]","0","0","3","","","","","","","",""
"pit-trial","72","672984","0.0-2.0-14.2-3.2","battery-v0.2","","""event"",""trial"",""time""
""fullscreenenter"",""1"",""1588""
""blur"",""1"",""2179""
""focus"",""2"",""7729""
","""event"",""trial"",""time""
""blur"",""1"",""2179""
","""event"",""trial"",""time""
""focus"",""2"",""7729""
","""event"",""trial"",""time""
""fullscreenenter"",""1"",""1588""
","
","","","-1","","","20","10936","2650","&#9826;","elianto","#f73b6a7A","-1","-1","1","-10","[]","0","0","3","","","","","","","",""
"pit-trial","73","677852","0.0-2.0-14.2-4.2","battery-v0.2","","""event"",""trial"",""time""
""fullscreenenter"",""1"",""1588""
""blur"",""1"",""2179""
""focus"",""2"",""7729""
","""event"",""trial"",""time""
""blur"",""1"",""2179""
","""event"",""trial"",""time""
""focus"",""2"",""7729""
","""event"",""trial"",""time""
""fullscreenenter"",""1"",""1588""
","
","","","-1","","","20","10936","2650","&#9826;","elianto","#f73b6a7A","-1","-1","1","0","[]","0","0","3","","","","","","","",""
"pit-trial","74","682726","0.0-2.0-14.3-0.3","battery-v0.2","","""event"",""trial"",""time""
""fullscreenenter"",""1"",""1588""
""blur"",""1"",""2179""
""focus"",""2"",""7729""
","""event"",""trial"",""time""
""blur"",""1"",""2179""
","""event"",""trial"",""time""
""focus"",""2"",""7729""
","""event"",""trial"",""time""
""fullscreenenter"",""1"",""1588""
","
","","","-1","","","20","10936","2650","&#9826;","elianto","#f73b6a7A","-1","-1","1","0","[]","0","0","3","","","","","","","",""
"pit-trial","75","687596","0.0-2.0-14.3-1.3","battery-v0.2","","""event"",""trial"",""time""
""fullscreenenter"",""1"",""1588""
""blur"",""1"",""2179""
""focus"",""2"",""7729""
","""event"",""trial"",""time""
""blur"",""1"",""2179""
","""event"",""trial"",""time""
""focus"",""2"",""7729""
","""event"",""trial"",""time""
""fullscreenenter"",""1"",""1588""
","
","","","-1","","","20","10936","2650","&#9826;","elianto","#f73b6a7A","-1","-1","1","0","[]","0","0","3","","","","","","","",""
"pit-trial","76","692468","0.0-2.0-14.3-2.3","battery-v0.2","","""event"",""trial"",""time""
""fullscreenenter"",""1"",""1588""
""blur"",""1"",""2179""
""focus"",""2"",""7729""
","""event"",""trial"",""time""
""blur"",""1"",""2179""
","""event"",""trial"",""time""
""focus"",""2"",""7729""
","""event"",""trial"",""time""
""fullscreenenter"",""1"",""1588""
","
","","","-1","","","20","10936","2650","&#9826;","elianto","#f73b6a7A","-1","-1","1","0","[]","0","0","3","","","","","","","",""
"pit-trial","77","697335","0.0-2.0-14.3-3.3","battery-v0.2","","""event"",""trial"",""time""
""fullscreenenter"",""1"",""1588""
""blur"",""1"",""2179""
""focus"",""2"",""7729""
","""event"",""trial"",""time""
""blur"",""1"",""2179""
","""event"",""trial"",""time""
""focus"",""2"",""7729""
","""event"",""trial"",""time""
""fullscreenenter"",""1"",""1588""
","
","","","-1","","","20","10936","2650","&#9826;","elianto","#f73b6a7A","-1","-1","1","-10","[]","0","0","3","","","","","","","",""
"pit-trial","78","702208","0.0-2.0-14.3-4.3","battery-v0.2","","""event"",""trial"",""time""
""fullscreenenter"",""1"",""1588""
""blur"",""1"",""2179""
""focus"",""2"",""7729""
","""event"",""trial"",""time""
""blur"",""1"",""2179""
","""event"",""trial"",""time""
""focus"",""2"",""7729""
","""event"",""trial"",""time""
""fullscreenenter"",""1"",""1588""
","
","","","-1","","","20","10936","2650","&#9826;","elianto","#f73b6a7A","-1","-1","1","0","[]","0","0","3","","","","","","","",""
"call-function","79","702211","0.0-2.0-15.0","battery-v0.2","","""event"",""trial"",""time""
""fullscreenenter"",""1"",""1588""
""blur"",""1"",""2179""
""focus"",""2"",""7729""
","""event"",""trial"",""time""
""blur"",""1"",""2179""
","""event"",""trial"",""time""
""focus"",""2"",""7729""
","""event"",""trial"",""time""
""fullscreenenter"",""1"",""1588""
","
","","","","","","","","","","","","","","","","","","","","","","","","","","",""
"pit-instructions","80","792153","0.0-2.0-16.0","battery-v0.2","","""event"",""trial"",""time""
""fullscreenenter"",""1"",""1588""
""blur"",""1"",""2179""
""focus"",""2"",""7729""
","""event"",""trial"",""time""
""blur"",""1"",""2179""
","""event"",""trial"",""time""
""focus"",""2"",""7729""
","""event"",""trial"",""time""
""fullscreenenter"",""1"",""1588""
","
","","[{""page_index"":0,""viewing_time"":68549.29999995232},{""page_index"":1,""viewing_time"":8901.900000095367},{""page_index"":2,""viewing_time"":6914.700000047684},{""page_index"":3,""viewing_time"":5574.299999952316}]","89940.60000014305","","","","","","","","","","","","","","","","","","","","","","","",""
"pit-trial","81","795809","0.0-2.0-17.0-0.0","battery-v0.2","","""event"",""trial"",""time""
""fullscreenenter"",""1"",""1588""
""blur"",""1"",""2179""
""focus"",""2"",""7729""
","""event"",""trial"",""time""
""blur"",""1"",""2179""
","""event"",""trial"",""time""
""focus"",""2"",""7729""
","""event"",""trial"",""time""
""fullscreenenter"",""1"",""1588""
","
","","","784.0999999046326","","","20","10936","2650","&#9789;","elianto","#f73b6a7A"," "," ","1","0","[1642.4000000953674]","1","0","4","","","","","","","",""
"pit-trial","82","799192","0.0-2.0-17.0-1.0","battery-v0.2","","""event"",""trial"",""time""
""fullscreenenter"",""1"",""1588""
""blur"",""1"",""2179""
""focus"",""2"",""7729""
","""event"",""trial"",""time""
""blur"",""1"",""2179""
","""event"",""trial"",""time""
""focus"",""2"",""7729""
","""event"",""trial"",""time""
""fullscreenenter"",""1"",""1588""
","
","","","513.6999998092651","","","20","10936","2650","&#9789;","elianto","#f73b6a7A"," "," ","1","0","[1366.7999999523163]","1","0","4","","","","","","","",""
"pit-trial","83","802536","0.0-2.0-17.0-2.0","battery-v0.2","","""event"",""trial"",""time""
""fullscreenenter"",""1"",""1588""
""blur"",""1"",""2179""
""focus"",""2"",""7729""
","""event"",""trial"",""time""
""blur"",""1"",""2179""
","""event"",""trial"",""time""
""focus"",""2"",""7729""
","""event"",""trial"",""time""
""fullscreenenter"",""1"",""1588""
","
","","","476.7999999523163","","","20","10936","2650","&#9789;","elianto","#f73b6a7A"," "," ","1","0","[1329.2999999523163]","1","0","4","","","","","","","",""
"pit-trial","84","807409","0.0-2.0-17.0-3.0","battery-v0.2","","""event"",""trial"",""time""
""fullscreenenter"",""1"",""1588""
""blur"",""1"",""2179""
""focus"",""2"",""7729""
","""event"",""trial"",""time""
""blur"",""1"",""2179""
","""event"",""trial"",""time""
""focus"",""2"",""7729""
","""event"",""trial"",""time""
""fullscreenenter"",""1"",""1588""
","
","","","-1","","","20","10936","2650","&#9789;","elianto","#f73b6a7A"," ","-1","0","0","[3016.0999999046326]","1","0","4","","","","","","","",""
"pit-trial","85","811149","0.0-2.0-17.0-4.0","battery-v0.2","","""event"",""trial"",""time""
""fullscreenenter"",""1"",""1588""
""blur"",""1"",""2179""
""focus"",""2"",""7729""
","""event"",""trial"",""time""
""blur"",""1"",""2179""
","""event"",""trial"",""time""
""focus"",""2"",""7729""
","""event"",""trial"",""time""
""fullscreenenter"",""1"",""1588""
","
","","","880.4000000953674","","","20","10936","2650","&#9789;","elianto","#f73b6a7A"," "," ","1","0","[1733.5]","1","0","4","","","","","","","",""
"pit-trial","86","814740","0.0-2.0-17.1-0.1","battery-v0.2","","""event"",""trial"",""time""
""fullscreenenter"",""1"",""1588""
""blur"",""1"",""2179""
""focus"",""2"",""7729""
","""event"",""trial"",""time""
""blur"",""1"",""2179""
","""event"",""trial"",""time""
""focus"",""2"",""7729""
","""event"",""trial"",""time""
""fullscreenenter"",""1"",""1588""
","
","","","725.1000001430511","","","20","10936","2650","&#9789;","elianto","#f73b6a7A"," "," ","1","0","[1583.5999999046326]","1","0","4","","","","","","","",""
"pit-trial","87","817944","0.0-2.0-17.1-1.1","battery-v0.2","","""event"",""trial"",""time""
""fullscreenenter"",""1"",""1588""
""blur"",""1"",""2179""
""focus"",""2"",""7729""
","""event"",""trial"",""time""
""blur"",""1"",""2179""
","""event"",""trial"",""time""
""focus"",""2"",""7729""
","""event"",""trial"",""time""
""fullscreenenter"",""1"",""1588""
","
","","","338.40000009536743","","","20","10936","2650","&#9789;","elianto","#f73b6a7A"," "," ","1","0","[1193.5]","1","0","4","","","","","","","",""
"pit-trial","88","821472","0.0-2.0-17.1-2.1","battery-v0.2","","""event"",""trial"",""time""
""fullscreenenter"",""1"",""1588""
""blur"",""1"",""2179""
""focus"",""2"",""7729""
","""event"",""trial"",""time""
""blur"",""1"",""2179""
","""event"",""trial"",""time""
""focus"",""2"",""7729""
","""event"",""trial"",""time""
""fullscreenenter"",""1"",""1588""
","
","","","661.6000001430511","","","20","10936","2650","&#9789;","elianto","#f73b6a7A"," "," ","1","0","[1513]","1","0","4","","","","","","","",""
"pit-trial","89","826086","0.0-2.0-17.1-3.1","battery-v0.2","","""event"",""trial"",""time""
""fullscreenenter"",""1"",""1588""
""blur"",""1"",""2179""
""focus"",""2"",""7729""
","""event"",""trial"",""time""
""blur"",""1"",""2179""
","""event"",""trial"",""time""
""focus"",""2"",""7729""
","""event"",""trial"",""time""
""fullscreenenter"",""1"",""1588""
","
","","","1744.1000001430511","","","20","10936","2650","&#9789;","elianto","#f73b6a7A"," "," ","1","-10","[2599.300000190735]","1","0","4","","","","","","","",""
"pit-trial","90","829944","0.0-2.0-17.1-4.1","battery-v0.2","","""event"",""trial"",""time""
""fullscreenenter"",""1"",""1588""
""blur"",""1"",""2179""
""focus"",""2"",""7729""
","""event"",""trial"",""time""
""blur"",""1"",""2179""
","""event"",""trial"",""time""
""focus"",""2"",""7729""
","""event"",""trial"",""time""
""fullscreenenter"",""1"",""1588""
","
","","","988.7000000476837","","","20","10936","2650","&#9789;","elianto","#f73b6a7A"," "," ","1","0","[1847.0999999046326]","1","0","4","","","","","","","",""
"pit-trial","91","833590","0.0-2.0-17.2-0.2","battery-v0.2","","""event"",""trial"",""time""
""fullscreenenter"",""1"",""1588""
""blur"",""1"",""2179""
""focus"",""2"",""7729""
","""event"",""trial"",""time""
""blur"",""1"",""2179""
","""event"",""trial"",""time""
""focus"",""2"",""7729""
","""event"",""trial"",""time""
""fullscreenenter"",""1"",""1588""
","
","","","781.7999999523163","","","20","10936","2650","&#9789;","elianto","#f73b6a7A"," "," ","1","0","[1632.2999999523163]","1","0","4","","","","","","","",""
"pit-trial","92","837256","0.0-2.0-17.2-1.2","battery-v0.2","","""event"",""trial"",""time""
""fullscreenenter"",""1"",""1588""
""blur"",""1"",""2179""
""focus"",""2"",""7729""
","""event"",""trial"",""time""
""blur"",""1"",""2179""
","""event"",""trial"",""time""
""focus"",""2"",""7729""
","""event"",""trial"",""time""
""fullscreenenter"",""1"",""1588""
","
","","","800.7000000476837","","","20","10936","2650","&#9789;","elianto","#f73b6a7A"," "," ","1","0","[1655.2000000476837]","1","0","4","","","","","","","",""
"pit-trial","93","840390","0.0-2.0-17.2-2.2","battery-v0.2","","""event"",""trial"",""time""
""fullscreenenter"",""1"",""1588""
""blur"",""1"",""2179""
""focus"",""2"",""7729""
","""event"",""trial"",""time""
""blur"",""1"",""2179""
","""event"",""trial"",""time""
""focus"",""2"",""7729""
","""event"",""trial"",""time""
""fullscreenenter"",""1"",""1588""
","
","","","268.60000014305115","","","20","10936","2650","&#9789;","elianto","#f73b6a7A"," "," ","1","0","[1124.3000001907349]","1","0","4","","","","","","","",""
"pit-trial","94","843584","0.0-2.0-17.2-3.2","battery-v0.2","","""event"",""trial"",""time""
""fullscreenenter"",""1"",""1588""
""blur"",""1"",""2179""
""focus"",""2"",""7729""
","""event"",""trial"",""time""
""blur"",""1"",""2179""
","""event"",""trial"",""time""
""focus"",""2"",""7729""
","""event"",""trial"",""time""
""fullscreenenter"",""1"",""1588""
","
","","","324.19999980926514","","","20","10936","2650","&#9789;","elianto","#f73b6a7A"," "," ","1","-10","[1179.7999999523163]","1","0","4","","","","","","","",""
"pit-trial","95","846895","0.0-2.0-17.2-4.2","battery-v0.2","","""event"",""trial"",""time""
""fullscreenenter"",""1"",""1588""
""blur"",""1"",""2179""
""focus"",""2"",""7729""
","""event"",""trial"",""time""
""blur"",""1"",""2179""
","""event"",""trial"",""time""
""focus"",""2"",""7729""
","""event"",""trial"",""time""
""fullscreenenter"",""1"",""1588""
","
","","","439","","","20","10936","2650","&#9789;","elianto","#f73b6a7A"," "," ","1","0","[1296]","1","0","4","","","","","","","",""
"pit-trial","96","850336","0.0-2.0-17.3-0.3","battery-v0.2","","""event"",""trial"",""time""
""fullscreenenter"",""1"",""1588""
""blur"",""1"",""2179""
""focus"",""2"",""7729""
","""event"",""trial"",""time""
""blur"",""1"",""2179""
","""event"",""trial"",""time""
""focus"",""2"",""7729""
","""event"",""trial"",""time""
""fullscreenenter"",""1"",""1588""
","
","","","575.5","","","20","10936","2650","&#9789;","elianto","#f73b6a7A"," "," ","1","0","[420.7000000476837,1425.6000001430511]","2","0","4","","","","","","","",""
"pit-trial","97","854086","0.0-2.0-17.3-1.3","battery-v0.2","","""event"",""trial"",""time""
""fullscreenenter"",""1"",""1588""
""blur"",""1"",""2179""
""focus"",""2"",""7729""
","""event"",""trial"",""time""
""blur"",""1"",""2179""
","""event"",""trial"",""time""
""focus"",""2"",""7729""
","""event"",""trial"",""time""
""fullscreenenter"",""1"",""1588""
","
","","","877.7999999523163","","","20","10936","2650","&#9789;","elianto","#f73b6a7A"," "," ","1","0","[1736.2000000476837]","1","0","4","","","","","","","",""
"pit-trial","98","857320","0.0-2.0-17.3-2.3","battery-v0.2","","""event"",""trial"",""time""
""fullscreenenter"",""1"",""1588""
""blur"",""1"",""2179""
""focus"",""2"",""7729""
","""event"",""trial"",""time""
""blur"",""1"",""2179""
","""event"",""trial"",""time""
""focus"",""2"",""7729""
","""event"",""trial"",""time""
""fullscreenenter"",""1"",""1588""
","
","","","367.10000014305115","","","20","10936","2650","&#9789;","elianto","#f73b6a7A"," "," ","1","0","[1223.0999999046326]","1","0","4","","","","","","","",""
"pit-trial","99","860902","0.0-2.0-17.3-3.3","battery-v0.2","","""event"",""trial"",""time""
""fullscreenenter"",""1"",""1588""
""blur"",""1"",""2179""
""focus"",""2"",""7729""
","""event"",""trial"",""time""
""blur"",""1"",""2179""
","""event"",""trial"",""time""
""focus"",""2"",""7729""
","""event"",""trial"",""time""
""fullscreenenter"",""1"",""1588""
","
","","","715","","","20","10936","2650","&#9789;","elianto","#f73b6a7A"," "," ","1","-10","[1573]","1","0","4","","","","","","","",""
"pit-trial","100","864496","0.0-2.0-17.3-4.3","battery-v0.2","","""event"",""trial"",""time""
""fullscreenenter"",""1"",""1588""
""blur"",""1"",""2179""
""focus"",""2"",""7729""
","""event"",""trial"",""time""
""blur"",""1"",""2179""
","""event"",""trial"",""time""
""focus"",""2"",""7729""
","""event"",""trial"",""time""
""fullscreenenter"",""1"",""1588""
","
","","","731.5999999046326","","","20","10936","2650","&#9789;","elianto","#f73b6a7A"," "," ","1","0","[1583.7999999523163]","1","0","4","","","","","","","",""
"call-function","101","864500","0.0-2.0-18.0","battery-v0.2","","""event"",""trial"",""time""
""fullscreenenter"",""1"",""1588""
""blur"",""1"",""2179""
""focus"",""2"",""7729""
","""event"",""trial"",""time""
""blur"",""1"",""2179""
","""event"",""trial"",""time""
""focus"",""2"",""7729""
","""event"",""trial"",""time""
""fullscreenenter"",""1"",""1588""
","
","","","","","","","","","","","","","","","","","","","","","","","","","","",""
"pit-instructions","102","982173","0.0-2.0-19.0","battery-v0.2","","""event"",""trial"",""time""
""fullscreenenter"",""1"",""1588""
""blur"",""1"",""2179""
""focus"",""2"",""7729""
","""event"",""trial"",""time""
""blur"",""1"",""2179""
","""event"",""trial"",""time""
""focus"",""2"",""7729""
","""event"",""trial"",""time""
""fullscreenenter"",""1"",""1588""
","
","","[{""page_index"":0,""viewing_time"":7566.200000047684},{""page_index"":1,""viewing_time"":7025.299999952316},{""page_index"":2,""viewing_time"":9062.299999952316},{""page_index"":3,""viewing_time"":9502.300000190735},{""page_index"":4,""viewing_time"":7357.199999809265},{""page_index"":5,""viewing_time"":8023.100000143051},{""page_index"":6,""viewing_time"":56994.299999952316},{""page_index"":7,""viewing_time"":6524.900000095367},{""page_index"":8,""viewing_time"":5615.5}]","117671.5","","","","","","","","","","","","","","","","","","","","","","","",""
"pit-comprehension","103","987714","0.0-2.0-20.0-0.0","battery-v0.2","","""event"",""trial"",""time""
""fullscreenenter"",""1"",""1588""
""blur"",""1"",""2179""
""focus"",""2"",""7729""
","""event"",""trial"",""time""
""blur"",""1"",""2179""
","""event"",""trial"",""time""
""focus"",""2"",""7729""
","""event"",""trial"",""time""
""fullscreenenter"",""1"",""1588""
","
","","","5534.699999809265","[""SPACE""]","0","20","10936","2650","","","","","","","","","","","","","","","","","","",""
"pit-instructions","104","991906","0.0-2.0-20.0-1.0","battery-v0.2","","""event"",""trial"",""time""
""fullscreenenter"",""1"",""1588""
""blur"",""1"",""2179""
""focus"",""2"",""7729""
","""event"",""trial"",""time""
""blur"",""1"",""2179""
","""event"",""trial"",""time""
""focus"",""2"",""7729""
","""event"",""trial"",""time""
""fullscreenenter"",""1"",""1588""
","
","","[{""page_index"":0,""viewing_time"":4164.899999856949}]","4165.099999904633","","","","","","","","","","","","","","","","","","","","","","","",""
"pit-comprehension","105","996498","0.0-2.0-21.0-0.0","battery-v0.2","","""event"",""trial"",""time""
""fullscreenenter"",""1"",""1588""
""blur"",""1"",""2179""
""focus"",""2"",""7729""
","""event"",""trial"",""time""
""blur"",""1"",""2179""
","""event"",""trial"",""time""
""focus"",""2"",""7729""
","""event"",""trial"",""time""
""fullscreenenter"",""1"",""1588""
","
","","","4586.400000095367","[""10""]","0","20","10936","2650","","","","","","","","","","","","","","","","","","",""
"pit-instructions","106","1001506","0.0-2.0-21.0-1.0","battery-v0.2","","""event"",""trial"",""time""
""fullscreenenter"",""1"",""1588""
""blur"",""1"",""2179""
""focus"",""2"",""7729""
","""event"",""trial"",""time""
""blur"",""1"",""2179""
","""event"",""trial"",""time""
""focus"",""2"",""7729""
","""event"",""trial"",""time""
""fullscreenenter"",""1"",""1588""
","
","","[{""page_index"":0,""viewing_time"":4986.700000047684}]","4986.900000095367","","","","","","","","","","","","","","","","","","","","","","","",""
"pit-comprehension","107","1008251","0.0-2.0-22.0-0.0","battery-v0.2","","""event"",""trial"",""time""
""fullscreenenter"",""1"",""1588""
""blur"",""1"",""2179""
""focus"",""2"",""7729""
","""event"",""trial"",""time""
""blur"",""1"",""2179""
","""event"",""trial"",""time""
""focus"",""2"",""7729""
","""event"",""trial"",""time""
""fullscreenenter"",""1"",""1588""
","
","","","6740.599999904633","[""-10""]","1","20","10936","2650","","","","","","","","","","","","","","","","","","",""
"pit-instructions","108","1014979","0.0-2.0-22.0-1.0","battery-v0.2","","""event"",""trial"",""time""
""fullscreenenter"",""1"",""1588""
""blur"",""1"",""2179""
""focus"",""2"",""7729""
","""event"",""trial"",""time""
""blur"",""1"",""2179""
","""event"",""trial"",""time""
""focus"",""2"",""7729""
","""event"",""trial"",""time""
""fullscreenenter"",""1"",""1588""
","
","","[{""page_index"":0,""viewing_time"":6704.200000047684}]","6704.399999856949","","","","","","","","","","","","","","","","","","","","","","","",""
"pit-instructions","109","1018027","0.0-2.0-22.0-2.0-0.0","battery-v0.2","","""event"",""trial"",""time""
""fullscreenenter"",""1"",""1588""
""blur"",""1"",""2179""
""focus"",""2"",""7729""
","""event"",""trial"",""time""
""blur"",""1"",""2179""
","""event"",""trial"",""time""
""focus"",""2"",""7729""
","""event"",""trial"",""time""
""fullscreenenter"",""1"",""1588""
","
","","[{""page_index"":0,""viewing_time"":3045.5999999046326}]","3045.7999999523163","","","","","","","","","","","","","","","","","","","","","","","",""
"pit-comprehension","110","1024476","0.0-2.0-22.1-0.1","battery-v0.2","","""event"",""trial"",""time""
""fullscreenenter"",""1"",""1588""
""blur"",""1"",""2179""
""focus"",""2"",""7729""
","""event"",""trial"",""time""
""blur"",""1"",""2179""
","""event"",""trial"",""time""
""focus"",""2"",""7729""
","""event"",""trial"",""time""
""fullscreenenter"",""1"",""1588""
","
","","","6447","[""0""]","0","20","10936","2650","","","","","","","","","","","","","","","","","","",""
"pit-instructions","111","1027443","0.0-2.0-22.1-1.1","battery-v0.2","","""event"",""trial"",""time""
""fullscreenenter"",""1"",""1588""
""blur"",""1"",""2179""
""focus"",""2"",""7729""
","""event"",""trial"",""time""
""blur"",""1"",""2179""
","""event"",""trial"",""time""
""focus"",""2"",""7729""
","""event"",""trial"",""time""
""fullscreenenter"",""1"",""1588""
","
","","[{""page_index"":0,""viewing_time"":2944.0999999046326}]","2944.2999999523163","","","","","","","","","","","","","","","","","","","","","","","",""
"pit-comprehension","112","1049524","0.0-2.0-23.0-0.0","battery-v0.2","","""event"",""trial"",""time""
""fullscreenenter"",""1"",""1588""
""blur"",""1"",""2179""
""focus"",""2"",""7729""
","""event"",""trial"",""time""
""blur"",""1"",""2179""
","""event"",""trial"",""time""
""focus"",""2"",""7729""
","""event"",""trial"",""time""
""fullscreenenter"",""1"",""1588""
","
","","","22077.099999904633","[""True""]","0","20","10936","2650","","","","","","","","","","","","","","","","","","",""
"pit-instructions","113","1052130","0.0-2.0-23.0-1.0","battery-v0.2","","""event"",""trial"",""time""
""fullscreenenter"",""1"",""1588""
""blur"",""1"",""2179""
""focus"",""2"",""7729""
","""event"",""trial"",""time""
""blur"",""1"",""2179""
","""event"",""trial"",""time""
""focus"",""2"",""7729""
","""event"",""trial"",""time""
""fullscreenenter"",""1"",""1588""
","
","","[{""page_index"":0,""viewing_time"":2583.600000143051}]","2584","","","","","","","","","","","","","","","","","","","","","","","",""
"pit-comprehension","114","1059607","0.0-2.0-24.0-0.0","battery-v0.2","","""event"",""trial"",""time""
""fullscreenenter"",""1"",""1588""
""blur"",""1"",""2179""
""focus"",""2"",""7729""
","""event"",""trial"",""time""
""blur"",""1"",""2179""
","""event"",""trial"",""time""
""focus"",""2"",""7729""
","""event"",""trial"",""time""
""fullscreenenter"",""1"",""1588""
","
","","","7472.799999952316","[""True""]","0","20","10936","2650","","","","","","","","","","","","","","","","","","",""
"pit-instructions","115","1062968","0.0-2.0-24.0-1.0","battery-v0.2","","""event"",""trial"",""time""
""fullscreenenter"",""1"",""1588""
""blur"",""1"",""2179""
""focus"",""2"",""7729""
","""event"",""trial"",""time""
""blur"",""1"",""2179""
","""event"",""trial"",""time""
""focus"",""2"",""7729""
","""event"",""trial"",""time""
""fullscreenenter"",""1"",""1588""
","
","","[{""page_index"":0,""viewing_time"":3338.5}]","3338.800000190735","","","","","","","","","","","","","","","","","","","","","","","",""
"pit-comprehension","116","1069345","0.0-2.0-25.0-0.0","battery-v0.2","","""event"",""trial"",""time""
""fullscreenenter"",""1"",""1588""
""blur"",""1"",""2179""
""focus"",""2"",""7729""
","""event"",""trial"",""time""
""blur"",""1"",""2179""
","""event"",""trial"",""time""
""focus"",""2"",""7729""
","""event"",""trial"",""time""
""fullscreenenter"",""1"",""1588""
","
","","","6375.300000190735","[""True""]","0","20","10936","2650","","","","","","","","","","","","","","","","","","",""
"pit-instructions","117","1088787","0.0-2.0-25.0-1.0","battery-v0.2","","""event"",""trial"",""time""
""fullscreenenter"",""1"",""1588""
""blur"",""1"",""2179""
""focus"",""2"",""7729""
","""event"",""trial"",""time""
""blur"",""1"",""2179""
","""event"",""trial"",""time""
""focus"",""2"",""7729""
","""event"",""trial"",""time""
""fullscreenenter"",""1"",""1588""
","
","","[{""page_index"":0,""viewing_time"":19420}]","19420.099999904633","","","","","","","","","","","","","","","","","","","","","","","",""
"pit-comprehension","118","1094452","0.0-2.0-26.0-0.0","battery-v0.2","","""event"",""trial"",""time""
""fullscreenenter"",""1"",""1588""
""blur"",""1"",""2179""
""focus"",""2"",""7729""
","""event"",""trial"",""time""
""blur"",""1"",""2179""
","""event"",""trial"",""time""
""focus"",""2"",""7729""
","""event"",""trial"",""time""
""fullscreenenter"",""1"",""1588""
","
","","","5661.5","[""False""]","0","20","10936","2650","","","","","","","","","","","","","","","","","","",""
"pit-instructions","119","1098231","0.0-2.0-26.0-1.0","battery-v0.2","","""event"",""trial"",""time""
""fullscreenenter"",""1"",""1588""
""blur"",""1"",""2179""
""focus"",""2"",""7729""
","""event"",""trial"",""time""
""blur"",""1"",""2179""
","""event"",""trial"",""time""
""focus"",""2"",""7729""
","""event"",""trial"",""time""
""fullscreenenter"",""1"",""1588""
","
","","[{""page_index"":0,""viewing_time"":3755.800000190735}]","3756","","","","","","","","","","","","","","","","","","","","","","","",""
"pit-instructions","120","1139848","0.0-3.0","battery-v0.2","","""event"",""trial"",""time""
""fullscreenenter"",""1"",""1588""
""blur"",""1"",""2179""
""focus"",""2"",""7729""
","""event"",""trial"",""time""
""blur"",""1"",""2179""
","""event"",""trial"",""time""
""focus"",""2"",""7729""
","""event"",""trial"",""time""
""fullscreenenter"",""1"",""1588""
","
","","[{""page_index"":0,""viewing_time"":13548.600000143051},{""page_index"":1,""viewing_time"":6876},{""page_index"":2,""viewing_time"":21191}]","41615.800000190735","","","","","","","","","","","","","","","","","","","","","","","",""
"pit-trial","121","1143575","0.0-4.0","battery-v0.2","","""event"",""trial"",""time""
""fullscreenenter"",""1"",""1588""
""blur"",""1"",""2179""
""focus"",""2"",""7729""
","""event"",""trial"",""time""
""blur"",""1"",""2179""
","""event"",""trial"",""time""
""focus"",""2"",""7729""
","""event"",""trial"",""time""
""fullscreenenter"",""1"",""1588""
","
","","","859","","","20","10936","2650","&#9733;","elianto","#3366ff99","-1"," ","0","0","[1713.5]","1","1","","","10936","1","2","2","win","no-go","0"
"pit-trial","122","1148447","0.0-5.0","battery-v0.2","","""event"",""trial"",""time""
""fullscreenenter"",""1"",""1588""
""blur"",""1"",""2179""
""focus"",""2"",""7729""
","""event"",""trial"",""time""
""blur"",""1"",""2179""
","""event"",""trial"",""time""
""focus"",""2"",""7729""
","""event"",""trial"",""time""
""fullscreenenter"",""1"",""1588""
","
","","","-1","","","20","10936","2650","&#9752;","elianto","#f73b6a7A"," ","-1","0","-10","[]","0","1","","","10936","2","3","3","lose","go","0"
"pit-trial","123","1152223","0.0-6.0","battery-v0.2","","""event"",""trial"",""time""
""fullscreenenter"",""1"",""1588""
""blur"",""1"",""2179""
""focus"",""2"",""7729""
","""event"",""trial"",""time""
""blur"",""1"",""2179""
","""event"",""trial"",""time""
""focus"",""2"",""7729""
","""event"",""trial"",""time""
""fullscreenenter"",""1"",""1588""
","
","","","904.6000001430511","","","20","10936","2650","&#9730;","elianto","#3366ff99"," "," ","1","+10","[1762.9000000953674]","1","1","","","10936","3","1","1","win","go","0"
"pit-trial","124","1157096","0.0-7.0","battery-v0.2","","""event"",""trial"",""time""
""fullscreenenter"",""1"",""1588""
""blur"",""1"",""2179""
""focus"",""2"",""7729""
","""event"",""trial"",""time""
""blur"",""1"",""2179""
","""event"",""trial"",""time""
""focus"",""2"",""7729""
","""event"",""trial"",""time""
""fullscreenenter"",""1"",""1588""
","
","","","-1","","","20","10936","2650","&#9728;","elianto","#f73b6a7A","-1","-1","1","0","[]","0","1","","","10936","4","0","4","lose","no-go","0"
"pit-trial","125","1160599","0.0-8.0","battery-v0.2","","""event"",""trial"",""time""
""fullscreenenter"",""1"",""1588""
""blur"",""1"",""2179""
""focus"",""2"",""7729""
","""event"",""trial"",""time""
""blur"",""1"",""2179""
","""event"",""trial"",""time""
""focus"",""2"",""7729""
","""event"",""trial"",""time""
""fullscreenenter"",""1"",""1588""
","
","","","633.7000000476837","","","20","10936","2650","&#9733;","elianto","#3366ff99","-1"," ","0","0","[1492]","1","1","","","10936","5","2","2","win","no-go","0"
"pit-trial","126","1165472","0.0-9.0","battery-v0.2","","""event"",""trial"",""time""
""fullscreenenter"",""1"",""1588""
""blur"",""1"",""2179""
""focus"",""2"",""7729""
","""event"",""trial"",""time""
""blur"",""1"",""2179""
","""event"",""trial"",""time""
""focus"",""2"",""7729""
","""event"",""trial"",""time""
""fullscreenenter"",""1"",""1588""
","
","","","-1","","","20","10936","2650","&#9728;","elianto","#f73b6a7A","-1","-1","1","-10","[]","0","1","","","10936","6","0","4","lose","no-go","1"
"pit-trial","127","1170343","0.0-10.0","battery-v0.2","","""event"",""trial"",""time""
""fullscreenenter"",""1"",""1588""
""blur"",""1"",""2179""
""focus"",""2"",""7729""
","""event"",""trial"",""time""
""blur"",""1"",""2179""
","""event"",""trial"",""time""
""focus"",""2"",""7729""
","""event"",""trial"",""time""
""fullscreenenter"",""1"",""1588""
","
","","","-1","","","20","10936","2650","&#9730;","elianto","#3366ff99"," ","-1","0","0","[]","0","1","","","10936","7","1","1","win","go","0"
"pit-trial","128","1174508","0.0-11.0","battery-v0.2","","""event"",""trial"",""time""
""fullscreenenter"",""1"",""1588""
""blur"",""1"",""2179""
""focus"",""2"",""7729""
","""event"",""trial"",""time""
""blur"",""1"",""2179""
","""event"",""trial"",""time""
""focus"",""2"",""7729""
","""event"",""trial"",""time""
""fullscreenenter"",""1"",""1588""
","
","","","1294.5999999046326","","","20","10936","2650","&#9752;","elianto","#f73b6a7A"," "," ","1","0","[2152]","1","1","","","10936","8","3","3","lose","go","0"
"pit-trial","129","1178238","0.0-12.0","battery-v0.2","","""event"",""trial"",""time""
""fullscreenenter"",""1"",""1588""
""blur"",""1"",""2179""
""focus"",""2"",""7729""
","""event"",""trial"",""time""
""blur"",""1"",""2179""
","""event"",""trial"",""time""
""focus"",""2"",""7729""
","""event"",""trial"",""time""
""fullscreenenter"",""1"",""1588""
","
","","","867.3999998569489","","","20","10936","2650","&#9752;","elianto","#f73b6a7A"," "," ","1","0","[1718.2999999523163]","1","1","","","10936","9","3","3","lose","go","0"
"pit-trial","130","1181758","0.0-13.0","battery-v0.2","","""event"",""trial"",""time""
""fullscreenenter"",""1"",""1588""
""blur"",""1"",""2179""
""focus"",""2"",""7729""
","""event"",""trial"",""time""
""blur"",""1"",""2179""
","""event"",""trial"",""time""
""focus"",""2"",""7729""
","""event"",""trial"",""time""
""fullscreenenter"",""1"",""1588""
","
","","","660.2999999523163","","","20","10936","2650","&#9733;","elianto","#3366ff99","-1"," ","0","0","[1510.7000000476837]","1","1","","","10936","10","2","2","win","no-go","0"
"pit-trial","131","1186632","0.0-14.0","battery-v0.2","","""event"",""trial"",""time""
""fullscreenenter"",""1"",""1588""
""blur"",""1"",""2179""
""focus"",""2"",""7729""
","""event"",""trial"",""time""
""blur"",""1"",""2179""
","""event"",""trial"",""time""
""focus"",""2"",""7729""
","""event"",""trial"",""time""
""fullscreenenter"",""1"",""1588""
","
","","","-1","","","20","10936","2650","&#9728;","elianto","#f73b6a7A","-1","-1","1","-10","[]","0","1","","","10936","11","0","4","lose","no-go","1"
"pit-trial","132","1191502","0.0-15.0","battery-v0.2","","""event"",""trial"",""time""
""fullscreenenter"",""1"",""1588""
""blur"",""1"",""2179""
""focus"",""2"",""7729""
","""event"",""trial"",""time""
""blur"",""1"",""2179""
","""event"",""trial"",""time""
""focus"",""2"",""7729""
","""event"",""trial"",""time""
""fullscreenenter"",""1"",""1588""
","
","","","-1","","","20","10936","2650","&#9730;","elianto","#3366ff99"," ","-1","0","0","[]","0","1","","","10936","12","1","1","win","go","0"
"pit-trial","133","1195507","0.0-16.0","battery-v0.2","","""event"",""trial"",""time""
""fullscreenenter"",""1"",""1588""
""blur"",""1"",""2179""
""focus"",""2"",""7729""
","""event"",""trial"",""time""
""blur"",""1"",""2179""
","""event"",""trial"",""time""
""focus"",""2"",""7729""
","""event"",""trial"",""time""
""fullscreenenter"",""1"",""1588""
","
","","","1141.5999999046326","","","20","10936","2650","&#9730;","elianto","#3366ff99"," "," ","1","+10","[1995.6000001430511]","1","1","","","10936","13","1","1","win","go","0"
"pit-trial","134","1199336","0.0-17.0","battery-v0.2","","""event"",""trial"",""time""
""fullscreenenter"",""1"",""1588""
""blur"",""1"",""2179""
""focus"",""2"",""7729""
","""event"",""trial"",""time""
""blur"",""1"",""2179""
","""event"",""trial"",""time""
""focus"",""2"",""7729""
","""event"",""trial"",""time""
""fullscreenenter"",""1"",""1588""
","
","","","960.6000001430511","","","20","10936","2650","&#9752;","elianto","#f73b6a7A"," "," ","1","-10","[1811.2000000476837]","1","1","","","10936","14","3","3","lose","go","1"
"pit-trial","135","1202895","0.0-18.0","battery-v0.2","","""event"",""trial"",""time""
""fullscreenenter"",""1"",""1588""
""blur"",""1"",""2179""
""focus"",""2"",""7729""
","""event"",""trial"",""time""
""blur"",""1"",""2179""
","""event"",""trial"",""time""
""focus"",""2"",""7729""
","""event"",""trial"",""time""
""fullscreenenter"",""1"",""1588""
","
","","","696.1000001430511","","","20","10936","2650","&#9733;","elianto","#3366ff99","-1"," ","0","0","[1548.2000000476837]","1","1","","","10936","15","2","2","win","no-go","0"
"pit-trial","136","1207070","0.0-19.0","battery-v0.2","","""event"",""trial"",""time""
""fullscreenenter"",""1"",""1588""
""blur"",""1"",""2179""
""focus"",""2"",""7729""
","""event"",""trial"",""time""
""blur"",""1"",""2179""
","""event"",""trial"",""time""
""focus"",""2"",""7729""
","""event"",""trial"",""time""
""fullscreenenter"",""1"",""1588""
","
","","","1307.5999999046326","","","20","10936","2650","&#9728;","elianto","#f73b6a7A","-1"," ","0","-10","[2166.9000000953674]","1","1","","","10936","16","0","4","lose","no-go","0"
"pit-trial","137","1211939","0.0-20.0","battery-v0.2","","""event"",""trial"",""time""
""fullscreenenter"",""1"",""1588""
""blur"",""1"",""2179""
""focus"",""2"",""7729""
","""event"",""trial"",""time""
""blur"",""1"",""2179""
","""event"",""trial"",""time""
""focus"",""2"",""7729""
","""event"",""trial"",""time""
""fullscreenenter"",""1"",""1588""
","
","","","-1","","","20","10936","2650","&#9728;","elianto","#f73b6a7A","-1","-1","1","0","[]","0","1","","","10936","17","0","4","lose","no-go","0"
"pit-trial","138","1215590","0.0-21.0","battery-v0.2","","""event"",""trial"",""time""
""fullscreenenter"",""1"",""1588""
""blur"",""1"",""2179""
""focus"",""2"",""7729""
","""event"",""trial"",""time""
""blur"",""1"",""2179""
","""event"",""trial"",""time""
""focus"",""2"",""7729""
","""event"",""trial"",""time""
""fullscreenenter"",""1"",""1588""
","
","","","785.7999999523163","","","20","10936","2650","&#9752;","elianto","#f73b6a7A"," "," ","1","-10","[1638.5]","1","1","","","10936","18","3","3","lose","go","1"
"pit-trial","139","1220462","0.0-22.0","battery-v0.2","","""event"",""trial"",""time""
""fullscreenenter"",""1"",""1588""
""blur"",""1"",""2179""
""focus"",""2"",""7729""
","""event"",""trial"",""time""
""blur"",""1"",""2179""
","""event"",""trial"",""time""
""focus"",""2"",""7729""
","""event"",""trial"",""time""
""fullscreenenter"",""1"",""1588""
","
","","","-1","","","20","10936","2650","&#9733;","elianto","#3366ff99","-1","-1","1","0","[]","0","1","","","10936","19","2","2","win","no-go","1"
"pit-trial","140","1224286","0.0-23.0","battery-v0.2","","""event"",""trial"",""time""
""fullscreenenter"",""1"",""1588""
""blur"",""1"",""2179""
""focus"",""2"",""7729""
","""event"",""trial"",""time""
""blur"",""1"",""2179""
","""event"",""trial"",""time""
""focus"",""2"",""7729""
","""event"",""trial"",""time""
""fullscreenenter"",""1"",""1588""
","
","","","960.9000000953674","","","20","10936","2650","&#9730;","elianto","#3366ff99"," "," ","1","+10","[1812.8000001907349]","1","1","","","10936","20","1","1","win","go","0"
"pit-instructions","141","1243567","0.0-24.0","battery-v0.2","","""event"",""trial"",""time""
""fullscreenenter"",""1"",""1588""
""blur"",""1"",""2179""
""focus"",""2"",""7729""
","""event"",""trial"",""time""
""blur"",""1"",""2179""
","""event"",""trial"",""time""
""focus"",""2"",""7729""
","""event"",""trial"",""time""
""fullscreenenter"",""1"",""1588""
","
","","[{""page_index"":0,""viewing_time"":8089},{""page_index"":1,""viewing_time"":11188.600000143051}]","19277.900000095367","","","","","","","","","","","","","","","","","","","","","","","",""
"pit-trial","142","1247624","0.0-25.0","battery-v0.2","","""event"",""trial"",""time""
""fullscreenenter"",""1"",""1588""
""blur"",""1"",""2179""
""focus"",""2"",""7729""
","""event"",""trial"",""time""
""blur"",""1"",""2179""
","""event"",""trial"",""time""
""focus"",""2"",""7729""
","""event"",""trial"",""time""
""fullscreenenter"",""1"",""1588""
","
","","","1185.2000000476837","","","20","10936","2650","e","elianto","#f73b6a7A","-1"," ","0","-10","[2041.2999999523163]","1","2","","","10936","21","2","4","lose","no-go","0"
"pit-trial","143","1251811","0.0-26.0","battery-v0.2","","""event"",""trial"",""time""
""fullscreenenter"",""1"",""1588""
""blur"",""1"",""2179""
""focus"",""2"",""7729""
","""event"",""trial"",""time""
""blur"",""1"",""2179""
","""event"",""trial"",""time""
""focus"",""2"",""7729""
","""event"",""trial"",""time""
""fullscreenenter"",""1"",""1588""
","
","","","1319.4000000953674","","","20","10936","2650","j","elianto","#f73b6a7A","-1"," ","0","0","[2178.2999999523163]","1","2","","","10936","22","0","4","lose","no-go","1"
"pit-trial","144","1255880","0.0-27.0","battery-v0.2","","""event"",""trial"",""time""
""fullscreenenter"",""1"",""1588""
""blur"",""1"",""2179""
""focus"",""2"",""7729""
","""event"",""trial"",""time""
""blur"",""1"",""2179""
","""event"",""trial"",""time""
""focus"",""2"",""7729""
","""event"",""trial"",""time""
""fullscreenenter"",""1"",""1588""
","
","","","1203.9000000953674","","","20","10936","2650","w","elianto","#f73b6a7A"," "," ","1","0","[2059.100000143051]","1","2","","","10936","23","3","3","lose","go","0"
"pit-trial","145","1259741","0.0-28.0","battery-v0.2","","""event"",""trial"",""time""
""fullscreenenter"",""1"",""1588""
""blur"",""1"",""2179""
""focus"",""2"",""7729""
","""event"",""trial"",""time""
""blur"",""1"",""2179""
","""event"",""trial"",""time""
""focus"",""2"",""7729""
","""event"",""trial"",""time""
""fullscreenenter"",""1"",""1588""
","
","","","990.2999999523163","","","20","10936","2650","d","elianto","#3366ff99"," "," ","1","+10","[1848.8000001907349]","1","2","","","10936","24","1","1","win","go","0"
"pit-trial","146","1264326","0.0-29.0","battery-v0.2","","""event"",""trial"",""time""
""fullscreenenter"",""1"",""1588""
""blur"",""1"",""2179""
""focus"",""2"",""7729""
","""event"",""trial"",""time""
""blur"",""1"",""2179""
","""event"",""trial"",""time""
""focus"",""2"",""7729""
","""event"",""trial"",""time""
""fullscreenenter"",""1"",""1588""
","
","","","1711.7999999523163","","","20","10936","2650","w","elianto","#f73b6a7A"," "," ","1","0","[2572.7999999523163]","1","2","","","10936","25","3","3","lose","go","0"
"pit-trial","147","1269200","0.0-30.0","battery-v0.2","","""event"",""trial"",""time""
""fullscreenenter"",""1"",""1588""
""blur"",""1"",""2179""
""focus"",""2"",""7729""
","""event"",""trial"",""time""
""blur"",""1"",""2179""
","""event"",""trial"",""time""
""focus"",""2"",""7729""
","""event"",""trial"",""time""
""fullscreenenter"",""1"",""1588""
","
","","","-1","","","20","10936","2650","e","elianto","#f73b6a7A","-1","-1","1","0","[]","0","2","","","10936","26","2","4","lose","no-go","0"
"pit-trial","148","1273893","0.0-31.0","battery-v0.2","","""event"",""trial"",""time""
""fullscreenenter"",""1"",""1588""
""blur"",""1"",""2179""
""focus"",""2"",""7729""
","""event"",""trial"",""time""
""blur"",""1"",""2179""
","""event"",""trial"",""time""
""focus"",""2"",""7729""
","""event"",""trial"",""time""
""fullscreenenter"",""1"",""1588""
","
","","","1829.0999999046326","","","20","10936","2650","d","elianto","#3366ff99"," "," ","1","+10","[2687.5]","1","2","","","10936","27","1","1","win","go","0"
"pit-trial","149","1278233","0.0-32.0","battery-v0.2","","""event"",""trial"",""time""
""fullscreenenter"",""1"",""1588""
""blur"",""1"",""2179""
""focus"",""2"",""7729""
""blur"",""150"",""1278260""
""focus"",""150"",""1280032""
","""event"",""trial"",""time""
""blur"",""1"",""2179""
""blur"",""150"",""1278260""
","""event"",""trial"",""time""
""focus"",""2"",""7729""
""focus"",""150"",""1280032""
","""event"",""trial"",""time""
""fullscreenenter"",""1"",""1588""
","
","","","1471.1999998092651","","","20","10936","2650","j","elianto","#f73b6a7A","-1"," ","0","-10","[2322.4000000953674]","1","2","","","10936","28","0","4","lose","no-go","0"
"pit-trial","150","1283104","0.0-33.0","battery-v0.2","","""event"",""trial"",""time""
""fullscreenenter"",""1"",""1588""
""blur"",""1"",""2179""
""focus"",""2"",""7729""
""blur"",""150"",""1278260""
""focus"",""150"",""1280032""
","""event"",""trial"",""time""
""blur"",""1"",""2179""
""blur"",""150"",""1278260""
","""event"",""trial"",""time""
""focus"",""2"",""7729""
""focus"",""150"",""1280032""
","""event"",""trial"",""time""
""fullscreenenter"",""1"",""1588""
","
","","","-1","","","20","10936","2650","j","elianto","#f73b6a7A","-1","-1","1","-10","[]","0","2","","","10936","29","0","4","lose","no-go","1"
"pit-trial","151","1287472","0.0-34.0","battery-v0.2","","""event"",""trial"",""time""
""fullscreenenter"",""1"",""1588""
""blur"",""1"",""2179""
""focus"",""2"",""7729""
""blur"",""150"",""1278260""
""focus"",""150"",""1280032""
","""event"",""trial"",""time""
""blur"",""1"",""2179""
""blur"",""150"",""1278260""
","""event"",""trial"",""time""
""focus"",""2"",""7729""
""focus"",""150"",""1280032""
","""event"",""trial"",""time""
""fullscreenenter"",""1"",""1588""
","
","","","1503.7999999523163","","","20","10936","2650","w","elianto","#f73b6a7A"," "," ","1","0","[2354.800000190735]","1","2","","","10936","30","3","3","lose","go","0"
"pit-trial","152","1292344","0.0-35.0","battery-v0.2","","""event"",""trial"",""time""
""fullscreenenter"",""1"",""1588""
""blur"",""1"",""2179""
""focus"",""2"",""7729""
""blur"",""150"",""1278260""
""focus"",""150"",""1280032""
","""event"",""trial"",""time""
""blur"",""1"",""2179""
""blur"",""150"",""1278260""
","""event"",""trial"",""time""
""focus"",""2"",""7729""
""focus"",""150"",""1280032""
","""event"",""trial"",""time""
""fullscreenenter"",""1"",""1588""
","
","","","-1","","","20","10936","2650","e","elianto","#f73b6a7A","-1","-1","1","0","[]","0","2","","","10936","31","2","4","lose","no-go","0"
"pit-trial","153","1296662","0.0-36.0","battery-v0.2","","""event"",""trial"",""time""
""fullscreenenter"",""1"",""1588""
""blur"",""1"",""2179""
""focus"",""2"",""7729""
""blur"",""150"",""1278260""
""focus"",""150"",""1280032""
","""event"",""trial"",""time""
""blur"",""1"",""2179""
""blur"",""150"",""1278260""
","""event"",""trial"",""time""
""focus"",""2"",""7729""
""focus"",""150"",""1280032""
","""event"",""trial"",""time""
""fullscreenenter"",""1"",""1588""
","
","","","1449.1000001430511","","","20","10936","2650","d","elianto","#3366ff99"," "," ","1","+10","[2306.7000000476837]","1","2","","","10936","32","1","1","win","go","0"
"pit-trial","154","1300631","0.0-37.0","battery-v0.2","","""event"",""trial"",""time""
""fullscreenenter"",""1"",""1588""
""blur"",""1"",""2179""
""focus"",""2"",""7729""
""blur"",""150"",""1278260""
""focus"",""150"",""1280032""
","""event"",""trial"",""time""
""blur"",""1"",""2179""
""blur"",""150"",""1278260""
","""event"",""trial"",""time""
""focus"",""2"",""7729""
""focus"",""150"",""1280032""
","""event"",""trial"",""time""
""fullscreenenter"",""1"",""1588""
","
","","","1100.3999998569489","","","20","10936","2650","d","elianto","#3366ff99"," "," ","1","+10","[1961.0999999046326]","1","2","","","10936","33","1","1","win","go","0"
"pit-trial","155","1304569","0.0-38.0","battery-v0.2","","""event"",""trial"",""time""
""fullscreenenter"",""1"",""1588""
""blur"",""1"",""2179""
""focus"",""2"",""7729""
""blur"",""150"",""1278260""
""focus"",""150"",""1280032""
","""event"",""trial"",""time""
""blur"",""1"",""2179""
""blur"",""150"",""1278260""
","""event"",""trial"",""time""
""focus"",""2"",""7729""
""focus"",""150"",""1280032""
","""event"",""trial"",""time""
""fullscreenenter"",""1"",""1588""
","
","","","1074.6000001430511","","","20","10936","2650","j","elianto","#f73b6a7A","-1"," ","0","-10","[1926.5]","1","2","","","10936","34","0","4","lose","no-go","0"
"pit-trial","156","1308727","0.0-39.0","battery-v0.2","","""event"",""trial"",""time""
""fullscreenenter"",""1"",""1588""
""blur"",""1"",""2179""
""focus"",""2"",""7729""
""blur"",""150"",""1278260""
""focus"",""150"",""1280032""
","""event"",""trial"",""time""
""blur"",""1"",""2179""
""blur"",""150"",""1278260""
","""event"",""trial"",""time""
""focus"",""2"",""7729""
""focus"",""150"",""1280032""
","""event"",""trial"",""time""
""fullscreenenter"",""1"",""1588""
","
","","","1296.2000000476837","","","20","10936","2650","w","elianto","#f73b6a7A"," "," ","1","0","[2150.600000143051]","1","2","","","10936","35","3","3","lose","go","0"
"pit-trial","157","1313600","0.0-40.0","battery-v0.2","","""event"",""trial"",""time""
""fullscreenenter"",""1"",""1588""
""blur"",""1"",""2179""
""focus"",""2"",""7729""
""blur"",""150"",""1278260""
""focus"",""150"",""1280032""
","""event"",""trial"",""time""
""blur"",""1"",""2179""
""blur"",""150"",""1278260""
","""event"",""trial"",""time""
""focus"",""2"",""7729""
""focus"",""150"",""1280032""
","""event"",""trial"",""time""
""fullscreenenter"",""1"",""1588""
","
","","","-1","","","20","10936","2650","e","elianto","#f73b6a7A","-1","-1","1","0","[]","0","2","","","10936","36","2","4","lose","no-go","0"
"pit-trial","158","1318469","0.0-41.0","battery-v0.2","","""event"",""trial"",""time""
""fullscreenenter"",""1"",""1588""
""blur"",""1"",""2179""
""focus"",""2"",""7729""
""blur"",""150"",""1278260""
""focus"",""150"",""1280032""
","""event"",""trial"",""time""
""blur"",""1"",""2179""
""blur"",""150"",""1278260""
","""event"",""trial"",""time""
""focus"",""2"",""7729""
""focus"",""150"",""1280032""
","""event"",""trial"",""time""
""fullscreenenter"",""1"",""1588""
","
","","","-1","","","20","10936","2650","j","elianto","#f73b6a7A","-1","-1","1","-10","[]","0","2","","","10936","37","0","4","lose","no-go","1"
"pit-trial","159","1322416","0.0-42.0","battery-v0.2","","""event"",""trial"",""time""
""fullscreenenter"",""1"",""1588""
""blur"",""1"",""2179""
""focus"",""2"",""7729""
""blur"",""150"",""1278260""
""focus"",""150"",""1280032""
","""event"",""trial"",""time""
""blur"",""1"",""2179""
""blur"",""150"",""1278260""
","""event"",""trial"",""time""
""focus"",""2"",""7729""
""focus"",""150"",""1280032""
","""event"",""trial"",""time""
""fullscreenenter"",""1"",""1588""
","
","","","1078.5999999046326","","","20","10936","2650","d","elianto","#3366ff99"," "," ","1","+10","[1931.9000000953674]","1","2","","","10936","38","1","1","win","go","0"
"pit-trial","160","1327288","0.0-43.0","battery-v0.2","","""event"",""trial"",""time""
""fullscreenenter"",""1"",""1588""
""blur"",""1"",""2179""
""focus"",""2"",""7729""
""blur"",""150"",""1278260""
""focus"",""150"",""1280032""
","""event"",""trial"",""time""
""blur"",""1"",""2179""
""blur"",""150"",""1278260""
","""event"",""trial"",""time""
""focus"",""2"",""7729""
""focus"",""150"",""1280032""
","""event"",""trial"",""time""
""fullscreenenter"",""1"",""1588""
","
","","","-1","","","20","10936","2650","e","elianto","#f73b6a7A","-1","-1","1","0","[]","0","2","","","10936","39","2","4","lose","no-go","0"
"pit-trial","161","1331145","0.0-44.0","battery-v0.2","","""event"",""trial"",""time""
""fullscreenenter"",""1"",""1588""
""blur"",""1"",""2179""
""focus"",""2"",""7729""
""blur"",""150"",""1278260""
""focus"",""150"",""1280032""
","""event"",""trial"",""time""
""blur"",""1"",""2179""
""blur"",""150"",""1278260""
","""event"",""trial"",""time""
""focus"",""2"",""7729""
""focus"",""150"",""1280032""
","""event"",""trial"",""time""
""fullscreenenter"",""1"",""1588""
","
","","","996.4000000953674","","","20","10936","2650","w","elianto","#f73b6a7A"," "," ","1","0","[1847.2000000476837]","1","2","","","10936","40","3","3","lose","go","0"
"pit-trial","162","1335531","0.0-45.0","battery-v0.2","","""event"",""trial"",""time""
""fullscreenenter"",""1"",""1588""
""blur"",""1"",""2179""
""focus"",""2"",""7729""
""blur"",""150"",""1278260""
""focus"",""150"",""1280032""
","""event"",""trial"",""time""
""blur"",""1"",""2179""
""blur"",""150"",""1278260""
","""event"",""trial"",""time""
""focus"",""2"",""7729""
""focus"",""150"",""1280032""
","""event"",""trial"",""time""
""fullscreenenter"",""1"",""1588""
","
","","","1522","","","20","10936","2650","w","elianto","#f73b6a7A"," "," ","1","0","[2379.7000000476837]","1","2","","","10936","41","3","3","lose","go","0"
"pit-trial","163","1340396","0.0-46.0","battery-v0.2","","""event"",""trial"",""time""
""fullscreenenter"",""1"",""1588""
""blur"",""1"",""2179""
""focus"",""2"",""7729""
""blur"",""150"",""1278260""
""focus"",""150"",""1280032""
","""event"",""trial"",""time""
""blur"",""1"",""2179""
""blur"",""150"",""1278260""
","""event"",""trial"",""time""
""focus"",""2"",""7729""
""focus"",""150"",""1280032""
","""event"",""trial"",""time""
""fullscreenenter"",""1"",""1588""
","
","","","-1","","","20","10936","2650","e","elianto","#f73b6a7A","-1","-1","1","0","[]","0","2","","","10936","42","2","4","lose","no-go","0"
"pit-trial","164","1344166","0.0-47.0","battery-v0.2","","""event"",""trial"",""time""
""fullscreenenter"",""1"",""1588""
""blur"",""1"",""2179""
""focus"",""2"",""7729""
""blur"",""150"",""1278260""
""focus"",""150"",""1280032""
","""event"",""trial"",""time""
""blur"",""1"",""2179""
""blur"",""150"",""1278260""
","""event"",""trial"",""time""
""focus"",""2"",""7729""
""focus"",""150"",""1280032""
","""event"",""trial"",""time""
""fullscreenenter"",""1"",""1588""
","
","","","907","","","20","10936","2650","d","elianto","#3366ff99"," "," ","1","+10","[1762.2999999523163]","1","2","","","10936","43","1","1","win","go","0"
"pit-trial","165","1349040","0.0-48.0","battery-v0.2","","""event"",""trial"",""time""
""fullscreenenter"",""1"",""1588""
""blur"",""1"",""2179""
""focus"",""2"",""7729""
""blur"",""150"",""1278260""
""focus"",""150"",""1280032""
","""event"",""trial"",""time""
""blur"",""1"",""2179""
""blur"",""150"",""1278260""
","""event"",""trial"",""time""
""focus"",""2"",""7729""
""focus"",""150"",""1280032""
","""event"",""trial"",""time""
""fullscreenenter"",""1"",""1588""
","
","","","-1","","","20","10936","2650","j","elianto","#f73b6a7A","-1","-1","1","-10","[]","0","2","","","10936","44","0","4","lose","no-go","1"
"pit-trial","166","1353913","0.0-49.0","battery-v0.2","","""event"",""trial"",""time""
""fullscreenenter"",""1"",""1588""
""blur"",""1"",""2179""
""focus"",""2"",""7729""
""blur"",""150"",""1278260""
""focus"",""150"",""1280032""
","""event"",""trial"",""time""
""blur"",""1"",""2179""
""blur"",""150"",""1278260""
","""event"",""trial"",""time""
""focus"",""2"",""7729""
""focus"",""150"",""1280032""
","""event"",""trial"",""time""
""fullscreenenter"",""1"",""1588""
","
","","","-1","","","20","10936","2650","e","elianto","#f73b6a7A","-1","-1","1","0","[]","0","2","","","10936","45","2","4","lose","no-go","0"
"pit-trial","167","1358129","0.0-50.0","battery-v0.2","","""event"",""trial"",""time""
""fullscreenenter"",""1"",""1588""
""blur"",""1"",""2179""
""focus"",""2"",""7729""
""blur"",""150"",""1278260""
""focus"",""150"",""1280032""
","""event"",""trial"",""time""
""blur"",""1"",""2179""
""blur"",""150"",""1278260""
","""event"",""trial"",""time""
""focus"",""2"",""7729""
""focus"",""150"",""1280032""
","""event"",""trial"",""time""
""fullscreenenter"",""1"",""1588""
","
","","","1343.1999998092651","","","20","10936","2650","w","elianto","#f73b6a7A"," "," ","1","0","[2203.2000000476837]","1","2","","","10936","46","3","3","lose","go","0"
"pit-trial","168","1361899","0.0-51.0","battery-v0.2","","""event"",""trial"",""time""
""fullscreenenter"",""1"",""1588""
""blur"",""1"",""2179""
""focus"",""2"",""7729""
""blur"",""150"",""1278260""
""focus"",""150"",""1280032""
","""event"",""trial"",""time""
""blur"",""1"",""2179""
""blur"",""150"",""1278260""
","""event"",""trial"",""time""
""focus"",""2"",""7729""
""focus"",""150"",""1280032""
","""event"",""trial"",""time""
""fullscreenenter"",""1"",""1588""
","
","","","905.0999999046326","","","20","10936","2650","j","elianto","#f73b6a7A","-1"," ","0","-10","[1763.5999999046326]","1","2","","","10936","47","0","4","lose","no-go","0"
"pit-trial","169","1366550","0.0-52.0","battery-v0.2","","""event"",""trial"",""time""
""fullscreenenter"",""1"",""1588""
""blur"",""1"",""2179""
""focus"",""2"",""7729""
""blur"",""150"",""1278260""
""focus"",""150"",""1280032""
","""event"",""trial"",""time""
""blur"",""1"",""2179""
""blur"",""150"",""1278260""
","""event"",""trial"",""time""
""focus"",""2"",""7729""
""focus"",""150"",""1280032""
","""event"",""trial"",""time""
""fullscreenenter"",""1"",""1588""
","
","","","1787.2000000476837","","","20","10936","2650","s","elianto","#3366ff99","-1"," ","0","0","[2642.5]","1","2","","","10936","48","4","2","win","no-go","0"
"pit-trial","170","1370785","0.0-53.0","battery-v0.2","","""event"",""trial"",""time""
""fullscreenenter"",""1"",""1588""
""blur"",""1"",""2179""
""focus"",""2"",""7729""
""blur"",""150"",""1278260""
""focus"",""150"",""1280032""
","""event"",""trial"",""time""
""blur"",""1"",""2179""
""blur"",""150"",""1278260""
","""event"",""trial"",""time""
""focus"",""2"",""7729""
""focus"",""150"",""1280032""
","""event"",""trial"",""time""
""fullscreenenter"",""1"",""1588""
","
","","","1372.2000000476837","","","20","10936","2650","j","elianto","#f73b6a7A","-1"," ","0","-10","[2225.4000000953674]","1","2","","","10936","49","0","4","lose","no-go","0"
"pit-trial","171","1375657","0.0-54.0","battery-v0.2","","""event"",""trial"",""time""
""fullscreenenter"",""1"",""1588""
""blur"",""1"",""2179""
""focus"",""2"",""7729""
""blur"",""150"",""1278260""
""focus"",""150"",""1280032""
","""event"",""trial"",""time""
""blur"",""1"",""2179""
""blur"",""150"",""1278260""
","""event"",""trial"",""time""
""focus"",""2"",""7729""
""focus"",""150"",""1280032""
","""event"",""trial"",""time""
""fullscreenenter"",""1"",""1588""
","
","","","-1","","","20","10936","2650","s","elianto","#3366ff99","-1","-1","1","+10","[]","0","2","","","10936","50","4","2","win","no-go","0"
"pit-trial","172","1380017","0.0-55.0","battery-v0.2","","""event"",""trial"",""time""
""fullscreenenter"",""1"",""1588""
""blur"",""1"",""2179""
""focus"",""2"",""7729""
""blur"",""150"",""1278260""
""focus"",""150"",""1280032""
","""event"",""trial"",""time""
""blur"",""1"",""2179""
""blur"",""150"",""1278260""
","""event"",""trial"",""time""
""focus"",""2"",""7729""
""focus"",""150"",""1280032""
","""event"",""trial"",""time""
""fullscreenenter"",""1"",""1588""
","
","","","1498.7000000476837","","","20","10936","2650","d","elianto","#3366ff99"," "," ","1","+10","[2348.600000143051]","1","2","","","10936","51","1","1","win","go","0"
"pit-trial","173","1384073","0.0-56.0","battery-v0.2","","""event"",""trial"",""time""
""fullscreenenter"",""1"",""1588""
""blur"",""1"",""2179""
""focus"",""2"",""7729""
""blur"",""150"",""1278260""
""focus"",""150"",""1280032""
","""event"",""trial"",""time""
""blur"",""1"",""2179""
""blur"",""150"",""1278260""
","""event"",""trial"",""time""
""focus"",""2"",""7729""
""focus"",""150"",""1280032""
","""event"",""trial"",""time""
""fullscreenenter"",""1"",""1588""
","
","","","1187","","","20","10936","2650","w","elianto","#f73b6a7A"," "," ","1","-10","[2041.6000001430511]","1","2","","","10936","52","3","3","lose","go","1"
"pit-trial","174","1388945","0.0-57.0","battery-v0.2","","""event"",""trial"",""time""
""fullscreenenter"",""1"",""1588""
""blur"",""1"",""2179""
""focus"",""2"",""7729""
""blur"",""150"",""1278260""
""focus"",""150"",""1280032""
","""event"",""trial"",""time""
""blur"",""1"",""2179""
""blur"",""150"",""1278260""
","""event"",""trial"",""time""
""focus"",""2"",""7729""
""focus"",""150"",""1280032""
","""event"",""trial"",""time""
""fullscreenenter"",""1"",""1588""
","
","","","-1","","","20","10936","2650","s","elianto","#3366ff99","-1","-1","1","+10","[]","0","2","","","10936","53","4","2","win","no-go","0"
"pit-trial","175","1393817","0.0-58.0","battery-v0.2","","""event"",""trial"",""time""
""fullscreenenter"",""1"",""1588""
""blur"",""1"",""2179""
""focus"",""2"",""7729""
""blur"",""150"",""1278260""
""focus"",""150"",""1280032""
","""event"",""trial"",""time""
""blur"",""1"",""2179""
""blur"",""150"",""1278260""
","""event"",""trial"",""time""
""focus"",""2"",""7729""
""focus"",""150"",""1280032""
","""event"",""trial"",""time""
""fullscreenenter"",""1"",""1588""
","
","","","-1","","","20","10936","2650","j","elianto","#f73b6a7A","-1","-1","1","0","[]","0","2","","","10936","54","0","4","lose","no-go","0"
"pit-trial","176","1397985","0.0-59.0","battery-v0.2","","""event"",""trial"",""time""
""fullscreenenter"",""1"",""1588""
""blur"",""1"",""2179""
""focus"",""2"",""7729""
""blur"",""150"",""1278260""
""focus"",""150"",""1280032""
","""event"",""trial"",""time""
""blur"",""1"",""2179""
""blur"",""150"",""1278260""
","""event"",""trial"",""time""
""focus"",""2"",""7729""
""focus"",""150"",""1280032""
","""event"",""trial"",""time""
""fullscreenenter"",""1"",""1588""
","
","","","1297.7000000476837","","","20","10936","2650","d","elianto","#3366ff99"," "," ","1","+10","[2152.5999999046326]","1","2","","","10936","55","1","1","win","go","0"
"pit-trial","177","1402857","0.0-60.0","battery-v0.2","","""event"",""trial"",""time""
""fullscreenenter"",""1"",""1588""
""blur"",""1"",""2179""
""focus"",""2"",""7729""
""blur"",""150"",""1278260""
""focus"",""150"",""1280032""
","""event"",""trial"",""time""
""blur"",""1"",""2179""
""blur"",""150"",""1278260""
","""event"",""trial"",""time""
""focus"",""2"",""7729""
""focus"",""150"",""1280032""
","""event"",""trial"",""time""
""fullscreenenter"",""1"",""1588""
","
","","","-1","","","20","10936","2650","e","elianto","#f73b6a7A","-1","-1","1","0","[]","0","2","","","10936","56","2","4","lose","no-go","0"
"pit-trial","178","1407345","0.0-61.0","battery-v0.2","","""event"",""trial"",""time""
""fullscreenenter"",""1"",""1588""
""blur"",""1"",""2179""
""focus"",""2"",""7729""
""blur"",""150"",""1278260""
""focus"",""150"",""1280032""
","""event"",""trial"",""time""
""blur"",""1"",""2179""
""blur"",""150"",""1278260""
","""event"",""trial"",""time""
""focus"",""2"",""7729""
""focus"",""150"",""1280032""
","""event"",""trial"",""time""
""fullscreenenter"",""1"",""1588""
","
","","","1618","","","20","10936","2650","d","elianto","#3366ff99"," "," ","1","+10","[2475.5999999046326]","1","2","","","10936","57","1","1","win","go","0"
"pit-trial","179","1411494","0.0-62.0","battery-v0.2","","""event"",""trial"",""time""
""fullscreenenter"",""1"",""1588""
""blur"",""1"",""2179""
""focus"",""2"",""7729""
""blur"",""150"",""1278260""
""focus"",""150"",""1280032""
