"trial_type","trial_index","time_elapsed","internal_node_id","task_version","subject_id","interactions","blur_events","focus_events","fullscreenenter_events","fullscreenexit_events","success","view_history","rt","responses","num_errors","age","subject","participantId","rune","rune_set","hex","correct","choice","accuracy","outcome","keys","total_keys","block","practice","value","sub","trial","stimulus","robot","valence","action","sham"
"pavlovia","0","67","0.0-0.0","battery-v0.2","","""event"",""trial"",""time""
""fullscreenenter"",""1"",""13940""
","
","
","""event"",""trial"",""time""
""fullscreenenter"",""1"",""13940""
","
","","","","","","","","","","","","","","","","","","","","","","","","","","",""
"fullscreen","1","14887","0.0-1.0","battery-v0.2","","""event"",""trial"",""time""
""fullscreenenter"",""1"",""13940""
","
","
","""event"",""trial"",""time""
""fullscreenenter"",""1"",""13940""
","
","true","","","","","","","","","","","","","","","","","","","","","","","","","",""
"pit-instructions","2","19374","0.0-2.0-0.0","battery-v0.2","","""event"",""trial"",""time""
""fullscreenenter"",""1"",""13940""
","
","
","""event"",""trial"",""time""
""fullscreenenter"",""1"",""13940""
","
","","[{""page_index"":0,""viewing_time"":4469.300000000745}]","4470.800000000745","","","","","","","","","","","","","","","","","","","","","","","",""
"pit-comprehension","3","24339","0.0-2.0-1.0-0.0","battery-v0.2","","""event"",""trial"",""time""
""fullscreenenter"",""1"",""13940""
","
","
","""event"",""trial"",""time""
""fullscreenenter"",""1"",""13940""
","
","","","4946.9000000003725","[""shark""]","0","21","10858","4176","","","","","","","","","","","","","","","","","","",""
"pit-instructions","4","27162","0.0-2.0-1.0-1.0","battery-v0.2","","""event"",""trial"",""time""
""fullscreenenter"",""1"",""13940""
","
","
","""event"",""trial"",""time""
""fullscreenenter"",""1"",""13940""
","
","","[{""page_index"":0,""viewing_time"":2808}]","2809","","","","","","","","","","","","","","","","","","","","","","","",""
"pit-comprehension","5","30229","0.0-2.0-2.0-0.0","battery-v0.2","","""event"",""trial"",""time""
""fullscreenenter"",""1"",""13940""
","
","
","""event"",""trial"",""time""
""fullscreenenter"",""1"",""13940""
","
","","","3054.0999999996275","[""tiger""]","0","21","10858","4176","","","","","","","","","","","","","","","","","","",""
"pit-instructions","6","31900","0.0-2.0-2.0-1.0","battery-v0.2","","""event"",""trial"",""time""
""fullscreenenter"",""1"",""13940""
","
","
","""event"",""trial"",""time""
""fullscreenenter"",""1"",""13940""
","
","","[{""page_index"":0,""viewing_time"":1653.699999999255}]","1654.2999999988824","","","","","","","","","","","","","","","","","","","","","","","",""
"pit-instructions","7","147294","0.0-2.0-3.0","battery-v0.2","","""event"",""trial"",""time""
""fullscreenenter"",""1"",""13940""
","
","
","""event"",""trial"",""time""
""fullscreenenter"",""1"",""13940""
","
","","[{""page_index"":0,""viewing_time"":8051.800000000745},{""page_index"":1,""viewing_time"":25635.299999998882},{""page_index"":2,""viewing_time"":6977.0999999996275},{""page_index"":3,""viewing_time"":5831.200000001118},{""page_index"":4,""viewing_time"":6149.5999999996275},{""page_index"":5,""viewing_time"":6979.199999999255},{""page_index"":6,""viewing_time"":7970.4000000003725},{""page_index"":7,""viewing_time"":6480.5999999996275},{""page_index"":8,""viewing_time"":6069},{""page_index"":9,""viewing_time"":7659.60000000149},{""page_index"":10,""viewing_time"":7141.799999998882},{""page_index"":11,""viewing_time"":7588.700000001118},{""page_index"":12,""viewing_time"":6926},{""page_index"":13,""viewing_time"":5923.299999998882}]","115386.59999999963","","","","","","","","","","","","","","","","","","","","","","","",""
"pit-trial","8","152169","0.0-2.0-4.0-0.0","battery-v0.2","","""event"",""trial"",""time""
""fullscreenenter"",""1"",""13940""
","
","
","""event"",""trial"",""time""
""fullscreenenter"",""1"",""13940""
","
","","","-1","","","21","10858","4176","&#9784;","elianto","#FFFFF080"," ","-1","0","&#10060","[]","0","0","0","","","","","","","",""
"pit-trial","9","157049","0.0-2.0-4.1-0.1","battery-v0.2","","""event"",""trial"",""time""
""fullscreenenter"",""1"",""13940""
","
","
","""event"",""trial"",""time""
""fullscreenenter"",""1"",""13940""
","
","","","-1","","","21","10858","4176","&#9784;","elianto","#FFFFF080"," ","-1","0","&#10060","[]","0","0","0","","","","","","","",""
"pit-trial","10","161928","0.0-2.0-4.2-0.2","battery-v0.2","","""event"",""trial"",""time""
""fullscreenenter"",""1"",""13940""
","
","
","""event"",""trial"",""time""
""fullscreenenter"",""1"",""13940""
","
","","","-1","","","21","10858","4176","&#9784;","elianto","#FFFFF080"," ","-1","0","&#10060","[3324.5999999996275]","1","0","0","","","","","","","",""
"pit-trial","11","165478","0.0-2.0-4.3-0.3","battery-v0.2","","""event"",""trial"",""time""
""fullscreenenter"",""1"",""13940""
","
","
","""event"",""trial"",""time""
""fullscreenenter"",""1"",""13940""
","
","","","677.1999999992549","","","21","10858","4176","&#9784;","elianto","#FFFFF080"," "," ","1","&#10004","[1533.699999999255]","1","0","0","","","","","","","",""
"pit-trial","12","168848","0.0-2.0-4.4-0.4","battery-v0.2","","""event"",""trial"",""time""
""fullscreenenter"",""1"",""13940""
","
","
","""event"",""trial"",""time""
""fullscreenenter"",""1"",""13940""
","
","","","491.5","","","21","10858","4176","&#9784;","elianto","#FFFFF080"," "," ","1","&#10004","[1345.4000000003725]","1","0","0","","","","","","","",""
"pit-trial","13","172229","0.0-2.0-4.5-0.5","battery-v0.2","","""event"",""trial"",""time""
""fullscreenenter"",""1"",""13940""
","
","
","""event"",""trial"",""time""
""fullscreenenter"",""1"",""13940""
","
","","","507.80000000074506","","","21","10858","4176","&#9784;","elianto","#FFFFF080"," "," ","1","&#10004","[1360.5]","1","0","0","","","","","","","",""
"pit-instructions","14","194424","0.0-2.0-5.0","battery-v0.2","","""event"",""trial"",""time""
""fullscreenenter"",""1"",""13940""
","
","
","""event"",""trial"",""time""
""fullscreenenter"",""1"",""13940""
","
","","[{""page_index"":0,""viewing_time"":6144.10000000149},{""page_index"":1,""viewing_time"":5358.89999999851},{""page_index"":2,""viewing_time"":5449.60000000149},{""page_index"":3,""viewing_time"":5231.0999999996275}]","22185.60000000149","","","","","","","","","","","","","","","","","","","","","","","",""
"pit-trial","15","199309","0.0-2.0-6.0-0.0","battery-v0.2","","""event"",""trial"",""time""
""fullscreenenter"",""1"",""13940""
","
","
","""event"",""trial"",""time""
""fullscreenenter"",""1"",""13940""
","
","","","-1","","","21","10858","4176","&#9854;","elianto","#FFFFF080","-1","-1","1","&#10004","[]","0","0","1","","","","","","","",""
"pit-trial","16","204198","0.0-2.0-6.1-0.1","battery-v0.2","","""event"",""trial"",""time""
""fullscreenenter"",""1"",""13940""
","
","
","""event"",""trial"",""time""
""fullscreenenter"",""1"",""13940""
","
","","","-1","","","21","10858","4176","&#9854;","elianto","#FFFFF080","-1","-1","1","&#10004","[]","0","0","1","","","","","","","",""
"pit-trial","17","209089","0.0-2.0-6.2-0.2","battery-v0.2","","""event"",""trial"",""time""
""fullscreenenter"",""1"",""13940""
","
","
","""event"",""trial"",""time""
""fullscreenenter"",""1"",""13940""
","
","","","-1","","","21","10858","4176","&#9854;","elianto","#FFFFF080","-1","-1","1","&#10004","[]","0","0","1","","","","","","","",""
"pit-trial","18","213968","0.0-2.0-6.3-0.3","battery-v0.2","","""event"",""trial"",""time""
""fullscreenenter"",""1"",""13940""
","
","
","""event"",""trial"",""time""
""fullscreenenter"",""1"",""13940""
","
","","","-1","","","21","10858","4176","&#9854;","elianto","#FFFFF080","-1","-1","1","&#10004","[]","0","0","1","","","","","","","",""
"pit-trial","19","218838","0.0-2.0-6.4-0.4","battery-v0.2","","""event"",""trial"",""time""
""fullscreenenter"",""1"",""13940""
","
","
","""event"",""trial"",""time""
""fullscreenenter"",""1"",""13940""
","
","","","-1","","","21","10858","4176","&#9854;","elianto","#FFFFF080","-1","-1","1","&#10004","[]","0","0","1","","","","","","","",""
"pit-instructions","20","336443","0.0-2.0-7.0","battery-v0.2","","""event"",""trial"",""time""
""fullscreenenter"",""1"",""13940""
","
","
","""event"",""trial"",""time""
""fullscreenenter"",""1"",""13940""
","
","","[{""page_index"":0,""viewing_time"":5216.4000000003725},{""page_index"":1,""viewing_time"":8954.89999999851},{""page_index"":2,""viewing_time"":6021.60000000149},{""page_index"":3,""viewing_time"":7280.299999998882},{""page_index"":4,""viewing_time"":5650.0999999996275},{""page_index"":5,""viewing_time"":5570},{""page_index"":6,""viewing_time"":5300},{""page_index"":7,""viewing_time"":7109.300000000745},{""page_index"":8,""viewing_time"":6020.5999999996275},{""page_index"":9,""viewing_time"":5179.5999999996275},{""page_index"":10,""viewing_time"":6350.4000000003725},{""page_index"":11,""viewing_time"":4270.4000000003725},{""page_index"":12,""viewing_time"":7602.5},{""page_index"":13,""viewing_time"":9150.800000000745},{""page_index"":14,""viewing_time"":7197.799999998882},{""page_index"":15,""viewing_time"":6528.800000000745},{""page_index"":16,""viewing_time"":7410.299999998882},{""page_index"":17,""viewing_time"":6779.700000001118}]","117594.90000000037","","","","","","","","","","","","","","","","","","","","","","","",""
"pit-trial","21","340069","0.0-2.0-8.0-0.0","battery-v0.2","","""event"",""trial"",""time""
""fullscreenenter"",""1"",""13940""
","
","
","""event"",""trial"",""time""
""fullscreenenter"",""1"",""13940""
","
","","","750.6999999992549","","","21","10858","4176","&#9776;","elianto","#3366ff99"," "," ","1","+10","[1604.0999999996275]","1","0","1","","","","","","","",""
"pit-trial","22","343593","0.0-2.0-8.0-1.0","battery-v0.2","","""event"",""trial"",""time""
""fullscreenenter"",""1"",""13940""
","
","
","""event"",""trial"",""time""
""fullscreenenter"",""1"",""13940""
","
","","","659.1999999992549","","","21","10858","4176","&#9776;","elianto","#3366ff99"," "," ","1","+10","[1509.4000000003725]","1","0","1","","","","","","","",""
"pit-trial","23","346787","0.0-2.0-8.0-2.0","battery-v0.2","","""event"",""trial"",""time""
""fullscreenenter"",""1"",""13940""
","
","
","""event"",""trial"",""time""
""fullscreenenter"",""1"",""13940""
","
","","","320.7000000011176","","","21","10858","4176","&#9776;","elianto","#3366ff99"," "," ","1","+10","[1172.9000000003725]","1","0","1","","","","","","","",""
"pit-trial","24","350318","0.0-2.0-8.0-3.0","battery-v0.2","","""event"",""trial"",""time""
""fullscreenenter"",""1"",""13940""
","
","
","""event"",""trial"",""time""
""fullscreenenter"",""1"",""13940""
","
","","","659.6000000014901","","","21","10858","4176","&#9776;","elianto","#3366ff99"," "," ","1","0","[1517.3999999985099]","1","0","1","","","","","","","",""
"pit-trial","25","353608","0.0-2.0-8.0-4.0","battery-v0.2","","""event"",""trial"",""time""
""fullscreenenter"",""1"",""13940""
","
","
","""event"",""trial"",""time""
""fullscreenenter"",""1"",""13940""
","
","","","426.09999999962747","","","21","10858","4176","&#9776;","elianto","#3366ff99"," "," ","1","+10","[1277.2000000011176]","1","0","1","","","","","","","",""
"pit-trial","26","356528","0.0-2.0-8.1-0.1","battery-v0.2","","""event"",""trial"",""time""
""fullscreenenter"",""1"",""13940""
","
","
","""event"",""trial"",""time""
""fullscreenenter"",""1"",""13940""
","
","","","59.80000000074506","","","21","10858","4176","&#9776;","elianto","#3366ff99"," "," ","1","+10","[911]","1","0","1","","","","","","","",""
"pit-trial","27","359508","0.0-2.0-8.1-1.1","battery-v0.2","","""event"",""trial"",""time""
""fullscreenenter"",""1"",""13940""
","
","
","""event"",""trial"",""time""
""fullscreenenter"",""1"",""13940""
","
","","","105","","","21","10858","4176","&#9776;","elianto","#3366ff99"," "," ","1","+10","[960.8000000007451]","1","0","1","","","","","","","",""
"pit-trial","28","362458","0.0-2.0-8.1-2.1","battery-v0.2","","""event"",""trial"",""time""
""fullscreenenter"",""1"",""13940""
","
","
","""event"",""trial"",""time""
""fullscreenenter"",""1"",""13940""
","
","","","77.09999999962747","","","21","10858","4176","&#9776;","elianto","#3366ff99"," "," ","1","+10","[929.5]","1","0","1","","","","","","","",""
"pit-trial","29","365868","0.0-2.0-8.1-3.1","battery-v0.2","","""event"",""trial"",""time""
""fullscreenenter"",""1"",""13940""
","
","
","""event"",""trial"",""time""
""fullscreenenter"",""1"",""13940""
","
","","","531.5","","","21","10858","4176","&#9776;","elianto","#3366ff99"," "," ","1","0","[1383.5999999996275]","1","0","1","","","","","","","",""
"pit-trial","30","369310","0.0-2.0-8.1-4.1","battery-v0.2","","""event"",""trial"",""time""
""fullscreenenter"",""1"",""13940""
","
","
","""event"",""trial"",""time""
""fullscreenenter"",""1"",""13940""
","
","","","575.8000000007451","","","21","10858","4176","&#9776;","elianto","#3366ff99"," "," ","1","+10","[1429.300000000745]","1","0","1","","","","","","","",""
"pit-trial","31","372636","0.0-2.0-8.2-0.2","battery-v0.2","","""event"",""trial"",""time""
""fullscreenenter"",""1"",""13940""
","
","
","""event"",""trial"",""time""
""fullscreenenter"",""1"",""13940""
","
","","","464","","","21","10858","4176","&#9776;","elianto","#3366ff99"," "," ","1","+10","[1317.7999999988824]","1","0","1","","","","","","","",""
"pit-trial","32","375934","0.0-2.0-8.2-1.2","battery-v0.2","","""event"",""trial"",""time""
""fullscreenenter"",""1"",""13940""
","
","
","""event"",""trial"",""time""
""fullscreenenter"",""1"",""13940""
","
","","","431.7000000011176","","","21","10858","4176","&#9776;","elianto","#3366ff99"," "," ","1","+10","[1286.5]","1","0","1","","","","","","","",""
"pit-trial","33","380792","0.0-2.0-8.2-2.2","battery-v0.2","","""event"",""trial"",""time""
""fullscreenenter"",""1"",""13940""
","
","
","""event"",""trial"",""time""
""fullscreenenter"",""1"",""13940""
","
","","","1983.4000000003725","","","21","10858","4176","&#9776;","elianto","#3366ff99"," "," ","1","+10","[2840.5999999996275]","1","0","1","","","","","","","",""
"pit-trial","34","384267","0.0-2.0-8.2-3.2","battery-v0.2","","""event"",""trial"",""time""
""fullscreenenter"",""1"",""13940""
","
","
","""event"",""trial"",""time""
""fullscreenenter"",""1"",""13940""
","
","","","604","","","21","10858","4176","&#9776;","elianto","#3366ff99"," "," ","1","0","[1461]","1","0","1","","","","","","","",""
"pit-trial","35","387700","0.0-2.0-8.2-4.2","battery-v0.2","","""event"",""trial"",""time""
""fullscreenenter"",""1"",""13940""
","
","
","""event"",""trial"",""time""
""fullscreenenter"",""1"",""13940""
","
","","","563.7999999988824","","","21","10858","4176","&#9776;","elianto","#3366ff99"," "," ","1","+10","[1420]","1","0","1","","","","","","","",""
"call-function","36","387705","0.0-2.0-9.0","battery-v0.2","","""event"",""trial"",""time""
""fullscreenenter"",""1"",""13940""
","
","
","""event"",""trial"",""time""
""fullscreenenter"",""1"",""13940""
","
","","","","","","","","","","","","","","","","","","","","","","","","","","",""
"pit-instructions","37","503449","0.0-2.0-10.0","battery-v0.2","","""event"",""trial"",""time""
""fullscreenenter"",""1"",""13940""
","
","
","""event"",""trial"",""time""
""fullscreenenter"",""1"",""13940""
","
","","[{""page_index"":0,""viewing_time"":7253.699999999255},{""page_index"":1,""viewing_time"":59199.59999999963},{""page_index"":2,""viewing_time"":17357},{""page_index"":3,""viewing_time"":23838.60000000149},{""page_index"":4,""viewing_time"":8091.0999999996275}]","115741.09999999963","","","","","","","","","","","","","","","","","","","","","","","",""
"pit-trial","38","508334","0.0-2.0-11.0-0.0","battery-v0.2","","""event"",""trial"",""time""
""fullscreenenter"",""1"",""13940""
","
","
","""event"",""trial"",""time""
""fullscreenenter"",""1"",""13940""
","
","","","-1","","","21","10858","4176","&#9761;","elianto","#3366ff99","-1","-1","1","+10","[]","0","0","2","","","","","","","",""
"pit-trial","39","513214","0.0-2.0-11.0-1.0","battery-v0.2","","""event"",""trial"",""time""
""fullscreenenter"",""1"",""13940""
","
","
","""event"",""trial"",""time""
""fullscreenenter"",""1"",""13940""
","
","","","-1","","","21","10858","4176","&#9761;","elianto","#3366ff99","-1","-1","1","+10","[]","0","0","2","","","","","","","",""
"pit-trial","40","518103","0.0-2.0-11.0-2.0","battery-v0.2","","""event"",""trial"",""time""
""fullscreenenter"",""1"",""13940""
","
","
","""event"",""trial"",""time""
""fullscreenenter"",""1"",""13940""
","
","","","-1","","","21","10858","4176","&#9761;","elianto","#3366ff99","-1","-1","1","+10","[]","0","0","2","","","","","","","",""
"pit-trial","41","522243","0.0-2.0-11.0-3.0","battery-v0.2","","""event"",""trial"",""time""
""fullscreenenter"",""1"",""13940""
","
","
","""event"",""trial"",""time""
""fullscreenenter"",""1"",""13940""
","
","","","1280.4000000003725","","","21","10858","4176","&#9761;","elianto","#3366ff99","-1"," ","0","+10","[2133.5999999996275]","1","0","2","","","","","","","",""
"pit-trial","42","527123","0.0-2.0-11.0-4.0","battery-v0.2","","""event"",""trial"",""time""
""fullscreenenter"",""1"",""13940""
","
","
","""event"",""trial"",""time""
""fullscreenenter"",""1"",""13940""
","
","","","-1","","","21","10858","4176","&#9761;","elianto","#3366ff99","-1","-1","1","+10","[]","0","0","2","","","","","","","",""
"pit-trial","43","532003","0.0-2.0-11.1-0.1","battery-v0.2","","""event"",""trial"",""time""
""fullscreenenter"",""1"",""13940""
","
","
","""event"",""trial"",""time""
""fullscreenenter"",""1"",""13940""
","
","","","-1","","","21","10858","4176","&#9761;","elianto","#3366ff99","-1","-1","1","+10","[]","0","0","2","","","","","","","",""
"pit-trial","44","536870","0.0-2.0-11.1-1.1","battery-v0.2","","""event"",""trial"",""time""
""fullscreenenter"",""1"",""13940""
","
","
","""event"",""trial"",""time""
""fullscreenenter"",""1"",""13940""
","
","","","-1","","","21","10858","4176","&#9761;","elianto","#3366ff99","-1","-1","1","+10","[]","0","0","2","","","","","","","",""
"pit-trial","45","540488","0.0-2.0-11.1-2.1","battery-v0.2","","""event"",""trial"",""time""
""fullscreenenter"",""1"",""13940""
","
","
","""event"",""trial"",""time""
""fullscreenenter"",""1"",""13940""
","
","","","743","","","21","10858","4176","&#9761;","elianto","#3366ff99","-1"," ","0","0","[1600.800000000745]","1","0","2","","","","","","","",""
"pit-trial","46","543883","0.0-2.0-11.1-3.1","battery-v0.2","","""event"",""trial"",""time""
""fullscreenenter"",""1"",""13940""
","
","
","""event"",""trial"",""time""
""fullscreenenter"",""1"",""13940""
","
","","","530.1999999992549","","","21","10858","4176","&#9761;","elianto","#3366ff99","-1"," ","0","+10","[1386.199999999255]","1","0","2","","","","","","","",""
"pit-trial","47","548743","0.0-2.0-11.1-4.1","battery-v0.2","","""event"",""trial"",""time""
""fullscreenenter"",""1"",""13940""
","
","
","""event"",""trial"",""time""
""fullscreenenter"",""1"",""13940""
","
","","","-1","","","21","10858","4176","&#9761;","elianto","#3366ff99","-1","-1","1","+10","[]","0","0","2","","","","","","","",""
"pit-trial","48","553612","0.0-2.0-11.2-0.2","battery-v0.2","","""event"",""trial"",""time""
""fullscreenenter"",""1"",""13940""
","
","
","""event"",""trial"",""time""
""fullscreenenter"",""1"",""13940""
","
","","","-1","","","21","10858","4176","&#9761;","elianto","#3366ff99","-1","-1","1","+10","[]","0","0","2","","","","","","","",""
"pit-trial","49","558481","0.0-2.0-11.2-1.2","battery-v0.2","","""event"",""trial"",""time""
""fullscreenenter"",""1"",""13940""
","
","
","""event"",""trial"",""time""
""fullscreenenter"",""1"",""13940""
","
","","","-1","","","21","10858","4176","&#9761;","elianto","#3366ff99","-1","-1","1","+10","[]","0","0","2","","","","","","","",""
"pit-trial","50","563340","0.0-2.0-11.2-2.2","battery-v0.2","","""event"",""trial"",""time""
""fullscreenenter"",""1"",""13940""
","
","
","""event"",""trial"",""time""
""fullscreenenter"",""1"",""13940""
","
","","","-1","","","21","10858","4176","&#9761;","elianto","#3366ff99","-1","-1","1","+10","[]","0","0","2","","","","","","","",""
"pit-trial","51","568218","0.0-2.0-11.2-3.2","battery-v0.2","","""event"",""trial"",""time""
""fullscreenenter"",""1"",""13940""
","
","
","""event"",""trial"",""time""
""fullscreenenter"",""1"",""13940""
","
","","","-1","","","21","10858","4176","&#9761;","elianto","#3366ff99","-1","-1","1","0","[]","0","0","2","","","","","","","",""
"pit-trial","52","573087","0.0-2.0-11.2-4.2","battery-v0.2","","""event"",""trial"",""time""
""fullscreenenter"",""1"",""13940""
","
","
","""event"",""trial"",""time""
""fullscreenenter"",""1"",""13940""
","
","","","-1","","","21","10858","4176","&#9761;","elianto","#3366ff99","-1","-1","1","+10","[]","0","0","2","","","","","","","",""
"pit-trial","53","577974","0.0-2.0-11.3-0.3","battery-v0.2","","""event"",""trial"",""time""
""fullscreenenter"",""1"",""13940""
","
","
","""event"",""trial"",""time""
""fullscreenenter"",""1"",""13940""
","
","","","-1","","","21","10858","4176","&#9761;","elianto","#3366ff99","-1","-1","1","+10","[]","0","0","2","","","","","","","",""
"pit-trial","54","582842","0.0-2.0-11.3-1.3","battery-v0.2","","""event"",""trial"",""time""
""fullscreenenter"",""1"",""13940""
","
","
","""event"",""trial"",""time""
""fullscreenenter"",""1"",""13940""
","
","","","-1","","","21","10858","4176","&#9761;","elianto","#3366ff99","-1","-1","1","+10","[]","0","0","2","","","","","","","",""
"pit-trial","55","587713","0.0-2.0-11.3-2.3","battery-v0.2","","""event"",""trial"",""time""
""fullscreenenter"",""1"",""13940""
","
","
","""event"",""trial"",""time""
""fullscreenenter"",""1"",""13940""
","
","","","-1","","","21","10858","4176","&#9761;","elianto","#3366ff99","-1","-1","1","+10","[]","0","0","2","","","","","","","",""
"pit-trial","56","591240","0.0-2.0-11.3-3.3","battery-v0.2","","""event"",""trial"",""time""
""fullscreenenter"",""1"",""13940""
","
","
","""event"",""trial"",""time""
""fullscreenenter"",""1"",""13940""
","
","","","662.8999999985099","","","21","10858","4176","&#9761;","elianto","#3366ff99","-1"," ","0","+10","[1514.0999999996275]","1","0","2","","","","","","","",""
"pit-trial","57","596110","0.0-2.0-11.3-4.3","battery-v0.2","","""event"",""trial"",""time""
""fullscreenenter"",""1"",""13940""
","
","
","""event"",""trial"",""time""
""fullscreenenter"",""1"",""13940""
","
","","","-1","","","21","10858","4176","&#9761;","elianto","#3366ff99","-1","-1","1","+10","[]","0","0","2","","","","","","","",""
"call-function","58","596114","0.0-2.0-12.0","battery-v0.2","","""event"",""trial"",""time""
""fullscreenenter"",""1"",""13940""
","
","
","""event"",""trial"",""time""
""fullscreenenter"",""1"",""13940""
","
","","","","","","","","","","","","","","","","","","","","","","","","","","",""
"pit-instructions","59","630072","0.0-2.0-13.0","battery-v0.2","","""event"",""trial"",""time""
""fullscreenenter"",""1"",""13940""
","
","
","""event"",""trial"",""time""
""fullscreenenter"",""1"",""13940""
","
","","[{""page_index"":0,""viewing_time"":4849.5},{""page_index"":1,""viewing_time"":7707},{""page_index"":2,""viewing_time"":4216.60000000149},{""page_index"":3,""viewing_time"":10314},{""page_index"":4,""viewing_time"":6867.699999999255}]","33955.800000000745","","","","","","","","","","","","","","","","","","","","","","","",""
"pit-trial","60","634754","0.0-2.0-14.0-0.0","battery-v0.2","","""event"",""trial"",""time""
""fullscreenenter"",""1"",""13940""
","
","
","""event"",""trial"",""time""
""fullscreenenter"",""1"",""13940""
","
","","","1819.9000000003725","","","21","10858","4176","&#9826;","elianto","#f73b6a7A","-1"," ","0","-10","[2673.2000000011176]","1","0","3","","","","","","","",""
"pit-trial","61","639634","0.0-2.0-14.0-1.0","battery-v0.2","","""event"",""trial"",""time""
""fullscreenenter"",""1"",""13940""
","
","
","""event"",""trial"",""time""
""fullscreenenter"",""1"",""13940""
","
","","","-1","","","21","10858","4176","&#9826;","elianto","#f73b6a7A","-1","-1","1","0","[]","0","0","3","","","","","","","",""
"pit-trial","62","644514","0.0-2.0-14.0-2.0","battery-v0.2","","""event"",""trial"",""time""
""fullscreenenter"",""1"",""13940""
","
","
","""event"",""trial"",""time""
""fullscreenenter"",""1"",""13940""
","
","","","-1","","","21","10858","4176","&#9826;","elianto","#f73b6a7A","-1","-1","1","0","[]","0","0","3","","","","","","","",""
"pit-trial","63","649394","0.0-2.0-14.0-3.0","battery-v0.2","","""event"",""trial"",""time""
""fullscreenenter"",""1"",""13940""
","
","
","""event"",""trial"",""time""
""fullscreenenter"",""1"",""13940""
","
","","","-1","","","21","10858","4176","&#9826;","elianto","#f73b6a7A","-1","-1","1","-10","[]","0","0","3","","","","","","","",""
"pit-trial","64","654264","0.0-2.0-14.0-4.0","battery-v0.2","","""event"",""trial"",""time""
""fullscreenenter"",""1"",""13940""
","
","
","""event"",""trial"",""time""
""fullscreenenter"",""1"",""13940""
","
","","","-1","","","21","10858","4176","&#9826;","elianto","#f73b6a7A","-1","-1","1","0","[]","0","0","3","","","","","","","",""
"pit-trial","65","659134","0.0-2.0-14.1-0.1","battery-v0.2","","""event"",""trial"",""time""
""fullscreenenter"",""1"",""13940""
","
","
","""event"",""trial"",""time""
""fullscreenenter"",""1"",""13940""
","
","","","-1","","","21","10858","4176","&#9826;","elianto","#f73b6a7A","-1","-1","1","0","[]","0","0","3","","","","","","","",""
"pit-trial","66","664004","0.0-2.0-14.1-1.1","battery-v0.2","","""event"",""trial"",""time""
""fullscreenenter"",""1"",""13940""
","
","
","""event"",""trial"",""time""
""fullscreenenter"",""1"",""13940""
","
","","","-1","","","21","10858","4176","&#9826;","elianto","#f73b6a7A","-1","-1","1","0","[]","0","0","3","","","","","","","",""
"pit-trial","67","668873","0.0-2.0-14.1-2.1","battery-v0.2","","""event"",""trial"",""time""
""fullscreenenter"",""1"",""13940""
","
","
","""event"",""trial"",""time""
""fullscreenenter"",""1"",""13940""
","
","","","-1","","","21","10858","4176","&#9826;","elianto","#f73b6a7A","-1","-1","1","0","[]","0","0","3","","","","","","","",""
"pit-trial","68","672580","0.0-2.0-14.1-3.1","battery-v0.2","","""event"",""trial"",""time""
""fullscreenenter"",""1"",""13940""
","
","
","""event"",""trial"",""time""
""fullscreenenter"",""1"",""13940""
","
","","","841","","","21","10858","4176","&#9826;","elianto","#f73b6a7A","-1"," ","0","0","[1695.800000000745]","1","0","3","","","","","","","",""
"pit-trial","69","677444","0.0-2.0-14.1-4.1","battery-v0.2","","""event"",""trial"",""time""
""fullscreenenter"",""1"",""13940""
","
","
","""event"",""trial"",""time""
""fullscreenenter"",""1"",""13940""
","
","","","-1","","","21","10858","4176","&#9826;","elianto","#f73b6a7A","-1","-1","1","0","[]","0","0","3","","","","","","","",""
"pit-trial","70","682310","0.0-2.0-14.2-0.2","battery-v0.2","","""event"",""trial"",""time""
""fullscreenenter"",""1"",""13940""
","
","
","""event"",""trial"",""time""
""fullscreenenter"",""1"",""13940""
","
","","","-1","","","21","10858","4176","&#9826;","elianto","#f73b6a7A","-1","-1","1","0","[]","0","0","3","","","","","","","",""
"pit-trial","71","687177","0.0-2.0-14.2-1.2","battery-v0.2","","""event"",""trial"",""time""
""fullscreenenter"",""1"",""13940""
","
","
","""event"",""trial"",""time""
""fullscreenenter"",""1"",""13940""
","
","","","-1","","","21","10858","4176","&#9826;","elianto","#f73b6a7A","-1","-1","1","0","[]","0","0","3","","","","","","","",""
"pit-trial","72","690947","0.0-2.0-14.2-2.2","battery-v0.2","","""event"",""trial"",""time""
""fullscreenenter"",""1"",""13940""
","
","
","""event"",""trial"",""time""
""fullscreenenter"",""1"",""13940""
","
","","","902.8999999985099","","","21","10858","4176","&#9826;","elianto","#f73b6a7A","-1"," ","0","-10","[1761.0999999996275]","1","0","3","","","","","","","",""
"pit-trial","73","694082","0.0-2.0-14.2-3.2","battery-v0.2","","""event"",""trial"",""time""
""fullscreenenter"",""1"",""13940""
","
","
","""event"",""trial"",""time""
""fullscreenenter"",""1"",""13940""
","
","","","268","","","21","10858","4176","&#9826;","elianto","#f73b6a7A","-1"," ","0","0","[1123.300000000745]","1","0","3","","","","","","","",""
"pit-trial","74","698950","0.0-2.0-14.2-4.2","battery-v0.2","","""event"",""trial"",""time""
""fullscreenenter"",""1"",""13940""
","
","
","""event"",""trial"",""time""
""fullscreenenter"",""1"",""13940""
","
","","","-1","","","21","10858","4176","&#9826;","elianto","#f73b6a7A","-1","-1","1","0","[]","0","0","3","","","","","","","",""
"pit-trial","75","703813","0.0-2.0-14.3-0.3","battery-v0.2","","""event"",""trial"",""time""
""fullscreenenter"",""1"",""13940""
","
","
","""event"",""trial"",""time""
""fullscreenenter"",""1"",""13940""
","
","","","-1","","","21","10858","4176","&#9826;","elianto","#f73b6a7A","-1","-1","1","0","[]","0","0","3","","","","","","","",""
"pit-trial","76","708694","0.0-2.0-14.3-1.3","battery-v0.2","","""event"",""trial"",""time""
""fullscreenenter"",""1"",""13940""
","
","
","""event"",""trial"",""time""
""fullscreenenter"",""1"",""13940""
","
","","","-1","","","21","10858","4176","&#9826;","elianto","#f73b6a7A","-1","-1","1","0","[]","0","0","3","","","","","","","",""
"pit-trial","77","713554","0.0-2.0-14.3-2.3","battery-v0.2","","""event"",""trial"",""time""
""fullscreenenter"",""1"",""13940""
","
","
","""event"",""trial"",""time""
""fullscreenenter"",""1"",""13940""
","
","","","-1","","","21","10858","4176","&#9826;","elianto","#f73b6a7A","-1","-1","1","0","[]","0","0","3","","","","","","","",""
"pit-trial","78","718424","0.0-2.0-14.3-3.3","battery-v0.2","","""event"",""trial"",""time""
""fullscreenenter"",""1"",""13940""
","
","
","""event"",""trial"",""time""
""fullscreenenter"",""1"",""13940""
","
","","","-1","","","21","10858","4176","&#9826;","elianto","#f73b6a7A","-1","-1","1","-10","[]","0","0","3","","","","","","","",""
"pit-trial","79","723284","0.0-2.0-14.3-4.3","battery-v0.2","","""event"",""trial"",""time""
""fullscreenenter"",""1"",""13940""
","
","
","""event"",""trial"",""time""
""fullscreenenter"",""1"",""13940""
","
","","","-1","","","21","10858","4176","&#9826;","elianto","#f73b6a7A","-1","-1","1","0","[]","0","0","3","","","","","","","",""
"call-function","80","723286","0.0-2.0-15.0","battery-v0.2","","""event"",""trial"",""time""
""fullscreenenter"",""1"",""13940""
","
","
","""event"",""trial"",""time""
""fullscreenenter"",""1"",""13940""
","
","","","","","","","","","","","","","","","","","","","","","","","","","","",""
"pit-instructions","81","798529","0.0-2.0-16.0","battery-v0.2","","""event"",""trial"",""time""
""fullscreenenter"",""1"",""13940""
","
","
","""event"",""trial"",""time""
""fullscreenenter"",""1"",""13940""
","
","","[{""page_index"":0,""viewing_time"":27426},{""page_index"":1,""viewing_time"":8283.400000000373},{""page_index"":2,""viewing_time"":6188},{""page_index"":3,""viewing_time"":33344.09999999963}]","75242.59999999963","","","","","","","","","","","","","","","","","","","","","","","",""
"pit-trial","82","802403","0.0-2.0-17.0-0.0","battery-v0.2","","""event"",""trial"",""time""
""fullscreenenter"",""1"",""13940""
","
","
","""event"",""trial"",""time""
""fullscreenenter"",""1"",""13940""
","
","","","1011.4000000003725","","","21","10858","4176","&#9789;","elianto","#f73b6a7A"," "," ","1","0","[1863.4000000003725]","1","0","4","","","","","","","",""
"pit-trial","83","805839","0.0-2.0-17.0-1.0","battery-v0.2","","""event"",""trial"",""time""
""fullscreenenter"",""1"",""13940""
","
","
","""event"",""trial"",""time""
""fullscreenenter"",""1"",""13940""
","
","","","576.5999999996275","","","21","10858","4176","&#9789;","elianto","#f73b6a7A"," "," ","1","0","[1427.7000000011176]","1","0","4","","","","","","","",""
"pit-trial","84","809184","0.0-2.0-17.0-2.0","battery-v0.2","","""event"",""trial"",""time""
""fullscreenenter"",""1"",""13940""
","
","
","""event"",""trial"",""time""
""fullscreenenter"",""1"",""13940""
","
","","","476.59999999962747","","","21","10858","4176","&#9789;","elianto","#f73b6a7A"," "," ","1","0","[1330.7999999988824]","1","0","4","","","","","","","",""
"pit-trial","85","813672","0.0-2.0-17.0-3.0","battery-v0.2","","""event"",""trial"",""time""
""fullscreenenter"",""1"",""13940""
","
","
","""event"",""trial"",""time""
""fullscreenenter"",""1"",""13940""
","
","","","1628.699999999255","","","21","10858","4176","&#9789;","elianto","#f73b6a7A"," "," ","1","-10","[2481.699999999255]","1","0","4","","","","","","","",""
"pit-trial","86","816915","0.0-2.0-17.0-4.0","battery-v0.2","","""event"",""trial"",""time""
""fullscreenenter"",""1"",""13940""
","
","
","""event"",""trial"",""time""
""fullscreenenter"",""1"",""13940""
","
","","","382","","","21","10858","4176","&#9789;","elianto","#f73b6a7A"," "," ","1","0","[1233.0999999996275]","1","0","4","","","","","","","",""
"pit-trial","87","820102","0.0-2.0-17.1-0.1","battery-v0.2","","""event"",""trial"",""time""
""fullscreenenter"",""1"",""13940""
","
","
","""event"",""trial"",""time""
""fullscreenenter"",""1"",""13940""
","
","","","325.80000000074506","","","21","10858","4176","&#9789;","elianto","#f73b6a7A"," "," ","1","0","[1177.0999999996275]","1","0","4","","","","","","","",""
"pit-trial","88","823413","0.0-2.0-17.1-1.1","battery-v0.2","","""event"",""trial"",""time""
""fullscreenenter"",""1"",""13940""
","
","
","""event"",""trial"",""time""
""fullscreenenter"",""1"",""13940""
","
","","","445.90000000037253","","","21","10858","4176","&#9789;","elianto","#f73b6a7A"," "," ","1","0","[1302.0999999996275]","1","0","4","","","","","","","",""
"pit-trial","89","826593","0.0-2.0-17.1-2.1","battery-v0.2","","""event"",""trial"",""time""
""fullscreenenter"",""1"",""13940""
","
","
","""event"",""trial"",""time""
""fullscreenenter"",""1"",""13940""
","
","","","310.90000000037253","","","21","10858","4176","&#9789;","elianto","#f73b6a7A"," "," ","1","0","[1165.2000000011176]","1","0","4","","","","","","","",""
"pit-trial","90","831456","0.0-2.0-17.1-3.1","battery-v0.2","","""event"",""trial"",""time""
""fullscreenenter"",""1"",""13940""
","
","
","""event"",""trial"",""time""
""fullscreenenter"",""1"",""13940""
","
","","","-1","","","21","10858","4176","&#9789;","elianto","#f73b6a7A"," ","-1","0","0","[]","0","0","4","","","","","","","",""
"pit-trial","91","834722","0.0-2.0-17.1-4.1","battery-v0.2","","""event"",""trial"",""time""
""fullscreenenter"",""1"",""13940""
","
","
","""event"",""trial"",""time""
""fullscreenenter"",""1"",""13940""
","
","","","405.69999999925494","","","21","10858","4176","&#9789;","elianto","#f73b6a7A"," "," ","1","0","[1257.7999999988824]","1","0","4","","","","","","","",""
"pit-trial","92","837836","0.0-2.0-17.2-0.2","battery-v0.2","","""event"",""trial"",""time""
""fullscreenenter"",""1"",""13940""
","
","
","""event"",""trial"",""time""
""fullscreenenter"",""1"",""13940""
","
","","","243.10000000149012","","","21","10858","4176","&#9789;","elianto","#f73b6a7A"," "," ","1","0","[1101.199999999255]","1","0","4","","","","","","","",""
"pit-trial","93","841122","0.0-2.0-17.2-1.2","battery-v0.2","","""event"",""trial"",""time""
""fullscreenenter"",""1"",""13940""
","
","
","""event"",""trial"",""time""
""fullscreenenter"",""1"",""13940""
","
","","","424.5","","","21","10858","4176","&#9789;","elianto","#f73b6a7A"," "," ","1","0","[1279.2000000011176]","1","0","4","","","","","","","",""
"pit-trial","94","844329","0.0-2.0-17.2-2.2","battery-v0.2","","""event"",""trial"",""time""
""fullscreenenter"",""1"",""13940""
","
","
","""event"",""trial"",""time""
""fullscreenenter"",""1"",""13940""
","
","","","340.7000000011176","","","21","10858","4176","&#9789;","elianto","#f73b6a7A"," "," ","1","0","[1196.8999999985099]","1","0","4","","","","","","","",""
"pit-trial","95","849197","0.0-2.0-17.2-3.2","battery-v0.2","","""event"",""trial"",""time""
""fullscreenenter"",""1"",""13940""
","
","
","""event"",""trial"",""time""
""fullscreenenter"",""1"",""13940""
","
","","","-1","","","21","10858","4176","&#9789;","elianto","#f73b6a7A"," ","-1","0","0","[]","0","0","4","","","","","","","",""
"pit-trial","96","852351","0.0-2.0-17.2-4.2","battery-v0.2","","""event"",""trial"",""time""
""fullscreenenter"",""1"",""13940""
","
","
","""event"",""trial"",""time""
""fullscreenenter"",""1"",""13940""
","
","","","283.80000000074506","","","21","10858","4176","&#9789;","elianto","#f73b6a7A"," "," ","1","0","[1139.9000000003725]","1","0","4","","","","","","","",""
"pit-trial","97","855496","0.0-2.0-17.3-0.3","battery-v0.2","","""event"",""trial"",""time""
""fullscreenenter"",""1"",""13940""
","
","
","""event"",""trial"",""time""
""fullscreenenter"",""1"",""13940""
","
","","","278.5","","","21","10858","4176","&#9789;","elianto","#f73b6a7A"," "," ","1","0","[1132.7000000011176]","1","0","4","","","","","","","",""
"pit-trial","98","858550","0.0-2.0-17.3-1.3","battery-v0.2","","""event"",""trial"",""time""
""fullscreenenter"",""1"",""13940""
","
","
","""event"",""trial"",""time""
""fullscreenenter"",""1"",""13940""
","
","","","188.2000000011176","","","21","10858","4176","&#9789;","elianto","#f73b6a7A"," "," ","1","0","[1038.5999999996275]","1","0","4","","","","","","","",""
"pit-trial","99","861976","0.0-2.0-17.3-2.3","battery-v0.2","","""event"",""trial"",""time""
""fullscreenenter"",""1"",""13940""
","
","
","""event"",""trial"",""time""
""fullscreenenter"",""1"",""13940""
","
","","","559.0999999996275","","","21","10858","4176","&#9789;","elianto","#f73b6a7A"," "," ","1","0","[1411.5]","1","0","4","","","","","","","",""
"pit-trial","100","866846","0.0-2.0-17.3-3.3","battery-v0.2","","""event"",""trial"",""time""
""fullscreenenter"",""1"",""13940""
","
","
","""event"",""trial"",""time""
""fullscreenenter"",""1"",""13940""
","
","","","-1","","","21","10858","4176","&#9789;","elianto","#f73b6a7A"," ","-1","0","0","[]","0","0","4","","","","","","","",""
"pit-trial","101","869891","0.0-2.0-17.3-4.3","battery-v0.2","","""event"",""trial"",""time""
""fullscreenenter"",""1"",""13940""
","
","
","""event"",""trial"",""time""
""fullscreenenter"",""1"",""13940""
","
","","","184.69999999925494","","","21","10858","4176","&#9789;","elianto","#f73b6a7A"," "," ","1","0","[1039.4000000003725]","1","0","4","","","","","","","",""
"call-function","102","869896","0.0-2.0-18.0","battery-v0.2","","""event"",""trial"",""time""
""fullscreenenter"",""1"",""13940""
","
","
","""event"",""trial"",""time""
""fullscreenenter"",""1"",""13940""
","
","","","","","","","","","","","","","","","","","","","","","","","","","","",""
"pit-instructions","103","934181","0.0-2.0-19.0","battery-v0.2","","""event"",""trial"",""time""
""fullscreenenter"",""1"",""13940""
","
","
","""event"",""trial"",""time""
""fullscreenenter"",""1"",""13940""
","
","","[{""page_index"":0,""viewing_time"":6653},{""page_index"":1,""viewing_time"":6057.5999999996275},{""page_index"":2,""viewing_time"":8945.200000001118},{""page_index"":3,""viewing_time"":8788.299999998882},{""page_index"":4,""viewing_time"":8272},{""page_index"":5,""viewing_time"":8711.700000001118},{""page_index"":6,""viewing_time"":6635.699999999255},{""page_index"":7,""viewing_time"":6302.5999999996275},{""page_index"":8,""viewing_time"":3915.2000000011176}]","64282.59999999963","","","","","","","","","","","","","","","","","","","","","","","",""
"pit-comprehension","104","938794","0.0-2.0-20.0-0.0","battery-v0.2","","""event"",""trial"",""time""
""fullscreenenter"",""1"",""13940""
","
","
","""event"",""trial"",""time""
""fullscreenenter"",""1"",""13940""
","
","","","4594.800000000745","[""SPACE""]","0","21","10858","4176","","","","","","","","","","","","","","","","","","",""
"pit-instructions","105","941037","0.0-2.0-20.0-1.0","battery-v0.2","","""event"",""trial"",""time""
""fullscreenenter"",""1"",""13940""
","
","
","""event"",""trial"",""time""
""fullscreenenter"",""1"",""13940""
","
","","[{""page_index"":0,""viewing_time"":2093.699999999255}]","2093.9000000003725","","","","","","","","","","","","","","","","","","","","","","","",""
"pit-comprehension","106","958997","0.0-2.0-21.0-0.0","battery-v0.2","","""event"",""trial"",""time""
""fullscreenenter"",""1"",""13940""
","
","
","""event"",""trial"",""time""
""fullscreenenter"",""1"",""13940""
","
","","","17955.300000000745","[""10""]","0","21","10858","4176","","","","","","","","","","","","","","","","","","",""
"pit-instructions","107","964661","0.0-2.0-21.0-1.0","battery-v0.2","","""event"",""trial"",""time""
""fullscreenenter"",""1"",""13940""
","
","
","""event"",""trial"",""time""
""fullscreenenter"",""1"",""13940""
","
","","[{""page_index"":0,""viewing_time"":5458.5999999996275}]","5459.699999999255","","","","","","","","","","","","","","","","","","","","","","","",""
"pit-comprehension","108","974096","0.0-2.0-22.0-0.0","battery-v0.2","","""event"",""trial"",""time""
""fullscreenenter"",""1"",""13940""
","
","
","""event"",""trial"",""time""
""fullscreenenter"",""1"",""13940""
","
","","","9418.199999999255","[""0""]","0","21","10858","4176","","","","","","","","","","","","","","","","","","",""
"pit-instructions","109","976190","0.0-2.0-22.0-1.0","battery-v0.2","","""event"",""trial"",""time""
""fullscreenenter"",""1"",""13940""
","
","
","""event"",""trial"",""time""
""fullscreenenter"",""1"",""13940""
","
","","[{""page_index"":0,""viewing_time"":1872.9000000003725}]","1874.2999999988824","","","","","","","","","","","","","","","","","","","","","","","",""
"pit-comprehension","110","984406","0.0-2.0-23.0-0.0","battery-v0.2","","""event"",""trial"",""time""
""fullscreenenter"",""1"",""13940""
","
","
","""event"",""trial"",""time""
""fullscreenenter"",""1"",""13940""
","
","","","8204.5","[""True""]","0","21","10858","4176","","","","","","","","","","","","","","","","","","",""
"pit-instructions","111","986782","0.0-2.0-23.0-1.0","battery-v0.2","","""event"",""trial"",""time""
""fullscreenenter"",""1"",""13940""
","
","
","""event"",""trial"",""time""
""fullscreenenter"",""1"",""13940""
","
","","[{""page_index"":0,""viewing_time"":2173.199999999255}]","2174","","","","","","","","","","","","","","","","","","","","","","","",""
"pit-comprehension","112","994659","0.0-2.0-24.0-0.0","battery-v0.2","","""event"",""trial"",""time""
""fullscreenenter"",""1"",""13940""
","
","
","""event"",""trial"",""time""
""fullscreenenter"",""1"",""13940""
","
","","","7864.4000000003725","[""True""]","0","21","10858","4176","","","","","","","","","","","","","","","","","","",""
"pit-instructions","113","996706","0.0-2.0-24.0-1.0","battery-v0.2","","""event"",""trial"",""time""
""fullscreenenter"",""1"",""13940""
","
","
","""event"",""trial"",""time""
""fullscreenenter"",""1"",""13940""
","
","","[{""page_index"":0,""viewing_time"":1871}]","1871.9000000003725","","","","","","","","","","","","","","","","","","","","","","","",""
"pit-comprehension","114","1002969","0.0-2.0-25.0-0.0","battery-v0.2","","""event"",""trial"",""time""
""fullscreenenter"",""1"",""13940""
","
","
","""event"",""trial"",""time""
""fullscreenenter"",""1"",""13940""
","
","","","6252","[""True""]","0","21","10858","4176","","","","","","","","","","","","","","","","","","",""
"pit-instructions","115","1004279","0.0-2.0-25.0-1.0","battery-v0.2","","""event"",""trial"",""time""
""fullscreenenter"",""1"",""13940""
","
","
","""event"",""trial"",""time""
""fullscreenenter"",""1"",""13940""
","
","","[{""page_index"":0,""viewing_time"":1085.4000000003725}]","1086.4000000003725","","","","","","","","","","","","","","","","","","","","","","","",""
"pit-comprehension","116","1008991","0.0-2.0-26.0-0.0","battery-v0.2","","""event"",""trial"",""time""
""fullscreenenter"",""1"",""13940""
","
","
","""event"",""trial"",""time""
""fullscreenenter"",""1"",""13940""
","
","","","4697.0999999996275","[""False""]","0","21","10858","4176","","","","","","","","","","","","","","","","","","",""
"pit-instructions","117","1012468","0.0-2.0-26.0-1.0","battery-v0.2","","""event"",""trial"",""time""
""fullscreenenter"",""1"",""13940""
","
","
","""event"",""trial"",""time""
""fullscreenenter"",""1"",""13940""
","
","","[{""page_index"":0,""viewing_time"":3261.5999999996275}]","3262.5","","","","","","","","","","","","","","","","","","","","","","","",""
"pit-instructions","118","1035285","0.0-3.0","battery-v0.2","","""event"",""trial"",""time""
""fullscreenenter"",""1"",""13940""
","
","
","""event"",""trial"",""time""
""fullscreenenter"",""1"",""13940""
","
","","[{""page_index"":0,""viewing_time"":3975.199999999255},{""page_index"":1,""viewing_time"":11534.400000000373},{""page_index"":2,""viewing_time"":7300.300000000745}]","22810.900000000373","","","","","","","","","","","","","","","","","","","","","","","",""
"pit-trial","119","1039750","0.0-4.0","battery-v0.2","","""event"",""trial"",""time""
""fullscreenenter"",""1"",""13940""
","
","
","""event"",""trial"",""time""
""fullscreenenter"",""1"",""13940""
","
","","","1572.5","","","21","10858","4176","&#9728;","elianto","#f73b6a7A","-1"," ","0","-10","[2430.5]","1","1","","","10858","1","0","4","lose","no-go","0"
"pit-trial","120","1044209","0.0-5.0","battery-v0.2","","""event"",""trial"",""time""
""fullscreenenter"",""1"",""13940""
","
","
","""event"",""trial"",""time""
""fullscreenenter"",""1"",""13940""
","
","","","1588.5999999996275","","","21","10858","4176","&#9730;","elianto","#3366ff99"," "," ","1","+10","[2444.0999999996275]","1","1","","","10858","2","1","1","win","go","0"
"pit-trial","121","1048080","0.0-6.0","battery-v0.2","","""event"",""trial"",""time""
""fullscreenenter"",""1"",""13940""
","
","
","""event"",""trial"",""time""
""fullscreenenter"",""1"",""13940""
","
","","","1010.1999999992549","","","21","10858","4176","&#9733;","elianto","#3366ff99","-1"," ","0","+10","[1862.0999999996275]","1","1","","","10858","3","2","2","win","no-go","1"
"pit-trial","122","1052931","0.0-7.0","battery-v0.2","","""event"",""trial"",""time""
""fullscreenenter"",""1"",""13940""
","
","
","""event"",""trial"",""time""
""fullscreenenter"",""1"",""13940""
","
","","","1972.9000000003725","","","21","10858","4176","&#9752;","elianto","#f73b6a7A"," "," ","1","0","[2829.800000000745]","1","1","","","10858","4","3","3","lose","go","0"
"pit-trial","123","1057811","0.0-8.0","battery-v0.2","","""event"",""trial"",""time""
""fullscreenenter"",""1"",""13940""
","
","
","""event"",""trial"",""time""
""fullscreenenter"",""1"",""13940""
","
","","","-1","","","21","10858","4176","&#9728;","elianto","#f73b6a7A","-1","-1","1","0","[]","0","1","","","10858","5","0","4","lose","no-go","0"
"pit-trial","124","1061471","0.0-9.0","battery-v0.2","","""event"",""trial"",""time""
""fullscreenenter"",""1"",""13940""
","
","
","""event"",""trial"",""time""
""fullscreenenter"",""1"",""13940""
","
","","","797.1999999992549","","","21","10858","4176","&#9730;","elianto","#3366ff99"," "," ","1","+10","[1648.4000000003725]","1","1","","","10858","6","1","1","win","go","0"
"pit-trial","125","1065651","0.0-10.0","battery-v0.2","","""event"",""trial"",""time""
""fullscreenenter"",""1"",""13940""
","
","
","""event"",""trial"",""time""
""fullscreenenter"",""1"",""13940""
","
","","","1312.9000000003725","","","21","10858","4176","&#9752;","elianto","#f73b6a7A"," "," ","1","-10","[2168.89999999851]","1","1","","","10858","7","3","3","lose","go","1"
"pit-trial","126","1069418","0.0-11.0","battery-v0.2","","""event"",""trial"",""time""
""fullscreenenter"",""1"",""13940""
","
","
","""event"",""trial"",""time""
""fullscreenenter"",""1"",""13940""
","
","","","903.0999999996275","","","21","10858","4176","&#9733;","elianto","#3366ff99","-1"," ","0","0","[1754.5999999996275]","1","1","","","10858","8","2","2","win","no-go","0"
"pit-trial","127","1073356","0.0-12.0","battery-v0.2","","""event"",""trial"",""time""
""fullscreenenter"",""1"",""13940""
","
","
","""event"",""trial"",""time""
""fullscreenenter"",""1"",""13940""
","
","","","1068.800000000745","","","21","10858","4176","&#9752;","elianto","#f73b6a7A"," "," ","1","0","[1925.5]","1","1","","","10858","9","3","3","lose","go","0"
"pit-trial","128","1076904","0.0-13.0","battery-v0.2","","""event"",""trial"",""time""
""fullscreenenter"",""1"",""13940""
","
","
","""event"",""trial"",""time""
""fullscreenenter"",""1"",""13940""
","
","","","683.8000000007451","","","21","10858","4176","&#9730;","elianto","#3366ff99"," "," ","1","+10","[1536.7000000011176]","1","1","","","10858","10","1","1","win","go","0"
"pit-trial","129","1081765","0.0-14.0","battery-v0.2","","""event"",""trial"",""time""
""fullscreenenter"",""1"",""13940""
","
","
","""event"",""trial"",""time""
""fullscreenenter"",""1"",""13940""
","
","","","-1","","","21","10858","4176","&#9728;","elianto","#f73b6a7A","-1","-1","1","0","[]","0","1","","","10858","11","0","4","lose","no-go","0"
"pit-trial","130","1085435","0.0-15.0","battery-v0.2","","""event"",""trial"",""time""
""fullscreenenter"",""1"",""13940""
","
","
","""event"",""trial"",""time""
""fullscreenenter"",""1"",""13940""
","
","","","805","","","21","10858","4176","&#9733;","elianto","#3366ff99","-1"," ","0","+10","[1657.5999999996275]","1","1","","","10858","12","2","2","win","no-go","1"
"pit-trial","131","1089101","0.0-16.0","battery-v0.2","","""event"",""trial"",""time""
""fullscreenenter"",""1"",""13940""
","
","
","""event"",""trial"",""time""
""fullscreenenter"",""1"",""13940""
","
","","","795.5","","","21","10858","4176","&#9752;","elianto","#f73b6a7A"," "," ","1","0","[1650.9000000003725]","1","1","","","10858","13","3","3","lose","go","0"
"pit-trial","132","1093983","0.0-17.0","battery-v0.2","","""event"",""trial"",""time""
""fullscreenenter"",""1"",""13940""
","
","
","""event"",""trial"",""time""
""fullscreenenter"",""1"",""13940""
","
","","","-1","","","21","10858","4176","&#9728;","elianto","#f73b6a7A","-1","-1","1","0","[]","0","1","","","10858","14","0","4","lose","no-go","0"
"pit-trial","133","1097528","0.0-18.0","battery-v0.2","","""event"",""trial"",""time""
""fullscreenenter"",""1"",""13940""
","
","
","""event"",""trial"",""time""
""fullscreenenter"",""1"",""13940""
","
","","","674.5","","","21","10858","4176","&#9733;","elianto","#3366ff99","-1"," ","0","0","[1530.2000000011176]","1","1","","","10858","15","2","2","win","no-go","0"
"pit-trial","134","1101469","0.0-19.0","battery-v0.2","","""event"",""trial"",""time""
""fullscreenenter"",""1"",""13940""
","
","
","""event"",""trial"",""time""
""fullscreenenter"",""1"",""13940""
","
","","","1078","","","21","10858","4176","&#9730;","elianto","#3366ff99"," "," ","1","+10","[1931.5999999996275]","1","1","","","10858","16","1","1","win","go","0"
"pit-trial","135","1105162","0.0-20.0","battery-v0.2","","""event"",""trial"",""time""
""fullscreenenter"",""1"",""13940""
","
","
","""event"",""trial"",""time""
""fullscreenenter"",""1"",""13940""
","
","","","832.5999999996275","","","21","10858","4176","&#9730;","elianto","#3366ff99"," "," ","1","+10","[1685]","1","1","","","10858","17","1","1","win","go","0"
"pit-trial","136","1108781","0.0-21.0","battery-v0.2","","""event"",""trial"",""time""
""fullscreenenter"",""1"",""13940""
","
","
","""event"",""trial"",""time""
""fullscreenenter"",""1"",""13940""
","
","","","758.5","","","21","10858","4176","&#9733;","elianto","#3366ff99","-1"," ","0","0","[1611.7999999988824]","1","1","","","10858","18","2","2","win","no-go","0"
"pit-trial","137","1113658","0.0-22.0","battery-v0.2","","""event"",""trial"",""time""
""fullscreenenter"",""1"",""13940""
","
","
","""event"",""trial"",""time""
""fullscreenenter"",""1"",""13940""
","
","","","-1","","","21","10858","4176","&#9728;","elianto","#f73b6a7A","-1","-1","1","0","[]","0","1","","","10858","19","0","4","lose","no-go","0"
"pit-trial","138","1117387","0.0-23.0","battery-v0.2","","""event"",""trial"",""time""
""fullscreenenter"",""1"",""13940""
","
","
","""event"",""trial"",""time""
""fullscreenenter"",""1"",""13940""
","
","","","862.5999999996275","","","21","10858","4176","&#9752;","elianto","#f73b6a7A"," "," ","1","-10","[1718.1000000014901]","1","1","","","10858","20","3","3","lose","go","1"
"pit-instructions","139","1210433","0.0-24.0","battery-v0.2","","""event"",""trial"",""time""
""fullscreenenter"",""1"",""13940""
","
","
","""event"",""trial"",""time""
""fullscreenenter"",""1"",""13940""
","
","","[{""page_index"":0,""viewing_time"":6258.9000000003725},{""page_index"":1,""viewing_time"":86782.09999999963}]","93042.19999999925","","","","","","","","","","","","","","","","","","","","","","","",""
"pit-trial","140","1214914","0.0-25.0","battery-v0.2","","""event"",""trial"",""time""
""fullscreenenter"",""1"",""13940""
","
","
","""event"",""trial"",""time""
""fullscreenenter"",""1"",""13940""
","
","","","1609","","","21","10858","4176","u","elianto","#f73b6a7A","-1"," ","0","-10","[2459.2000000011176]","1","2","","","10858","21","0","4","lose","no-go","0"
"pit-trial","141","1218972","0.0-26.0","battery-v0.2","","""event"",""trial"",""time""
""fullscreenenter"",""1"",""13940""
","
","
","""event"",""trial"",""time""
""fullscreenenter"",""1"",""13940""
","
","","","1194.5","","","21","10858","4176","a","elianto","#f73b6a7A","-1"," ","0","0","[2046.800000000745]","1","2","","","10858","22","2","4","lose","no-go","1"
"pit-trial","142","1223263","0.0-27.0","battery-v0.2","","""event"",""trial"",""time""
""fullscreenenter"",""1"",""13940""
","
","
","""event"",""trial"",""time""
""fullscreenenter"",""1"",""13940""
","
","","","1422.7999999988824","","","21","10858","4176","l","elianto","#3366ff99"," "," ","1","0","[2274.0999999996275]","1","2","","","10858","23","1","1","win","go","1"
"pit-trial","143","1227266","0.0-28.0","battery-v0.2","","""event"",""trial"",""time""
""fullscreenenter"",""1"",""13940""
","
","
","""event"",""trial"",""time""
""fullscreenenter"",""1"",""13940""
","
","","","1140","","","21","10858","4176","g","elianto","#f73b6a7A"," "," ","1","0","[1992.199999999255]","1","2","","","10858","24","3","3","lose","go","0"
"pit-trial","144","1232135","0.0-29.0","battery-v0.2","","""event"",""trial"",""time""
""fullscreenenter"",""1"",""13940""
","
","
","""event"",""trial"",""time""
""fullscreenenter"",""1"",""13940""
","
","","","-1","","","21","10858","4176","l","elianto","#3366ff99"," ","-1","0","+10","[2910.5999999996275]","1","2","","","10858","25","1","1","win","go","1"
"pit-trial","145","1236453","0.0-30.0","battery-v0.2","","""event"",""trial"",""time""
""fullscreenenter"",""1"",""13940""
","
","
","""event"",""trial"",""time""
""fullscreenenter"",""1"",""13940""
","
","","","1458.5999999996275","","","21","10858","4176","u","elianto","#f73b6a7A","-1"," ","0","-10","[2312]","1","2","","","10858","26","0","4","lose","no-go","0"
"pit-trial","146","1240322","0.0-31.0","battery-v0.2","","""event"",""trial"",""time""
""fullscreenenter"",""1"",""13940""
","
","
","""event"",""trial"",""time""
""fullscreenenter"",""1"",""13940""
","
","","","1012.3000000007451","","","21","10858","4176","a","elianto","#f73b6a7A","-1"," ","0","0","[1862.699999999255]","1","2","","","10858","27","2","4","lose","no-go","1"
"pit-trial","147","1244555","0.0-32.0","battery-v0.2","","""event"",""trial"",""time""
""fullscreenenter"",""1"",""13940""
","
","
","""event"",""trial"",""time""
""fullscreenenter"",""1"",""13940""
","
","","","1367.4000000003725","","","21","10858","4176","g","elianto","#f73b6a7A"," "," ","1","-10","[2224.7999999988824]","1","2","","","10858","28","3","3","lose","go","1"
"pit-trial","148","1248515","0.0-33.0","battery-v0.2","","""event"",""trial"",""time""
""fullscreenenter"",""1"",""13940""
","
","
","""event"",""trial"",""time""
""fullscreenenter"",""1"",""13940""
","
","","","1091.2000000011176","","","21","10858","4176","u","elianto","#f73b6a7A","-1"," ","0","-10","[1948.4000000003725]","1","2","","","10858","29","0","4","lose","no-go","0"
"pit-trial","149","1252085","0.0-34.0","battery-v0.2","","""event"",""trial"",""time""
""fullscreenenter"",""1"",""13940""
","
","
","""event"",""trial"",""time""
""fullscreenenter"",""1"",""13940""
","
","","","706.4000000003725","","","21","10858","4176","a","elianto","#f73b6a7A","-1"," ","0","-10","[1556.7000000011176]","1","2","","","10858","30","2","4","lose","no-go","0"
"pit-trial","150","1255971","0.0-35.0","battery-v0.2","","""event"",""trial"",""time""
""fullscreenenter"",""1"",""13940""
","
","
","""event"",""trial"",""time""
""fullscreenenter"",""1"",""13940""
","
","","","1012","","","21","10858","4176","g","elianto","#f73b6a7A"," "," ","1","-10","[1863.199999999255]","1","2","","","10858","31","3","3","lose","go","1"
"pit-trial","151","1259638","0.0-36.0","battery-v0.2","","""event"",""trial"",""time""
""fullscreenenter"",""1"",""13940""
","
","
","""event"",""trial"",""time""
""fullscreenenter"",""1"",""13940""
","
","","","807.4000000003725","","","21","10858","4176","l","elianto","#3366ff99"," "," ","1","+10","[1657.5]","1","2","","","10858","32","1","1","win","go","0"
"pit-trial","152","1263387","0.0-37.0","battery-v0.2","","""event"",""trial"",""time""
""fullscreenenter"",""1"",""13940""
","
","
","""event"",""trial"",""time""
""fullscreenenter"",""1"",""13940""
","
","","","884.1999999992549","","","21","10858","4176","l","elianto","#3366ff99"," "," ","1","+10","[1740.2999999988824]","1","2","","","10858","33","1","1","win","go","0"
"pit-trial","153","1267163","0.0-38.0","battery-v0.2","","""event"",""trial"",""time""
""fullscreenenter"",""1"",""13940""
","
","
","""event"",""trial"",""time""
""fullscreenenter"",""1"",""13940""
","
","","","917.6000000014901","","","21","10858","4176","a","elianto","#f73b6a7A","-1"," ","0","0","[1768.2999999988824]","1","2","","","10858","34","2","4","lose","no-go","1"
"pit-trial","154","1272025","0.0-39.0","battery-v0.2","","""event"",""trial"",""time""
""fullscreenenter"",""1"",""13940""
","
","
","""event"",""trial"",""time""
""fullscreenenter"",""1"",""13940""
","
","","","-1","","","21","10858","4176","g","elianto","#f73b6a7A"," ","-1","0","-10","[]","0","2","","","10858","35","3","3","lose","go","0"
"pit-trial","155","1276889","0.0-40.0","battery-v0.2","","""event"",""trial"",""time""
""fullscreenenter"",""1"",""13940""
","
","
","""event"",""trial"",""time""
""fullscreenenter"",""1"",""13940""
","
","","","-1","","","21","10858","4176","u","elianto","#f73b6a7A","-1","-1","1","-10","[3209.300000000745]","1","2","","","10858","36","0","4","lose","no-go","1"
"pit-trial","156","1280516","0.0-41.0","battery-v0.2","","""event"",""trial"",""time""
""fullscreenenter"",""1"",""13940""
","
","
","""event"",""trial"",""time""
""fullscreenenter"",""1"",""13940""
","
","","","757.8000000007451","","","21","10858","4176","u","elianto","#f73b6a7A","-1"," ","0","-10","[1611.7000000011176]","1","2","","","10858","37","0","4","lose","no-go","0"
"pit-trial","157","1284022","0.0-42.0","battery-v0.2","","""event"",""trial"",""time""
""fullscreenenter"",""1"",""13940""
","
","
","""event"",""trial"",""time""
""fullscreenenter"",""1"",""13940""
","
","","","648.5","","","21","10858","4176","l","elianto","#3366ff99"," "," ","1","+10","[1498.6000000014901]","1","2","","","10858","38","1","1","win","go","0"
"pit-trial","158","1287793","0.0-43.0","battery-v0.2","","""event"",""trial"",""time""
""fullscreenenter"",""1"",""13940""
","
","
","""event"",""trial"",""time""
""fullscreenenter"",""1"",""13940""
","
","","","904.0999999996275","","","21","10858","4176","a","elianto","#f73b6a7A","-1"," ","0","0","[1754.300000000745]","1","2","","","10858","39","2","4","lose","no-go","1"
"pit-trial","159","1292574","0.0-44.0","battery-v0.2","","""event"",""trial"",""time""
""fullscreenenter"",""1"",""13940""
","
","
","""event"",""trial"",""time""
""fullscreenenter"",""1"",""13940""
","
","","","1906.800000000745","","","21","10858","4176","g","elianto","#f73b6a7A"," "," ","1","0","[2760.0999999996275]","1","2","","","10858","40","3","3","lose","go","0"
"pit-trial","160","1296559","0.0-45.0","battery-v0.2","","""event"",""trial"",""time""
""fullscreenenter"",""1"",""13940""
","
","
","""event"",""trial"",""time""
""fullscreenenter"",""1"",""13940""
","
","","","1118.800000000745","","","21","10858","4176","u","elianto","#f73b6a7A","-1"," ","0","-10","[1978.2000000011176]","1","2","","","10858","41","0","4","lose","no-go","0"
"pit-trial","161","1300104","0.0-46.0","battery-v0.2","","""event"",""trial"",""time""
""fullscreenenter"",""1"",""13940""
","
","
","""event"",""trial"",""time""
""fullscreenenter"",""1"",""13940""
","
","","","683.0999999996275","","","21","10858","4176","l","elianto","#3366ff99"," "," ","1","+10","[1538.800000000745]","1","2","","","10858","42","1","1","win","go","0"
"pit-trial","162","1304334","0.0-47.0","battery-v0.2","","""event"",""trial"",""time""
""fullscreenenter"",""1"",""13940""
","
","
","""event"",""trial"",""time""
""fullscreenenter"",""1"",""13940""
","
","","","1353.8999999985099","","","21","10858","4176","g","elianto","#f73b6a7A"," "," ","1","0","[2206.0999999996275]","1","2","","","10858","43","3","3","lose","go","0"
"pit-trial","163","1307850","0.0-48.0","battery-v0.2","","""event"",""trial"",""time""
""fullscreenenter"",""1"",""13940""
","
","
","""event"",""trial"",""time""
""fullscreenenter"",""1"",""13940""
","
","","","654.3000000007451","","","21","10858","4176","a","elianto","#f73b6a7A","-1"," ","0","-10","[1508.5]","1","2","","","10858","44","2","4","lose","no-go","0"
"pit-trial","164","1311416","0.0-49.0","battery-v0.2","","""event"",""trial"",""time""
""fullscreenenter"",""1"",""13940""
","
","
","""event"",""trial"",""time""
""fullscreenenter"",""1"",""13940""
","
","","","701.9000000003725","","","21","10858","4176","g","elianto","#f73b6a7A"," "," ","1","0","[1552.800000000745]","1","2","","","10858","45","3","3","lose","go","0"
"pit-trial","165","1316281","0.0-50.0","battery-v0.2","","""event"",""trial"",""time""
""fullscreenenter"",""1"",""13940""
","
","
","""event"",""trial"",""time""
""fullscreenenter"",""1"",""13940""
","
","","","-1","","","21","10858","4176","u","elianto","#f73b6a7A","-1","-1","1","0","[]","0","2","","","10858","46","0","4","lose","no-go","0"
"pit-trial","166","1319736","0.0-51.0","battery-v0.2","","""event"",""trial"",""time""
""fullscreenenter"",""1"",""13940""
","
","
","""event"",""trial"",""time""
""fullscreenenter"",""1"",""13940""
","
","","","594.0999999996275","","","21","10858","4176","a","elianto","#f73b6a7A","-1"," ","0","-10","[1444.7000000011176]","1","2","","","10858","47","2","4","lose","no-go","0"
"pit-trial","167","1323714","0.0-52.0","battery-v0.2","","""event"",""trial"",""time""
""fullscreenenter"",""1"",""13940""
","
","
","""event"",""trial"",""time""
""fullscreenenter"",""1"",""13940""
","
","","","1108.699999999255","","","21","10858","4176","p","elianto","#3366ff99","-1"," ","0","0","[1958.9000000003725]","1","2","","","10858","48","4","2","win","no-go","0"
"pit-trial","168","1328586","0.0-53.0","battery-v0.2","","""event"",""trial"",""time""
""fullscreenenter"",""1"",""13940""
","
","
","""event"",""trial"",""time""
""fullscreenenter"",""1"",""13940""
","
","","","-1","","","21","10858","4176","u","elianto","#f73b6a7A","-1","-1","1","0","[]","0","2","","","10858","49","0","4","lose","no-go","0"
"pit-trial","169","1332212","0.0-54.0","battery-v0.2","","""event"",""trial"",""time""
""fullscreenenter"",""1"",""13940""
","
","
","""event"",""trial"",""time""
""fullscreenenter"",""1"",""13940""
","
","","","761.7000000011176","","","21","10858","4176","g","elianto","#f73b6a7A"," "," ","1","0","[1619.5]","1","2","","","10858","50","3","3","lose","go","0"
"pit-trial","170","1336030","0.0-55.0","battery-v0.2","","""event"",""trial"",""time""
""fullscreenenter"",""1"",""13940""
","
","
","""event"",""trial"",""time""
""fullscreenenter"",""1"",""13940""
","
","","","955.5","","","21","10858","4176","l","elianto","#3366ff99"," "," ","1","+10","[1806.9000000003725]","1","2","","","10858","51","1","1","win","go","0"
"pit-trial","171","1340899","0.0-56.0","battery-v0.2","","""event"",""trial"",""time""
""fullscreenenter"",""1"",""13940""
","
","
","""event"",""trial"",""time""
""fullscreenenter"",""1"",""13940""
","
","","","-1","","","21","10858","4176","p","elianto","#3366ff99","-1","-1","1","+10","[]","0","2","","","10858","52","4","2","win","no-go","0"
"pit-trial","172","1345768","0.0-57.0","battery-v0.2","","""event"",""trial"",""time""
""fullscreenenter"",""1"",""13940""
","
","
","""event"",""trial"",""time""
""fullscreenenter"",""1"",""13940""
","
","","","-1","","","21","10858","4176","u","elianto","#f73b6a7A","-1","-1","1","-10","[]","0","2","","","10858","53","0","4","lose","no-go","1"
"pit-trial","173","1349828","0.0-58.0","battery-v0.2","","""event"",""trial"",""time""
""fullscreenenter"",""1"",""13940""
","
","
","""event"",""trial"",""time""
""fullscreenenter"",""1"",""13940""
","
","","","1189.5999999996275","","","21","10858","4176","p","elianto","#3366ff99","-1"," ","0","0","[2043.9000000003725]","1","2","","","10858","54","4","2","win","no-go","0"
"pit-trial","174","1353718","0.0-59.0","battery-v0.2","","""event"",""trial"",""time""
""fullscreenenter"",""1"",""13940""
","
","
","""event"",""trial"",""time""
""fullscreenenter"",""1"",""13940""
","
","","","1026","","","21","10858","4176","a","elianto","#f73b6a7A","-1"," ","0","-10","[1880.699999999255]","1","2","","","10858","55","2","4","lose","no-go","0"
"pit-trial","175","1358588","0.0-60.0","battery-v0.2","","""event"",""trial"",""time""
""fullscreenenter"",""1"",""13940""
","
","
","""event"",""trial"",""time""
""fullscreenenter"",""1"",""13940""
","
","","","-1","","","21","10858","4176","l","elianto","#3366ff99"," ","-1","0","0","[]","0","2","","","10858","56","1","1","win","go","0"
"pit-trial","176","1363456","0.0-61.0","battery-v0.2","","""event"",""trial"",""time""
""fullscreenenter"",""1"",""13940""
","
","
","""event"",""trial"",""time""
""fullscreenenter"",""1"",""13940""
","
","","","-1","","","21","10858","4176","u","elianto","#f73b6a7A","-1","-1","1","-10","[]","0","2","","","10858","57","0","4","lose","no-go","1"
"pit-trial","177","1367186","0.0-62.0","battery-v0.2","","""event"",""trial"",""time""
""fullscreenenter"",""1"",""13940""
","
","
","""event"",""trial"",""time""
""fullscreenenter"",""1"",""13940""
","
","","","856.5","","","21","10858","4176","l","elianto","#3366ff99"," "," ","1","+10","[1715.4000000003725]","1","2","","","10858","58","1","1","win","go","0"
"pit-trial","178","1370913","0.0-63.0","battery-v0.2","","""event"",""trial"",""time""
""fullscreenenter"",""1"",""13940""
","
","
","""event"",""trial"",""time""
""fullscreenenter"",""1"",""13940""
","
","","","858.4000000003725","","","21","10858","4176","g","elianto","#f73b6a7A"," "," ","1","0","[1710.4000000003725]","1","2","","","10858","59","3","3","lose","go","0"
"pit-trial","179","1375796","0.0-64.0","battery-v0.2","","""event"",""trial"",""time""
""fullscreenenter"",""1"",""13940""
","
","
","""event"",""trial"",""time""
""fullscreenenter"",""1"",""13940""
","
","","","-1","","","21","10858","4176","p","elianto","#3366ff99","-1","-1","1","+10","[]","0","2","","","10858","60","4","2","win","no-go","0"
"pit-trial","180","1380659","0.0-65.0","battery-v0.2","","""event"",""trial"",""time""
""fullscreenenter"",""1"",""13940""
","
","
","""event"",""trial"",""time""
""fullscreenenter"",""1"",""13940""
","
","","","-1","","","21","10858","4176","p","elianto","#3366ff99","-1","-1","1","0","[]","0","2","","","10858","61","4","2","win","no-go","1"
"pit-trial","181","1384653","0.0-66.0","battery-v0.2","","""event"",""trial"",""time""
""fullscreenenter"",""1"",""13940""
","
","
","""event"",""trial"",""time""
""fullscreenenter"",""1"",""13940""
","
","","","1118.5999999996275","","","21","10858","4176","l","elianto","#3366ff99"," "," ","1","+10","[1972.2000000011176]","1","2","","","10858","62","1","1","win","go","0"
"pit-trial","182","1388416","0.0-67.0","battery-v0.2","","""event"",""trial"",""time""
""fullscreenenter"",""1"",""13940""
","
","
","""event"",""trial"",""time""
""fullscreenenter"",""1"",""13940""
","
","","","905.1000000014901","","","21","10858","4176","g","elianto","#f73b6a7A"," "," ","1","0","[1756.2999999988824]","1","2","","","10858","63","3","3","lose","go","0"
"pit-trial","183","1392184","0.0-68.0","battery-v0.2","","""event"",""trial"",""time""
""fullscreenenter"",""1"",""13940""
","
","
","""event"",""trial"",""time""
""fullscreenenter"",""1"",""13940""
","
","","","898.7999999988824","","","21","10858","4176","a","elianto","#f73b6a7A","-1"," ","0","-10","[1752.5]","1","2","","","10858","64","2","4","lose","no-go","0"
"pit-trial","184","1397061","0.0-69.0","battery-v0.2","","""event"",""trial"",""time""
""fullscreenenter"",""1"",""13940""
","
","
","""event"",""trial"",""time""
""fullscreenenter"",""1"",""13940""
","
","","","-1","","","21","10858","4176","p","elianto","#3366ff99","-1","-1","1","+10","[]","0","2","","","10858","65","4","2","win","no-go","0"
"pit-trial","185","1401921","0.0-70.0","battery-v0.2","","""event"",""trial"",""time""
""fullscreenenter"",""1"",""13940""
","
","
","""event"",""trial"",""time""
""fullscreenenter"",""1"",""13940""
","
","","","-1","","","21","10858","4176","l","elianto","#3366ff99"," ","-1","0","0","[]","0","2","","","10858","66","1","1","win","go","0"
"pit-trial","186","1406101","0.0-71.0","battery-v0.2","","""event"",""trial"",""time""
""fullscreenenter"",""1"",""13940""
","
","
","""event"",""trial"",""time""
""fullscreenenter"",""1"",""13940""
","
","","","1314","","","21","10858","4176","a","elianto","#f73b6a7A","-1"," ","0","-10","[2169.2000000011176]","1","2","","","10858","67","2","4","lose","no-go","0"
"pit-trial","187","1410125","0.0-72.0","battery-v0.2","","""event"",""trial"",""time""
""fullscreenenter"",""1"",""13940""
","
","
","""event"",""trial"",""time""
""fullscreenenter"",""1"",""13940""
","
","","","1158","","","21","10858","4176","g","elianto","#f73b6a7A"," "," ","1","-10","[2009.699999999255]","1","2","","","10858","68","3","3","lose","go","1"
"pit-trial","188","1415004","0.0-73.0","battery-v0.2","","""event"",""trial"",""time""
""fullscreenenter"",""1"",""13940""
","
","
","""event"",""trial"",""time""
""fullscreenenter"",""1"",""13940""
","
","","","-1","","","21","10858","4176","g","elianto","#f73b6a7A"," ","-1","0","-10","[]","0","2","","","10858","69","3","3","lose","go","0"
"pit-trial","189","1419874","0.0-74.0","battery-v0.2","","""event"",""trial"",""time""
""fullscreenenter"",""1"",""13940""
","
","
","""event"",""trial"",""time""
""fullscreenenter"",""1"",""13940""
","
","","","-1","","","21","10858","4176","p","elianto","#3366ff99","-1","-1","1","+10","[]","0","2","","","10858","70","4","2","win","no-go","0"
"pit-trial","190","1423703","0.0-75.0","battery-v0.2","","""event"",""trial"",""time""
""fullscreenenter"",""1"",""13940""
","
","
","""event"",""trial"",""time""
""fullscreenenter"",""1"",""13940""
","
","","","967.3000000007451","","","21","10858","4176","l","elianto","#3366ff99"," "," ","1","+10","[1823.7999999988824]","1","2","","","10858","71","1","1","win","go","0"
"pit-trial","191","1428070","0.0-76.0","battery-v0.2","","""event"",""trial"",""time""
""fullscreenenter"",""1"",""13940""
","
","
","""event"",""trial"",""time""
""fullscreenenter"",""1"",""13940""
","
","","","1500.5999999996275","","","21","10858","4176","s","elianto","#3366ff99"," "," ","1","+10","[2353.5]","1","2","","","10858","72","5","1","win","go","0"
"pit-trial","192","1431982","0.0-77.0","battery-v0.2","","""event"",""trial"",""time""
""fullscreenenter"",""1"",""13940""
","
","
","""event"",""trial"",""time""
""fullscreenenter"",""1"",""13940""
","
","","","1050.199999999255","","","21","10858","4176","s","elianto","#3366ff99"," "," ","1","0","[1903.2999999988824]","1","2","","","10858","73","5","1","win","go","1"
"pit-trial","193","1435505","0.0-78.0","battery-v0.2","","""event"",""trial"",""time""
""fullscreenenter"",""1"",""13940""
","
","
","""event"",""trial"",""time""
""fullscreenenter"",""1"",""13940""
","
","","","656.0999999996275","","","21","10858","4176","l","elianto","#3366ff99"," "," ","1","0","[1512.5999999996275]","1","2","","","10858","74","1","1","win","go","1"
"pit-trial","194","1439213","0.0-79.0","battery-v0.2","","""event"",""trial"",""time""
""fullscreenenter"",""1"",""13940""
","
","
","""event"",""trial"",""time""
""fullscreenenter"",""1"",""13940""
","
","","","842.5","","","21","10858","4176","g","elianto","#f73b6a7A"," "," ","1","0","[1700]","1","2","","","10858","75","3","3","lose","go","0"
"pit-trial","195","1444088","0.0-80.0","battery-v0.2","","""event"",""trial"",""time""
""fullscreenenter"",""1"",""13940""
","
","
","""event"",""trial"",""time""
""fullscreenenter"",""1"",""13940""
","
","","","-1","","","21","10858","4176","p","elianto","#3366ff99","-1","-1","1","+10","[]","0","2","","","10858","76","4","2","win","no-go","0"
"pit-trial","196","1447883","0.0-81.0","battery-v0.2","","""event"",""trial"",""time""
""fullscreenenter"",""1"",""13940""
","
","
","""event"",""trial"",""time""
""fullscreenenter"",""1"",""13940""
","
","","","925.4000000003725","","","21","10858","4176","g","elianto","#f73b6a7A"," "," ","1","0","[1780.0999999996275]","1","2","","","10858","77","3","3","lose","go","0"
"pit-trial","197","1451968","0.0-82.0","battery-v0.2","","""event"",""trial"",""time""
""fullscreenenter"",""1"",""13940""
","
","
","""event"",""trial"",""time""
""fullscreenenter"",""1"",""13940""
","
","","","1216.9000000003725","","","21","10858","4176","w","elianto","#f73b6a7A","-1"," ","0","0","[2069.89999999851]","1","2","","","10858","78","6","4","lose","no-go","1"
"pit-trial","198","1456135","0.0-83.0","battery-v0.2","","""event"",""trial"",""time""
""fullscreenenter"",""1"",""13940""
","
","
","""event"",""trial"",""time""
""fullscreenenter"",""1"",""13940""
","
","","","1300.5","","","21","10858","4176","s","elianto","#3366ff99"," "," ","1","+10","[2151.5]","1","2","","","10858","79","5","1","win","go","0"
"pit-trial","199","1461011","0.0-84.0","battery-v0.2","","""event"",""trial"",""time""
""fullscreenenter"",""1"",""13940""
","
","
","""event"",""trial"",""time""
""fullscreenenter"",""1"",""13940""
","
","","","-1","","","21","10858","4176","p","elianto","#3366ff99","-1","-1","1","+10","[]","0","2","","","10858","80","4","2","win","no-go","0"
"pit-trial","200","1464810","0.0-85.0","battery-v0.2","","""event"",""trial"",""time""
""fullscreenenter"",""1"",""13940""
","
","
","""event"",""trial"",""time""
""fullscreenenter"",""1"",""13940""
","
","","","930.8000000007451","","","21","10858","4176","w","elianto","#f73b6a7A","-1"," ","0","-10","[1783.7000000011176]","1","2","","","10858","81","6","4","lose","no-go","0"
"pit-trial","201","1469679","0.0-86.0","battery-v0.2","","""event"",""trial"",""time""
""fullscreenenter"",""1"",""13940""
","
","
","""event"",""trial"",""time""
""fullscreenenter"",""1"",""13940""
","
","","","-1","","","21","10858","4176","p","elianto","#3366ff99","-1","-1","1","+10","[]","0","2","","","10858","82","4","2","win","no-go","0"
"pit-trial","202","1473399","0.0-87.0","battery-v0.2","","""event"",""trial"",""time""
""fullscreenenter"",""1"",""13940""
","
","
","""event"",""trial"",""time""
""fullscreenenter"",""1"",""13940""
","
","","","851.1999999992549","","","21","10858","4176","s","elianto","#3366ff99"," "," ","1","0","[1706.5999999996275]","1","2","","","10858","83","5","1","win","go","1"
"pit-trial","203","1477484","0.0-88.0","battery-v0.2","","""event"",""trial"",""time""
""fullscreenenter"",""1"",""13940""
","
","
","""event"",""trial"",""time""
""fullscreenenter"",""1"",""13940""
","
","","","1227.5999999996275","","","21","10858","4176","e","elianto","#f73b6a7A"," "," ","1","0","[2078.5]","1","2","","","10858","84","7","3","lose","go","0"
"pit-trial","204","1482348","0.0-89.0","battery-v0.2","","""event"",""trial"",""time""
""fullscreenenter"",""1"",""13940""
","
","
","""event"",""trial"",""time""
""fullscreenenter"",""1"",""13940""
","
","","","-1","","","21","10858","4176","p","elianto","#3366ff99","-1","-1","1","+10","[]","0","2","","","10858","85","4","2","win","no-go","0"
"pit-trial","205","1486561","0.0-90.0","battery-v0.2","","""event"",""trial"",""time""
""fullscreenenter"",""1"",""13940""
","
","
","""event"",""trial"",""time""
""fullscreenenter"",""1"",""13940""
","
","","","1352.5","","","21","10858","4176","w","elianto","#f73b6a7A","-1"," ","0","-10","[2203.2000000011176]","1","2","","","10858","86","6","4","lose","no-go","0"
"pit-trial","206","1490398","0.0-91.0","battery-v0.2","","""event"",""trial"",""time""
""fullscreenenter"",""1"",""13940""
","
","
","""event"",""trial"",""time""
""fullscreenenter"",""1"",""13940""
","
","","","970.7000000011176","","","21","10858","4176","s","elianto","#3366ff99"," "," ","1","+10","[1824.4000000003725]","1","2","","","10858","87","5","1","win","go","0"
"pit-trial","207","1494597","0.0-92.0","battery-v0.2","","""event"",""trial"",""time""
""fullscreenenter"",""1"",""13940""
","
","
","""event"",""trial"",""time""
""fullscreenenter"",""1"",""13940""
","
","","","1321.6000000014901","","","21","10858","4176","e","elianto","#f73b6a7A"," "," ","1","0","[2181]","1","2","","","10858","88","7","3","lose","go","0"
"pit-trial","208","1498234","0.0-93.0","battery-v0.2","","""event"",""trial"",""time""
""fullscreenenter"",""1"",""13940""
","
","
","""event"",""trial"",""time""
""fullscreenenter"",""1"",""13940""
","
","","","779.8000000007451","","","21","10858","4176","s","elianto","#3366ff99"," "," ","1","+10","[1630.699999999255]","1","2","","","10858","89","5","1","win","go","0"
"pit-trial","209","1502354","0.0-94.0","battery-v0.2","","""event"",""trial"",""time""
""fullscreenenter"",""1"",""13940""
","
","
","""event"",""trial"",""time""
""fullscreenenter"",""1"",""13940""
","
","","","1260.2000000011176","","","21","10858","4176","e","elianto","#f73b6a7A"," "," ","1","0","[2114]","1","2","","","10858","90","7","3","lose","go","0"
"pit-trial","210","1507223","0.0-95.0","battery-v0.2","","""event"",""trial"",""time""
""fullscreenenter"",""1"",""13940""
","
","
","""event"",""trial"",""time""
""fullscreenenter"",""1"",""13940""
","
","","","-1","","","21","10858","4176","p","elianto","#3366ff99","-1","-1","1","+10","[]","0","2","","","10858","91","4","2","win","no-go","0"
"pit-trial","211","1512087","0.0-96.0","battery-v0.2","","""event"",""trial"",""time""
""fullscreenenter"",""1"",""13940""
","
","
","""event"",""trial"",""time""
""fullscreenenter"",""1"",""13940""
","
","","","-1","","","21","10858","4176","w","elianto","#f73b6a7A","-1","-1","1","-10","[]","0","2","","","10858","92","6","4","lose","no-go","1"
"pit-trial","212","1515933","0.0-97.0","battery-v0.2","","""event"",""trial"",""time""
""fullscreenenter"",""1"",""13940""
","
","
","""event"",""trial"",""time""
""fullscreenenter"",""1"",""13940""
","
","","","981.9000000003725","","","21","10858","4176","s","elianto","#3366ff99"," "," ","1","0","[1832.800000000745]","1","2","","","10858","93","5","1","win","go","1"
"pit-trial","213","1520791","0.0-98.0","battery-v0.2","","""event"",""trial"",""time""
""fullscreenenter"",""1"",""13940""
","
","
","""event"",""trial"",""time""
""fullscreenenter"",""1"",""13940""
","
","","","-1","","","21","10858","4176","w","elianto","#f73b6a7A","-1","-1","1","0","[]","0","2","","","10858","94","6","4","lose","no-go","0"
"pit-trial","214","1524788","0.0-99.0","battery-v0.2","","""event"",""trial"",""time""
""fullscreenenter"",""1"",""13940""
","
","
","""event"",""trial"",""time""
""fullscreenenter"",""1"",""13940""
","
","","","1122.199999999255","","","21","10858","4176","d","elianto","#3366ff99","-1"," ","0","+10","[1974.5999999996275]","1","2","","","10858","95","8","2","win","no-go","1"
"pit-trial","215","1529098","0.0-100.0","battery-v0.2","","""event"",""trial"",""time""
""fullscreenenter"",""1"",""13940""
","
","
","""event"",""trial"",""time""
""fullscreenenter"",""1"",""13940""
","
","","","1444.800000000745","","","21","10858","4176","e","elianto","#f73b6a7A"," "," ","1","0","[2299.5999999996275]","1","2","","","10858","96","7","3","lose","go","0"
"pit-trial","216","1532724","0.0-101.0","battery-v0.2","","""event"",""trial"",""time""
""fullscreenenter"",""1"",""13940""
","
","
","""event"",""trial"",""time""
""fullscreenenter"",""1"",""13940""
","
","","","759.8000000007451","","","21","10858","4176","s","elianto","#3366ff99"," "," ","1","0","[1610.9000000003725]","1","2","","","10858","97","5","1","win","go","1"
"pit-trial","217","1536416","0.0-102.0","battery-v0.2","","""event"",""trial"",""time""
""fullscreenenter"",""1"",""13940""
","
","
","""event"",""trial"",""time""
""fullscreenenter"",""1"",""13940""
","
","","","831.8000000007451","","","21","10858","4176","e","elianto","#f73b6a7A"," "," ","1","0","[1682.1000000014901]","1","2","","","10858","98","7","3","lose","go","0"
"pit-trial","218","1541281","0.0-103.0","battery-v0.2","","""event"",""trial"",""time""
""fullscreenenter"",""1"",""13940""
","
","
","""event"",""trial"",""time""
""fullscreenenter"",""1"",""13940""
","
","","","-1","","","21","10858","4176","w","elianto","#f73b6a7A","-1","-1","1","0","[]","0","2","","","10858","99","6","4","lose","no-go","0"
"pit-trial","219","1545129","0.0-104.0","battery-v0.2","","""event"",""trial"",""time""
""fullscreenenter"",""1"",""13940""
","
","
","""event"",""trial"",""time""
""fullscreenenter"",""1"",""13940""
","
","","","983.6999999992549","","","21","10858","4176","d","elianto","#3366ff99","-1"," ","0","0","[1835]","1","2","","","10858","100","8","2","win","no-go","0"
"pit-trial","220","1549987","0.0-105.0","battery-v0.2","","""event"",""trial"",""time""
""fullscreenenter"",""1"",""13940""
","
","
","""event"",""trial"",""time""
""fullscreenenter"",""1"",""13940""
","
","","","-1","","","21","10858","4176","w","elianto","#f73b6a7A","-1","-1","1","0","[]","0","2","","","10858","101","6","4","lose","no-go","0"
"pit-trial","221","1553878","0.0-106.0","battery-v0.2","","""event"",""trial"",""time""
""fullscreenenter"",""1"",""13940""
","
","
","""event"",""trial"",""time""
""fullscreenenter"",""1"",""13940""
","
","","","1019.9000000003725","","","21","10858","4176","d","elianto","#3366ff99","-1"," ","0","0","[1872.199999999255]","1","2","","","10858","102","8","2","win","no-go","0"
"pit-trial","222","1557445","0.0-107.0","battery-v0.2","","""event"",""trial"",""time""
""fullscreenenter"",""1"",""13940""
","
","
","""event"",""trial"",""time""
""fullscreenenter"",""1"",""13940""
","
","","","703.2000000011176","","","21","10858","4176","s","elianto","#3366ff99"," "," ","1","+10","[1554.7000000011176]","1","2","","","10858","103","5","1","win","go","0"
"pit-trial","223","1561389","0.0-108.0","battery-v0.2","","""event"",""trial"",""time""
""fullscreenenter"",""1"",""13940""
","
","
","""event"",""trial"",""time""
""fullscreenenter"",""1"",""13940""
","
","","","1079.5999999996275","","","21","10858","4176","j","elianto","#3366ff99","-1"," ","0","0","[1936.5999999996275]","1","2","","","10858","104","9","2","win","no-go","0"
"pit-trial","224","1565416","0.0-109.0","battery-v0.2","","""event"",""trial"",""time""
""fullscreenenter"",""1"",""13940""
","
","
","""event"",""trial"",""time""
""fullscreenenter"",""1"",""13940""
","
","","","1155.300000000745","","","21","10858","4176","j","elianto","#3366ff99","-1"," ","0","0","[2010.6000000014901]","1","2","","","10858","105","9","2","win","no-go","0"
"pit-trial","225","1570286","0.0-110.0","battery-v0.2","","""event"",""trial"",""time""
""fullscreenenter"",""1"",""13940""
","
","
","""event"",""trial"",""time""
""fullscreenenter"",""1"",""13940""
","
","","","-1","","","21","10858","4176","d","elianto","#3366ff99","-1","-1","1","+10","[]","0","2","","","10858","106","8","2","win","no-go","0"
"pit-trial","226","1574415","0.0-111.0","battery-v0.2","","""event"",""trial"",""time""
""fullscreenenter"",""1"",""13940""
","
","
","""event"",""trial"",""time""
""fullscreenenter"",""1"",""13940""
","
","","","1266.800000000745","","","21","10858","4176","s","elianto","#3366ff99"," "," ","1","+10","[2117.9000000003725]","1","2","","","10858","107","5","1","win","go","0"
"pit-trial","227","1579295","0.0-112.0","battery-v0.2","","""event"",""trial"",""time""
""fullscreenenter"",""1"",""13940""
","
","
","""event"",""trial"",""time""
""fullscreenenter"",""1"",""13940""
","
","","","-1","","","21","10858","4176","w","elianto","#f73b6a7A","-1","-1","1","0","[]","0","2","","","10858","108","6","4","lose","no-go","0"
"pit-trial","228","1584156","0.0-113.0","battery-v0.2","","""event"",""trial"",""time""
""fullscreenenter"",""1"",""13940""
","
","
","""event"",""trial"",""time""
""fullscreenenter"",""1"",""13940""
","
","","","-1","","","21","10858","4176","w","elianto","#f73b6a7A","-1","-1","1","0","[]","0","2","","","10858","109","6","4","lose","no-go","0"
"pit-trial","229","1588041","0.0-114.0","battery-v0.2","","""event"",""trial"",""time""
""fullscreenenter"",""1"",""13940""
","
","
","""event"",""trial"",""time""
""fullscreenenter"",""1"",""13940""
","
","","","1019","","","21","10858","4176","s","elianto","#3366ff99"," "," ","1","+10","[1872.7000000011176]","1","2","","","10858","110","5","1","win","go","0"
"pit-trial","230","1592922","0.0-115.0","battery-v0.2","","""event"",""trial"",""time""
""fullscreenenter"",""1"",""13940""
","
","
","""event"",""trial"",""time""
""fullscreenenter"",""1"",""13940""
","
","","","-1","","","21","10858","4176","d","elianto","#3366ff99","-1","-1","1","+10","[]","0","2","","","10858","111","8","2","win","no-go","0"
"pit-trial","231","1597795","0.0-116.0","battery-v0.2","","""event"",""trial"",""time""
""fullscreenenter"",""1"",""13940""
","
","
","""event"",""trial"",""time""
""fullscreenenter"",""1"",""13940""
","
","","","-1","","","21","10858","4176","j","elianto","#3366ff99","-1","-1","1","+10","[]","0","2","","","10858","112","9","2","win","no-go","0"
"pit-trial","232","1601453","0.0-117.0","battery-v0.2","","""event"",""trial"",""time""
""fullscreenenter"",""1"",""13940""
","
","
","""event"",""trial"",""time""
""fullscreenenter"",""1"",""13940""
","
","","","783.2999999988824","","","21","10858","4176","s","elianto","#3366ff99"," "," ","1","+10","[1639.4000000003725]","1","2","","","10858","113","5","1","win","go","0"
"pit-trial","233","1606319","0.0-118.0","battery-v0.2","","""event"",""trial"",""time""
""fullscreenenter"",""1"",""13940""
","
","
","""event"",""trial"",""time""
""fullscreenenter"",""1"",""13940""
","
","","","-1","","","21","10858","4176","d","elianto","#3366ff99","-1","-1","1","0","[]","0","2","","","10858","114","8","2","win","no-go","1"
"pit-trial","234","1611074","0.0-119.0","battery-v0.2","","""event"",""trial"",""time""
""fullscreenenter"",""1"",""13940""
","
","
","""event"",""trial"",""time""
""fullscreenenter"",""1"",""13940""
","
","","","1885.2000000011176","","","21","10858","4176","e","elianto","#f73b6a7A"," "," ","1","-10","[2738.2000000011176]","1","2","","","10858","115","7","3","lose","go","1"
"pit-trial","235","1615955","0.0-120.0","battery-v0.2","","""event"",""trial"",""time""
""fullscreenenter"",""1"",""13940""
","
","
","""event"",""trial"",""time""
""fullscreenenter"",""1"",""13940""
","
","","","-1","","","21","10858","4176","j","elianto","#3366ff99","-1","-1","1","+10","[]","0","2","","","10858","116","9","2","win","no-go","0"
"pit-trial","236","1619812","0.0-121.0","battery-v0.2","","""event"",""trial"",""time""
""fullscreenenter"",""1"",""13940""
","
","
","""event"",""trial"",""time""
""fullscreenenter"",""1"",""13940""
","
","","","996.5999999996275","","","21","10858","4176","s","elianto","#3366ff99"," "," ","1","+10","[1849.5999999996275]","1","2","","","10858","117","5","1","win","go","0"
"pit-trial","237","1624684","0.0-122.0","battery-v0.2","","""event"",""trial"",""time""
""fullscreenenter"",""1"",""13940""
","
","
","""event"",""trial"",""time""
""fullscreenenter"",""1"",""13940""
","
","","","-1","","","21","10858","4176","w","elianto","#f73b6a7A","-1","-1","1","0","[]","0","2","","","10858","118","6","4","lose","no-go","0"
"pit-trial","238","1629559","0.0-123.0","battery-v0.2","","""event"",""trial"",""time""
""fullscreenenter"",""1"",""13940""
","
","
","""event"",""trial"",""time""
""fullscreenenter"",""1"",""13940""
","
","","","-1","","","21","10858","4176","j","elianto","#3366ff99","-1","-1","1","0","[]","0","2","","","10858","119","9","2","win","no-go","1"
"pit-trial","239","1634426","0.0-124.0","battery-v0.2","","""event"",""trial"",""time""
""fullscreenenter"",""1"",""13940""
","
","
","""event"",""trial"",""time""
""fullscreenenter"",""1"",""13940""
","
","","","-1","","","21","10858","4176","d","elianto","#3366ff99","-1","-1","1","+10","[]","0","2","","","10858","120","8","2","win","no-go","0"
"pit-trial","240","1639290","0.0-125.0","battery-v0.2","","""event"",""trial"",""time""
""fullscreenenter"",""1"",""13940""
","
","
","""event"",""trial"",""time""
""fullscreenenter"",""1"",""13940""
","
","","","-1","","","21","10858","4176","j","elianto","#3366ff99","-1","-1","1","+10","[]","0","2","","","10858","121","9","2","win","no-go","0"
"pit-trial","241","1644165","0.0-126.0","battery-v0.2","","""event"",""trial"",""time""
""fullscreenenter"",""1"",""13940""
","
","
","""event"",""trial"",""time""
""fullscreenenter"",""1"",""13940""
","
","","","-1","","","21","10858","4176","e","elianto","#f73b6a7A"," ","-1","0","-10","[]","0","2","","","10858","122","7","3","lose","go","0"
"pit-trial","242","1647810","0.0-127.0","battery-v0.2","","""event"",""trial"",""time""
""fullscreenenter"",""1"",""13940""
","
","
","""event"",""trial"",""time""
""fullscreenenter"",""1"",""13940""
","
","","","783.6999999992549","","","21","10858","4176","s","elianto","#3366ff99"," "," ","1","+10","[1634.9000000003725]","1","2","","","10858","123","5","1","win","go","0"
"pit-trial","243","1652685","0.0-128.0","battery-v0.2","","""event"",""trial"",""time""
""fullscreenenter"",""1"",""13940""
","
","
","""event"",""trial"",""time""
""fullscreenenter"",""1"",""13940""
","
","","","-1","","","21","10858","4176","d","elianto","#3366ff99","-1","-1","1","+10","[]","0","2","","","10858","124","8","2","win","no-go","0"
"pit-trial","244","1657561","0.0-129.0","battery-v0.2","","""event"",""trial"",""time""
""fullscreenenter"",""1"",""13940""
","
","
","""event"",""trial"",""time""
""fullscreenenter"",""1"",""13940""
","
","","","-1","","","21","10858","4176","d","elianto","#3366ff99","-1","-1","1","0","[]","0","2","","","10858","125","8","2","win","no-go","1"
"pit-trial","245","1662421","0.0-130.0","battery-v0.2","","""event"",""trial"",""time""
""fullscreenenter"",""1"",""13940""
","
","
","""event"",""trial"",""time""
""fullscreenenter"",""1"",""13940""
","
","","","-1","","","21","10858","4176","j","elianto","#3366ff99","-1","-1","1","+10","[189.80000000074506]","1","2","","","10858","126","9","2","win","no-go","0"
"pit-trial","246","1666441","0.0-131.0","battery-v0.2","","""event"",""trial"",""time""
""fullscreenenter"",""1"",""13940""
","
","
","""event"",""trial"",""time""
""fullscreenenter"",""1"",""13940""
","
","","","1152.2000000011176","","","21","10858","4176","e","elianto","#f73b6a7A"," "," ","1","0","[2006.6000000014901]","1","2","","","10858","127","7","3","lose","go","0"
"pit-trial","247","1671306","0.0-132.0","battery-v0.2","","""event"",""trial"",""time""
""fullscreenenter"",""1"",""13940""
","
","
","""event"",""trial"",""time""
""fullscreenenter"",""1"",""13940""
","
","","","-1","","","21","10858","4176","w","elianto","#f73b6a7A","-1","-1","1","0","[]","0","2","","","10858","128","6","4","lose","no-go","0"
"pit-trial","248","1676176","0.0-133.0","battery-v0.2","","""event"",""trial"",""time""
""fullscreenenter"",""1"",""13940""
","
","
","""event"",""trial"",""time""
""fullscreenenter"",""1"",""13940""
","
","","","-1","","","21","10858","4176","j","elianto","#3366ff99","-1","-1","1","+10","[]","0","2","","","10858","129","9","2","win","no-go","0"
"pit-trial","249","1680194","0.0-134.0","battery-v0.2","","""event"",""trial"",""time""
""fullscreenenter"",""1"",""13940""
","
","
","""event"",""trial"",""time""
""fullscreenenter"",""1"",""13940""
","
","","","1149.8999999985099","","","21","10858","4176","e","elianto","#f73b6a7A"," "," ","1","0","[2003.699999999255]","1","2","","","10858","130","7","3","lose","go","0"
"pit-trial","250","1685065","0.0-135.0","battery-v0.2","","""event"",""trial"",""time""
""fullscreenenter"",""1"",""13940""
","
","
","""event"",""trial"",""time""
""fullscreenenter"",""1"",""13940""
","
","","","-1","","","21","10858","4176","w","elianto","#f73b6a7A","-1","-1","1","0","[]","0","2","","","10858","131","6","4","lose","no-go","0"
"pit-trial","251","1689936","0.0-136.0","battery-v0.2","","""event"",""trial"",""time""
""fullscreenenter"",""1"",""13940""
","
","
","""event"",""trial"",""time""
""fullscreenenter"",""1"",""13940""
","
","","","-1","","","21","10858","4176","d","elianto","#3366ff99","-1","-1","1","+10","[]","0","2","","","10858","132","8","2","win","no-go","0"
"pit-trial","252","1694809","0.0-137.0","battery-v0.2","","""event"",""trial"",""time""
""fullscreenenter"",""1"",""13940""
","
","
","""event"",""trial"",""time""
""fullscreenenter"",""1"",""13940""
","
","","","-1","","","21","10858","4176","d","elianto","#3366ff99","-1","-1","1","+10","[]","0","2","","","10858","133","8","2","win","no-go","0"
"pit-trial","253","1699678","0.0-138.0","battery-v0.2","","""event"",""trial"",""time""
""fullscreenenter"",""1"",""13940""
","
","
","""event"",""trial"",""time""
""fullscreenenter"",""1"",""13940""
","
","","","-1","","","21","10858","4176","w","elianto","#f73b6a7A","-1","-1","1","-10","[]","0","2","","","10858","134","6","4","lose","no-go","1"
"pit-trial","254","1704550","0.0-139.0","battery-v0.2","","""event"",""trial"",""time""
""fullscreenenter"",""1"",""13940""
","
","
","""event"",""trial"",""time""
""fullscreenenter"",""1"",""13940""
","
","","","-1","","","21","10858","4176","j","elianto","#3366ff99","-1","-1","1","+10","[]","0","2","","","10858","135","9","2","win","no-go","0"
"pit-trial","255","1708425","0.0-140.0","battery-v0.2","","""event"",""trial"",""time""
""fullscreenenter"",""1"",""13940""
","
","
","""event"",""trial"",""time""
""fullscreenenter"",""1"",""13940""
","
","","","1003.1999999992549","","","21","10858","4176","e","elianto","#f73b6a7A"," "," ","1","-10","[1856.5]","1","2","","","10858","136","7","3","lose","go","1"
"pit-trial","256","1713285","0.0-141.0","battery-v0.2","","""event"",""trial"",""time""
""fullscreenenter"",""1"",""13940""
","
","
","""event"",""trial"",""time""
""fullscreenenter"",""1"",""13940""
","
","","","-1","","","21","10858","4176","j","elianto","#3366ff99","-1","-1","1","+10","[]","0","2","","","10858","137","9","2","win","no-go","0"
"pit-trial","257","1718153","0.0-142.0","battery-v0.2","","""event"",""trial"",""time""
""fullscreenenter"",""1"",""13940""
","
","
","""event"",""trial"",""time""
""fullscreenenter"",""1"",""13940""
","
","","","-1","","","21","10858","4176","d","elianto","#3366ff99","-1","-1","1","+10","[]","0","2","","","10858","138","8","2","win","no-go","0"
"pit-trial","258","1722299","0.0-143.0","battery-v0.2","","""event"",""trial"",""time""
""fullscreenenter"",""1"",""13940""
","
","
","""event"",""trial"",""time""
""fullscreenenter"",""1"",""13940""
","
","","","1280.5","","","21","10858","4176","e","elianto","#f73b6a7A"," "," ","1","0","[2136.2000000011176]","1","2","","","10858","139","7","3","lose","go","0"
"pit-trial","259","1727169","0.0-144.0","battery-v0.2","","""event"",""trial"",""time""
""fullscreenenter"",""1"",""13940""
","
","
","""event"",""trial"",""time""
""fullscreenenter"",""1"",""13940""
","
","","","-1","","","21","10858","4176","w","elianto","#f73b6a7A","-1","-1","1","0","[]","0","2","","","10858","140","6","4","lose","no-go","0"
"pit-instructions","260","1941182","0.0-145.0","battery-v0.2","","""event"",""trial"",""time""
""fullscreenenter"",""1"",""13940""
","
","
","""event"",""trial"",""time""
""fullscreenenter"",""1"",""13940""
","
","","[{""page_index"":0,""viewing_time"":204935.30000000075},{""page_index"":1,""viewing_time"":9072.400000000373}]","214008.80000000075","","","","","","","","","","","","","","","","","","","","","","","",""
"pit-trial","261","1945772","0.0-146.0","battery-v0.2","","""event"",""trial"",""time""
""fullscreenenter"",""1"",""13940""
","
","
","""event"",""trial"",""time""
""fullscreenenter"",""1"",""13940""
","
","","","1701.5","","","21","10858","4176","m","elianto","#f73b6a7A"," "," ","1","-10","[2560.7000000011176]","1","3","","","10858","141","0","3","lose","go","1"
"pit-trial","262","1949632","0.0-147.0","battery-v0.2","","""event"",""trial"",""time""
""fullscreenenter"",""1"",""13940""
","
","
","""event"",""trial"",""time""
""fullscreenenter"",""1"",""13940""
","
","","","984.1000000014901","","","21","10858","4176","h","elianto","#f73b6a7A","-1"," ","0","-10","[1841]","1","3","","","10858","142","3","4","lose","no-go","0"
"pit-trial","263","1954062","0.0-148.0","battery-v0.2","","""event"",""trial"",""time""
""fullscreenenter"",""1"",""13940""
","
","
","""event"",""trial"",""time""
""fullscreenenter"",""1"",""13940""
","
","","","1553.4000000003725","","","21","10858","4176","r","elianto","#3366ff99","-1"," ","0","0","[2409.800000000745]","1","3","","","10858","143","1","2","win","no-go","0"
"pit-trial","264","1958932","0.0-149.0","battery-v0.2","","""event"",""trial"",""time""
""fullscreenenter"",""1"",""13940""
","
","
","""event"",""trial"",""time""
""fullscreenenter"",""1"",""13940""
","
