"trial_type","trial_index","time_elapsed","internal_node_id","task_version","subject_id","interactions","blur_events","focus_events","fullscreenenter_events","fullscreenexit_events","success","view_history","rt","responses","num_errors","age","subject","participantId","rune","rune_set","hex","correct","choice","accuracy","outcome","keys","total_keys","block","practice","value","sub","trial","stimulus","robot","valence","action","sham"
"pavlovia","0","15","0.0-0.0","battery-v0.2","","""event"",""trial"",""time""
""fullscreenenter"",""1"",""2617""
","
","
","""event"",""trial"",""time""
""fullscreenenter"",""1"",""2617""
","
","","","","","","","","","","","","","","","","","","","","","","","","","","",""
"fullscreen","1","3013","0.0-1.0","battery-v0.2","","""event"",""trial"",""time""
""fullscreenenter"",""1"",""2617""
","
","
","""event"",""trial"",""time""
""fullscreenenter"",""1"",""2617""
","
","true","","","","","","","","","","","","","","","","","","","","","","","","","",""
"pit-instructions","2","7331","0.0-2.0-0.0","battery-v0.2","","""event"",""trial"",""time""
""fullscreenenter"",""1"",""2617""
","
","
","""event"",""trial"",""time""
""fullscreenenter"",""1"",""2617""
","
","","[{""page_index"":0,""viewing_time"":4311.5}]","4311.79999999702","","","","","","","","","","","","","","","","","","","","","","","",""
"pit-comprehension","3","11844","0.0-2.0-1.0-0.0","battery-v0.2","","""event"",""trial"",""time""
""fullscreenenter"",""1"",""2617""
","
","
","""event"",""trial"",""time""
""fullscreenenter"",""1"",""2617""
","
","","","4510.20000000298","[""shark""]","0","11","21034","7070","","","","","","","","","","","","","","","","","","",""
"pit-instructions","4","17684","0.0-2.0-1.0-1.0","battery-v0.2","","""event"",""trial"",""time""
""fullscreenenter"",""1"",""2617""
","
","
","""event"",""trial"",""time""
""fullscreenenter"",""1"",""2617""
","
","","[{""page_index"":0,""viewing_time"":5829.699999988079}]","5829.899999991059","","","","","","","","","","","","","","","","","","","","","","","",""
"pit-comprehension","5","21075","0.0-2.0-2.0-0.0","battery-v0.2","","""event"",""trial"",""time""
""fullscreenenter"",""1"",""2617""
","
","
","""event"",""trial"",""time""
""fullscreenenter"",""1"",""2617""
","
","","","3389","[""tiger""]","0","11","21034","7070","","","","","","","","","","","","","","","","","","",""
"pit-instructions","6","21835","0.0-2.0-2.0-1.0","battery-v0.2","","""event"",""trial"",""time""
""fullscreenenter"",""1"",""2617""
","
","
","""event"",""trial"",""time""
""fullscreenenter"",""1"",""2617""
","
","","[{""page_index"":0,""viewing_time"":757}]","757.1999999880791","","","","","","","","","","","","","","","","","","","","","","","",""
"pit-instructions","7","128738","0.0-2.0-3.0","battery-v0.2","","""event"",""trial"",""time""
""fullscreenenter"",""1"",""2617""
","
","
","""event"",""trial"",""time""
""fullscreenenter"",""1"",""2617""
","
","","[{""page_index"":0,""viewing_time"":8206.09999999404},{""page_index"":1,""viewing_time"":5599.9000000059605},{""page_index"":2,""viewing_time"":6560.0999999940395},{""page_index"":3,""viewing_time"":6671.9000000059605},{""page_index"":4,""viewing_time"":7216.20000000298},{""page_index"":5,""viewing_time"":5479.79999999702},{""page_index"":6,""viewing_time"":11520.09999999404},{""page_index"":7,""viewing_time"":10303.79999999702},{""page_index"":8,""viewing_time"":7128.5},{""page_index"":9,""viewing_time"":11199.5},{""page_index"":10,""viewing_time"":7488.600000008941},{""page_index"":11,""viewing_time"":6375.0999999940395},{""page_index"":12,""viewing_time"":7184},{""page_index"":13,""viewing_time"":5967.79999999702}]","106901.70000000298","","","","","","","","","","","","","","","","","","","","","","","",""
"pit-trial","8","132353","0.0-2.0-4.0-0.0","battery-v0.2","","""event"",""trial"",""time""
""fullscreenenter"",""1"",""2617""
","
","
","""event"",""trial"",""time""
""fullscreenenter"",""1"",""2617""
","
","","","728.8999999910593","","","11","21034","7070","&#9784;","elianto","#FFFFF080"," "," ","1","&#10004","[1590.2999999970198]","1","0","0","","","","","","","",""
"pit-trial","9","136153","0.0-2.0-4.1-0.1","battery-v0.2","","""event"",""trial"",""time""
""fullscreenenter"",""1"",""2617""
","
","
","""event"",""trial"",""time""
""fullscreenenter"",""1"",""2617""
","
","","","939.2000000029802","","","11","21034","7070","&#9784;","elianto","#FFFFF080"," "," ","1","&#10004","[1789.7000000029802]","1","0","0","","","","","","","",""
"pit-trial","10","139829","0.0-2.0-4.2-0.2","battery-v0.2","","""event"",""trial"",""time""
""fullscreenenter"",""1"",""2617""
","
","
","""event"",""trial"",""time""
""fullscreenenter"",""1"",""2617""
","
","","","818.2999999970198","","","11","21034","7070","&#9784;","elianto","#FFFFF080"," "," ","1","&#10004","[1670.7999999970198]","1","0","0","","","","","","","",""
"pit-trial","11","143420","0.0-2.0-4.3-0.3","battery-v0.2","","""event"",""trial"",""time""
""fullscreenenter"",""1"",""2617""
","
","
","""event"",""trial"",""time""
""fullscreenenter"",""1"",""2617""
","
","","","707.5","","","11","21034","7070","&#9784;","elianto","#FFFFF080"," "," ","1","&#10004","[1570.9000000059605]","1","0","0","","","","","","","",""
"pit-trial","12","146963","0.0-2.0-4.4-0.4","battery-v0.2","","""event"",""trial"",""time""
""fullscreenenter"",""1"",""2617""
","
","
","""event"",""trial"",""time""
""fullscreenenter"",""1"",""2617""
","
","","","680","","","11","21034","7070","&#9784;","elianto","#FFFFF080"," "," ","1","&#10004","[1539.699999988079]","1","0","0","","","","","","","",""
"pit-instructions","13","168458","0.0-2.0-5.0","battery-v0.2","","""event"",""trial"",""time""
""fullscreenenter"",""1"",""2617""
","
","
","""event"",""trial"",""time""
""fullscreenenter"",""1"",""2617""
","
","","[{""page_index"":0,""viewing_time"":4556.5},{""page_index"":1,""viewing_time"":6064},{""page_index"":2,""viewing_time"":5807.79999999702},{""page_index"":3,""viewing_time"":5064.0999999940395}]","21492.59999999404","","","","","","","","","","","","","","","","","","","","","","","",""
"pit-trial","14","173331","0.0-2.0-6.0-0.0","battery-v0.2","","""event"",""trial"",""time""
""fullscreenenter"",""1"",""2617""
","
","
","""event"",""trial"",""time""
""fullscreenenter"",""1"",""2617""
","
","","","-1","","","11","21034","7070","&#9854;","elianto","#FFFFF080","-1","-1","1","&#10004","[]","0","0","1","","","","","","","",""
"pit-trial","15","178211","0.0-2.0-6.1-0.1","battery-v0.2","","""event"",""trial"",""time""
""fullscreenenter"",""1"",""2617""
","
","
","""event"",""trial"",""time""
""fullscreenenter"",""1"",""2617""
","
","","","-1","","","11","21034","7070","&#9854;","elianto","#FFFFF080","-1","-1","1","&#10004","[]","0","0","1","","","","","","","",""
"pit-trial","16","183102","0.0-2.0-6.2-0.2","battery-v0.2","","""event"",""trial"",""time""
""fullscreenenter"",""1"",""2617""
","
","
","""event"",""trial"",""time""
""fullscreenenter"",""1"",""2617""
","
","","","-1","","","11","21034","7070","&#9854;","elianto","#FFFFF080","-1","-1","1","&#10004","[]","0","0","1","","","","","","","",""
"pit-trial","17","187972","0.0-2.0-6.3-0.3","battery-v0.2","","""event"",""trial"",""time""
""fullscreenenter"",""1"",""2617""
","
","
","""event"",""trial"",""time""
""fullscreenenter"",""1"",""2617""
","
","","","-1","","","11","21034","7070","&#9854;","elianto","#FFFFF080","-1","-1","1","&#10004","[]","0","0","1","","","","","","","",""
"pit-trial","18","192852","0.0-2.0-6.4-0.4","battery-v0.2","","""event"",""trial"",""time""
""fullscreenenter"",""1"",""2617""
","
","
","""event"",""trial"",""time""
""fullscreenenter"",""1"",""2617""
","
","","","-1","","","11","21034","7070","&#9854;","elianto","#FFFFF080","-1","-1","1","&#10004","[]","0","0","1","","","","","","","",""
"pit-instructions","19","365875","0.0-2.0-7.0","battery-v0.2","","""event"",""trial"",""time""
""fullscreenenter"",""1"",""2617""
","
","
","""event"",""trial"",""time""
""fullscreenenter"",""1"",""2617""
","
","","[{""page_index"":0,""viewing_time"":8761.09999999404},{""page_index"":1,""viewing_time"":10199.79999999702},{""page_index"":2,""viewing_time"":10327.90000000596},{""page_index"":3,""viewing_time"":13824.29999999702},{""page_index"":4,""viewing_time"":11839.79999999702},{""page_index"":5,""viewing_time"":9503.70000000298},{""page_index"":6,""viewing_time"":7008.0999999940395},{""page_index"":7,""viewing_time"":12911.70000000298},{""page_index"":8,""viewing_time"":9408.10000000894},{""page_index"":9,""viewing_time"":9744.09999999404},{""page_index"":10,""viewing_time"":7256.4000000059605},{""page_index"":11,""viewing_time"":7591.5999999940395},{""page_index"":12,""viewing_time"":13016},{""page_index"":13,""viewing_time"":9319.70000000298},{""page_index"":14,""viewing_time"":11040},{""page_index"":15,""viewing_time"":6192},{""page_index"":16,""viewing_time"":6160.20000000298},{""page_index"":17,""viewing_time"":8912.699999988079}]","173017.89999999106","","","","","","","","","","","","","","","","","","","","","","","",""
"pit-trial","20","370098","0.0-2.0-8.0-0.0","battery-v0.2","","""event"",""trial"",""time""
""fullscreenenter"",""1"",""2617""
","
","
","""event"",""trial"",""time""
""fullscreenenter"",""1"",""2617""
","
","","","1354.7000000029802","","","11","21034","7070","&#9776;","elianto","#3366ff99"," "," ","1","+10","[2212.300000011921]","1","0","1","","","","","","","",""
"pit-trial","21","373622","0.0-2.0-8.0-1.0","battery-v0.2","","""event"",""trial"",""time""
""fullscreenenter"",""1"",""2617""
","
","
","""event"",""trial"",""time""
""fullscreenenter"",""1"",""2617""
","
","","","656.5999999940395","","","11","21034","7070","&#9776;","elianto","#3366ff99"," "," ","1","+10","[1508.7000000029802]","1","0","1","","","","","","","",""
"pit-trial","22","377176","0.0-2.0-8.0-2.0","battery-v0.2","","""event"",""trial"",""time""
""fullscreenenter"",""1"",""2617""
","
","
","""event"",""trial"",""time""
""fullscreenenter"",""1"",""2617""
","
","","","687.2999999970198","","","11","21034","7070","&#9776;","elianto","#3366ff99"," "," ","1","+10","[1537.7000000029802]","1","0","1","","","","","","","",""
"pit-trial","23","380604","0.0-2.0-8.0-3.0","battery-v0.2","","""event"",""trial"",""time""
""fullscreenenter"",""1"",""2617""
","
","
","""event"",""trial"",""time""
""fullscreenenter"",""1"",""2617""
","
","","","567.9000000059605","","","11","21034","7070","&#9776;","elianto","#3366ff99"," "," ","1","0","[1423.7999999970198]","1","0","1","","","","","","","",""
"pit-trial","24","384377","0.0-2.0-8.0-4.0","battery-v0.2","","""event"",""trial"",""time""
""fullscreenenter"",""1"",""2617""
","
","
","""event"",""trial"",""time""
""fullscreenenter"",""1"",""2617""
","
","","","917","","","11","21034","7070","&#9776;","elianto","#3366ff99"," "," ","1","+10","[1771.2999999970198]","1","0","1","","","","","","","",""
"pit-trial","25","388061","0.0-2.0-8.1-0.1","battery-v0.2","","""event"",""trial"",""time""
""fullscreenenter"",""1"",""2617""
","
","
","""event"",""trial"",""time""
""fullscreenenter"",""1"",""2617""
","
","","","815.4000000059605","","","11","21034","7070","&#9776;","elianto","#3366ff99"," "," ","1","+10","[1669.6000000089407]","1","0","1","","","","","","","",""
"pit-trial","26","391686","0.0-2.0-8.1-1.1","battery-v0.2","","""event"",""trial"",""time""
""fullscreenenter"",""1"",""2617""
","
","
","""event"",""trial"",""time""
""fullscreenenter"",""1"",""2617""
","
","","","758.5","","","11","21034","7070","&#9776;","elianto","#3366ff99"," "," ","1","+10","[1610.7000000029802]","1","0","1","","","","","","","",""
"pit-trial","27","395275","0.0-2.0-8.1-2.1","battery-v0.2","","""event"",""trial"",""time""
""fullscreenenter"",""1"",""2617""
","
","
","""event"",""trial"",""time""
""fullscreenenter"",""1"",""2617""
","
","","","732.8999999910593","","","11","21034","7070","&#9776;","elianto","#3366ff99"," "," ","1","+10","[1586.5999999940395]","1","0","1","","","","","","","",""
"pit-trial","28","399025","0.0-2.0-8.1-3.1","battery-v0.2","","""event"",""trial"",""time""
""fullscreenenter"",""1"",""2617""
","
","
","""event"",""trial"",""time""
""fullscreenenter"",""1"",""2617""
","
","","","897.7000000029802","","","11","21034","7070","&#9776;","elianto","#3366ff99"," "," ","1","0","[1747.9000000059605]","1","0","1","","","","","","","",""
"pit-trial","29","402259","0.0-2.0-8.1-4.1","battery-v0.2","","""event"",""trial"",""time""
""fullscreenenter"",""1"",""2617""
","
","
","""event"",""trial"",""time""
""fullscreenenter"",""1"",""2617""
","
","","","379.59999999403954","","","11","21034","7070","&#9776;","elianto","#3366ff99"," "," ","1","+10","[1229.7999999970198]","1","0","1","","","","","","","",""
"pit-trial","30","405635","0.0-2.0-8.2-0.2","battery-v0.2","","""event"",""trial"",""time""
""fullscreenenter"",""1"",""2617""
","
","
","""event"",""trial"",""time""
""fullscreenenter"",""1"",""2617""
","
","","","521.1000000089407","","","11","21034","7070","&#9776;","elianto","#3366ff99"," "," ","1","+10","[1372.2000000029802]","1","0","1","","","","","","","",""
"pit-trial","31","408994","0.0-2.0-8.2-1.2","battery-v0.2","","""event"",""trial"",""time""
""fullscreenenter"",""1"",""2617""
","
","
","""event"",""trial"",""time""
""fullscreenenter"",""1"",""2617""
","
","","","506.8999999910593","","","11","21034","7070","&#9776;","elianto","#3366ff99"," "," ","1","+10","[1356.8999999910593]","1","0","1","","","","","","","",""
"pit-trial","32","412369","0.0-2.0-8.2-2.2","battery-v0.2","","""event"",""trial"",""time""
""fullscreenenter"",""1"",""2617""
","
","
","""event"",""trial"",""time""
""fullscreenenter"",""1"",""2617""
","
","","","522.3999999910593","","","11","21034","7070","&#9776;","elianto","#3366ff99"," "," ","1","+10","[1373.199999988079]","1","0","1","","","","","","","",""
"pit-trial","33","416026","0.0-2.0-8.2-3.2","battery-v0.2","","""event"",""trial"",""time""
""fullscreenenter"",""1"",""2617""
","
","
","""event"",""trial"",""time""
""fullscreenenter"",""1"",""2617""
","
","","","804","","","11","21034","7070","&#9776;","elianto","#3366ff99"," "," ","1","0","[1655.2000000029802]","1","0","1","","","","","","","",""
"pit-trial","34","419169","0.0-2.0-8.2-4.2","battery-v0.2","","""event"",""trial"",""time""
""fullscreenenter"",""1"",""2617""
","
","
","""event"",""trial"",""time""
""fullscreenenter"",""1"",""2617""
","
","","","289.79999999701977","","","11","21034","7070","&#9776;","elianto","#3366ff99"," "," ","1","+10","[1140.2000000029802]","1","0","1","","","","","","","",""
"call-function","35","419171","0.0-2.0-9.0","battery-v0.2","","""event"",""trial"",""time""
""fullscreenenter"",""1"",""2617""
","
","
","""event"",""trial"",""time""
""fullscreenenter"",""1"",""2617""
","
","","","","","","","","","","","","","","","","","","","","","","","","","","",""
"pit-instructions","36","468224","0.0-2.0-10.0","battery-v0.2","","""event"",""trial"",""time""
""fullscreenenter"",""1"",""2617""
","
","
","""event"",""trial"",""time""
""fullscreenenter"",""1"",""2617""
","
","","[{""page_index"":0,""viewing_time"":8965},{""page_index"":1,""viewing_time"":7568.0999999940395},{""page_index"":2,""viewing_time"":9431.79999999702},{""page_index"":3,""viewing_time"":13016},{""page_index"":4,""viewing_time"":10071.79999999702}]","49052.89999999106","","","","","","","","","","","","","","","","","","","","","","","",""
"pit-trial","37","471815","0.0-2.0-11.0-0.0","battery-v0.2","","""event"",""trial"",""time""
""fullscreenenter"",""1"",""2617""
","
","
","""event"",""trial"",""time""
""fullscreenenter"",""1"",""2617""
","
","","","720.2000000029802","","","11","21034","7070","&#9761;","elianto","#3366ff99","-1"," ","0","0","[1582.6000000089407]","1","0","2","","","","","","","",""
"pit-trial","38","475110","0.0-2.0-11.0-1.0","battery-v0.2","","""event"",""trial"",""time""
""fullscreenenter"",""1"",""2617""
","
","
","""event"",""trial"",""time""
""fullscreenenter"",""1"",""2617""
","
","","","429.59999999403954","","","11","21034","7070","&#9761;","elianto","#3366ff99","-1"," ","0","0","[1280.5999999940395]","1","0","2","","","","","","","",""
"pit-trial","39","479983","0.0-2.0-11.0-2.0","battery-v0.2","","""event"",""trial"",""time""
""fullscreenenter"",""1"",""2617""
","
","
","""event"",""trial"",""time""
""fullscreenenter"",""1"",""2617""
","
","","","-1","","","11","21034","7070","&#9761;","elianto","#3366ff99","-1","-1","1","+10","[]","0","0","2","","","","","","","",""
"pit-trial","40","484850","0.0-2.0-11.0-3.0","battery-v0.2","","""event"",""trial"",""time""
""fullscreenenter"",""1"",""2617""
","
","
","""event"",""trial"",""time""
""fullscreenenter"",""1"",""2617""
","
","","","-1","","","11","21034","7070","&#9761;","elianto","#3366ff99","-1","-1","1","0","[]","0","0","2","","","","","","","",""
"pit-trial","41","489710","0.0-2.0-11.0-4.0","battery-v0.2","","""event"",""trial"",""time""
""fullscreenenter"",""1"",""2617""
","
","
","""event"",""trial"",""time""
""fullscreenenter"",""1"",""2617""
","
","","","-1","","","11","21034","7070","&#9761;","elianto","#3366ff99","-1","-1","1","+10","[]","0","0","2","","","","","","","",""
"pit-trial","42","494589","0.0-2.0-11.1-0.1","battery-v0.2","","""event"",""trial"",""time""
""fullscreenenter"",""1"",""2617""
","
","
","""event"",""trial"",""time""
""fullscreenenter"",""1"",""2617""
","
","","","-1","","","11","21034","7070","&#9761;","elianto","#3366ff99","-1","-1","1","+10","[]","0","0","2","","","","","","","",""
"pit-trial","43","499444","0.0-2.0-11.1-1.1","battery-v0.2","","""event"",""trial"",""time""
""fullscreenenter"",""1"",""2617""
","
","
","""event"",""trial"",""time""
""fullscreenenter"",""1"",""2617""
","
","","","-1","","","11","21034","7070","&#9761;","elianto","#3366ff99","-1","-1","1","+10","[]","0","0","2","","","","","","","",""
"pit-trial","44","504297","0.0-2.0-11.1-2.1","battery-v0.2","","""event"",""trial"",""time""
""fullscreenenter"",""1"",""2617""
","
","
","""event"",""trial"",""time""
""fullscreenenter"",""1"",""2617""
","
","","","-1","","","11","21034","7070","&#9761;","elianto","#3366ff99","-1","-1","1","+10","[]","0","0","2","","","","","","","",""
"pit-trial","45","509150","0.0-2.0-11.1-3.1","battery-v0.2","","""event"",""trial"",""time""
""fullscreenenter"",""1"",""2617""
","
","
","""event"",""trial"",""time""
""fullscreenenter"",""1"",""2617""
","
","","","-1","","","11","21034","7070","&#9761;","elianto","#3366ff99","-1","-1","1","0","[3751.3999999910593]","1","0","2","","","","","","","",""
"pit-trial","46","514005","0.0-2.0-11.1-4.1","battery-v0.2","","""event"",""trial"",""time""
""fullscreenenter"",""1"",""2617""
","
","
","""event"",""trial"",""time""
""fullscreenenter"",""1"",""2617""
","
","","","-1","","","11","21034","7070","&#9761;","elianto","#3366ff99","-1","-1","1","+10","[]","0","0","2","","","","","","","",""
"pit-trial","47","518871","0.0-2.0-11.2-0.2","battery-v0.2","","""event"",""trial"",""time""
""fullscreenenter"",""1"",""2617""
","
","
","""event"",""trial"",""time""
""fullscreenenter"",""1"",""2617""
","
","","","-1","","","11","21034","7070","&#9761;","elianto","#3366ff99","-1","-1","1","+10","[40.8999999910593,3209.699999988079]","2","0","2","","","","","","","",""
"pit-trial","48","523043","0.0-2.0-11.2-1.2","battery-v0.2","","""event"",""trial"",""time""
""fullscreenenter"",""1"",""2617""
","
","
","""event"",""trial"",""time""
""fullscreenenter"",""1"",""2617""
","
","","","1317.199999988079","","","11","21034","7070","&#9761;","elianto","#3366ff99","-1"," ","0","0","[2168.2000000029802]","1","0","2","","","","","","","",""
"pit-trial","49","527911","0.0-2.0-11.2-2.2","battery-v0.2","","""event"",""trial"",""time""
""fullscreenenter"",""1"",""2617""
","
","
","""event"",""trial"",""time""
""fullscreenenter"",""1"",""2617""
","
","","","-1","","","11","21034","7070","&#9761;","elianto","#3366ff99","-1","-1","1","+10","[]","0","0","2","","","","","","","",""
"pit-trial","50","531418","0.0-2.0-11.2-3.2","battery-v0.2","","""event"",""trial"",""time""
""fullscreenenter"",""1"",""2617""
","
","
","""event"",""trial"",""time""
""fullscreenenter"",""1"",""2617""
","
","","","653.0999999940395","","","11","21034","7070","&#9761;","elianto","#3366ff99","-1"," ","0","+10","[1503.7000000029802]","1","0","2","","","","","","","",""
"pit-trial","51","536271","0.0-2.0-11.2-4.2","battery-v0.2","","""event"",""trial"",""time""
""fullscreenenter"",""1"",""2617""
","
","
","""event"",""trial"",""time""
""fullscreenenter"",""1"",""2617""
","
","","","-1","","","11","21034","7070","&#9761;","elianto","#3366ff99","-1","-1","1","+10","[]","0","0","2","","","","","","","",""
"pit-trial","52","541125","0.0-2.0-11.3-0.3","battery-v0.2","","""event"",""trial"",""time""
""fullscreenenter"",""1"",""2617""
","
","
","""event"",""trial"",""time""
""fullscreenenter"",""1"",""2617""
","
","","","-1","","","11","21034","7070","&#9761;","elianto","#3366ff99","-1","-1","1","+10","[]","0","0","2","","","","","","","",""
"pit-trial","53","545981","0.0-2.0-11.3-1.3","battery-v0.2","","""event"",""trial"",""time""
""fullscreenenter"",""1"",""2617""
","
","
","""event"",""trial"",""time""
""fullscreenenter"",""1"",""2617""
","
","","","-1","","","11","21034","7070","&#9761;","elianto","#3366ff99","-1","-1","1","+10","[]","0","0","2","","","","","","","",""
"pit-trial","54","550834","0.0-2.0-11.3-2.3","battery-v0.2","","""event"",""trial"",""time""
""fullscreenenter"",""1"",""2617""
","
","
","""event"",""trial"",""time""
""fullscreenenter"",""1"",""2617""
","
","","","-1","","","11","21034","7070","&#9761;","elianto","#3366ff99","-1","-1","1","+10","[]","0","0","2","","","","","","","",""
"pit-trial","55","555688","0.0-2.0-11.3-3.3","battery-v0.2","","""event"",""trial"",""time""
""fullscreenenter"",""1"",""2617""
","
","
","""event"",""trial"",""time""
""fullscreenenter"",""1"",""2617""
","
","","","-1","","","11","21034","7070","&#9761;","elianto","#3366ff99","-1","-1","1","0","[4212.9000000059605]","1","0","2","","","","","","","",""
"pit-trial","56","559979","0.0-2.0-11.3-4.3","battery-v0.2","","""event"",""trial"",""time""
""fullscreenenter"",""1"",""2617""
","
","
","""event"",""trial"",""time""
""fullscreenenter"",""1"",""2617""
","
","","","1436.5","","","11","21034","7070","&#9761;","elianto","#3366ff99","-1"," ","0","0","[2286.9000000059605]","1","0","2","","","","","","","",""
"call-function","57","559981","0.0-2.0-12.0","battery-v0.2","","""event"",""trial"",""time""
""fullscreenenter"",""1"",""2617""
","
","
","""event"",""trial"",""time""
""fullscreenenter"",""1"",""2617""
","
","","","","","","","","","","","","","","","","","","","","","","","","","","",""
"pit-instructions","58","604744","0.0-2.0-13.0","battery-v0.2","","""event"",""trial"",""time""
""fullscreenenter"",""1"",""2617""
","
","
","""event"",""trial"",""time""
""fullscreenenter"",""1"",""2617""
","
","","[{""page_index"":0,""viewing_time"":9649.89999999106},{""page_index"":1,""viewing_time"":9048.10000000894},{""page_index"":2,""viewing_time"":4375.899999991059},{""page_index"":3,""viewing_time"":14831.90000000596},{""page_index"":4,""viewing_time"":6856.0999999940395}]","44762.09999999404","","","","","","","","","","","","","","","","","","","","","","","",""
"pit-trial","59","608515","0.0-2.0-14.0-0.0","battery-v0.2","","""event"",""trial"",""time""
""fullscreenenter"",""1"",""2617""
","
","
","""event"",""trial"",""time""
""fullscreenenter"",""1"",""2617""
","
","","","913.1000000089407","","","11","21034","7070","&#9826;","elianto","#f73b6a7A","-1"," ","0","-10","[1767.7999999970198]","1","0","3","","","","","","","",""
"pit-trial","60","611601","0.0-2.0-14.0-1.0","battery-v0.2","","""event"",""trial"",""time""
""fullscreenenter"",""1"",""2617""
","
","
","""event"",""trial"",""time""
""fullscreenenter"",""1"",""2617""
","
","","","223.5","","","11","21034","7070","&#9826;","elianto","#f73b6a7A","-1"," ","0","-10","[1075.2000000029802]","1","0","3","","","","","","","",""
"pit-trial","61","616462","0.0-2.0-14.0-2.0","battery-v0.2","","""event"",""trial"",""time""
""fullscreenenter"",""1"",""2617""
","
","
","""event"",""trial"",""time""
""fullscreenenter"",""1"",""2617""
","
","","","-1","","","11","21034","7070","&#9826;","elianto","#f73b6a7A","-1","-1","1","0","[]","0","0","3","","","","","","","",""
"pit-trial","62","621333","0.0-2.0-14.0-3.0","battery-v0.2","","""event"",""trial"",""time""
""fullscreenenter"",""1"",""2617""
","
","
","""event"",""trial"",""time""
""fullscreenenter"",""1"",""2617""
","
","","","-1","","","11","21034","7070","&#9826;","elianto","#f73b6a7A","-1","-1","1","-10","[]","0","0","3","","","","","","","",""
"pit-trial","63","626209","0.0-2.0-14.0-4.0","battery-v0.2","","""event"",""trial"",""time""
""fullscreenenter"",""1"",""2617""
","
","
","""event"",""trial"",""time""
""fullscreenenter"",""1"",""2617""
","
","","","-1","","","11","21034","7070","&#9826;","elianto","#f73b6a7A","-1","-1","1","0","[]","0","0","3","","","","","","","",""
"pit-trial","64","631078","0.0-2.0-14.1-0.1","battery-v0.2","","""event"",""trial"",""time""
""fullscreenenter"",""1"",""2617""
","
","
","""event"",""trial"",""time""
""fullscreenenter"",""1"",""2617""
","
","","","-1","","","11","21034","7070","&#9826;","elianto","#f73b6a7A","-1","-1","1","0","[]","0","0","3","","","","","","","",""
"pit-trial","65","635932","0.0-2.0-14.1-1.1","battery-v0.2","","""event"",""trial"",""time""
""fullscreenenter"",""1"",""2617""
","
","
","""event"",""trial"",""time""
""fullscreenenter"",""1"",""2617""
","
","","","-1","","","11","21034","7070","&#9826;","elianto","#f73b6a7A","-1","-1","1","0","[]","0","0","3","","","","","","","",""
"pit-trial","66","640786","0.0-2.0-14.1-2.1","battery-v0.2","","""event"",""trial"",""time""
""fullscreenenter"",""1"",""2617""
","
","
","""event"",""trial"",""time""
""fullscreenenter"",""1"",""2617""
","
","","","-1","","","11","21034","7070","&#9826;","elianto","#f73b6a7A","-1","-1","1","0","[]","0","0","3","","","","","","","",""
"pit-trial","67","645640","0.0-2.0-14.1-3.1","battery-v0.2","","""event"",""trial"",""time""
""fullscreenenter"",""1"",""2617""
","
","
","""event"",""trial"",""time""
""fullscreenenter"",""1"",""2617""
","
","","","-1","","","11","21034","7070","&#9826;","elianto","#f73b6a7A","-1","-1","1","-10","[]","0","0","3","","","","","","","",""
"pit-trial","68","650494","0.0-2.0-14.1-4.1","battery-v0.2","","""event"",""trial"",""time""
""fullscreenenter"",""1"",""2617""
","
","
","""event"",""trial"",""time""
""fullscreenenter"",""1"",""2617""
","
","","","-1","","","11","21034","7070","&#9826;","elianto","#f73b6a7A","-1","-1","1","0","[]","0","0","3","","","","","","","",""
"pit-trial","69","655349","0.0-2.0-14.2-0.2","battery-v0.2","","""event"",""trial"",""time""
""fullscreenenter"",""1"",""2617""
","
","
","""event"",""trial"",""time""
""fullscreenenter"",""1"",""2617""
","
","","","-1","","","11","21034","7070","&#9826;","elianto","#f73b6a7A","-1","-1","1","0","[]","0","0","3","","","","","","","",""
"pit-trial","70","660202","0.0-2.0-14.2-1.2","battery-v0.2","","""event"",""trial"",""time""
""fullscreenenter"",""1"",""2617""
","
","
","""event"",""trial"",""time""
""fullscreenenter"",""1"",""2617""
","
","","","-1","","","11","21034","7070","&#9826;","elianto","#f73b6a7A","-1","-1","1","0","[]","0","0","3","","","","","","","",""
"pit-trial","71","665056","0.0-2.0-14.2-2.2","battery-v0.2","","""event"",""trial"",""time""
""fullscreenenter"",""1"",""2617""
","
","
","""event"",""trial"",""time""
""fullscreenenter"",""1"",""2617""
","
","","","-1","","","11","21034","7070","&#9826;","elianto","#f73b6a7A","-1","-1","1","0","[]","0","0","3","","","","","","","",""
"pit-trial","72","669910","0.0-2.0-14.2-3.2","battery-v0.2","","""event"",""trial"",""time""
""fullscreenenter"",""1"",""2617""
","
","
","""event"",""trial"",""time""
""fullscreenenter"",""1"",""2617""
","
","","","-1","","","11","21034","7070","&#9826;","elianto","#f73b6a7A","-1","-1","1","-10","[]","0","0","3","","","","","","","",""
"pit-trial","73","674764","0.0-2.0-14.2-4.2","battery-v0.2","","""event"",""trial"",""time""
""fullscreenenter"",""1"",""2617""
","
","
","""event"",""trial"",""time""
""fullscreenenter"",""1"",""2617""
","
","","","-1","","","11","21034","7070","&#9826;","elianto","#f73b6a7A","-1","-1","1","0","[]","0","0","3","","","","","","","",""
"pit-trial","74","679618","0.0-2.0-14.3-0.3","battery-v0.2","","""event"",""trial"",""time""
""fullscreenenter"",""1"",""2617""
","
","
","""event"",""trial"",""time""
""fullscreenenter"",""1"",""2617""
","
","","","-1","","","11","21034","7070","&#9826;","elianto","#f73b6a7A","-1","-1","1","0","[]","0","0","3","","","","","","","",""
"pit-trial","75","684472","0.0-2.0-14.3-1.3","battery-v0.2","","""event"",""trial"",""time""
""fullscreenenter"",""1"",""2617""
","
","
","""event"",""trial"",""time""
""fullscreenenter"",""1"",""2617""
","
","","","-1","","","11","21034","7070","&#9826;","elianto","#f73b6a7A","-1","-1","1","0","[]","0","0","3","","","","","","","",""
"pit-trial","76","689326","0.0-2.0-14.3-2.3","battery-v0.2","","""event"",""trial"",""time""
""fullscreenenter"",""1"",""2617""
","
","
","""event"",""trial"",""time""
""fullscreenenter"",""1"",""2617""
","
","","","-1","","","11","21034","7070","&#9826;","elianto","#f73b6a7A","-1","-1","1","0","[]","0","0","3","","","","","","","",""
"pit-trial","77","694179","0.0-2.0-14.3-3.3","battery-v0.2","","""event"",""trial"",""time""
""fullscreenenter"",""1"",""2617""
","
","
","""event"",""trial"",""time""
""fullscreenenter"",""1"",""2617""
","
","","","-1","","","11","21034","7070","&#9826;","elianto","#f73b6a7A","-1","-1","1","-10","[]","0","0","3","","","","","","","",""
"pit-trial","78","699032","0.0-2.0-14.3-4.3","battery-v0.2","","""event"",""trial"",""time""
""fullscreenenter"",""1"",""2617""
","
","
","""event"",""trial"",""time""
""fullscreenenter"",""1"",""2617""
","
","","","-1","","","11","21034","7070","&#9826;","elianto","#f73b6a7A","-1","-1","1","0","[]","0","0","3","","","","","","","",""
"call-function","79","699035","0.0-2.0-15.0","battery-v0.2","","""event"",""trial"",""time""
""fullscreenenter"",""1"",""2617""
","
","
","""event"",""trial"",""time""
""fullscreenenter"",""1"",""2617""
","
","","","","","","","","","","","","","","","","","","","","","","","","","","",""
"pit-instructions","80","725439","0.0-2.0-16.0","battery-v0.2","","""event"",""trial"",""time""
""fullscreenenter"",""1"",""2617""
","
","
","""event"",""trial"",""time""
""fullscreenenter"",""1"",""2617""
","
","","[{""page_index"":0,""viewing_time"":7147.9000000059605},{""page_index"":1,""viewing_time"":8407.39999999106},{""page_index"":2,""viewing_time"":5264.100000008941},{""page_index"":3,""viewing_time"":5583.79999999702}]","26403.29999999702","","","","","","","","","","","","","","","","","","","","","","","",""
"pit-trial","81","730298","0.0-2.0-17.0-0.0","battery-v0.2","","""event"",""trial"",""time""
""fullscreenenter"",""1"",""2617""
","
","
","""event"",""trial"",""time""
""fullscreenenter"",""1"",""2617""
","
","","","-1","","","11","21034","7070","&#9789;","elianto","#f73b6a7A"," ","-1","0","-10","[]","0","0","4","","","","","","","",""
"pit-trial","82","733612","0.0-2.0-17.0-1.0","battery-v0.2","","""event"",""trial"",""time""
""fullscreenenter"",""1"",""2617""
","
","
","""event"",""trial"",""time""
""fullscreenenter"",""1"",""2617""
","
","","","457.80000001192093","","","11","21034","7070","&#9789;","elianto","#f73b6a7A"," "," ","1","0","[1308.5999999940395]","1","0","4","","","","","","","",""
"pit-trial","83","737087","0.0-2.0-17.0-2.0","battery-v0.2","","""event"",""trial"",""time""
""fullscreenenter"",""1"",""2617""
","
","
","""event"",""trial"",""time""
""fullscreenenter"",""1"",""2617""
","
","","","614.7000000029802","","","11","21034","7070","&#9789;","elianto","#f73b6a7A"," "," ","1","0","[1466.5]","1","0","4","","","","","","","",""
"pit-trial","84","739970","0.0-2.0-17.0-3.0","battery-v0.2","","""event"",""trial"",""time""
""fullscreenenter"",""1"",""2617""
","
","
","""event"",""trial"",""time""
""fullscreenenter"",""1"",""2617""
","
","","","28.400000005960464","","","11","21034","7070","&#9789;","elianto","#f73b6a7A"," "," ","1","-10","[406.79999999701977,878.7999999970198,2207,2550.9000000059605,2774.2000000029802]","5","0","4","","","","","","","",""
"pit-trial","85","744137","0.0-2.0-17.0-4.0","battery-v0.2","","""event"",""trial"",""time""
""fullscreenenter"",""1"",""2617""
","
","
","""event"",""trial"",""time""
""fullscreenenter"",""1"",""2617""
","
","","","1302.4000000059605","","","11","21034","7070","&#9789;","elianto","#f73b6a7A"," "," ","1","0","[140.69999998807907,611.5999999940395,819.5,2156.199999988079,2403.5999999940395]","5","0","4","","","","","","","",""
"pit-trial","86","747244","0.0-2.0-17.1-0.1","battery-v0.2","","""event"",""trial"",""time""
""fullscreenenter"",""1"",""2617""
","
","
","""event"",""trial"",""time""
""fullscreenenter"",""1"",""2617""
","
","","","244.79999999701977","","","11","21034","7070","&#9789;","elianto","#f73b6a7A"," "," ","1","0","[1099.9000000059605]","1","0","4","","","","","","","",""
"pit-trial","87","750114","0.0-2.0-17.1-1.1","battery-v0.2","","""event"",""trial"",""time""
""fullscreenenter"",""1"",""2617""
","
","
","""event"",""trial"",""time""
""fullscreenenter"",""1"",""2617""
","
","","","3.9000000059604645","","","11","21034","7070","&#9789;","elianto","#f73b6a7A"," "," ","1","0","[201.59999999403954,857.0999999940395]","2","0","4","","","","","","","",""
"pit-trial","88","753064","0.0-2.0-17.1-2.1","battery-v0.2","","""event"",""trial"",""time""
""fullscreenenter"",""1"",""2617""
","
","
","""event"",""trial"",""time""
""fullscreenenter"",""1"",""2617""
","
","","","94","","","11","21034","7070","&#9789;","elianto","#f73b6a7A"," "," ","1","0","[947.0999999940395]","1","0","4","","","","","","","",""
"pit-trial","89","757918","0.0-2.0-17.1-3.1","battery-v0.2","","""event"",""trial"",""time""
""fullscreenenter"",""1"",""2617""
","
","
","""event"",""trial"",""time""
""fullscreenenter"",""1"",""2617""
","
","","","-1","","","11","21034","7070","&#9789;","elianto","#f73b6a7A"," ","-1","0","0","[821.2999999970198]","1","0","4","","","","","","","",""
"pit-trial","90","761817","0.0-2.0-17.1-4.1","battery-v0.2","","""event"",""trial"",""time""
""fullscreenenter"",""1"",""2617""
","
","
","""event"",""trial"",""time""
""fullscreenenter"",""1"",""2617""
","
","","","1045.2999999970198","","","11","21034","7070","&#9789;","elianto","#f73b6a7A"," "," ","1","0","[1895.8999999910593]","1","0","4","","","","","","","",""
"pit-trial","91","766671","0.0-2.0-17.2-0.2","battery-v0.2","","""event"",""trial"",""time""
""fullscreenenter"",""1"",""2617""
","
","
","""event"",""trial"",""time""
""fullscreenenter"",""1"",""2617""
","
","","","-1","","","11","21034","7070","&#9789;","elianto","#f73b6a7A"," ","-1","0","-10","[468.5,3364.7000000029802]","2","0","4","","","","","","","",""
"pit-trial","92","771525","0.0-2.0-17.2-1.2","battery-v0.2","","""event"",""trial"",""time""
""fullscreenenter"",""1"",""2617""
","
","
","""event"",""trial"",""time""
""fullscreenenter"",""1"",""2617""
","
","","","-1","","","11","21034","7070","&#9789;","elianto","#f73b6a7A"," ","-1","0","-10","[3103.0999999940395]","1","0","4","","","","","","","",""
"pit-trial","93","774472","0.0-2.0-17.2-2.2","battery-v0.2","","""event"",""trial"",""time""
""fullscreenenter"",""1"",""2617""
","
","
","""event"",""trial"",""time""
""fullscreenenter"",""1"",""2617""
","
","","","94.59999999403954","","","11","21034","7070","&#9789;","elianto","#f73b6a7A"," "," ","1","0","[944.9000000059605]","1","0","4","","","","","","","",""
"pit-trial","94","778162","0.0-2.0-17.2-3.2","battery-v0.2","","""event"",""trial"",""time""
""fullscreenenter"",""1"",""2617""
","
","
","""event"",""trial"",""time""
""fullscreenenter"",""1"",""2617""
","
","","","835.7000000029802","","","11","21034","7070","&#9789;","elianto","#f73b6a7A"," "," ","1","-10","[1685.7000000029802]","1","0","4","","","","","","","",""
"pit-trial","95","782576","0.0-2.0-17.2-4.2","battery-v0.2","","""event"",""trial"",""time""
""fullscreenenter"",""1"",""2617""
","
","
","""event"",""trial"",""time""
""fullscreenenter"",""1"",""2617""
","
","","","1560.5","","","11","21034","7070","&#9789;","elianto","#f73b6a7A"," "," ","1","0","[2412.2999999970198]","1","0","4","","","","","","","",""
"pit-trial","96","785897","0.0-2.0-17.3-0.3","battery-v0.2","","""event"",""trial"",""time""
""fullscreenenter"",""1"",""2617""
","
","
","""event"",""trial"",""time""
""fullscreenenter"",""1"",""2617""
","
","","","466.29999999701977","","","11","21034","7070","&#9789;","elianto","#f73b6a7A"," "," ","1","0","[1317]","1","0","4","","","","","","","",""
"pit-trial","97","790751","0.0-2.0-17.3-1.3","battery-v0.2","","""event"",""trial"",""time""
""fullscreenenter"",""1"",""2617""
","
","
","""event"",""trial"",""time""
""fullscreenenter"",""1"",""2617""
","
","","","-1","","","11","21034","7070","&#9789;","elianto","#f73b6a7A"," ","-1","0","-10","[357.70000000298023,4100.9000000059605]","2","0","4","","","","","","","",""
"pit-trial","98","793735","0.0-2.0-17.3-2.3","battery-v0.2","","""event"",""trial"",""time""
""fullscreenenter"",""1"",""2617""
","
","
","""event"",""trial"",""time""
""fullscreenenter"",""1"",""2617""
","
","","","130.1000000089407","","","11","21034","7070","&#9789;","elianto","#f73b6a7A"," "," ","1","0","[981.4000000059605]","1","0","4","","","","","","","",""
"pit-trial","99","797024","0.0-2.0-17.3-3.3","battery-v0.2","","""event"",""trial"",""time""
""fullscreenenter"",""1"",""2617""
","
","
","""event"",""trial"",""time""
""fullscreenenter"",""1"",""2617""
","
","","","437","","","11","21034","7070","&#9789;","elianto","#f73b6a7A"," "," ","1","-10","[1287.2000000029802]","1","0","4","","","","","","","",""
"pit-trial","100","800505","0.0-2.0-17.3-4.3","battery-v0.2","","""event"",""trial"",""time""
""fullscreenenter"",""1"",""2617""
","
","
","""event"",""trial"",""time""
""fullscreenenter"",""1"",""2617""
","
","","","626.8000000119209","","","11","21034","7070","&#9789;","elianto","#f73b6a7A"," "," ","1","0","[77,1477.5]","2","0","4","","","","","","","",""
"call-function","101","800507","0.0-2.0-18.0","battery-v0.2","","""event"",""trial"",""time""
""fullscreenenter"",""1"",""2617""
","
","
","""event"",""trial"",""time""
""fullscreenenter"",""1"",""2617""
","
","","","","","","","","","","","","","","","","","","","","","","","","","","",""
"pit-instructions","102","897047","0.0-2.0-19.0","battery-v0.2","","""event"",""trial"",""time""
""fullscreenenter"",""1"",""2617""
","
","
","""event"",""trial"",""time""
""fullscreenenter"",""1"",""2617""
","
","","[{""page_index"":0,""viewing_time"":7947.399999991059},{""page_index"":1,""viewing_time"":7519.9000000059605},{""page_index"":2,""viewing_time"":20303.59999999404},{""page_index"":3,""viewing_time"":6480.100000008941},{""page_index"":4,""viewing_time"":3016.2999999970198},{""page_index"":3,""viewing_time"":7159.70000000298},{""page_index"":4,""viewing_time"":7719.899999991059},{""page_index"":5,""viewing_time"":9968.10000000894},{""page_index"":6,""viewing_time"":11167.89999999106},{""page_index"":7,""viewing_time"":8408},{""page_index"":8,""viewing_time"":6848.100000008941}]","96539.19999998808","","","","","","","","","","","","","","","","","","","","","","","",""
"pit-comprehension","103","901239","0.0-2.0-20.0-0.0","battery-v0.2","","""event"",""trial"",""time""
""fullscreenenter"",""1"",""2617""
","
","
","""event"",""trial"",""time""
""fullscreenenter"",""1"",""2617""
","
","","","4190.20000000298","[""SPACE""]","0","11","21034","7070","","","","","","","","","","","","","","","","","","",""
"pit-instructions","104","904375","0.0-2.0-20.0-1.0","battery-v0.2","","""event"",""trial"",""time""
""fullscreenenter"",""1"",""2617""
","
","
","""event"",""trial"",""time""
""fullscreenenter"",""1"",""2617""
","
","","[{""page_index"":0,""viewing_time"":3040.5}]","3040.7999999970198","","","","","","","","","","","","","","","","","","","","","","","",""
"pit-comprehension","105","910463","0.0-2.0-21.0-0.0","battery-v0.2","","""event"",""trial"",""time""
""fullscreenenter"",""1"",""2617""
","
","
","""event"",""trial"",""time""
""fullscreenenter"",""1"",""2617""
","
","","","6086.20000000298","[""10""]","0","11","21034","7070","","","","","","","","","","","","","","","","","","",""
"pit-instructions","106","912639","0.0-2.0-21.0-1.0","battery-v0.2","","""event"",""trial"",""time""
""fullscreenenter"",""1"",""2617""
","
","
","""event"",""trial"",""time""
""fullscreenenter"",""1"",""2617""
","
","","[{""page_index"":0,""viewing_time"":2142.5999999940395}]","2142.8999999910593","","","","","","","","","","","","","","","","","","","","","","","",""
"pit-comprehension","107","918679","0.0-2.0-22.0-0.0","battery-v0.2","","""event"",""trial"",""time""
""fullscreenenter"",""1"",""2617""
","
","
","""event"",""trial"",""time""
""fullscreenenter"",""1"",""2617""
","
","","","6038.4000000059605","[""-10""]","1","11","21034","7070","","","","","","","","","","","","","","","","","","",""
"pit-instructions","108","925718","0.0-2.0-22.0-1.0","battery-v0.2","","""event"",""trial"",""time""
""fullscreenenter"",""1"",""2617""
","
","
","""event"",""trial"",""time""
""fullscreenenter"",""1"",""2617""
","
","","[{""page_index"":0,""viewing_time"":7008.79999999702}]","7009.0999999940395","","","","","","","","","","","","","","","","","","","","","","","",""
"pit-instructions","109","929302","0.0-2.0-22.0-2.0-0.0","battery-v0.2","","""event"",""trial"",""time""
""fullscreenenter"",""1"",""2617""
","
","
","""event"",""trial"",""time""
""fullscreenenter"",""1"",""2617""
","
","","[{""page_index"":0,""viewing_time"":3583.1000000089407}]","3583.300000011921","","","","","","","","","","","","","","","","","","","","","","","",""
"pit-comprehension","110","935935","0.0-2.0-22.1-0.1","battery-v0.2","","""event"",""trial"",""time""
""fullscreenenter"",""1"",""2617""
","
","
","""event"",""trial"",""time""
""fullscreenenter"",""1"",""2617""
","
","","","6630.70000000298","[""0""]","0","11","21034","7070","","","","","","","","","","","","","","","","","","",""
"pit-instructions","111","939767","0.0-2.0-22.1-1.1","battery-v0.2","","""event"",""trial"",""time""
""fullscreenenter"",""1"",""2617""
","
","
","""event"",""trial"",""time""
""fullscreenenter"",""1"",""2617""
","
","","[{""page_index"":0,""viewing_time"":3799.7999999970198}]","3799.9000000059605","","","","","","","","","","","","","","","","","","","","","","","",""
"pit-comprehension","112","950415","0.0-2.0-23.0-0.0","battery-v0.2","","""event"",""trial"",""time""
""fullscreenenter"",""1"",""2617""
","
","
","""event"",""trial"",""time""
""fullscreenenter"",""1"",""2617""
","
","","","10646.40000000596","[""False""]","1","11","21034","7070","","","","","","","","","","","","","","","","","","",""
"pit-instructions","113","956223","0.0-2.0-23.0-1.0","battery-v0.2","","""event"",""trial"",""time""
""fullscreenenter"",""1"",""2617""
","
","
","""event"",""trial"",""time""
""fullscreenenter"",""1"",""2617""
","
","","[{""page_index"":0,""viewing_time"":5774.70000000298}]","5774.9000000059605","","","","","","","","","","","","","","","","","","","","","","","",""
"pit-instructions","114","957350","0.0-2.0-23.0-2.0-0.0","battery-v0.2","","""event"",""trial"",""time""
""fullscreenenter"",""1"",""2617""
","
","
","""event"",""trial"",""time""
""fullscreenenter"",""1"",""2617""
","
","","[{""page_index"":0,""viewing_time"":1126.5}]","1126.6000000089407","","","","","","","","","","","","","","","","","","","","","","","",""
"pit-comprehension","115","965687","0.0-2.0-23.1-0.1","battery-v0.2","","""event"",""trial"",""time""
""fullscreenenter"",""1"",""2617""
","
","
","""event"",""trial"",""time""
""fullscreenenter"",""1"",""2617""
","
","","","8335","[""True""]","0","11","21034","7070","","","","","","","","","","","","","","","","","","",""
"pit-instructions","116","967230","0.0-2.0-23.1-1.1","battery-v0.2","","""event"",""trial"",""time""
""fullscreenenter"",""1"",""2617""
","
","
","""event"",""trial"",""time""
""fullscreenenter"",""1"",""2617""
","
","","[{""page_index"":0,""viewing_time"":1510}]","1510.2000000029802","","","","","","","","","","","","","","","","","","","","","","","",""
"pit-comprehension","117","976911","0.0-2.0-24.0-0.0","battery-v0.2","","""event"",""trial"",""time""
""fullscreenenter"",""1"",""2617""
","
","
","""event"",""trial"",""time""
""fullscreenenter"",""1"",""2617""
","
","","","9678.79999999702","[""True""]","0","11","21034","7070","","","","","","","","","","","","","","","","","","",""
"pit-instructions","118","978334","0.0-2.0-24.0-1.0","battery-v0.2","","""event"",""trial"",""time""
""fullscreenenter"",""1"",""2617""
","
","
","""event"",""trial"",""time""
""fullscreenenter"",""1"",""2617""
","
","","[{""page_index"":0,""viewing_time"":1390}]","1390.2999999970198","","","","","","","","","","","","","","","","","","","","","","","",""
"pit-comprehension","119","987687","0.0-2.0-25.0-0.0","battery-v0.2","","""event"",""trial"",""time""
""fullscreenenter"",""1"",""2617""
","
","
","""event"",""trial"",""time""
""fullscreenenter"",""1"",""2617""
","
","","","9350.5","[""True""]","0","11","21034","7070","","","","","","","","","","","","","","","","","","",""
"pit-instructions","120","990870","0.0-2.0-25.0-1.0","battery-v0.2","","""event"",""trial"",""time""
""fullscreenenter"",""1"",""2617""
","
","
","""event"",""trial"",""time""
""fullscreenenter"",""1"",""2617""
","
","","[{""page_index"":0,""viewing_time"":3149}]","3149.199999988079","","","","","","","","","","","","","","","","","","","","","","","",""
"pit-comprehension","121","997087","0.0-2.0-26.0-0.0","battery-v0.2","","""event"",""trial"",""time""
""fullscreenenter"",""1"",""2617""
","
","
","""event"",""trial"",""time""
""fullscreenenter"",""1"",""2617""
","
","","","6215","[""False""]","0","11","21034","7070","","","","","","","","","","","","","","","","","","",""
"pit-instructions","122","1002806","0.0-2.0-26.0-1.0","battery-v0.2","","""event"",""trial"",""time""
""fullscreenenter"",""1"",""2617""
","
","
","""event"",""trial"",""time""
""fullscreenenter"",""1"",""2617""
","
","","[{""page_index"":0,""viewing_time"":5684.4000000059605}]","5684.5999999940395","","","","","","","","","","","","","","","","","","","","","","","",""
"pit-instructions","123","1020639","0.0-3.0","battery-v0.2","","""event"",""trial"",""time""
""fullscreenenter"",""1"",""2617""
","
","
","""event"",""trial"",""time""
""fullscreenenter"",""1"",""2617""
","
","","[{""page_index"":0,""viewing_time"":4302.600000008941},{""page_index"":1,""viewing_time"":6968.5999999940395},{""page_index"":2,""viewing_time"":6559.9000000059605}]","17831.90000000596","","","","","","","","","","","","","","","","","","","","","","","",""
"pit-trial","124","1024282","0.0-4.0","battery-v0.2","","""event"",""trial"",""time""
""fullscreenenter"",""1"",""2617""
","
","
","""event"",""trial"",""time""
""fullscreenenter"",""1"",""2617""
","
","","","782.5","","","11","21034","7070","&#9728;","elianto","#f73b6a7A","-1"," ","0","0","[1634.5]","1","1","","","21034","1","0","4","lose","no-go","1"
"pit-trial","125","1029151","0.0-5.0","battery-v0.2","","""event"",""trial"",""time""
""fullscreenenter"",""1"",""2617""
","
","
","""event"",""trial"",""time""
""fullscreenenter"",""1"",""2617""
","
","","","-1","","","11","21034","7070","&#9752;","elianto","#f73b6a7A"," ","-1","0","0","[]","0","1","","","21034","2","3","3","lose","go","1"
"pit-trial","126","1033809","0.0-6.0","battery-v0.2","","""event"",""trial"",""time""
""fullscreenenter"",""1"",""2617""
","
","
","""event"",""trial"",""time""
""fullscreenenter"",""1"",""2617""
","
","","","1801.2999999970198","","","11","21034","7070","&#9733;","elianto","#3366ff99","-1"," ","0","0","[2655]","1","1","","","21034","3","2","2","win","no-go","0"
"pit-trial","127","1037822","0.0-7.0","battery-v0.2","","""event"",""trial"",""time""
""fullscreenenter"",""1"",""2617""
","
","
","""event"",""trial"",""time""
""fullscreenenter"",""1"",""2617""
","
","","","1143.9000000059605","","","11","21034","7070","&#9730;","elianto","#3366ff99"," "," ","1","+10","[1995.800000011921]","1","1","","","21034","4","1","1","win","go","0"
"pit-trial","128","1041526","0.0-8.0","battery-v0.2","","""event"",""trial"",""time""
""fullscreenenter"",""1"",""2617""
","
","
","""event"",""trial"",""time""
""fullscreenenter"",""1"",""2617""
","
","","","836.2999999970198","","","11","21034","7070","&#9730;","elianto","#3366ff99"," "," ","1","+10","[1686.7000000029802]","1","1","","","21034","5","1","1","win","go","0"
"pit-trial","129","1046406","0.0-9.0","battery-v0.2","","""event"",""trial"",""time""
""fullscreenenter"",""1"",""2617""
","
","
","""event"",""trial"",""time""
""fullscreenenter"",""1"",""2617""
","
","","","-1","","","11","21034","7070","&#9728;","elianto","#f73b6a7A","-1","-1","1","0","[]","0","1","","","21034","6","0","4","lose","no-go","0"
"pit-trial","130","1049683","0.0-10.0","battery-v0.2","","""event"",""trial"",""time""
""fullscreenenter"",""1"",""2617""
","
","
","""event"",""trial"",""time""
""fullscreenenter"",""1"",""2617""
","
","","","407","","","11","21034","7070","&#9733;","elianto","#3366ff99","-1"," ","0","0","[1263.7999999970198]","1","1","","","21034","7","2","2","win","no-go","0"
"pit-trial","131","1054536","0.0-11.0","battery-v0.2","","""event"",""trial"",""time""
""fullscreenenter"",""1"",""2617""
","
","
","""event"",""trial"",""time""
""fullscreenenter"",""1"",""2617""
","
","","","-1","","","11","21034","7070","&#9752;","elianto","#f73b6a7A"," ","-1","0","0","[2936.800000011921]","1","1","","","21034","8","3","3","lose","go","1"
"pit-trial","132","1059390","0.0-12.0","battery-v0.2","","""event"",""trial"",""time""
""fullscreenenter"",""1"",""2617""
","
","
","""event"",""trial"",""time""
""fullscreenenter"",""1"",""2617""
","
","","","-1","","","11","21034","7070","&#9752;","elianto","#f73b6a7A"," ","-1","0","-10","[3948.5999999940395,4628.899999991059]","2","1","","","21034","9","3","3","lose","go","0"
"pit-trial","133","1063223","0.0-13.0","battery-v0.2","","""event"",""trial"",""time""
""fullscreenenter"",""1"",""2617""
","
","
","""event"",""trial"",""time""
""fullscreenenter"",""1"",""2617""
","
","","","979.2999999970198","","","11","21034","7070","&#9733;","elianto","#3366ff99","-1"," ","0","0","[69.29999999701977,733.2000000029802,1829.9000000059605]","3","1","","","21034","10","2","2","win","no-go","0"
"pit-trial","134","1067000","0.0-14.0","battery-v0.2","","""event"",""trial"",""time""
""fullscreenenter"",""1"",""2617""
","
","
","""event"",""trial"",""time""
""fullscreenenter"",""1"",""2617""
","
","","","923.2000000029802","","","11","21034","7070","&#9730;","elianto","#3366ff99"," "," ","1","+10","[1773.2999999970198]","1","1","","","21034","11","1","1","win","go","0"
"pit-trial","135","1071859","0.0-15.0","battery-v0.2","","""event"",""trial"",""time""
""fullscreenenter"",""1"",""2617""
","
","
","""event"",""trial"",""time""
""fullscreenenter"",""1"",""2617""
","
","","","-1","","","11","21034","7070","&#9728;","elianto","#f73b6a7A","-1","-1","1","-10","[]","0","1","","","21034","12","0","4","lose","no-go","1"
"pit-trial","136","1075304","0.0-16.0","battery-v0.2","","""event"",""trial"",""time""
""fullscreenenter"",""1"",""2617""
","
","
","""event"",""trial"",""time""
""fullscreenenter"",""1"",""2617""
","
","","","591.5999999940395","","","11","21034","7070","&#9730;","elianto","#3366ff99"," "," ","1","+10","[1441.800000011921]","1","1","","","21034","13","1","1","win","go","0"
"pit-trial","137","1080159","0.0-17.0","battery-v0.2","","""event"",""trial"",""time""
""fullscreenenter"",""1"",""2617""
","
","
","""event"",""trial"",""time""
""fullscreenenter"",""1"",""2617""
","
","","","-1","","","11","21034","7070","&#9733;","elianto","#3366ff99","-1","-1","1","+10","[]","0","1","","","21034","14","2","2","win","no-go","0"
"pit-trial","138","1085013","0.0-18.0","battery-v0.2","","""event"",""trial"",""time""
""fullscreenenter"",""1"",""2617""
","
","
","""event"",""trial"",""time""
""fullscreenenter"",""1"",""2617""
","
","","","-1","","","11","21034","7070","&#9728;","elianto","#f73b6a7A","-1","-1","1","0","[2966.199999988079]","1","1","","","21034","15","0","4","lose","no-go","0"
"pit-trial","139","1089256","0.0-19.0","battery-v0.2","","""event"",""trial"",""time""
""fullscreenenter"",""1"",""2617""
","
","
","""event"",""trial"",""time""
""fullscreenenter"",""1"",""2617""
","
","","","1389.0999999940395","","","11","21034","7070","&#9752;","elianto","#f73b6a7A"," "," ","1","-10","[2239.7999999970198]","1","1","","","21034","16","3","3","lose","go","1"
"pit-trial","140","1094109","0.0-20.0","battery-v0.2","","""event"",""trial"",""time""
""fullscreenenter"",""1"",""2617""
","
","
","""event"",""trial"",""time""
""fullscreenenter"",""1"",""2617""
","
","","","-1","","","11","21034","7070","&#9728;","elianto","#f73b6a7A","-1","-1","1","0","[]","0","1","","","21034","17","0","4","lose","no-go","0"
"pit-trial","141","1097807","0.0-21.0","battery-v0.2","","""event"",""trial"",""time""
""fullscreenenter"",""1"",""2617""
","
","
","""event"",""trial"",""time""
""fullscreenenter"",""1"",""2617""
","
","","","842.1999999880791","","","11","21034","7070","&#9730;","elianto","#3366ff99"," "," ","1","0","[1693.5]","1","1","","","21034","18","1","1","win","go","1"
"pit-trial","142","1102661","0.0-22.0","battery-v0.2","","""event"",""trial"",""time""
""fullscreenenter"",""1"",""2617""
","
","
","""event"",""trial"",""time""
""fullscreenenter"",""1"",""2617""
","
","","","-1","","","11","21034","7070","&#9752;","elianto","#f73b6a7A"," ","-1","0","-10","[4486.20000000298]","1","1","","","21034","19","3","3","lose","go","0"
"pit-trial","143","1106791","0.0-23.0","battery-v0.2","","""event"",""trial"",""time""
""fullscreenenter"",""1"",""2617""
","
","
","""event"",""trial"",""time""
""fullscreenenter"",""1"",""2617""
","
","","","1277.2000000029802","","","11","21034","7070","&#9733;","elianto","#3366ff99","-1"," ","0","0","[2127.4000000059605,3079.4000000059605]","2","1","","","21034","20","2","2","win","no-go","0"
"pit-instructions","144","1118918","0.0-24.0","battery-v0.2","","""event"",""trial"",""time""
""fullscreenenter"",""1"",""2617""
","
","
","""event"",""trial"",""time""
""fullscreenenter"",""1"",""2617""
","
","","[{""page_index"":0,""viewing_time"":6100.29999999702},{""page_index"":1,""viewing_time"":6024}]","12124.59999999404","","","","","","","","","","","","","","","","","","","","","","","",""
"pit-trial","145","1123052","0.0-25.0","battery-v0.2","","""event"",""trial"",""time""
""fullscreenenter"",""1"",""2617""
","
","
","""event"",""trial"",""time""
""fullscreenenter"",""1"",""2617""
","
","","","1264.7999999970198","","","11","21034","7070","d","elianto","#3366ff99"," "," ","1","0","[2118.7000000029802]","1","2","","","21034","21","1","1","win","go","1"
"pit-trial","146","1127922","0.0-26.0","battery-v0.2","","""event"",""trial"",""time""
""fullscreenenter"",""1"",""2617""
","
","
","""event"",""trial"",""time""
""fullscreenenter"",""1"",""2617""
","
","","","-1","","","11","21034","7070","w","elianto","#f73b6a7A"," ","-1","0","-10","[]","0","2","","","21034","22","3","3","lose","go","0"
"pit-trial","147","1132780","0.0-27.0","battery-v0.2","","""event"",""trial"",""time""
""fullscreenenter"",""1"",""2617""
","
","
","""event"",""trial"",""time""
""fullscreenenter"",""1"",""2617""
","
","","","-1","","","11","21034","7070","j","elianto","#f73b6a7A","-1","-1","1","-10","[3034.9000000059605]","1","2","","","21034","23","0","4","lose","no-go","1"
"pit-trial","148","1136382","0.0-28.0","battery-v0.2","","""event"",""trial"",""time""
""fullscreenenter"",""1"",""2617""
","
","
","""event"",""trial"",""time""
""fullscreenenter"",""1"",""2617""
","
","","","733.5","","","11","21034","7070","e","elianto","#f73b6a7A","-1"," ","0","-10","[1584.2000000029802]","1","2","","","21034","24","2","4","lose","no-go","0"
"pit-trial","149","1141244","0.0-29.0","battery-v0.2","","""event"",""trial"",""time""
""fullscreenenter"",""1"",""2617""
","
","
","""event"",""trial"",""time""
""fullscreenenter"",""1"",""2617""
","
","","","-1","","","11","21034","7070","e","elianto","#f73b6a7A","-1","-1","1","0","[]","0","2","","","21034","25","2","4","lose","no-go","0"
"pit-trial","150","1146122","0.0-30.0","battery-v0.2","","""event"",""trial"",""time""
""fullscreenenter"",""1"",""2617""
","
","
","""event"",""trial"",""time""
""fullscreenenter"",""1"",""2617""
","
","","","-1","","","11","21034","7070","w","elianto","#f73b6a7A"," ","-1","0","-10","[]","0","2","","","21034","26","3","3","lose","go","0"
"pit-trial","151","1150111","0.0-31.0","battery-v0.2","","""event"",""trial"",""time""
""fullscreenenter"",""1"",""2617""
","
","
","""event"",""trial"",""time""
""fullscreenenter"",""1"",""2617""
","
","","","1130","","","11","21034","7070","j","elianto","#f73b6a7A","-1"," ","0","0","[1985.7000000029802]","1","2","","","21034","27","0","4","lose","no-go","1"
"pit-trial","152","1154144","0.0-32.0","battery-v0.2","","""event"",""trial"",""time""
""fullscreenenter"",""1"",""2617""
","
","
","""event"",""trial"",""time""
""fullscreenenter"",""1"",""2617""
","
","","","1179.5999999940395","","","11","21034","7070","d","elianto","#3366ff99"," "," ","1","0","[2030]","1","2","","","21034","28","1","1","win","go","1"
"pit-trial","153","1158998","0.0-33.0","battery-v0.2","","""event"",""trial"",""time""
""fullscreenenter"",""1"",""2617""
","
","
","""event"",""trial"",""time""
""fullscreenenter"",""1"",""2617""
","
","","","-1","","","11","21034","7070","w","elianto","#f73b6a7A"," ","-1","0","-10","[]","0","2","","","21034","29","3","3","lose","go","0"
"pit-trial","154","1163865","0.0-34.0","battery-v0.2","","""event"",""trial"",""time""
""fullscreenenter"",""1"",""2617""
","
","
","""event"",""trial"",""time""
""fullscreenenter"",""1"",""2617""
","
","","","-1","","","11","21034","7070","d","elianto","#3366ff99"," ","-1","0","+10","[]","0","2","","","21034","30","1","1","win","go","1"
"pit-trial","155","1168718","0.0-35.0","battery-v0.2","","""event"",""trial"",""time""
""fullscreenenter"",""1"",""2617""
","
","
","""event"",""trial"",""time""
""fullscreenenter"",""1"",""2617""
","
","","","-1","","","11","21034","7070","j","elianto","#f73b6a7A","-1","-1","1","-10","[]","0","2","","","21034","31","0","4","lose","no-go","1"
"pit-trial","156","1172720","0.0-36.0","battery-v0.2","","""event"",""trial"",""time""
""fullscreenenter"",""1"",""2617""
","
","
","""event"",""trial"",""time""
""fullscreenenter"",""1"",""2617""
","
","","","1147.3999999910593","","","11","21034","7070","e","elianto","#f73b6a7A","-1"," ","0","-10","[1998.2000000029802]","1","2","","","21034","32","2","4","lose","no-go","0"
"pit-trial","157","1177573","0.0-37.0","battery-v0.2","","""event"",""trial"",""time""
""fullscreenenter"",""1"",""2617""
","
","
","""event"",""trial"",""time""
""fullscreenenter"",""1"",""2617""
","
","","","-1","","","11","21034","7070","w","elianto","#f73b6a7A"," ","-1","0","-10","[]","0","2","","","21034","33","3","3","lose","go","0"
"pit-trial","158","1182111","0.0-38.0","battery-v0.2","","""event"",""trial"",""time""
""fullscreenenter"",""1"",""2617""
","
","
","""event"",""trial"",""time""
""fullscreenenter"",""1"",""2617""
","
","","","1684.7000000029802","","","11","21034","7070","e","elianto","#f73b6a7A","-1"," ","0","-10","[2535.5999999940395]","1","2","","","21034","34","2","4","lose","no-go","0"
"pit-trial","159","1186966","0.0-39.0","battery-v0.2","","""event"",""trial"",""time""
""fullscreenenter"",""1"",""2617""
","
","
","""event"",""trial"",""time""
""fullscreenenter"",""1"",""2617""
","
","","","-1","","","11","21034","7070","j","elianto","#f73b6a7A","-1","-1","1","0","[]","0","2","","","21034","35","0","4","lose","no-go","0"
"pit-trial","160","1191820","0.0-40.0","battery-v0.2","","""event"",""trial"",""time""
""fullscreenenter"",""1"",""2617""
","
","
","""event"",""trial"",""time""
""fullscreenenter"",""1"",""2617""
","
","","","-1","","","11","21034","7070","d","elianto","#3366ff99"," ","-1","0","0","[3934.4000000059605]","1","2","","","21034","36","1","1","win","go","0"
"pit-trial","161","1196674","0.0-41.0","battery-v0.2","","""event"",""trial"",""time""
""fullscreenenter"",""1"",""2617""
","
","
","""event"",""trial"",""time""
""fullscreenenter"",""1"",""2617""
","
","","","-1","","","11","21034","7070","w","elianto","#f73b6a7A"," ","-1","0","-10","[2888.2000000029802]","1","2","","","21034","37","3","3","lose","go","0"
"pit-trial","162","1200575","0.0-42.0","battery-v0.2","","""event"",""trial"",""time""
""fullscreenenter"",""1"",""2617""
","
","
","""event"",""trial"",""time""
""fullscreenenter"",""1"",""2617""
","
","","","1047.5","","","11","21034","7070","e","elianto","#f73b6a7A","-1"," ","0","-10","[1898.2000000029802,2522.0999999940395,2729.2000000029802,2930,3106,3282,3490.0999999940395]","7","2","","","21034","38","2","4","lose","no-go","0"
"pit-trial","163","1205429","0.0-43.0","battery-v0.2","","""event"",""trial"",""time""
""fullscreenenter"",""1"",""2617""
","
","
","""event"",""trial"",""time""
""fullscreenenter"",""1"",""2617""
","
","","","-1","","","11","21034","7070","d","elianto","#3366ff99"," ","-1","0","0","[]","0","2","","","21034","39","1","1","win","go","0"
"pit-trial","164","1210283","0.0-44.0","battery-v0.2","","""event"",""trial"",""time""
""fullscreenenter"",""1"",""2617""
","
","
","""event"",""trial"",""time""
""fullscreenenter"",""1"",""2617""
","
","","","-1","","","11","21034","7070","j","elianto","#f73b6a7A","-1","-1","1","0","[]","0","2","","","21034","40","0","4","lose","no-go","0"
"pit-trial","165","1214199","0.0-45.0","battery-v0.2","","""event"",""trial"",""time""
""fullscreenenter"",""1"",""2617""
","
","
","""event"",""trial"",""time""
""fullscreenenter"",""1"",""2617""
","
","","","1061.8999999910593","","","11","21034","7070","d","elianto","#3366ff99"," "," ","1","+10","[1912.8999999910593]","1","2","","","21034","41","1","1","win","go","0"
"pit-trial","166","1219055","0.0-46.0","battery-v0.2","","""event"",""trial"",""time""
""fullscreenenter"",""1"",""2617""
","
","
","""event"",""trial"",""time""
""fullscreenenter"",""1"",""2617""
","
","","","-1","","","11","21034","7070","e","elianto","#f73b6a7A","-1","-1","1","0","[]","0","2","","","21034","42","2","4","lose","no-go","0"
"pit-trial","167","1223461","0.0-47.0","battery-v0.2","","""event"",""trial"",""time""
""fullscreenenter"",""1"",""2617""
","
","
","""event"",""trial"",""time""
""fullscreenenter"",""1"",""2617""
","
","","","1553.5","","","11","21034","7070","j","elianto","#f73b6a7A","-1"," ","0","-10","[2403.8999999910593]","1","2","","","21034","43","0","4","lose","no-go","0"
"pit-trial","168","1228316","0.0-48.0","battery-v0.2","","""event"",""trial"",""time""
""fullscreenenter"",""1"",""2617""
","
","
","""event"",""trial"",""time""
""fullscreenenter"",""1"",""2617""
","
","","","-1","","","11","21034","7070","w","elianto","#f73b6a7A"," ","-1","0","0","[]","0","2","","","21034","44","3","3","lose","go","1"
"pit-trial","169","1232103","0.0-49.0","battery-v0.2","","""event"",""trial"",""time""
""fullscreenenter"",""1"",""2617""
","
","
","""event"",""trial"",""time""
""fullscreenenter"",""1"",""2617""
","
","","","933.7999999970198","","","11","21034","7070","s","elianto","#3366ff99","-1"," ","0","0","[1784.2000000029802]","1","2","","","21034","45","4","2","win","no-go","0"
"pit-trial","170","1236756","0.0-50.0","battery-v0.2","","""event"",""trial"",""time""
""fullscreenenter"",""1"",""2617""
","
","
","""event"",""trial"",""time""
""fullscreenenter"",""1"",""2617""
","
","","","1786","","","11","21034","7070","j","elianto","#f73b6a7A","-1"," ","0","-10","[2636.5999999940395]","1","2","","","21034","46","0","4","lose","no-go","0"
"pit-trial","171","1241610","0.0-51.0","battery-v0.2","","""event"",""trial"",""time""
""fullscreenenter"",""1"",""2617""
","
","
","""event"",""trial"",""time""
""fullscreenenter"",""1"",""2617""
","
","","","-1","","","11","21034","7070","e","elianto","#f73b6a7A","-1","-1","1","0","[]","0","2","","","21034","47","2","4","lose","no-go","0"
"pit-trial","172","1246463","0.0-52.0","battery-v0.2","","""event"",""trial"",""time""
""fullscreenenter"",""1"",""2617""
","
","
","""event"",""trial"",""time""
""fullscreenenter"",""1"",""2617""
","
","","","-1","","","11","21034","7070","w","elianto","#f73b6a7A"," ","-1","0","-10","[4066.199999988079,4505]","2","2","","","21034","48","3","3","lose","go","0"
"pit-trial","173","1251317","0.0-53.0","battery-v0.2","","""event"",""trial"",""time""
""fullscreenenter"",""1"",""2617""
","
","
","""event"",""trial"",""time""
""fullscreenenter"",""1"",""2617""
","
","","","-1","","","11","21034","7070","d","elianto","#3366ff99"," ","-1","0","+10","[]","0","2","","","21034","49","1","1","win","go","1"
"pit-trial","174","1256170","0.0-54.0","battery-v0.2","","""event"",""trial"",""time""
""fullscreenenter"",""1"",""2617""
","
","
","""event"",""trial"",""time""
""fullscreenenter"",""1"",""2617""
","
","","","-1","","","11","21034","7070","s","elianto","#3366ff99","-1","-1","1","+10","[]","0","2","","","21034","50","4","2","win","no-go","0"
"pit-trial","175","1260391","0.0-55.0","battery-v0.2","","""event"",""trial"",""time""
""fullscreenenter"",""1"",""2617""
","
","
","""event"",""trial"",""time""
""fullscreenenter"",""1"",""2617""
","
","","","1365.6000000089407","","","11","21034","7070","j","elianto","#f73b6a7A","-1"," ","0","-10","[2217.5]","1","2","","","21034","51","0","4","lose","no-go","0"
"pit-trial","176","1265245","0.0-56.0","battery-v0.2","","""event"",""trial"",""time""
""fullscreenenter"",""1"",""2617""
","
","
","""event"",""trial"",""time""
""fullscreenenter"",""1"",""2617""
","
","","","-1","","","11","21034","7070","w","elianto","#f73b6a7A"," ","-1","0","-10","[]","0","2","","","21034","52","3","3","lose","go","0"
"pit-trial","177","1269031","0.0-57.0","battery-v0.2","","""event"",""trial"",""time""
""fullscreenenter"",""1"",""2617""
","
","
","""event"",""trial"",""time""
""fullscreenenter"",""1"",""2617""
","
","","","932.7999999970198","","","11","21034","7070","e","elianto","#f73b6a7A","-1"," ","0","-10","[1783.6000000089407]","1","2","","","21034","53","2","4","lose","no-go","0"
"pit-trial","178","1272999","0.0-58.0","battery-v0.2","","""event"",""trial"",""time""
""fullscreenenter"",""1"",""2617""
","
","
","""event"",""trial"",""time""
""fullscreenenter"",""1"",""2617""
","
","","","1114.199999988079","","","11","21034","7070","s","elianto","#3366ff99","-1"," ","0","0","[1965]","1","2","","","21034","54","4","2","win","no-go","0"
"pit-trial","179","1277853","0.0-59.0","battery-v0.2","","""event"",""trial"",""time""
""fullscreenenter"",""1"",""2617""
","
","
","""event"",""trial"",""time""
""fullscreenenter"",""1"",""2617""
","
","","","-1","","","11","21034","7070","j","elianto","#f73b6a7A","-1","-1","1","0","[]","0","2","","","21034","55","0","4","lose","no-go","0"
"pit-trial","180","1282707","0.0-60.0","battery-v0.2","","""event"",""trial"",""time""
""fullscreenenter"",""1"",""2617""
","
","
","""event"",""trial"",""time""
""fullscreenenter"",""1"",""2617""
","
","","","-1","","","11","21034","7070","d","elianto","#3366ff99"," ","-1","0","0","[3606.7000000029802]","1","2","","","21034","56","1","1","win","go","0"
"pit-trial","181","1286543","0.0-61.0","battery-v0.2","","""event"",""trial"",""time""
""fullscreenenter"",""1"",""2617""
","
","
","""event"",""trial"",""time""
""fullscreenenter"",""1"",""2617""
","
","","","981.1999999880791","","","11","21034","7070","s","elianto","#3366ff99","-1"," ","0","0","[1832.0999999940395,3040.199999988079]","2","2","","","21034","57","4","2","win","no-go","0"
"pit-trial","182","1291398","0.0-62.0","battery-v0.2","","""event"",""trial"",""time""
""fullscreenenter"",""1"",""2617""
","
","
","""event"",""trial"",""time""
""fullscreenenter"",""1"",""2617""
","
","","","-1","","","11","21034","7070","w","elianto","#f73b6a7A"," ","-1","0","-10","[]","0","2","","","21034","58","3","3","lose","go","0"
"pit-trial","183","1296252","0.0-63.0","battery-v0.2","","""event"",""trial"",""time""
""fullscreenenter"",""1"",""2617""
","
","
","""event"",""trial"",""time""
""fullscreenenter"",""1"",""2617""
","
","","","-1","","","11","21034","7070","d","elianto","#3366ff99"," ","-1","0","0","[4349.5999999940395]","1","2","","","21034","59","1","1","win","go","0"
"pit-trial","184","1301107","0.0-64.0","battery-v0.2","","""event"",""trial"",""time""
""fullscreenenter"",""1"",""2617""
","
","
","""event"",""trial"",""time""
""fullscreenenter"",""1"",""2617""
","
","","","-1","","","11","21034","7070","j","elianto","#f73b6a7A","-1","-1","1","0","[]","0","2","","","21034","60","0","4","lose","no-go","0"
"pit-trial","185","1305526","0.0-65.0","battery-v0.2","","""event"",""trial"",""time""
""fullscreenenter"",""1"",""2617""
","
","
","""event"",""trial"",""time""
""fullscreenenter"",""1"",""2617""
","
","","","1565.3999999910593","","","11","21034","7070","e","elianto","#f73b6a7A","-1"," ","0","-10","[2416.199999988079]","1","2","","","21034","61","2","4","lose","no-go","0"
"pit-trial","186","1310379","0.0-66.0","battery-v0.2","","""event"",""trial"",""time""
""fullscreenenter"",""1"",""2617""
","
","
","""event"",""trial"",""time""
""fullscreenenter"",""1"",""2617""
","
","","","-1","","","11","21034","7070","w","elianto","#f73b6a7A"," ","-1","0","-10","[]","0","2","","","21034","62","3","3","lose","go","0"
"pit-trial","187","1315047","0.0-67.0","battery-v0.2","","""event"",""trial"",""time""
""fullscreenenter"",""1"",""2617""
","
","
","""event"",""trial"",""time""
""fullscreenenter"",""1"",""2617""
","
","","","1812.699999988079","","","11","21034","7070","d","elianto","#3366ff99"," "," ","1","+10","[2664]","1","2","","","21034","63","1","1","win","go","0"
"pit-trial","188","1319901","0.0-68.0","battery-v0.2","","""event"",""trial"",""time""
""fullscreenenter"",""1"",""2617""
","
","
","""event"",""trial"",""time""
""fullscreenenter"",""1"",""2617""
","
","","","-1","","","11","21034","7070","s","elianto","#3366ff99","-1","-1","1","+10","[]","0","2","","","21034","64","4","2","win","no-go","0"
"pit-trial","189","1324765","0.0-69.0","battery-v0.2","","""event"",""trial"",""time""
""fullscreenenter"",""1"",""2617""
","
","
","""event"",""trial"",""time""
""fullscreenenter"",""1"",""2617""
","
","","","-1","","","11","21034","7070","s","elianto","#3366ff99","-1","-1","1","+10","[]","0","2","","","21034","65","4","2","win","no-go","0"
"pit-trial","190","1329406","0.0-70.0","battery-v0.2","","""event"",""trial"",""time""
""fullscreenenter"",""1"",""2617""
","
","
","""event"",""trial"",""time""
""fullscreenenter"",""1"",""2617""
","
","","","1786.3999999910593","","","11","21034","7070","d","elianto","#3366ff99"," "," ","1","+10","[2638.2999999970198]","1","2","","","21034","66","1","1","win","go","0"
"pit-trial","191","1333974","0.0-71.0","battery-v0.2","","""event"",""trial"",""time""
""fullscreenenter"",""1"",""2617""
","
","
","""event"",""trial"",""time""
""fullscreenenter"",""1"",""2617""
","
","","","1715.4000000059605","","","11","21034","7070","e","elianto","#f73b6a7A","-1"," ","0","-10","[2565.9000000059605]","1","2","","","21034","67","2","4","lose","no-go","0"
"pit-trial","192","1338828","0.0-72.0","battery-v0.2","","""event"",""trial"",""time""
""fullscreenenter"",""1"",""2617""
","
","
","""event"",""trial"",""time""
""fullscreenenter"",""1"",""2617""
","
","","","-1","","","11","21034","7070","w","elianto","#f73b6a7A"," ","-1","0","0","[]","0","2","","","21034","68","3","3","lose","go","1"
"pit-trial","193","1343183","0.0-73.0","battery-v0.2","","""event"",""trial"",""time""
""fullscreenenter"",""1"",""2617""
","
","
","""event"",""trial"",""time""
""fullscreenenter"",""1"",""2617""
","
","","","1500.7000000029802","","","11","21034","7070","d","elianto","#3366ff99"," "," ","1","0","[2351,3302.7000000029802,3702.5,3951]","4","2","","","21034","69","1","1","win","go","1"
"pit-trial","194","1347462","0.0-74.0","battery-v0.2","","""event"",""trial"",""time""
""fullscreenenter"",""1"",""2617""
","
","
","""event"",""trial"",""time""
""fullscreenenter"",""1"",""2617""
","
","","","1425.2000000029802","","","11","21034","7070","p","elianto","#3366ff99"," "," ","1","+10","[2275.7999999970198]","1","2","","","21034","70","5","1","win","go","0"
"pit-trial","195","1352316","0.0-75.0","battery-v0.2","","""event"",""trial"",""time""
""fullscreenenter"",""1"",""2617""
","
","
","""event"",""trial"",""time""
""fullscreenenter"",""1"",""2617""
","
","","","-1","","","11","21034","7070","w","elianto","#f73b6a7A"," ","-1","0","0","[]","0","2","","","21034","71","3","3","lose","go","1"
"pit-trial","196","1356438","0.0-76.0","battery-v0.2","","""event"",""trial"",""time""
""fullscreenenter"",""1"",""2617""
","
","
","""event"",""trial"",""time""
""fullscreenenter"",""1"",""2617""
","
","","","1267.7999999970198","","","11","21034","7070","s","elianto","#3366ff99","-1"," ","0","0","[2119.3999999910593,3055,3375.3999999910593,3599]","4","2","","","21034","72","4","2","win","no-go","0"
"pit-trial","197","1361293","0.0-77.0","battery-v0.2","","""event"",""trial"",""time""
""fullscreenenter"",""1"",""2617""
","
","
","""event"",""trial"",""time""
""fullscreenenter"",""1"",""2617""
","
","","","-1","","","11","21034","7070","w","elianto","#f73b6a7A"," ","-1","0","0","[2964.7999999970198]","1","2","","","21034","73","3","3","lose","go","1"
"pit-trial","198","1365102","0.0-78.0","battery-v0.2","","""event"",""trial"",""time""
""fullscreenenter"",""1"",""2617""
","
","
","""event"",""trial"",""time""
""fullscreenenter"",""1"",""2617""
","
","","","955.2000000029802","","","11","21034","7070","s","elianto","#3366ff99","-1"," ","0","0","[1806,3766.2999999970198]","2","2","","","21034","74","4","2","win","no-go","0"
"pit-trial","199","1369158","0.0-79.0","battery-v0.2","","""event"",""trial"",""time""
""fullscreenenter"",""1"",""2617""
","
","
","""event"",""trial"",""time""
""fullscreenenter"",""1"",""2617""
","
","","","1202.7000000029802","","","11","21034","7070","p","elianto","#3366ff99"," "," ","1","+10","[2053.2000000029802]","1","2","","","21034","75","5","1","win","go","0"
"pit-trial","200","1373342","0.0-80.0","battery-v0.2","","""event"",""trial"",""time""
""fullscreenenter"",""1"",""2617""
","
","
","""event"",""trial"",""time""
""fullscreenenter"",""1"",""2617""
","
","","","1330.2000000029802","","","11","21034","7070","d","elianto","#3366ff99"," "," ","1","+10","[2181.0999999940395]","1","2","","","21034","76","1","1","win","go","0"
"pit-trial","201","1378044","0.0-81.0","battery-v0.2","","""event"",""trial"",""time""
""fullscreenenter"",""1"",""2617""
","
","
","""event"",""trial"",""time""
""fullscreenenter"",""1"",""2617""
","
","","","1849.7999999970198","","","11","21034","7070","w","elianto","#f73b6a7A"," "," ","1","0","[2700.1000000089407]","1","2","","","21034","77","3","3","lose","go","0"
"pit-trial","202","1381807","0.0-82.0","battery-v0.2","","""event"",""trial"",""time""
""fullscreenenter"",""1"",""2617""
","
","
","""event"",""trial"",""time""
""fullscreenenter"",""1"",""2617""
","
","","","908.5","","","11","21034","7070","p","elianto","#3366ff99"," "," ","1","+10","[1759.5]","1","2","","","21034","78","5","1","win","go","0"
"pit-trial","203","1386660","0.0-83.0","battery-v0.2","","""event"",""trial"",""time""
""fullscreenenter"",""1"",""2617""
","
","
","""event"",""trial"",""time""
""fullscreenenter"",""1"",""2617""
","
","","","-1","","","11","21034","7070","g","elianto","#f73b6a7A","-1","-1","1","0","[2924.199999988079]","1","2","","","21034","79","6","4","lose","no-go","0"
"pit-trial","204","1391513","0.0-84.0","battery-v0.2","","""event"",""trial"",""time""
""fullscreenenter"",""1"",""2617""
","
","
","""event"",""trial"",""time""
""fullscreenenter"",""1"",""2617""
","
","","","-1","","","11","21034","7070","s","elianto","#3366ff99","-1","-1","1","+10","[]","0","2","","","21034","80","4","2","win","no-go","0"
"pit-trial","205","1396367","0.0-85.0","battery-v0.2","","""event"",""trial"",""time""
""fullscreenenter"",""1"",""2617""
","
","
","""event"",""trial"",""time""
""fullscreenenter"",""1"",""2617""
","
","","","-1","","","11","21034","7070","g","elianto","#f73b6a7A","-1","-1","1","0","[]","0","2","","","21034","81","6","4","lose","no-go","0"
"pit-trial","206","1399862","0.0-86.0","battery-v0.2","","""event"",""trial"",""time""
""fullscreenenter"",""1"",""2617""
","
","
","""event"",""trial"",""time""
""fullscreenenter"",""1"",""2617""
","
","","","640.7999999970198","","","11","21034","7070","p","elianto","#3366ff99"," "," ","1","0","[1491.5]","1","2","","","21034","82","5","1","win","go","1"
"pit-trial","207","1403687","0.0-87.0","battery-v0.2","","""event"",""trial"",""time""
""fullscreenenter"",""1"",""2617""
","
","
","""event"",""trial"",""time""
""fullscreenenter"",""1"",""2617""
","
","","","969.7999999970198","","","11","21034","7070","s","elianto","#3366ff99","-1"," ","0","0","[1819.9000000059605]","1","2","","","21034","83","4","2","win","no-go","0"
"pit-trial","208","1408541","0.0-88.0","battery-v0.2","","""event"",""trial"",""time""
""fullscreenenter"",""1"",""2617""
","
","
","""event"",""trial"",""time""
""fullscreenenter"",""1"",""2617""
","
","","","-1","","","11","21034","7070","a","elianto","#f73b6a7A"," ","-1","0","-10","[3116]","1","2","","","21034","84","7","3","lose","go","0"
"pit-trial","209","1413395","0.0-89.0","battery-v0.2","","""event"",""trial"",""time""
""fullscreenenter"",""1"",""2617""
","
","
","""event"",""trial"",""time""
""fullscreenenter"",""1"",""2617""
","
","","","-1","","","11","21034","7070","s","elianto","#3366ff99","-1","-1","1","+10","[2909.9000000059605]","1","2","","","21034","85","4","2","win","no-go","0"
"pit-trial","210","1416941","0.0-90.0","battery-v0.2","","""event"",""trial"",""time""
""fullscreenenter"",""1"",""2617""
","
","
","""event"",""trial"",""time""
""fullscreenenter"",""1"",""2617""
","
","","","693.5","","","11","21034","7070","p","elianto","#3366ff99"," "," ","1","+10","[1543.5]","1","2","","","21034","86","5","1","win","go","0"
"pit-trial","211","1421710","0.0-91.0","battery-v0.2","","""event"",""trial"",""time""
""fullscreenenter"",""1"",""2617""
","
","
","""event"",""trial"",""time""
""fullscreenenter"",""1"",""2617""
","
","","","1914.199999988079","","","11","21034","7070","a","elianto","#f73b6a7A"," "," ","1","-10","[2765.0999999940395]","1","2","","","21034","87","7","3","lose","go","1"
"pit-trial","212","1426031","0.0-92.0","battery-v0.2","","""event"",""trial"",""time""
""fullscreenenter"",""1"",""2617""
","
","
","""event"",""trial"",""time""
""fullscreenenter"",""1"",""2617""
","
","","","1466","","","11","21034","7070","g","elianto","#f73b6a7A","-1"," ","0","-10","[2316.7999999970198]","1","2","","","21034","88","6","4","lose","no-go","0"
"pit-trial","213","1430884","0.0-93.0","battery-v0.2","","""event"",""trial"",""time""
""fullscreenenter"",""1"",""2617""
","
","
","""event"",""trial"",""time""
""fullscreenenter"",""1"",""2617""
","
","","","-1","","","11","21034","7070","a","elianto","#f73b6a7A"," ","-1","0","-10","[187.40000000596046]","1","2","","","21034","89","7","3","lose","go","0"
"pit-trial","214","1434926","0.0-94.0","battery-v0.2","","""event"",""trial"",""time""
""fullscreenenter"",""1"",""2617""
","
","
","""event"",""trial"",""time""
""fullscreenenter"",""1"",""2617""
","
","","","1186.9000000059605","","","11","21034","7070","p","elianto","#3366ff99"," "," ","1","+10","[2038.5]","1","2","","","21034","90","5","1","win","go","0"
"pit-trial","215","1439780","0.0-95.0","battery-v0.2","","""event"",""trial"",""time""
""fullscreenenter"",""1"",""2617""
","
","
","""event"",""trial"",""time""
""fullscreenenter"",""1"",""2617""
","
","","","-1","","","11","21034","7070","s","elianto","#3366ff99","-1","-1","1","+10","[]","0","2","","","21034","91","4","2","win","no-go","0"
"pit-trial","216","1444633","0.0-96.0","battery-v0.2","","""event"",""trial"",""time""
""fullscreenenter"",""1"",""2617""
","
","
","""event"",""trial"",""time""
""fullscreenenter"",""1"",""2617""
","
","","","-1","","","11","21034","7070","g","elianto","#f73b6a7A","-1","-1","1","-10","[3480.4000000059605]","1","2","","","21034","92","6","4","lose","no-go","1"
"pit-trial","217","1449488","0.0-97.0","battery-v0.2","","""event"",""trial"",""time""
""fullscreenenter"",""1"",""2617""
","
","
","""event"",""trial"",""time""
""fullscreenenter"",""1"",""2617""
","
","","","-1","","","11","21034","7070","g","elianto","#f73b6a7A","-1","-1","1","0","[]","0","2","","","21034","93","6","4","lose","no-go","0"
"pit-trial","218","1452845","0.0-98.0","battery-v0.2","","""event"",""trial"",""time""
""fullscreenenter"",""1"",""2617""
","
","
","""event"",""trial"",""time""
""fullscreenenter"",""1"",""2617""
","
","","","503.40000000596046","","","11","21034","7070","p","elianto","#3366ff99"," "," ","1","+10","[1353.8999999910593]","1","2","","","21034","94","5","1","win","go","0"
"pit-trial","219","1456742","0.0-99.0","battery-v0.2","","""event"",""trial"",""time""
""fullscreenenter"",""1"",""2617""
","
","
","""event"",""trial"",""time""
""fullscreenenter"",""1"",""2617""
","
","","","1042.5","","","11","21034","7070","l","elianto","#3366ff99","-1"," ","0","0","[1893.7000000029802]","1","2","","","21034","95","8","2","win","no-go","0"
"pit-trial","220","1460678","0.0-100.0","battery-v0.2","","""event"",""trial"",""time""
""fullscreenenter"",""1"",""2617""
","
","
","""event"",""trial"",""time""
""fullscreenenter"",""1"",""2617""
","
","","","1082.6000000089407","","","11","21034","7070","a","elianto","#f73b6a7A"," "," ","1","0","[1933]","1","2","","","21034","96","7","3","lose","go","0"
"pit-trial","221","1464621","0.0-101.0","battery-v0.2","","""event"",""trial"",""time""
""fullscreenenter"",""1"",""2617""
","
","
","""event"",""trial"",""time""
""fullscreenenter"",""1"",""2617""
","
","","","1090.7000000029802","","","11","21034","7070","g","elianto","#f73b6a7A","-1"," ","0","-10","[1940.800000011921,2852.6000000089407]","2","2","","","21034","97","6","4","lose","no-go","0"
"pit-trial","222","1468134","0.0-102.0","battery-v0.2","","""event"",""trial"",""time""
""fullscreenenter"",""1"",""2617""
","
","
","""event"",""trial"",""time""
""fullscreenenter"",""1"",""2617""
","
","","","659.4000000059605","","","11","21034","7070","p","elianto","#3366ff99"," "," ","1","+10","[1510]","1","2","","","21034","98","5","1","win","go","0"
"pit-trial","223","1471694","0.0-103.0","battery-v0.2","","""event"",""trial"",""time""
""fullscreenenter"",""1"",""2617""
","
","
","""event"",""trial"",""time""
""fullscreenenter"",""1"",""2617""
","
","","","705.2000000029802","","","11","21034","7070","l","elianto","#3366ff99","-1"," ","0","0","[1556.2999999970198]","1","2","","","21034","99","8","2","win","no-go","0"
"pit-trial","224","1475670","0.0-104.0","battery-v0.2","","""event"",""trial"",""time""
""fullscreenenter"",""1"",""2617""
","
","
","""event"",""trial"",""time""
""fullscreenenter"",""1"",""2617""
","
","","","1121.4000000059605","","","11","21034","7070","a","elianto","#f73b6a7A"," "," ","1","0","[1972.0999999940395]","1","2","","","21034","100","7","3","lose","go","0"
"pit-trial","225","1479381","0.0-105.0","battery-v0.2","","""event"",""trial"",""time""
""fullscreenenter"",""1"",""2617""
","
","
","""event"",""trial"",""time""
""fullscreenenter"",""1"",""2617""
","
","","","859","","","11","21034","7070","p","elianto","#3366ff99"," "," ","1","+10","[1709.2000000029802]","1","2","","","21034","101","5","1","win","go","0"
"pit-trial","226","1484236","0.0-106.0","battery-v0.2","","""event"",""trial"",""time""
""fullscreenenter"",""1"",""2617""
","
","
","""event"",""trial"",""time""
""fullscreenenter"",""1"",""2617""
","
","","","-1","","","11","21034","7070","l","elianto","#3366ff99","-1","-1","1","0","[]","0","2","","","21034","102","8","2","win","no-go","1"
"pit-trial","227","1488414","0.0-107.0","battery-v0.2","","""event"",""trial"",""time""
""fullscreenenter"",""1"",""2617""
","
","
","""event"",""trial"",""time""
""fullscreenenter"",""1"",""2617""
","
","","","1323.2000000029802","","","11","21034","7070","u","elianto","#3366ff99","-1"," ","0","0","[2174.4000000059605]","1","2","","","21034","103","9","2","win","no-go","0"
"pit-trial","228","1492853","0.0-108.0","battery-v0.2","","""event"",""trial"",""time""
""fullscreenenter"",""1"",""2617""
","
","
","""event"",""trial"",""time""
""fullscreenenter"",""1"",""2617""
","
","","","1585.2000000029802","","","11","21034","7070","g","elianto","#f73b6a7A","-1"," ","0","-10","[2436]","1","2","","","21034","104","6","4","lose","no-go","0"
"pit-trial","229","1497414","0.0-109.0","battery-v0.2","","""event"",""trial"",""time""
""fullscreenenter"",""1"",""2617""
","
","
","""event"",""trial"",""time""
""fullscreenenter"",""1"",""2617""
","
","","","1707.0999999940395","","","11","21034","7070","l","elianto","#3366ff99","-1"," ","0","0","[2557.2999999970198]","1","2","","","21034","105","8","2","win","no-go","0"
"pit-trial","230","1502267","0.0-110.0","battery-v0.2","","""event"",""trial"",""time""
""fullscreenenter"",""1"",""2617""
","
","
","""event"",""trial"",""time""
""fullscreenenter"",""1"",""2617""
","
","","","-1","","","11","21034","7070","g","elianto","#f73b6a7A","-1","-1","1","0","[]","0","2","","","21034","106","6","4","lose","no-go","0"
"pit-trial","231","1506990","0.0-111.0","battery-v0.2","","""event"",""trial"",""time""
""fullscreenenter"",""1"",""2617""
","
","
","""event"",""trial"",""time""
""fullscreenenter"",""1"",""2617""
","
","","","1867.7999999970198","","","11","21034","7070","p","elianto","#3366ff99"," "," ","1","+10","[2719.0999999940395]","1","2","","","21034","107","5","1","win","go","0"
"pit-trial","232","1511844","0.0-112.0","battery-v0.2","","""event"",""trial"",""time""
""fullscreenenter"",""1"",""2617""
","
","
","""event"",""trial"",""time""
""fullscreenenter"",""1"",""2617""
","
","","","-1","","","11","21034","7070","u","elianto","#3366ff99","-1","-1","1","+10","[]","0","2","","","21034","108","9","2","win","no-go","0"
"pit-trial","233","1516698","0.0-113.0","battery-v0.2","","""event"",""trial"",""time""
""fullscreenenter"",""1"",""2617""
","
","
","""event"",""trial"",""time""
""fullscreenenter"",""1"",""2617""
","
","","","-1","","","11","21034","7070","l","elianto","#3366ff99","-1","-1","1","+10","[]","0","2","","","21034","109","8","2","win","no-go","0"
"pit-trial","234","1521552","0.0-114.0","battery-v0.2","","""event"",""trial"",""time""
""fullscreenenter"",""1"",""2617""
","
","
","""event"",""trial"",""time""
""fullscreenenter"",""1"",""2617""
","
","","","-1","","","11","21034","7070","g","elianto","#f73b6a7A","-1","-1","1","0","[]","0","2","","","21034","110","6","4","lose","no-go","0"
"pit-trial","235","1525526","0.0-115.0","battery-v0.2","","""event"",""trial"",""time""
""fullscreenenter"",""1"",""2617""
","
","
","""event"",""trial"",""time""
""fullscreenenter"",""1"",""2617""
","
","","","1119.1000000089407","","","11","21034","7070","p","elianto","#3366ff99"," "," ","1","0","[1970]","1","2","","","21034","111","5","1","win","go","1"
"pit-trial","236","1530379","0.0-116.0","battery-v0.2","","""event"",""trial"",""time""
""fullscreenenter"",""1"",""2617""
","
","
","""event"",""trial"",""time""
""fullscreenenter"",""1"",""2617""
","
","","","-1","","","11","21034","7070","u","elianto","#3366ff99","-1","-1","1","0","[]","0","2","","","21034","112","9","2","win","no-go","1"
"pit-trial","237","1535233","0.0-117.0","battery-v0.2","","""event"",""trial"",""time""
""fullscreenenter"",""1"",""2617""
","
","
","""event"",""trial"",""time""
""fullscreenenter"",""1"",""2617""
","
","","","-1","","","11","21034","7070","a","elianto","#f73b6a7A"," ","-1","0","-10","[]","0","2","","","21034","113","7","3","lose","go","0"
"pit-trial","238","1540086","0.0-118.0","battery-v0.2","","""event"",""trial"",""time""
""fullscreenenter"",""1"",""2617""
","
","
","""event"",""trial"",""time""
""fullscreenenter"",""1"",""2617""
","
","","","-1","","","11","21034","7070","u","elianto","#3366ff99","-1","-1","1","0","[]","0","2","","","21034","114","9","2","win","no-go","1"
"pit-trial","239","1544939","0.0-119.0","battery-v0.2","","""event"",""trial"",""time""
""fullscreenenter"",""1"",""2617""
","
","
","""event"",""trial"",""time""
""fullscreenenter"",""1"",""2617""
","
","","","-1","","","11","21034","7070","l","elianto","#3366ff99","-1","-1","1","+10","[]","0","2","","","21034","115","8","2","win","no-go","0"
"pit-trial","240","1549794","0.0-120.0","battery-v0.2","","""event"",""trial"",""time""
""fullscreenenter"",""1"",""2617""
","
","
","""event"",""trial"",""time""
""fullscreenenter"",""1"",""2617""
","
","","","-1","","","11","21034","7070","p","elianto","#3366ff99"," ","-1","0","0","[]","0","2","","","21034","116","5","1","win","go","0"
"pit-trial","241","1554648","0.0-121.0","battery-v0.2","","""event"",""trial"",""time""
""fullscreenenter"",""1"",""2617""
","
","
","""event"",""trial"",""time""
""fullscreenenter"",""1"",""2617""
","
","","","-1","","","11","21034","7070","g","elianto","#f73b6a7A","-1","-1","1","-10","[]","0","2","","","21034","117","6","4","lose","no-go","1"
"pit-trial","242","1558502","0.0-122.0","battery-v0.2","","""event"",""trial"",""time""
""fullscreenenter"",""1"",""2617""
","
","
","""event"",""trial"",""time""
""fullscreenenter"",""1"",""2617""
","
","","","999.7999999970198","","","11","21034","7070","p","elianto","#3366ff99"," "," ","1","+10","[1850.5]","1","2","","","21034","118","5","1","win","go","0"
"pit-trial","243","1563355","0.0-123.0","battery-v0.2","","""event"",""trial"",""time""
""fullscreenenter"",""1"",""2617""
","
","
","""event"",""trial"",""time""
""fullscreenenter"",""1"",""2617""
","
","","","-1","","","11","21034","7070","u","elianto","#3366ff99","-1","-1","1","+10","[4260.399999991059]","1","2","","","21034","119","9","2","win","no-go","0"
"pit-trial","244","1568209","0.0-124.0","battery-v0.2","","""event"",""trial"",""time""
""fullscreenenter"",""1"",""2617""
","
","
","""event"",""trial"",""time""
""fullscreenenter"",""1"",""2617""
","
","","","-1","","","11","21034","7070","l","elianto","#3366ff99","-1","-1","1","+10","[]","0","2","","","21034","120","8","2","win","no-go","0"
"pit-trial","245","1573063","0.0-125.0","battery-v0.2","","""event"",""trial"",""time""
""fullscreenenter"",""1"",""2617""
","
","
","""event"",""trial"",""time""
""fullscreenenter"",""1"",""2617""
","
","","","-1","","","11","21034","7070","p","elianto","#3366ff99"," ","-1","0","+10","[]","0","2","","","21034","121","5","1","win","go","1"
"pit-trial","246","1577917","0.0-126.0","battery-v0.2","","""event"",""trial"",""time""
""fullscreenenter"",""1"",""2617""
","
","
","""event"",""trial"",""time""
""fullscreenenter"",""1"",""2617""
","
","","","-1","","","11","21034","7070","l","elianto","#3366ff99","-1","-1","1","+10","[]","0","2","","","21034","122","8","2","win","no-go","0"
"pit-trial","247","1582772","0.0-127.0","battery-v0.2","","""event"",""trial"",""time""
""fullscreenenter"",""1"",""2617""
","
","
","""event"",""trial"",""time""
""fullscreenenter"",""1"",""2617""
","
","","","-1","","","11","21034","7070","a","elianto","#f73b6a7A"," ","-1","0","-10","[3684.4000000059605]","1","2","","","21034","123","7","3","lose","go","0"
"pit-trial","248","1587625","0.0-128.0","battery-v0.2","","""event"",""trial"",""time""
""fullscreenenter"",""1"",""2617""
","
","
","""event"",""trial"",""time""
""fullscreenenter"",""1"",""2617""
","
","","","-1","","","11","21034","7070","u","elianto","#3366ff99","-1","-1","1","+10","[]","0","2","","","21034","124","9","2","win","no-go","0"
"pit-trial","249","1592478","0.0-129.0","battery-v0.2","","""event"",""trial"",""time""
""fullscreenenter"",""1"",""2617""
","
","
","""event"",""trial"",""time""
""fullscreenenter"",""1"",""2617""
","
","","","-1","","","11","21034","7070","l","elianto","#3366ff99","-1","-1","1","+10","[]","0","2","","","21034","125","8","2","win","no-go","0"
"pit-trial","250","1597332","0.0-130.0","battery-v0.2","","""event"",""trial"",""time""
""fullscreenenter"",""1"",""2617""
","
","
","""event"",""trial"",""time""
""fullscreenenter"",""1"",""2617""
","
","","","-1","","","11","21034","7070","u","elianto","#3366ff99","-1","-1","1","0","[]","0","2","","","21034","126","9","2","win","no-go","1"
"pit-trial","251","1602187","0.0-131.0","battery-v0.2","","""event"",""trial"",""time""
""fullscreenenter"",""1"",""2617""
","
","
","""event"",""trial"",""time""
""fullscreenenter"",""1"",""2617""
","
","","","-1","","","11","21034","7070","g","elianto","#f73b6a7A","-1","-1","1","0","[]","0","2","","","21034","127","6","4","lose","no-go","0"
"pit-trial","252","1606318","0.0-132.0","battery-v0.2","","""event"",""trial"",""time""
""fullscreenenter"",""1"",""2617""
","
","
","""event"",""trial"",""time""
""fullscreenenter"",""1"",""2617""
","
","","","1277.4000000059605","","","11","21034","7070","a","elianto","#f73b6a7A"," "," ","1","0","[2127.5]","1","2","","","21034","128","7","3","lose","go","0"
"pit-trial","253","1611172","0.0-133.0","battery-v0.2","","""event"",""trial"",""time""
""fullscreenenter"",""1"",""2617""
","
","
","""event"",""trial"",""time""
""fullscreenenter"",""1"",""2617""
","
","","","-1","","","11","21034","7070","l","elianto","#3366ff99","-1","-1","1","+10","[]","0","2","","","21034","129","8","2","win","no-go","0"
"pit-trial","254","1616025","0.0-134.0","battery-v0.2","","""event"",""trial"",""time""
""fullscreenenter"",""1"",""2617""
","
","
","""event"",""trial"",""time""
""fullscreenenter"",""1"",""2617""
","
","","","-1","","","11","21034","7070","a","elianto","#f73b6a7A"," ","-1","0","-10","[]","0","2","","","21034","130","7","3","lose","go","0"
"pit-trial","255","1620879","0.0-135.0","battery-v0.2","","""event"",""trial"",""time""
""fullscreenenter"",""1"",""2617""
","
","
","""event"",""trial"",""time""
""fullscreenenter"",""1"",""2617""
","
","","","-1","","","11","21034","7070","u","elianto","#3366ff99","-1","-1","1","+10","[]","0","2","","","21034","131","9","2","win","no-go","0"
"pit-trial","256","1625734","0.0-136.0","battery-v0.2","","""event"",""trial"",""time""
""fullscreenenter"",""1"",""2617""
","
","
","""event"",""trial"",""time""
""fullscreenenter"",""1"",""2617""
","
","","","-1","","","11","21034","7070","g","elianto","#f73b6a7A","-1","-1","1","0","[3858.5999999940395]","1","2","","","21034","132","6","4","lose","no-go","0"
"pit-trial","257","1630588","0.0-137.0","battery-v0.2","","""event"",""trial"",""time""
""fullscreenenter"",""1"",""2617""
","
","
","""event"",""trial"",""time""
""fullscreenenter"",""1"",""2617""
","
","","","-1","","","11","21034","7070","l","elianto","#3366ff99","-1","-1","1","+10","[2883.5999999940395]","1","2","","","21034","133","8","2","win","no-go","0"
"pit-trial","258","1635441","0.0-138.0","battery-v0.2","","""event"",""trial"",""time""
""fullscreenenter"",""1"",""2617""
","
","
","""event"",""trial"",""time""
""fullscreenenter"",""1"",""2617""
","
","","","-1","","","11","21034","7070","g","elianto","#f73b6a7A","-1","-1","1","0","[4670.29999999702]","1","2","","","21034","134","6","4","lose","no-go","0"
"pit-trial","259","1640296","0.0-139.0","battery-v0.2","","""event"",""trial"",""time""
""fullscreenenter"",""1"",""2617""
","
","
","""event"",""trial"",""time""
""fullscreenenter"",""1"",""2617""
","
","","","-1","","","11","21034","7070","u","elianto","#3366ff99","-1","-1","1","+10","[]","0","2","","","21034","135","9","2","win","no-go","0"
"pit-trial","260","1645149","0.0-140.0","battery-v0.2","","""event"",""trial"",""time""
""fullscreenenter"",""1"",""2617""
","
","
","""event"",""trial"",""time""
""fullscreenenter"",""1"",""2617""
","
","","","-1","","","11","21034","7070","a","elianto","#f73b6a7A"," ","-1","0","-10","[]","0","2","","","21034","136","7","3","lose","go","0"
"pit-trial","261","1650002","0.0-141.0","battery-v0.2","","""event"",""trial"",""time""
""fullscreenenter"",""1"",""2617""
","
","
","""event"",""trial"",""time""
""fullscreenenter"",""1"",""2617""
","
","","","-1","","","11","21034","7070","a","elianto","#f73b6a7A"," ","-1","0","-10","[4773.600000008941]","1","2","","","21034","137","7","3","lose","go","0"
"pit-trial","262","1654856","0.0-142.0","battery-v0.2","","""event"",""trial"",""time""
""fullscreenenter"",""1"",""2617""
","
","
","""event"",""trial"",""time""
""fullscreenenter"",""1"",""2617""
","
","","","-1","","","11","21034","7070","g","elianto","#f73b6a7A","-1","-1","1","0","[3751.5999999940395]","1","2","","","21034","138","6","4","lose","no-go","0"
"pit-trial","263","1658333","0.0-143.0","battery-v0.2","","""event"",""trial"",""time""
""fullscreenenter"",""1"",""2617""
","
","
","""event"",""trial"",""time""
""fullscreenenter"",""1"",""2617""
","
","","","623.5999999940395","","","11","21034","7070","l","elianto","#3366ff99","-1"," ","0","0","[712.7999999970198,1473.5,2434]","3","2","","","21034","139","8","2","win","no-go","0"
"pit-trial","264","1662069","0.0-144.0","battery-v0.2","","""event"",""trial"",""time""
""fullscreenenter"",""1"",""2617""
","
","
","""event"",""trial"",""time""
""fullscreenenter"",""1"",""2617""
","
","","","882.2999999970198","","","11","21034","7070","u","elianto","#3366ff99","-1"," ","0","0","[283.59999999403954,1732.7999999970198]","2","2","","","21034","140","9","2","win","no-go","0"
"pit-instructions","265","1834658","0.0-145.0","battery-v0.2","","""event"",""trial"",""time""
""fullscreenenter"",""1"",""2617""
","
","
","""event"",""trial"",""time""
""fullscreenenter"",""1"",""2617""
","
