"trial_type","trial_index","time_elapsed","internal_node_id","task_version","subject_id","interactions","blur_events","focus_events","fullscreenenter_events","fullscreenexit_events","success","view_history","rt","responses","num_errors","age","subject","participantId","rune","rune_set","hex","correct","choice","accuracy","outcome","keys","total_keys","block","practice","value","sub","trial","stimulus","robot","valence","action","sham"
"pavlovia","0","6","0.0-0.0","battery-v0.2","","""event"",""trial"",""time""
""blur"",""1"",""138""
""focus"",""1"",""252""
""blur"",""1"",""2865""
""focus"",""1"",""5759""
""blur"",""1"",""7750""
""focus"",""1"",""85099""
""fullscreenenter"",""1"",""85223""
","""event"",""trial"",""time""
""blur"",""1"",""138""
""blur"",""1"",""2865""
""blur"",""1"",""7750""
","""event"",""trial"",""time""
""focus"",""1"",""252""
""focus"",""1"",""5759""
""focus"",""1"",""85099""
","""event"",""trial"",""time""
""fullscreenenter"",""1"",""85223""
","
","","","","","","","","","","","","","","","","","","","","","","","","","","",""
"fullscreen","1","86194","0.0-1.0","battery-v0.2","","""event"",""trial"",""time""
""blur"",""1"",""138""
""focus"",""1"",""252""
""blur"",""1"",""2865""
""focus"",""1"",""5759""
""blur"",""1"",""7750""
""focus"",""1"",""85099""
""fullscreenenter"",""1"",""85223""
","""event"",""trial"",""time""
""blur"",""1"",""138""
""blur"",""1"",""2865""
""blur"",""1"",""7750""
","""event"",""trial"",""time""
""focus"",""1"",""252""
""focus"",""1"",""5759""
""focus"",""1"",""85099""
","""event"",""trial"",""time""
""fullscreenenter"",""1"",""85223""
","
","true","","","","","","","","","","","","","","","","","","","","","","","","","",""
"pit-instructions","2","90083","0.0-2.0-0.0","battery-v0.2","","""event"",""trial"",""time""
""blur"",""1"",""138""
""focus"",""1"",""252""
""blur"",""1"",""2865""
""focus"",""1"",""5759""
""blur"",""1"",""7750""
""focus"",""1"",""85099""
""fullscreenenter"",""1"",""85223""
","""event"",""trial"",""time""
""blur"",""1"",""138""
""blur"",""1"",""2865""
""blur"",""1"",""7750""
","""event"",""trial"",""time""
""focus"",""1"",""252""
""focus"",""1"",""5759""
""focus"",""1"",""85099""
","""event"",""trial"",""time""
""fullscreenenter"",""1"",""85223""
","
","","[{""page_index"":0,""viewing_time"":3886.4000000059605}]","3886.9000000059605","","","","","","","","","","","","","","","","","","","","","","","",""
"pit-comprehension","3","92380","0.0-2.0-1.0-0.0","battery-v0.2","","""event"",""trial"",""time""
""blur"",""1"",""138""
""focus"",""1"",""252""
""blur"",""1"",""2865""
""focus"",""1"",""5759""
""blur"",""1"",""7750""
""focus"",""1"",""85099""
""fullscreenenter"",""1"",""85223""
","""event"",""trial"",""time""
""blur"",""1"",""138""
""blur"",""1"",""2865""
""blur"",""1"",""7750""
","""event"",""trial"",""time""
""focus"",""1"",""252""
""focus"",""1"",""5759""
""focus"",""1"",""85099""
","""event"",""trial"",""time""
""fullscreenenter"",""1"",""85223""
","
","","","2294.5","[""shark""]","0","22","10616","5009","","","","","","","","","","","","","","","","","","",""
"pit-instructions","4","96075","0.0-2.0-1.0-1.0","battery-v0.2","","""event"",""trial"",""time""
""blur"",""1"",""138""
""focus"",""1"",""252""
""blur"",""1"",""2865""
""focus"",""1"",""5759""
""blur"",""1"",""7750""
""focus"",""1"",""85099""
""fullscreenenter"",""1"",""85223""
","""event"",""trial"",""time""
""blur"",""1"",""138""
""blur"",""1"",""2865""
""blur"",""1"",""7750""
","""event"",""trial"",""time""
""focus"",""1"",""252""
""focus"",""1"",""5759""
""focus"",""1"",""85099""
","""event"",""trial"",""time""
""fullscreenenter"",""1"",""85223""
","
","","[{""page_index"":0,""viewing_time"":3688.0999999940395}]","3688.4000000059605","","","","","","","","","","","","","","","","","","","","","","","",""
"pit-comprehension","5","97606","0.0-2.0-2.0-0.0","battery-v0.2","","""event"",""trial"",""time""
""blur"",""1"",""138""
""focus"",""1"",""252""
""blur"",""1"",""2865""
""focus"",""1"",""5759""
""blur"",""1"",""7750""
""focus"",""1"",""85099""
""fullscreenenter"",""1"",""85223""
","""event"",""trial"",""time""
""blur"",""1"",""138""
""blur"",""1"",""2865""
""blur"",""1"",""7750""
","""event"",""trial"",""time""
""focus"",""1"",""252""
""focus"",""1"",""5759""
""focus"",""1"",""85099""
","""event"",""trial"",""time""
""fullscreenenter"",""1"",""85223""
","
","","","1528.199999988079","[""tiger""]","0","22","10616","5009","","","","","","","","","","","","","","","","","","",""
"pit-instructions","6","98363","0.0-2.0-2.0-1.0","battery-v0.2","","""event"",""trial"",""time""
""blur"",""1"",""138""
""focus"",""1"",""252""
""blur"",""1"",""2865""
""focus"",""1"",""5759""
""blur"",""1"",""7750""
""focus"",""1"",""85099""
""fullscreenenter"",""1"",""85223""
","""event"",""trial"",""time""
""blur"",""1"",""138""
""blur"",""1"",""2865""
""blur"",""1"",""7750""
","""event"",""trial"",""time""
""focus"",""1"",""252""
""focus"",""1"",""5759""
""focus"",""1"",""85099""
","""event"",""trial"",""time""
""fullscreenenter"",""1"",""85223""
","
","","[{""page_index"":0,""viewing_time"":755.0999999940395}]","755.5","","","","","","","","","","","","","","","","","","","","","","","",""
"pit-instructions","7","196606","0.0-2.0-3.0","battery-v0.2","","""event"",""trial"",""time""
""blur"",""1"",""138""
""focus"",""1"",""252""
""blur"",""1"",""2865""
""focus"",""1"",""5759""
""blur"",""1"",""7750""
""focus"",""1"",""85099""
""fullscreenenter"",""1"",""85223""
","""event"",""trial"",""time""
""blur"",""1"",""138""
""blur"",""1"",""2865""
""blur"",""1"",""7750""
","""event"",""trial"",""time""
""focus"",""1"",""252""
""focus"",""1"",""5759""
""focus"",""1"",""85099""
","""event"",""trial"",""time""
""fullscreenenter"",""1"",""85223""
","
","","[{""page_index"":0,""viewing_time"":8143.300000011921},{""page_index"":1,""viewing_time"":5205.0999999940395},{""page_index"":2,""viewing_time"":6607.5},{""page_index"":3,""viewing_time"":5407.5999999940395},{""page_index"":4,""viewing_time"":5332.5999999940395},{""page_index"":5,""viewing_time"":6606.100000023842},{""page_index"":6,""viewing_time"":7258.5},{""page_index"":7,""viewing_time"":7355.0999999940395},{""page_index"":8,""viewing_time"":6659.5999999940395},{""page_index"":9,""viewing_time"":11734.40000000596},{""page_index"":10,""viewing_time"":7899.299999982119},{""page_index"":11,""viewing_time"":7244},{""page_index"":12,""viewing_time"":7271.200000017881},{""page_index"":13,""viewing_time"":5516.9000000059605}]","98241.5","","","","","","","","","","","","","","","","","","","","","","","",""
"pit-trial","8","200179","0.0-2.0-4.0-0.0","battery-v0.2","","""event"",""trial"",""time""
""blur"",""1"",""138""
""focus"",""1"",""252""
""blur"",""1"",""2865""
""focus"",""1"",""5759""
""blur"",""1"",""7750""
""focus"",""1"",""85099""
""fullscreenenter"",""1"",""85223""
","""event"",""trial"",""time""
""blur"",""1"",""138""
""blur"",""1"",""2865""
""blur"",""1"",""7750""
","""event"",""trial"",""time""
""focus"",""1"",""252""
""focus"",""1"",""5759""
""focus"",""1"",""85099""
","""event"",""trial"",""time""
""fullscreenenter"",""1"",""85223""
","
","","","705.5","","","22","10616","5009","&#9784;","elianto","#FFFFF080"," "," ","1","&#10004","[1564.6000000238419]","1","0","0","","","","","","","",""
"pit-trial","9","203640","0.0-2.0-4.1-0.1","battery-v0.2","","""event"",""trial"",""time""
""blur"",""1"",""138""
""focus"",""1"",""252""
""blur"",""1"",""2865""
""focus"",""1"",""5759""
""blur"",""1"",""7750""
""focus"",""1"",""85099""
""fullscreenenter"",""1"",""85223""
","""event"",""trial"",""time""
""blur"",""1"",""138""
""blur"",""1"",""2865""
""blur"",""1"",""7750""
","""event"",""trial"",""time""
""focus"",""1"",""252""
""focus"",""1"",""5759""
""focus"",""1"",""85099""
","""event"",""trial"",""time""
""fullscreenenter"",""1"",""85223""
","
","","","594","","","22","10616","5009","&#9784;","elianto","#FFFFF080"," "," ","1","&#10004","[1448.4000000059605]","1","0","0","","","","","","","",""
"pit-trial","10","207006","0.0-2.0-4.2-0.2","battery-v0.2","","""event"",""trial"",""time""
""blur"",""1"",""138""
""focus"",""1"",""252""
""blur"",""1"",""2865""
""focus"",""1"",""5759""
""blur"",""1"",""7750""
""focus"",""1"",""85099""
""fullscreenenter"",""1"",""85223""
","""event"",""trial"",""time""
""blur"",""1"",""138""
""blur"",""1"",""2865""
""blur"",""1"",""7750""
","""event"",""trial"",""time""
""focus"",""1"",""252""
""focus"",""1"",""5759""
""focus"",""1"",""85099""
","""event"",""trial"",""time""
""fullscreenenter"",""1"",""85223""
","
","","","508.5","","","22","10616","5009","&#9784;","elianto","#FFFFF080"," "," ","1","&#10004","[1360.4000000059605]","1","0","0","","","","","","","",""
"pit-trial","11","210334","0.0-2.0-4.3-0.3","battery-v0.2","","""event"",""trial"",""time""
""blur"",""1"",""138""
""focus"",""1"",""252""
""blur"",""1"",""2865""
""focus"",""1"",""5759""
""blur"",""1"",""7750""
""focus"",""1"",""85099""
""fullscreenenter"",""1"",""85223""
","""event"",""trial"",""time""
""blur"",""1"",""138""
""blur"",""1"",""2865""
""blur"",""1"",""7750""
","""event"",""trial"",""time""
""focus"",""1"",""252""
""focus"",""1"",""5759""
""focus"",""1"",""85099""
","""event"",""trial"",""time""
""fullscreenenter"",""1"",""85223""
","
","","","462","","","22","10616","5009","&#9784;","elianto","#FFFFF080"," "," ","1","&#10004","[1316.4000000059605]","1","0","0","","","","","","","",""
"pit-trial","12","213645","0.0-2.0-4.4-0.4","battery-v0.2","","""event"",""trial"",""time""
""blur"",""1"",""138""
""focus"",""1"",""252""
""blur"",""1"",""2865""
""focus"",""1"",""5759""
""blur"",""1"",""7750""
""focus"",""1"",""85099""
""fullscreenenter"",""1"",""85223""
","""event"",""trial"",""time""
""blur"",""1"",""138""
""blur"",""1"",""2865""
""blur"",""1"",""7750""
","""event"",""trial"",""time""
""focus"",""1"",""252""
""focus"",""1"",""5759""
""focus"",""1"",""85099""
","""event"",""trial"",""time""
""fullscreenenter"",""1"",""85223""
","
","","","448.19999998807907","","","22","10616","5009","&#9784;","elianto","#FFFFF080"," "," ","1","&#10004","[1300.5]","1","0","0","","","","","","","",""
"pit-instructions","13","236040","0.0-2.0-5.0","battery-v0.2","","""event"",""trial"",""time""
""blur"",""1"",""138""
""focus"",""1"",""252""
""blur"",""1"",""2865""
""focus"",""1"",""5759""
""blur"",""1"",""7750""
""focus"",""1"",""85099""
""fullscreenenter"",""1"",""85223""
","""event"",""trial"",""time""
""blur"",""1"",""138""
""blur"",""1"",""2865""
""blur"",""1"",""7750""
","""event"",""trial"",""time""
""focus"",""1"",""252""
""focus"",""1"",""5759""
""focus"",""1"",""85099""
","""event"",""trial"",""time""
""fullscreenenter"",""1"",""85223""
","
","","[{""page_index"":0,""viewing_time"":6430.9000000059605},{""page_index"":1,""viewing_time"":5166.299999982119},{""page_index"":2,""viewing_time"":4890},{""page_index"":3,""viewing_time"":5905.800000011921}]","22393.40000000596","","","","","","","","","","","","","","","","","","","","","","","",""
"pit-trial","14","240909","0.0-2.0-6.0-0.0","battery-v0.2","","""event"",""trial"",""time""
""blur"",""1"",""138""
""focus"",""1"",""252""
""blur"",""1"",""2865""
""focus"",""1"",""5759""
""blur"",""1"",""7750""
""focus"",""1"",""85099""
""fullscreenenter"",""1"",""85223""
","""event"",""trial"",""time""
""blur"",""1"",""138""
""blur"",""1"",""2865""
""blur"",""1"",""7750""
","""event"",""trial"",""time""
""focus"",""1"",""252""
""focus"",""1"",""5759""
""focus"",""1"",""85099""
","""event"",""trial"",""time""
""fullscreenenter"",""1"",""85223""
","
","","","-1","","","22","10616","5009","&#9854;","elianto","#FFFFF080","-1","-1","1","&#10004","[]","0","0","1","","","","","","","",""
"pit-trial","15","245778","0.0-2.0-6.1-0.1","battery-v0.2","","""event"",""trial"",""time""
""blur"",""1"",""138""
""focus"",""1"",""252""
""blur"",""1"",""2865""
""focus"",""1"",""5759""
""blur"",""1"",""7750""
""focus"",""1"",""85099""
""fullscreenenter"",""1"",""85223""
","""event"",""trial"",""time""
""blur"",""1"",""138""
""blur"",""1"",""2865""
""blur"",""1"",""7750""
","""event"",""trial"",""time""
""focus"",""1"",""252""
""focus"",""1"",""5759""
""focus"",""1"",""85099""
","""event"",""trial"",""time""
""fullscreenenter"",""1"",""85223""
","
","","","-1","","","22","10616","5009","&#9854;","elianto","#FFFFF080","-1","-1","1","&#10004","[]","0","0","1","","","","","","","",""
"pit-trial","16","250652","0.0-2.0-6.2-0.2","battery-v0.2","","""event"",""trial"",""time""
""blur"",""1"",""138""
""focus"",""1"",""252""
""blur"",""1"",""2865""
""focus"",""1"",""5759""
""blur"",""1"",""7750""
""focus"",""1"",""85099""
""fullscreenenter"",""1"",""85223""
","""event"",""trial"",""time""
""blur"",""1"",""138""
""blur"",""1"",""2865""
""blur"",""1"",""7750""
","""event"",""trial"",""time""
""focus"",""1"",""252""
""focus"",""1"",""5759""
""focus"",""1"",""85099""
","""event"",""trial"",""time""
""fullscreenenter"",""1"",""85223""
","
","","","-1","","","22","10616","5009","&#9854;","elianto","#FFFFF080","-1","-1","1","&#10004","[]","0","0","1","","","","","","","",""
"pit-trial","17","255518","0.0-2.0-6.3-0.3","battery-v0.2","","""event"",""trial"",""time""
""blur"",""1"",""138""
""focus"",""1"",""252""
""blur"",""1"",""2865""
""focus"",""1"",""5759""
""blur"",""1"",""7750""
""focus"",""1"",""85099""
""fullscreenenter"",""1"",""85223""
","""event"",""trial"",""time""
""blur"",""1"",""138""
""blur"",""1"",""2865""
""blur"",""1"",""7750""
","""event"",""trial"",""time""
""focus"",""1"",""252""
""focus"",""1"",""5759""
""focus"",""1"",""85099""
","""event"",""trial"",""time""
""fullscreenenter"",""1"",""85223""
","
","","","-1","","","22","10616","5009","&#9854;","elianto","#FFFFF080","-1","-1","1","&#10004","[]","0","0","1","","","","","","","",""
"pit-trial","18","260397","0.0-2.0-6.4-0.4","battery-v0.2","","""event"",""trial"",""time""
""blur"",""1"",""138""
""focus"",""1"",""252""
""blur"",""1"",""2865""
""focus"",""1"",""5759""
""blur"",""1"",""7750""
""focus"",""1"",""85099""
""fullscreenenter"",""1"",""85223""
","""event"",""trial"",""time""
""blur"",""1"",""138""
""blur"",""1"",""2865""
""blur"",""1"",""7750""
","""event"",""trial"",""time""
""focus"",""1"",""252""
""focus"",""1"",""5759""
""focus"",""1"",""85099""
","""event"",""trial"",""time""
""fullscreenenter"",""1"",""85223""
","
","","","-1","","","22","10616","5009","&#9854;","elianto","#FFFFF080","-1","-1","1","&#10004","[]","0","0","1","","","","","","","",""
"pit-instructions","19","382178","0.0-2.0-7.0","battery-v0.2","","""event"",""trial"",""time""
""blur"",""1"",""138""
""focus"",""1"",""252""
""blur"",""1"",""2865""
""focus"",""1"",""5759""
""blur"",""1"",""7750""
""focus"",""1"",""85099""
""fullscreenenter"",""1"",""85223""
","""event"",""trial"",""time""
""blur"",""1"",""138""
""blur"",""1"",""2865""
""blur"",""1"",""7750""
","""event"",""trial"",""time""
""focus"",""1"",""252""
""focus"",""1"",""5759""
""focus"",""1"",""85099""
","""event"",""trial"",""time""
""fullscreenenter"",""1"",""85223""
","
","","[{""page_index"":0,""viewing_time"":5814},{""page_index"":1,""viewing_time"":7178.800000011921},{""page_index"":2,""viewing_time"":6377.5999999940395},{""page_index"":3,""viewing_time"":6596},{""page_index"":4,""viewing_time"":5912.5999999940395},{""page_index"":5,""viewing_time"":5965.700000017881},{""page_index"":6,""viewing_time"":5038.5},{""page_index"":7,""viewing_time"":7870.5},{""page_index"":8,""viewing_time"":8228.799999982119},{""page_index"":9,""viewing_time"":6612},{""page_index"":10,""viewing_time"":6716.600000023842},{""page_index"":11,""viewing_time"":4546},{""page_index"":12,""viewing_time"":8252.5},{""page_index"":13,""viewing_time"":7610.699999988079},{""page_index"":14,""viewing_time"":7634.5},{""page_index"":15,""viewing_time"":7278.800000011921},{""page_index"":16,""viewing_time"":6412.5999999940395},{""page_index"":17,""viewing_time"":7732.5999999940395}]","121779.20000001788","","","","","","","","","","","","","","","","","","","","","","","",""
"pit-trial","20","385786","0.0-2.0-8.0-0.0","battery-v0.2","","""event"",""trial"",""time""
""blur"",""1"",""138""
""focus"",""1"",""252""
""blur"",""1"",""2865""
""focus"",""1"",""5759""
""blur"",""1"",""7750""
""focus"",""1"",""85099""
""fullscreenenter"",""1"",""85223""
","""event"",""trial"",""time""
""blur"",""1"",""138""
""blur"",""1"",""2865""
""blur"",""1"",""7750""
","""event"",""trial"",""time""
""focus"",""1"",""252""
""focus"",""1"",""5759""
""focus"",""1"",""85099""
","""event"",""trial"",""time""
""fullscreenenter"",""1"",""85223""
","
","","","753.4000000059605","","","22","10616","5009","&#9776;","elianto","#3366ff99"," "," ","1","+10","[1605.300000011921]","1","0","1","","","","","","","",""
"pit-trial","21","389221","0.0-2.0-8.0-1.0","battery-v0.2","","""event"",""trial"",""time""
""blur"",""1"",""138""
""focus"",""1"",""252""
""blur"",""1"",""2865""
""focus"",""1"",""5759""
""blur"",""1"",""7750""
""focus"",""1"",""85099""
""fullscreenenter"",""1"",""85223""
","""event"",""trial"",""time""
""blur"",""1"",""138""
""blur"",""1"",""2865""
""blur"",""1"",""7750""
","""event"",""trial"",""time""
""focus"",""1"",""252""
""focus"",""1"",""5759""
""focus"",""1"",""85099""
","""event"",""trial"",""time""
""fullscreenenter"",""1"",""85223""
","
","","","582.5","","","22","10616","5009","&#9776;","elianto","#3366ff99"," "," ","1","+10","[1433.0999999940395]","1","0","1","","","","","","","",""
"pit-trial","22","392591","0.0-2.0-8.0-2.0","battery-v0.2","","""event"",""trial"",""time""
""blur"",""1"",""138""
""focus"",""1"",""252""
""blur"",""1"",""2865""
""focus"",""1"",""5759""
""blur"",""1"",""7750""
""focus"",""1"",""85099""
""fullscreenenter"",""1"",""85223""
","""event"",""trial"",""time""
""blur"",""1"",""138""
""blur"",""1"",""2865""
""blur"",""1"",""7750""
","""event"",""trial"",""time""
""focus"",""1"",""252""
""focus"",""1"",""5759""
""focus"",""1"",""85099""
","""event"",""trial"",""time""
""fullscreenenter"",""1"",""85223""
","
","","","513.5999999940395","","","22","10616","5009","&#9776;","elianto","#3366ff99"," "," ","1","+10","[1366.300000011921]","1","0","1","","","","","","","",""
"pit-trial","23","395965","0.0-2.0-8.0-3.0","battery-v0.2","","""event"",""trial"",""time""
""blur"",""1"",""138""
""focus"",""1"",""252""
""blur"",""1"",""2865""
""focus"",""1"",""5759""
""blur"",""1"",""7750""
""focus"",""1"",""85099""
""fullscreenenter"",""1"",""85223""
","""event"",""trial"",""time""
""blur"",""1"",""138""
""blur"",""1"",""2865""
""blur"",""1"",""7750""
","""event"",""trial"",""time""
""focus"",""1"",""252""
""focus"",""1"",""5759""
""focus"",""1"",""85099""
","""event"",""trial"",""time""
""fullscreenenter"",""1"",""85223""
","
","","","507.2999999821186","","","22","10616","5009","&#9776;","elianto","#3366ff99"," "," ","1","0","[1361.199999988079]","1","0","1","","","","","","","",""
"pit-trial","24","399242","0.0-2.0-8.0-4.0","battery-v0.2","","""event"",""trial"",""time""
""blur"",""1"",""138""
""focus"",""1"",""252""
""blur"",""1"",""2865""
""focus"",""1"",""5759""
""blur"",""1"",""7750""
""focus"",""1"",""85099""
""fullscreenenter"",""1"",""85223""
","""event"",""trial"",""time""
""blur"",""1"",""138""
""blur"",""1"",""2865""
""blur"",""1"",""7750""
","""event"",""trial"",""time""
""focus"",""1"",""252""
""focus"",""1"",""5759""
""focus"",""1"",""85099""
","""event"",""trial"",""time""
""fullscreenenter"",""1"",""85223""
","
","","","413.80000001192093","","","22","10616","5009","&#9776;","elianto","#3366ff99"," "," ","1","+10","[1265.2000000178814]","1","0","1","","","","","","","",""
"pit-trial","25","402472","0.0-2.0-8.1-0.1","battery-v0.2","","""event"",""trial"",""time""
""blur"",""1"",""138""
""focus"",""1"",""252""
""blur"",""1"",""2865""
""focus"",""1"",""5759""
""blur"",""1"",""7750""
""focus"",""1"",""85099""
""fullscreenenter"",""1"",""85223""
","""event"",""trial"",""time""
""blur"",""1"",""138""
""blur"",""1"",""2865""
""blur"",""1"",""7750""
","""event"",""trial"",""time""
""focus"",""1"",""252""
""focus"",""1"",""5759""
""focus"",""1"",""85099""
","""event"",""trial"",""time""
""fullscreenenter"",""1"",""85223""
","
","","","359.59999999403954","","","22","10616","5009","&#9776;","elianto","#3366ff99"," "," ","1","+10","[1213.699999988079]","1","0","1","","","","","","","",""
"pit-trial","26","405737","0.0-2.0-8.1-1.1","battery-v0.2","","""event"",""trial"",""time""
""blur"",""1"",""138""
""focus"",""1"",""252""
""blur"",""1"",""2865""
""focus"",""1"",""5759""
""blur"",""1"",""7750""
""focus"",""1"",""85099""
""fullscreenenter"",""1"",""85223""
","""event"",""trial"",""time""
""blur"",""1"",""138""
""blur"",""1"",""2865""
""blur"",""1"",""7750""
","""event"",""trial"",""time""
""focus"",""1"",""252""
""focus"",""1"",""5759""
""focus"",""1"",""85099""
","""event"",""trial"",""time""
""fullscreenenter"",""1"",""85223""
","
","","","399.30000001192093","","","22","10616","5009","&#9776;","elianto","#3366ff99"," "," ","1","+10","[1254.1000000238419]","1","0","1","","","","","","","",""
"pit-trial","27","409011","0.0-2.0-8.1-2.1","battery-v0.2","","""event"",""trial"",""time""
""blur"",""1"",""138""
""focus"",""1"",""252""
""blur"",""1"",""2865""
""focus"",""1"",""5759""
""blur"",""1"",""7750""
""focus"",""1"",""85099""
""fullscreenenter"",""1"",""85223""
","""event"",""trial"",""time""
""blur"",""1"",""138""
""blur"",""1"",""2865""
""blur"",""1"",""7750""
","""event"",""trial"",""time""
""focus"",""1"",""252""
""focus"",""1"",""5759""
""focus"",""1"",""85099""
","""event"",""trial"",""time""
""fullscreenenter"",""1"",""85223""
","
","","","405.60000002384186","","","22","10616","5009","&#9776;","elianto","#3366ff99"," "," ","1","+10","[1264]","1","0","1","","","","","","","",""
"pit-trial","28","412307","0.0-2.0-8.1-3.1","battery-v0.2","","""event"",""trial"",""time""
""blur"",""1"",""138""
""focus"",""1"",""252""
""blur"",""1"",""2865""
""focus"",""1"",""5759""
""blur"",""1"",""7750""
""focus"",""1"",""85099""
""fullscreenenter"",""1"",""85223""
","""event"",""trial"",""time""
""blur"",""1"",""138""
""blur"",""1"",""2865""
""blur"",""1"",""7750""
","""event"",""trial"",""time""
""focus"",""1"",""252""
""focus"",""1"",""5759""
""focus"",""1"",""85099""
","""event"",""trial"",""time""
""fullscreenenter"",""1"",""85223""
","
","","","439.09999999403954","","","22","10616","5009","&#9776;","elianto","#3366ff99"," "," ","1","0","[1294.2999999821186]","1","0","1","","","","","","","",""
"pit-trial","29","415658","0.0-2.0-8.1-4.1","battery-v0.2","","""event"",""trial"",""time""
""blur"",""1"",""138""
""focus"",""1"",""252""
""blur"",""1"",""2865""
""focus"",""1"",""5759""
""blur"",""1"",""7750""
""focus"",""1"",""85099""
""fullscreenenter"",""1"",""85223""
","""event"",""trial"",""time""
""blur"",""1"",""138""
""blur"",""1"",""2865""
""blur"",""1"",""7750""
","""event"",""trial"",""time""
""focus"",""1"",""252""
""focus"",""1"",""5759""
""focus"",""1"",""85099""
","""event"",""trial"",""time""
""fullscreenenter"",""1"",""85223""
","
","","","497.59999999403954","","","22","10616","5009","&#9776;","elianto","#3366ff99"," "," ","1","+10","[1347.8999999761581]","1","0","1","","","","","","","",""
"pit-trial","30","418914","0.0-2.0-8.2-0.2","battery-v0.2","","""event"",""trial"",""time""
""blur"",""1"",""138""
""focus"",""1"",""252""
""blur"",""1"",""2865""
""focus"",""1"",""5759""
""blur"",""1"",""7750""
""focus"",""1"",""85099""
""fullscreenenter"",""1"",""85223""
","""event"",""trial"",""time""
""blur"",""1"",""138""
""blur"",""1"",""2865""
""blur"",""1"",""7750""
","""event"",""trial"",""time""
""focus"",""1"",""252""
""focus"",""1"",""5759""
""focus"",""1"",""85099""
","""event"",""trial"",""time""
""fullscreenenter"",""1"",""85223""
","
","","","402.10000002384186","","","22","10616","5009","&#9776;","elianto","#3366ff99"," "," ","1","+10","[1253]","1","0","1","","","","","","","",""
"pit-trial","31","422269","0.0-2.0-8.2-1.2","battery-v0.2","","""event"",""trial"",""time""
""blur"",""1"",""138""
""focus"",""1"",""252""
""blur"",""1"",""2865""
""focus"",""1"",""5759""
""blur"",""1"",""7750""
""focus"",""1"",""85099""
""fullscreenenter"",""1"",""85223""
","""event"",""trial"",""time""
""blur"",""1"",""138""
""blur"",""1"",""2865""
""blur"",""1"",""7750""
","""event"",""trial"",""time""
""focus"",""1"",""252""
""focus"",""1"",""5759""
""focus"",""1"",""85099""
","""event"",""trial"",""time""
""fullscreenenter"",""1"",""85223""
","
","","","501.69999998807907","","","22","10616","5009","&#9776;","elianto","#3366ff99"," "," ","1","+10","[1353.199999988079]","1","0","1","","","","","","","",""
"pit-trial","32","425653","0.0-2.0-8.2-2.2","battery-v0.2","","""event"",""trial"",""time""
""blur"",""1"",""138""
""focus"",""1"",""252""
""blur"",""1"",""2865""
""focus"",""1"",""5759""
""blur"",""1"",""7750""
""focus"",""1"",""85099""
""fullscreenenter"",""1"",""85223""
","""event"",""trial"",""time""
""blur"",""1"",""138""
""blur"",""1"",""2865""
""blur"",""1"",""7750""
","""event"",""trial"",""time""
""focus"",""1"",""252""
""focus"",""1"",""5759""
""focus"",""1"",""85099""
","""event"",""trial"",""time""
""fullscreenenter"",""1"",""85223""
","
","","","530.9000000059605","","","22","10616","5009","&#9776;","elianto","#3366ff99"," "," ","1","+10","[1381.5]","1","0","1","","","","","","","",""
"pit-trial","33","428916","0.0-2.0-8.2-3.2","battery-v0.2","","""event"",""trial"",""time""
""blur"",""1"",""138""
""focus"",""1"",""252""
""blur"",""1"",""2865""
""focus"",""1"",""5759""
""blur"",""1"",""7750""
""focus"",""1"",""85099""
""fullscreenenter"",""1"",""85223""
","""event"",""trial"",""time""
""blur"",""1"",""138""
""blur"",""1"",""2865""
""blur"",""1"",""7750""
","""event"",""trial"",""time""
""focus"",""1"",""252""
""focus"",""1"",""5759""
""focus"",""1"",""85099""
","""event"",""trial"",""time""
""fullscreenenter"",""1"",""85223""
","
","","","410.69999998807907","","","22","10616","5009","&#9776;","elianto","#3366ff99"," "," ","1","0","[1261]","1","0","1","","","","","","","",""
"pit-trial","34","432253","0.0-2.0-8.2-4.2","battery-v0.2","","""event"",""trial"",""time""
""blur"",""1"",""138""
""focus"",""1"",""252""
""blur"",""1"",""2865""
""focus"",""1"",""5759""
""blur"",""1"",""7750""
""focus"",""1"",""85099""
""fullscreenenter"",""1"",""85223""
","""event"",""trial"",""time""
""blur"",""1"",""138""
""blur"",""1"",""2865""
""blur"",""1"",""7750""
","""event"",""trial"",""time""
""focus"",""1"",""252""
""focus"",""1"",""5759""
""focus"",""1"",""85099""
","""event"",""trial"",""time""
""fullscreenenter"",""1"",""85223""
","
","","","484.5","","","22","10616","5009","&#9776;","elianto","#3366ff99"," "," ","1","+10","[1335]","1","0","1","","","","","","","",""
"call-function","35","432254","0.0-2.0-9.0","battery-v0.2","","""event"",""trial"",""time""
""blur"",""1"",""138""
""focus"",""1"",""252""
""blur"",""1"",""2865""
""focus"",""1"",""5759""
""blur"",""1"",""7750""
""focus"",""1"",""85099""
""fullscreenenter"",""1"",""85223""
","""event"",""trial"",""time""
""blur"",""1"",""138""
""blur"",""1"",""2865""
""blur"",""1"",""7750""
","""event"",""trial"",""time""
""focus"",""1"",""252""
""focus"",""1"",""5759""
""focus"",""1"",""85099""
","""event"",""trial"",""time""
""fullscreenenter"",""1"",""85223""
","
","","","","","","","","","","","","","","","","","","","","","","","","","","",""
"pit-instructions","36","473689","0.0-2.0-10.0","battery-v0.2","","""event"",""trial"",""time""
""blur"",""1"",""138""
""focus"",""1"",""252""
""blur"",""1"",""2865""
""focus"",""1"",""5759""
""blur"",""1"",""7750""
""focus"",""1"",""85099""
""fullscreenenter"",""1"",""85223""
","""event"",""trial"",""time""
""blur"",""1"",""138""
""blur"",""1"",""2865""
""blur"",""1"",""7750""
","""event"",""trial"",""time""
""focus"",""1"",""252""
""focus"",""1"",""5759""
""focus"",""1"",""85099""
","""event"",""trial"",""time""
""fullscreenenter"",""1"",""85223""
","
","","[{""page_index"":0,""viewing_time"":7641.9000000059605},{""page_index"":1,""viewing_time"":7429.0999999940395},{""page_index"":2,""viewing_time"":9654.800000011921},{""page_index"":3,""viewing_time"":9240.90000000596},{""page_index"":4,""viewing_time"":7467.699999988079}]","41434.80000001192","","","","","","","","","","","","","","","","","","","","","","","",""
"pit-trial","37","478563","0.0-2.0-11.0-0.0","battery-v0.2","","""event"",""trial"",""time""
""blur"",""1"",""138""
""focus"",""1"",""252""
""blur"",""1"",""2865""
""focus"",""1"",""5759""
""blur"",""1"",""7750""
""focus"",""1"",""85099""
""fullscreenenter"",""1"",""85223""
","""event"",""trial"",""time""
""blur"",""1"",""138""
""blur"",""1"",""2865""
""blur"",""1"",""7750""
","""event"",""trial"",""time""
""focus"",""1"",""252""
""focus"",""1"",""5759""
""focus"",""1"",""85099""
","""event"",""trial"",""time""
""fullscreenenter"",""1"",""85223""
","
","","","-1","","","22","10616","5009","&#9761;","elianto","#3366ff99","-1","-1","1","+10","[]","0","0","2","","","","","","","",""
"pit-trial","38","483418","0.0-2.0-11.0-1.0","battery-v0.2","","""event"",""trial"",""time""
""blur"",""1"",""138""
""focus"",""1"",""252""
""blur"",""1"",""2865""
""focus"",""1"",""5759""
""blur"",""1"",""7750""
""focus"",""1"",""85099""
""fullscreenenter"",""1"",""85223""
","""event"",""trial"",""time""
""blur"",""1"",""138""
""blur"",""1"",""2865""
""blur"",""1"",""7750""
","""event"",""trial"",""time""
""focus"",""1"",""252""
""focus"",""1"",""5759""
""focus"",""1"",""85099""
","""event"",""trial"",""time""
""fullscreenenter"",""1"",""85223""
","
","","","-1","","","22","10616","5009","&#9761;","elianto","#3366ff99","-1","-1","1","+10","[]","0","0","2","","","","","","","",""
"pit-trial","39","488288","0.0-2.0-11.0-2.0","battery-v0.2","","""event"",""trial"",""time""
""blur"",""1"",""138""
""focus"",""1"",""252""
""blur"",""1"",""2865""
""focus"",""1"",""5759""
""blur"",""1"",""7750""
""focus"",""1"",""85099""
""fullscreenenter"",""1"",""85223""
","""event"",""trial"",""time""
""blur"",""1"",""138""
""blur"",""1"",""2865""
""blur"",""1"",""7750""
","""event"",""trial"",""time""
""focus"",""1"",""252""
""focus"",""1"",""5759""
""focus"",""1"",""85099""
","""event"",""trial"",""time""
""fullscreenenter"",""1"",""85223""
","
","","","-1","","","22","10616","5009","&#9761;","elianto","#3366ff99","-1","-1","1","+10","[]","0","0","2","","","","","","","",""
"pit-trial","40","493170","0.0-2.0-11.0-3.0","battery-v0.2","","""event"",""trial"",""time""
""blur"",""1"",""138""
""focus"",""1"",""252""
""blur"",""1"",""2865""
""focus"",""1"",""5759""
""blur"",""1"",""7750""
""focus"",""1"",""85099""
""fullscreenenter"",""1"",""85223""
","""event"",""trial"",""time""
""blur"",""1"",""138""
""blur"",""1"",""2865""
""blur"",""1"",""7750""
","""event"",""trial"",""time""
""focus"",""1"",""252""
""focus"",""1"",""5759""
""focus"",""1"",""85099""
","""event"",""trial"",""time""
""fullscreenenter"",""1"",""85223""
","
","","","-1","","","22","10616","5009","&#9761;","elianto","#3366ff99","-1","-1","1","0","[]","0","0","2","","","","","","","",""
"pit-trial","41","498023","0.0-2.0-11.0-4.0","battery-v0.2","","""event"",""trial"",""time""
""blur"",""1"",""138""
""focus"",""1"",""252""
""blur"",""1"",""2865""
""focus"",""1"",""5759""
""blur"",""1"",""7750""
""focus"",""1"",""85099""
""fullscreenenter"",""1"",""85223""
","""event"",""trial"",""time""
""blur"",""1"",""138""
""blur"",""1"",""2865""
""blur"",""1"",""7750""
","""event"",""trial"",""time""
""focus"",""1"",""252""
""focus"",""1"",""5759""
""focus"",""1"",""85099""
","""event"",""trial"",""time""
""fullscreenenter"",""1"",""85223""
","
","","","-1","","","22","10616","5009","&#9761;","elianto","#3366ff99","-1","-1","1","+10","[]","0","0","2","","","","","","","",""
"pit-trial","42","502904","0.0-2.0-11.1-0.1","battery-v0.2","","""event"",""trial"",""time""
""blur"",""1"",""138""
""focus"",""1"",""252""
""blur"",""1"",""2865""
""focus"",""1"",""5759""
""blur"",""1"",""7750""
""focus"",""1"",""85099""
""fullscreenenter"",""1"",""85223""
","""event"",""trial"",""time""
""blur"",""1"",""138""
""blur"",""1"",""2865""
""blur"",""1"",""7750""
","""event"",""trial"",""time""
""focus"",""1"",""252""
""focus"",""1"",""5759""
""focus"",""1"",""85099""
","""event"",""trial"",""time""
""fullscreenenter"",""1"",""85223""
","
","","","-1","","","22","10616","5009","&#9761;","elianto","#3366ff99","-1","-1","1","+10","[]","0","0","2","","","","","","","",""
"pit-trial","43","507758","0.0-2.0-11.1-1.1","battery-v0.2","","""event"",""trial"",""time""
""blur"",""1"",""138""
""focus"",""1"",""252""
""blur"",""1"",""2865""
""focus"",""1"",""5759""
""blur"",""1"",""7750""
""focus"",""1"",""85099""
""fullscreenenter"",""1"",""85223""
","""event"",""trial"",""time""
""blur"",""1"",""138""
""blur"",""1"",""2865""
""blur"",""1"",""7750""
","""event"",""trial"",""time""
""focus"",""1"",""252""
""focus"",""1"",""5759""
""focus"",""1"",""85099""
","""event"",""trial"",""time""
""fullscreenenter"",""1"",""85223""
","
","","","-1","","","22","10616","5009","&#9761;","elianto","#3366ff99","-1","-1","1","+10","[]","0","0","2","","","","","","","",""
"pit-trial","44","512611","0.0-2.0-11.1-2.1","battery-v0.2","","""event"",""trial"",""time""
""blur"",""1"",""138""
""focus"",""1"",""252""
""blur"",""1"",""2865""
""focus"",""1"",""5759""
""blur"",""1"",""7750""
""focus"",""1"",""85099""
""fullscreenenter"",""1"",""85223""
","""event"",""trial"",""time""
""blur"",""1"",""138""
""blur"",""1"",""2865""
""blur"",""1"",""7750""
","""event"",""trial"",""time""
""focus"",""1"",""252""
""focus"",""1"",""5759""
""focus"",""1"",""85099""
","""event"",""trial"",""time""
""fullscreenenter"",""1"",""85223""
","
","","","-1","","","22","10616","5009","&#9761;","elianto","#3366ff99","-1","-1","1","+10","[]","0","0","2","","","","","","","",""
"pit-trial","45","517465","0.0-2.0-11.1-3.1","battery-v0.2","","""event"",""trial"",""time""
""blur"",""1"",""138""
""focus"",""1"",""252""
""blur"",""1"",""2865""
""focus"",""1"",""5759""
""blur"",""1"",""7750""
""focus"",""1"",""85099""
""fullscreenenter"",""1"",""85223""
","""event"",""trial"",""time""
""blur"",""1"",""138""
""blur"",""1"",""2865""
""blur"",""1"",""7750""
","""event"",""trial"",""time""
""focus"",""1"",""252""
""focus"",""1"",""5759""
""focus"",""1"",""85099""
","""event"",""trial"",""time""
""fullscreenenter"",""1"",""85223""
","
","","","-1","","","22","10616","5009","&#9761;","elianto","#3366ff99","-1","-1","1","0","[]","0","0","2","","","","","","","",""
"pit-trial","46","522322","0.0-2.0-11.1-4.1","battery-v0.2","","""event"",""trial"",""time""
""blur"",""1"",""138""
""focus"",""1"",""252""
""blur"",""1"",""2865""
""focus"",""1"",""5759""
""blur"",""1"",""7750""
""focus"",""1"",""85099""
""fullscreenenter"",""1"",""85223""
","""event"",""trial"",""time""
""blur"",""1"",""138""
""blur"",""1"",""2865""
""blur"",""1"",""7750""
","""event"",""trial"",""time""
""focus"",""1"",""252""
""focus"",""1"",""5759""
""focus"",""1"",""85099""
","""event"",""trial"",""time""
""fullscreenenter"",""1"",""85223""
","
","","","-1","","","22","10616","5009","&#9761;","elianto","#3366ff99","-1","-1","1","+10","[]","0","0","2","","","","","","","",""
"pit-trial","47","527175","0.0-2.0-11.2-0.2","battery-v0.2","","""event"",""trial"",""time""
""blur"",""1"",""138""
""focus"",""1"",""252""
""blur"",""1"",""2865""
""focus"",""1"",""5759""
""blur"",""1"",""7750""
""focus"",""1"",""85099""
""fullscreenenter"",""1"",""85223""
","""event"",""trial"",""time""
""blur"",""1"",""138""
""blur"",""1"",""2865""
""blur"",""1"",""7750""
","""event"",""trial"",""time""
""focus"",""1"",""252""
""focus"",""1"",""5759""
""focus"",""1"",""85099""
","""event"",""trial"",""time""
""fullscreenenter"",""1"",""85223""
","
","","","-1","","","22","10616","5009","&#9761;","elianto","#3366ff99","-1","-1","1","+10","[]","0","0","2","","","","","","","",""
"pit-trial","48","532028","0.0-2.0-11.2-1.2","battery-v0.2","","""event"",""trial"",""time""
""blur"",""1"",""138""
""focus"",""1"",""252""
""blur"",""1"",""2865""
""focus"",""1"",""5759""
""blur"",""1"",""7750""
""focus"",""1"",""85099""
""fullscreenenter"",""1"",""85223""
","""event"",""trial"",""time""
""blur"",""1"",""138""
""blur"",""1"",""2865""
""blur"",""1"",""7750""
","""event"",""trial"",""time""
""focus"",""1"",""252""
""focus"",""1"",""5759""
""focus"",""1"",""85099""
","""event"",""trial"",""time""
""fullscreenenter"",""1"",""85223""
","
","","","-1","","","22","10616","5009","&#9761;","elianto","#3366ff99","-1","-1","1","+10","[]","0","0","2","","","","","","","",""
"pit-trial","49","536883","0.0-2.0-11.2-2.2","battery-v0.2","","""event"",""trial"",""time""
""blur"",""1"",""138""
""focus"",""1"",""252""
""blur"",""1"",""2865""
""focus"",""1"",""5759""
""blur"",""1"",""7750""
""focus"",""1"",""85099""
""fullscreenenter"",""1"",""85223""
","""event"",""trial"",""time""
""blur"",""1"",""138""
""blur"",""1"",""2865""
""blur"",""1"",""7750""
","""event"",""trial"",""time""
""focus"",""1"",""252""
""focus"",""1"",""5759""
""focus"",""1"",""85099""
","""event"",""trial"",""time""
""fullscreenenter"",""1"",""85223""
","
","","","-1","","","22","10616","5009","&#9761;","elianto","#3366ff99","-1","-1","1","+10","[]","0","0","2","","","","","","","",""
"pit-trial","50","541737","0.0-2.0-11.2-3.2","battery-v0.2","","""event"",""trial"",""time""
""blur"",""1"",""138""
""focus"",""1"",""252""
""blur"",""1"",""2865""
""focus"",""1"",""5759""
""blur"",""1"",""7750""
""focus"",""1"",""85099""
""fullscreenenter"",""1"",""85223""
","""event"",""trial"",""time""
""blur"",""1"",""138""
""blur"",""1"",""2865""
""blur"",""1"",""7750""
","""event"",""trial"",""time""
""focus"",""1"",""252""
""focus"",""1"",""5759""
""focus"",""1"",""85099""
","""event"",""trial"",""time""
""fullscreenenter"",""1"",""85223""
","
","","","-1","","","22","10616","5009","&#9761;","elianto","#3366ff99","-1","-1","1","0","[]","0","0","2","","","","","","","",""
"pit-trial","51","546590","0.0-2.0-11.2-4.2","battery-v0.2","","""event"",""trial"",""time""
""blur"",""1"",""138""
""focus"",""1"",""252""
""blur"",""1"",""2865""
""focus"",""1"",""5759""
""blur"",""1"",""7750""
""focus"",""1"",""85099""
""fullscreenenter"",""1"",""85223""
","""event"",""trial"",""time""
""blur"",""1"",""138""
""blur"",""1"",""2865""
""blur"",""1"",""7750""
","""event"",""trial"",""time""
""focus"",""1"",""252""
""focus"",""1"",""5759""
""focus"",""1"",""85099""
","""event"",""trial"",""time""
""fullscreenenter"",""1"",""85223""
","
","","","-1","","","22","10616","5009","&#9761;","elianto","#3366ff99","-1","-1","1","+10","[]","0","0","2","","","","","","","",""
"pit-trial","52","551444","0.0-2.0-11.3-0.3","battery-v0.2","","""event"",""trial"",""time""
""blur"",""1"",""138""
""focus"",""1"",""252""
""blur"",""1"",""2865""
""focus"",""1"",""5759""
""blur"",""1"",""7750""
""focus"",""1"",""85099""
""fullscreenenter"",""1"",""85223""
","""event"",""trial"",""time""
""blur"",""1"",""138""
""blur"",""1"",""2865""
""blur"",""1"",""7750""
","""event"",""trial"",""time""
""focus"",""1"",""252""
""focus"",""1"",""5759""
""focus"",""1"",""85099""
","""event"",""trial"",""time""
""fullscreenenter"",""1"",""85223""
","
","","","-1","","","22","10616","5009","&#9761;","elianto","#3366ff99","-1","-1","1","+10","[]","0","0","2","","","","","","","",""
"pit-trial","53","556296","0.0-2.0-11.3-1.3","battery-v0.2","","""event"",""trial"",""time""
""blur"",""1"",""138""
""focus"",""1"",""252""
""blur"",""1"",""2865""
""focus"",""1"",""5759""
""blur"",""1"",""7750""
""focus"",""1"",""85099""
""fullscreenenter"",""1"",""85223""
","""event"",""trial"",""time""
""blur"",""1"",""138""
""blur"",""1"",""2865""
""blur"",""1"",""7750""
","""event"",""trial"",""time""
""focus"",""1"",""252""
""focus"",""1"",""5759""
""focus"",""1"",""85099""
","""event"",""trial"",""time""
""fullscreenenter"",""1"",""85223""
","
","","","-1","","","22","10616","5009","&#9761;","elianto","#3366ff99","-1","-1","1","+10","[]","0","0","2","","","","","","","",""
"pit-trial","54","561150","0.0-2.0-11.3-2.3","battery-v0.2","","""event"",""trial"",""time""
""blur"",""1"",""138""
""focus"",""1"",""252""
""blur"",""1"",""2865""
""focus"",""1"",""5759""
""blur"",""1"",""7750""
""focus"",""1"",""85099""
""fullscreenenter"",""1"",""85223""
","""event"",""trial"",""time""
""blur"",""1"",""138""
""blur"",""1"",""2865""
""blur"",""1"",""7750""
","""event"",""trial"",""time""
""focus"",""1"",""252""
""focus"",""1"",""5759""
""focus"",""1"",""85099""
","""event"",""trial"",""time""
""fullscreenenter"",""1"",""85223""
","
","","","-1","","","22","10616","5009","&#9761;","elianto","#3366ff99","-1","-1","1","+10","[]","0","0","2","","","","","","","",""
"pit-trial","55","566004","0.0-2.0-11.3-3.3","battery-v0.2","","""event"",""trial"",""time""
""blur"",""1"",""138""
""focus"",""1"",""252""
""blur"",""1"",""2865""
""focus"",""1"",""5759""
""blur"",""1"",""7750""
""focus"",""1"",""85099""
""fullscreenenter"",""1"",""85223""
","""event"",""trial"",""time""
""blur"",""1"",""138""
""blur"",""1"",""2865""
""blur"",""1"",""7750""
","""event"",""trial"",""time""
""focus"",""1"",""252""
""focus"",""1"",""5759""
""focus"",""1"",""85099""
","""event"",""trial"",""time""
""fullscreenenter"",""1"",""85223""
","
","","","-1","","","22","10616","5009","&#9761;","elianto","#3366ff99","-1","-1","1","0","[]","0","0","2","","","","","","","",""
"pit-trial","56","570858","0.0-2.0-11.3-4.3","battery-v0.2","","""event"",""trial"",""time""
""blur"",""1"",""138""
""focus"",""1"",""252""
""blur"",""1"",""2865""
""focus"",""1"",""5759""
""blur"",""1"",""7750""
""focus"",""1"",""85099""
""fullscreenenter"",""1"",""85223""
","""event"",""trial"",""time""
""blur"",""1"",""138""
""blur"",""1"",""2865""
""blur"",""1"",""7750""
","""event"",""trial"",""time""
""focus"",""1"",""252""
""focus"",""1"",""5759""
""focus"",""1"",""85099""
","""event"",""trial"",""time""
""fullscreenenter"",""1"",""85223""
","
","","","-1","","","22","10616","5009","&#9761;","elianto","#3366ff99","-1","-1","1","+10","[3347.2999999821186]","1","0","2","","","","","","","",""
"call-function","57","570860","0.0-2.0-12.0","battery-v0.2","","""event"",""trial"",""time""
""blur"",""1"",""138""
""focus"",""1"",""252""
""blur"",""1"",""2865""
""focus"",""1"",""5759""
""blur"",""1"",""7750""
""focus"",""1"",""85099""
""fullscreenenter"",""1"",""85223""
","""event"",""trial"",""time""
""blur"",""1"",""138""
""blur"",""1"",""2865""
""blur"",""1"",""7750""
","""event"",""trial"",""time""
""focus"",""1"",""252""
""focus"",""1"",""5759""
""focus"",""1"",""85099""
","""event"",""trial"",""time""
""fullscreenenter"",""1"",""85223""
","
","","","","","","","","","","","","","","","","","","","","","","","","","","",""
"pit-instructions","58","637426","0.0-2.0-13.0","battery-v0.2","","""event"",""trial"",""time""
""blur"",""1"",""138""
""focus"",""1"",""252""
""blur"",""1"",""2865""
""focus"",""1"",""5759""
""blur"",""1"",""7750""
""focus"",""1"",""85099""
""fullscreenenter"",""1"",""85223""
","""event"",""trial"",""time""
""blur"",""1"",""138""
""blur"",""1"",""2865""
""blur"",""1"",""7750""
","""event"",""trial"",""time""
""focus"",""1"",""252""
""focus"",""1"",""5759""
""focus"",""1"",""85099""
","""event"",""trial"",""time""
""fullscreenenter"",""1"",""85223""
","
","","[{""page_index"":0,""viewing_time"":6049.600000023842},{""page_index"":1,""viewing_time"":40006.69999998808},{""page_index"":2,""viewing_time"":3199.699999988079},{""page_index"":3,""viewing_time"":10960.300000011921},{""page_index"":4,""viewing_time"":6349.4000000059605}]","66566","","","","","","","","","","","","","","","","","","","","","","","",""
"pit-trial","59","642291","0.0-2.0-14.0-0.0","battery-v0.2","","""event"",""trial"",""time""
""blur"",""1"",""138""
""focus"",""1"",""252""
""blur"",""1"",""2865""
""focus"",""1"",""5759""
""blur"",""1"",""7750""
""focus"",""1"",""85099""
""fullscreenenter"",""1"",""85223""
","""event"",""trial"",""time""
""blur"",""1"",""138""
""blur"",""1"",""2865""
""blur"",""1"",""7750""
","""event"",""trial"",""time""
""focus"",""1"",""252""
""focus"",""1"",""5759""
""focus"",""1"",""85099""
","""event"",""trial"",""time""
""fullscreenenter"",""1"",""85223""
","
","","","-1","","","22","10616","5009","&#9826;","elianto","#f73b6a7A","-1","-1","1","0","[4838.0999999940395]","1","0","3","","","","","","","",""
"pit-trial","60","647158","0.0-2.0-14.0-1.0","battery-v0.2","","""event"",""trial"",""time""
""blur"",""1"",""138""
""focus"",""1"",""252""
""blur"",""1"",""2865""
""focus"",""1"",""5759""
""blur"",""1"",""7750""
""focus"",""1"",""85099""
""fullscreenenter"",""1"",""85223""
","""event"",""trial"",""time""
""blur"",""1"",""138""
""blur"",""1"",""2865""
""blur"",""1"",""7750""
","""event"",""trial"",""time""
""focus"",""1"",""252""
""focus"",""1"",""5759""
""focus"",""1"",""85099""
","""event"",""trial"",""time""
""fullscreenenter"",""1"",""85223""
","
","","","-1","","","22","10616","5009","&#9826;","elianto","#f73b6a7A","-1","-1","1","0","[]","0","0","3","","","","","","","",""
"pit-trial","61","652023","0.0-2.0-14.0-2.0","battery-v0.2","","""event"",""trial"",""time""
""blur"",""1"",""138""
""focus"",""1"",""252""
""blur"",""1"",""2865""
""focus"",""1"",""5759""
""blur"",""1"",""7750""
""focus"",""1"",""85099""
""fullscreenenter"",""1"",""85223""
","""event"",""trial"",""time""
""blur"",""1"",""138""
""blur"",""1"",""2865""
""blur"",""1"",""7750""
","""event"",""trial"",""time""
""focus"",""1"",""252""
""focus"",""1"",""5759""
""focus"",""1"",""85099""
","""event"",""trial"",""time""
""fullscreenenter"",""1"",""85223""
","
","","","-1","","","22","10616","5009","&#9826;","elianto","#f73b6a7A","-1","-1","1","0","[]","0","0","3","","","","","","","",""
"pit-trial","62","656903","0.0-2.0-14.0-3.0","battery-v0.2","","""event"",""trial"",""time""
""blur"",""1"",""138""
""focus"",""1"",""252""
""blur"",""1"",""2865""
""focus"",""1"",""5759""
""blur"",""1"",""7750""
""focus"",""1"",""85099""
""fullscreenenter"",""1"",""85223""
","""event"",""trial"",""time""
""blur"",""1"",""138""
""blur"",""1"",""2865""
""blur"",""1"",""7750""
","""event"",""trial"",""time""
""focus"",""1"",""252""
""focus"",""1"",""5759""
""focus"",""1"",""85099""
","""event"",""trial"",""time""
""fullscreenenter"",""1"",""85223""
","
","","","-1","","","22","10616","5009","&#9826;","elianto","#f73b6a7A","-1","-1","1","-10","[]","0","0","3","","","","","","","",""
"pit-trial","63","661772","0.0-2.0-14.0-4.0","battery-v0.2","","""event"",""trial"",""time""
""blur"",""1"",""138""
""focus"",""1"",""252""
""blur"",""1"",""2865""
""focus"",""1"",""5759""
""blur"",""1"",""7750""
""focus"",""1"",""85099""
""fullscreenenter"",""1"",""85223""
","""event"",""trial"",""time""
""blur"",""1"",""138""
""blur"",""1"",""2865""
""blur"",""1"",""7750""
","""event"",""trial"",""time""
""focus"",""1"",""252""
""focus"",""1"",""5759""
""focus"",""1"",""85099""
","""event"",""trial"",""time""
""fullscreenenter"",""1"",""85223""
","
","","","-1","","","22","10616","5009","&#9826;","elianto","#f73b6a7A","-1","-1","1","0","[]","0","0","3","","","","","","","",""
"pit-trial","64","666634","0.0-2.0-14.1-0.1","battery-v0.2","","""event"",""trial"",""time""
""blur"",""1"",""138""
""focus"",""1"",""252""
""blur"",""1"",""2865""
""focus"",""1"",""5759""
""blur"",""1"",""7750""
""focus"",""1"",""85099""
""fullscreenenter"",""1"",""85223""
","""event"",""trial"",""time""
""blur"",""1"",""138""
""blur"",""1"",""2865""
""blur"",""1"",""7750""
","""event"",""trial"",""time""
""focus"",""1"",""252""
""focus"",""1"",""5759""
""focus"",""1"",""85099""
","""event"",""trial"",""time""
""fullscreenenter"",""1"",""85223""
","
","","","-1","","","22","10616","5009","&#9826;","elianto","#f73b6a7A","-1","-1","1","0","[]","0","0","3","","","","","","","",""
"pit-trial","65","671487","0.0-2.0-14.1-1.1","battery-v0.2","","""event"",""trial"",""time""
""blur"",""1"",""138""
""focus"",""1"",""252""
""blur"",""1"",""2865""
""focus"",""1"",""5759""
""blur"",""1"",""7750""
""focus"",""1"",""85099""
""fullscreenenter"",""1"",""85223""
","""event"",""trial"",""time""
""blur"",""1"",""138""
""blur"",""1"",""2865""
""blur"",""1"",""7750""
","""event"",""trial"",""time""
""focus"",""1"",""252""
""focus"",""1"",""5759""
""focus"",""1"",""85099""
","""event"",""trial"",""time""
""fullscreenenter"",""1"",""85223""
","
","","","-1","","","22","10616","5009","&#9826;","elianto","#f73b6a7A","-1","-1","1","0","[]","0","0","3","","","","","","","",""
"pit-trial","66","676340","0.0-2.0-14.1-2.1","battery-v0.2","","""event"",""trial"",""time""
""blur"",""1"",""138""
""focus"",""1"",""252""
""blur"",""1"",""2865""
""focus"",""1"",""5759""
""blur"",""1"",""7750""
""focus"",""1"",""85099""
""fullscreenenter"",""1"",""85223""
","""event"",""trial"",""time""
""blur"",""1"",""138""
""blur"",""1"",""2865""
""blur"",""1"",""7750""
","""event"",""trial"",""time""
""focus"",""1"",""252""
""focus"",""1"",""5759""
""focus"",""1"",""85099""
","""event"",""trial"",""time""
""fullscreenenter"",""1"",""85223""
","
","","","-1","","","22","10616","5009","&#9826;","elianto","#f73b6a7A","-1","-1","1","0","[566.8000000119209]","1","0","3","","","","","","","",""
"pit-trial","67","681194","0.0-2.0-14.1-3.1","battery-v0.2","","""event"",""trial"",""time""
""blur"",""1"",""138""
""focus"",""1"",""252""
""blur"",""1"",""2865""
""focus"",""1"",""5759""
""blur"",""1"",""7750""
""focus"",""1"",""85099""
""fullscreenenter"",""1"",""85223""
","""event"",""trial"",""time""
""blur"",""1"",""138""
""blur"",""1"",""2865""
""blur"",""1"",""7750""
","""event"",""trial"",""time""
""focus"",""1"",""252""
""focus"",""1"",""5759""
""focus"",""1"",""85099""
","""event"",""trial"",""time""
""fullscreenenter"",""1"",""85223""
","
","","","-1","","","22","10616","5009","&#9826;","elianto","#f73b6a7A","-1","-1","1","-10","[]","0","0","3","","","","","","","",""
"pit-trial","68","686047","0.0-2.0-14.1-4.1","battery-v0.2","","""event"",""trial"",""time""
""blur"",""1"",""138""
""focus"",""1"",""252""
""blur"",""1"",""2865""
""focus"",""1"",""5759""
""blur"",""1"",""7750""
""focus"",""1"",""85099""
""fullscreenenter"",""1"",""85223""
","""event"",""trial"",""time""
""blur"",""1"",""138""
""blur"",""1"",""2865""
""blur"",""1"",""7750""
","""event"",""trial"",""time""
""focus"",""1"",""252""
""focus"",""1"",""5759""
""focus"",""1"",""85099""
","""event"",""trial"",""time""
""fullscreenenter"",""1"",""85223""
","
","","","-1","","","22","10616","5009","&#9826;","elianto","#f73b6a7A","-1","-1","1","0","[]","0","0","3","","","","","","","",""
"pit-trial","69","690900","0.0-2.0-14.2-0.2","battery-v0.2","","""event"",""trial"",""time""
""blur"",""1"",""138""
""focus"",""1"",""252""
""blur"",""1"",""2865""
""focus"",""1"",""5759""
""blur"",""1"",""7750""
""focus"",""1"",""85099""
""fullscreenenter"",""1"",""85223""
","""event"",""trial"",""time""
""blur"",""1"",""138""
""blur"",""1"",""2865""
""blur"",""1"",""7750""
","""event"",""trial"",""time""
""focus"",""1"",""252""
""focus"",""1"",""5759""
""focus"",""1"",""85099""
","""event"",""trial"",""time""
""fullscreenenter"",""1"",""85223""
","
","","","-1","","","22","10616","5009","&#9826;","elianto","#f73b6a7A","-1","-1","1","0","[]","0","0","3","","","","","","","",""
"pit-trial","70","695753","0.0-2.0-14.2-1.2","battery-v0.2","","""event"",""trial"",""time""
""blur"",""1"",""138""
""focus"",""1"",""252""
""blur"",""1"",""2865""
""focus"",""1"",""5759""
""blur"",""1"",""7750""
""focus"",""1"",""85099""
""fullscreenenter"",""1"",""85223""
","""event"",""trial"",""time""
""blur"",""1"",""138""
""blur"",""1"",""2865""
""blur"",""1"",""7750""
","""event"",""trial"",""time""
""focus"",""1"",""252""
""focus"",""1"",""5759""
""focus"",""1"",""85099""
","""event"",""trial"",""time""
""fullscreenenter"",""1"",""85223""
","
","","","-1","","","22","10616","5009","&#9826;","elianto","#f73b6a7A","-1","-1","1","0","[]","0","0","3","","","","","","","",""
"pit-trial","71","700606","0.0-2.0-14.2-2.2","battery-v0.2","","""event"",""trial"",""time""
""blur"",""1"",""138""
""focus"",""1"",""252""
""blur"",""1"",""2865""
""focus"",""1"",""5759""
""blur"",""1"",""7750""
""focus"",""1"",""85099""
""fullscreenenter"",""1"",""85223""
","""event"",""trial"",""time""
""blur"",""1"",""138""
""blur"",""1"",""2865""
""blur"",""1"",""7750""
","""event"",""trial"",""time""
""focus"",""1"",""252""
""focus"",""1"",""5759""
""focus"",""1"",""85099""
","""event"",""trial"",""time""
""fullscreenenter"",""1"",""85223""
","
","","","-1","","","22","10616","5009","&#9826;","elianto","#f73b6a7A","-1","-1","1","0","[]","0","0","3","","","","","","","",""
"pit-trial","72","705459","0.0-2.0-14.2-3.2","battery-v0.2","","""event"",""trial"",""time""
""blur"",""1"",""138""
""focus"",""1"",""252""
""blur"",""1"",""2865""
""focus"",""1"",""5759""
""blur"",""1"",""7750""
""focus"",""1"",""85099""
""fullscreenenter"",""1"",""85223""
","""event"",""trial"",""time""
""blur"",""1"",""138""
""blur"",""1"",""2865""
""blur"",""1"",""7750""
","""event"",""trial"",""time""
""focus"",""1"",""252""
""focus"",""1"",""5759""
""focus"",""1"",""85099""
","""event"",""trial"",""time""
""fullscreenenter"",""1"",""85223""
","
","","","-1","","","22","10616","5009","&#9826;","elianto","#f73b6a7A","-1","-1","1","-10","[]","0","0","3","","","","","","","",""
"pit-trial","73","710313","0.0-2.0-14.2-4.2","battery-v0.2","","""event"",""trial"",""time""
""blur"",""1"",""138""
""focus"",""1"",""252""
""blur"",""1"",""2865""
""focus"",""1"",""5759""
""blur"",""1"",""7750""
""focus"",""1"",""85099""
""fullscreenenter"",""1"",""85223""
","""event"",""trial"",""time""
""blur"",""1"",""138""
""blur"",""1"",""2865""
""blur"",""1"",""7750""
","""event"",""trial"",""time""
""focus"",""1"",""252""
""focus"",""1"",""5759""
""focus"",""1"",""85099""
","""event"",""trial"",""time""
""fullscreenenter"",""1"",""85223""
","
","","","-1","","","22","10616","5009","&#9826;","elianto","#f73b6a7A","-1","-1","1","0","[]","0","0","3","","","","","","","",""
"pit-trial","74","715166","0.0-2.0-14.3-0.3","battery-v0.2","","""event"",""trial"",""time""
""blur"",""1"",""138""
""focus"",""1"",""252""
""blur"",""1"",""2865""
""focus"",""1"",""5759""
""blur"",""1"",""7750""
""focus"",""1"",""85099""
""fullscreenenter"",""1"",""85223""
","""event"",""trial"",""time""
""blur"",""1"",""138""
""blur"",""1"",""2865""
""blur"",""1"",""7750""
","""event"",""trial"",""time""
""focus"",""1"",""252""
""focus"",""1"",""5759""
""focus"",""1"",""85099""
","""event"",""trial"",""time""
""fullscreenenter"",""1"",""85223""
","
","","","-1","","","22","10616","5009","&#9826;","elianto","#f73b6a7A","-1","-1","1","0","[]","0","0","3","","","","","","","",""
"pit-trial","75","720025","0.0-2.0-14.3-1.3","battery-v0.2","","""event"",""trial"",""time""
""blur"",""1"",""138""
""focus"",""1"",""252""
""blur"",""1"",""2865""
""focus"",""1"",""5759""
""blur"",""1"",""7750""
""focus"",""1"",""85099""
""fullscreenenter"",""1"",""85223""
","""event"",""trial"",""time""
""blur"",""1"",""138""
""blur"",""1"",""2865""
""blur"",""1"",""7750""
","""event"",""trial"",""time""
""focus"",""1"",""252""
""focus"",""1"",""5759""
""focus"",""1"",""85099""
","""event"",""trial"",""time""
""fullscreenenter"",""1"",""85223""
","
","","","-1","","","22","10616","5009","&#9826;","elianto","#f73b6a7A","-1","-1","1","0","[]","0","0","3","","","","","","","",""
"pit-trial","76","724879","0.0-2.0-14.3-2.3","battery-v0.2","","""event"",""trial"",""time""
""blur"",""1"",""138""
""focus"",""1"",""252""
""blur"",""1"",""2865""
""focus"",""1"",""5759""
""blur"",""1"",""7750""
""focus"",""1"",""85099""
""fullscreenenter"",""1"",""85223""
","""event"",""trial"",""time""
""blur"",""1"",""138""
""blur"",""1"",""2865""
""blur"",""1"",""7750""
","""event"",""trial"",""time""
""focus"",""1"",""252""
""focus"",""1"",""5759""
""focus"",""1"",""85099""
","""event"",""trial"",""time""
""fullscreenenter"",""1"",""85223""
","
","","","-1","","","22","10616","5009","&#9826;","elianto","#f73b6a7A","-1","-1","1","0","[]","0","0","3","","","","","","","",""
"pit-trial","77","729732","0.0-2.0-14.3-3.3","battery-v0.2","","""event"",""trial"",""time""
""blur"",""1"",""138""
""focus"",""1"",""252""
""blur"",""1"",""2865""
""focus"",""1"",""5759""
""blur"",""1"",""7750""
""focus"",""1"",""85099""
""fullscreenenter"",""1"",""85223""
","""event"",""trial"",""time""
""blur"",""1"",""138""
""blur"",""1"",""2865""
""blur"",""1"",""7750""
","""event"",""trial"",""time""
""focus"",""1"",""252""
""focus"",""1"",""5759""
""focus"",""1"",""85099""
","""event"",""trial"",""time""
""fullscreenenter"",""1"",""85223""
","
","","","-1","","","22","10616","5009","&#9826;","elianto","#f73b6a7A","-1","-1","1","-10","[]","0","0","3","","","","","","","",""
"pit-trial","78","734586","0.0-2.0-14.3-4.3","battery-v0.2","","""event"",""trial"",""time""
""blur"",""1"",""138""
""focus"",""1"",""252""
""blur"",""1"",""2865""
""focus"",""1"",""5759""
""blur"",""1"",""7750""
""focus"",""1"",""85099""
""fullscreenenter"",""1"",""85223""
","""event"",""trial"",""time""
""blur"",""1"",""138""
""blur"",""1"",""2865""
""blur"",""1"",""7750""
","""event"",""trial"",""time""
""focus"",""1"",""252""
""focus"",""1"",""5759""
""focus"",""1"",""85099""
","""event"",""trial"",""time""
""fullscreenenter"",""1"",""85223""
","
","","","-1","","","22","10616","5009","&#9826;","elianto","#f73b6a7A","-1","-1","1","0","[]","0","0","3","","","","","","","",""
"call-function","79","734587","0.0-2.0-15.0","battery-v0.2","","""event"",""trial"",""time""
""blur"",""1"",""138""
""focus"",""1"",""252""
""blur"",""1"",""2865""
""focus"",""1"",""5759""
""blur"",""1"",""7750""
""focus"",""1"",""85099""
""fullscreenenter"",""1"",""85223""
","""event"",""trial"",""time""
""blur"",""1"",""138""
""blur"",""1"",""2865""
""blur"",""1"",""7750""
","""event"",""trial"",""time""
""focus"",""1"",""252""
""focus"",""1"",""5759""
""focus"",""1"",""85099""
","""event"",""trial"",""time""
""fullscreenenter"",""1"",""85223""
","
","","","","","","","","","","","","","","","","","","","","","","","","","","",""
"pit-instructions","80","800550","0.0-2.0-16.0","battery-v0.2","","""event"",""trial"",""time""
""blur"",""1"",""138""
""focus"",""1"",""252""
""blur"",""1"",""2865""
""focus"",""1"",""5759""
""blur"",""1"",""7750""
""focus"",""1"",""85099""
""fullscreenenter"",""1"",""85223""
","""event"",""trial"",""time""
""blur"",""1"",""138""
""blur"",""1"",""2865""
""blur"",""1"",""7750""
","""event"",""trial"",""time""
""focus"",""1"",""252""
""focus"",""1"",""5759""
""focus"",""1"",""85099""
","""event"",""trial"",""time""
""fullscreenenter"",""1"",""85223""
","
","","[{""page_index"":0,""viewing_time"":7495.4000000059605},{""page_index"":1,""viewing_time"":10518},{""page_index"":2,""viewing_time"":8759.09999999404},{""page_index"":3,""viewing_time"":39190.69999998808}]","65963.5","","","","","","","","","","","","","","","","","","","","","","","",""
"pit-trial","81","803972","0.0-2.0-17.0-0.0","battery-v0.2","","""event"",""trial"",""time""
""blur"",""1"",""138""
""focus"",""1"",""252""
""blur"",""1"",""2865""
""focus"",""1"",""5759""
""blur"",""1"",""7750""
""focus"",""1"",""85099""
""fullscreenenter"",""1"",""85223""
","""event"",""trial"",""time""
""blur"",""1"",""138""
""blur"",""1"",""2865""
""blur"",""1"",""7750""
","""event"",""trial"",""time""
""focus"",""1"",""252""
""focus"",""1"",""5759""
""focus"",""1"",""85099""
","""event"",""trial"",""time""
""fullscreenenter"",""1"",""85223""
","
","","","568","","","22","10616","5009","&#9789;","elianto","#f73b6a7A"," "," ","1","0","[1418.6000000238419]","1","0","4","","","","","","","",""
"pit-trial","82","807230","0.0-2.0-17.0-1.0","battery-v0.2","","""event"",""trial"",""time""
""blur"",""1"",""138""
""focus"",""1"",""252""
""blur"",""1"",""2865""
""focus"",""1"",""5759""
""blur"",""1"",""7750""
""focus"",""1"",""85099""
""fullscreenenter"",""1"",""85223""
","""event"",""trial"",""time""
""blur"",""1"",""138""
""blur"",""1"",""2865""
""blur"",""1"",""7750""
","""event"",""trial"",""time""
""focus"",""1"",""252""
""focus"",""1"",""5759""
""focus"",""1"",""85099""
","""event"",""trial"",""time""
""fullscreenenter"",""1"",""85223""
","
","","","405.2999999821186","","","22","10616","5009","&#9789;","elianto","#f73b6a7A"," "," ","1","0","[1255.699999988079]","1","0","4","","","","","","","",""
"pit-trial","83","810301","0.0-2.0-17.0-2.0","battery-v0.2","","""event"",""trial"",""time""
""blur"",""1"",""138""
""focus"",""1"",""252""
""blur"",""1"",""2865""
""focus"",""1"",""5759""
""blur"",""1"",""7750""
""focus"",""1"",""85099""
""fullscreenenter"",""1"",""85223""
","""event"",""trial"",""time""
""blur"",""1"",""138""
""blur"",""1"",""2865""
""blur"",""1"",""7750""
","""event"",""trial"",""time""
""focus"",""1"",""252""
""focus"",""1"",""5759""
""focus"",""1"",""85099""
","""event"",""trial"",""time""
""fullscreenenter"",""1"",""85223""
","
","","","218.69999998807907","","","22","10616","5009","&#9789;","elianto","#f73b6a7A"," "," ","1","0","[1069.199999988079]","1","0","4","","","","","","","",""
"pit-trial","84","813572","0.0-2.0-17.0-3.0","battery-v0.2","","""event"",""trial"",""time""
""blur"",""1"",""138""
""focus"",""1"",""252""
""blur"",""1"",""2865""
""focus"",""1"",""5759""
""blur"",""1"",""7750""
""focus"",""1"",""85099""
""fullscreenenter"",""1"",""85223""
","""event"",""trial"",""time""
""blur"",""1"",""138""
""blur"",""1"",""2865""
""blur"",""1"",""7750""
","""event"",""trial"",""time""
""focus"",""1"",""252""
""focus"",""1"",""5759""
""focus"",""1"",""85099""
","""event"",""trial"",""time""
""fullscreenenter"",""1"",""85223""
","
","","","417","","","22","10616","5009","&#9789;","elianto","#f73b6a7A"," "," ","1","-10","[1267.699999988079]","1","0","4","","","","","","","",""
"pit-trial","85","816832","0.0-2.0-17.0-4.0","battery-v0.2","","""event"",""trial"",""time""
""blur"",""1"",""138""
""focus"",""1"",""252""
""blur"",""1"",""2865""
""focus"",""1"",""5759""
""blur"",""1"",""7750""
""focus"",""1"",""85099""
""fullscreenenter"",""1"",""85223""
","""event"",""trial"",""time""
""blur"",""1"",""138""
""blur"",""1"",""2865""
""blur"",""1"",""7750""
","""event"",""trial"",""time""
""focus"",""1"",""252""
""focus"",""1"",""5759""
""focus"",""1"",""85099""
","""event"",""trial"",""time""
""fullscreenenter"",""1"",""85223""
","
","","","407.19999998807907","","","22","10616","5009","&#9789;","elianto","#f73b6a7A"," "," ","1","0","[1258.0999999940395]","1","0","4","","","","","","","",""
"pit-trial","86","820304","0.0-2.0-17.1-0.1","battery-v0.2","","""event"",""trial"",""time""
""blur"",""1"",""138""
""focus"",""1"",""252""
""blur"",""1"",""2865""
""focus"",""1"",""5759""
""blur"",""1"",""7750""
""focus"",""1"",""85099""
""fullscreenenter"",""1"",""85223""
","""event"",""trial"",""time""
""blur"",""1"",""138""
""blur"",""1"",""2865""
""blur"",""1"",""7750""
","""event"",""trial"",""time""
""focus"",""1"",""252""
""focus"",""1"",""5759""
""focus"",""1"",""85099""
","""event"",""trial"",""time""
""fullscreenenter"",""1"",""85223""
","
","","","617.1999999880791","","","22","10616","5009","&#9789;","elianto","#f73b6a7A"," "," ","1","0","[1468.699999988079]","1","0","4","","","","","","","",""
"pit-trial","87","823613","0.0-2.0-17.1-1.1","battery-v0.2","","""event"",""trial"",""time""
""blur"",""1"",""138""
""focus"",""1"",""252""
""blur"",""1"",""2865""
""focus"",""1"",""5759""
""blur"",""1"",""7750""
""focus"",""1"",""85099""
""fullscreenenter"",""1"",""85223""
","""event"",""trial"",""time""
""blur"",""1"",""138""
""blur"",""1"",""2865""
""blur"",""1"",""7750""
","""event"",""trial"",""time""
""focus"",""1"",""252""
""focus"",""1"",""5759""
""focus"",""1"",""85099""
","""event"",""trial"",""time""
""fullscreenenter"",""1"",""85223""
","
","","","454.80000001192093","","","22","10616","5009","&#9789;","elianto","#f73b6a7A"," "," ","1","0","[1305.5]","1","0","4","","","","","","","",""
"pit-trial","88","826895","0.0-2.0-17.1-2.1","battery-v0.2","","""event"",""trial"",""time""
""blur"",""1"",""138""
""focus"",""1"",""252""
""blur"",""1"",""2865""
""focus"",""1"",""5759""
""blur"",""1"",""7750""
""focus"",""1"",""85099""
""fullscreenenter"",""1"",""85223""
","""event"",""trial"",""time""
""blur"",""1"",""138""
""blur"",""1"",""2865""
""blur"",""1"",""7750""
","""event"",""trial"",""time""
""focus"",""1"",""252""
""focus"",""1"",""5759""
""focus"",""1"",""85099""
","""event"",""trial"",""time""
""fullscreenenter"",""1"",""85223""
","
","","","429.7999999821186","","","22","10616","5009","&#9789;","elianto","#f73b6a7A"," "," ","1","0","[1280.5]","1","0","4","","","","","","","",""
"pit-trial","89","830221","0.0-2.0-17.1-3.1","battery-v0.2","","""event"",""trial"",""time""
""blur"",""1"",""138""
""focus"",""1"",""252""
""blur"",""1"",""2865""
""focus"",""1"",""5759""
""blur"",""1"",""7750""
""focus"",""1"",""85099""
""fullscreenenter"",""1"",""85223""
","""event"",""trial"",""time""
""blur"",""1"",""138""
""blur"",""1"",""2865""
""blur"",""1"",""7750""
","""event"",""trial"",""time""
""focus"",""1"",""252""
""focus"",""1"",""5759""
""focus"",""1"",""85099""
","""event"",""trial"",""time""
""fullscreenenter"",""1"",""85223""
","
","","","473.09999999403954","","","22","10616","5009","&#9789;","elianto","#f73b6a7A"," "," ","1","-10","[1323.9000000059605]","1","0","4","","","","","","","",""
"pit-trial","90","833668","0.0-2.0-17.1-4.1","battery-v0.2","","""event"",""trial"",""time""
""blur"",""1"",""138""
""focus"",""1"",""252""
""blur"",""1"",""2865""
""focus"",""1"",""5759""
""blur"",""1"",""7750""
""focus"",""1"",""85099""
""fullscreenenter"",""1"",""85223""
","""event"",""trial"",""time""
""blur"",""1"",""138""
""blur"",""1"",""2865""
""blur"",""1"",""7750""
","""event"",""trial"",""time""
""focus"",""1"",""252""
""focus"",""1"",""5759""
""focus"",""1"",""85099""
","""event"",""trial"",""time""
""fullscreenenter"",""1"",""85223""
","
","","","595.1999999880791","","","22","10616","5009","&#9789;","elianto","#f73b6a7A"," "," ","1","0","[1445.5]","1","0","4","","","","","","","",""
"pit-trial","91","837115","0.0-2.0-17.2-0.2","battery-v0.2","","""event"",""trial"",""time""
""blur"",""1"",""138""
""focus"",""1"",""252""
""blur"",""1"",""2865""
""focus"",""1"",""5759""
""blur"",""1"",""7750""
""focus"",""1"",""85099""
""fullscreenenter"",""1"",""85223""
","""event"",""trial"",""time""
""blur"",""1"",""138""
""blur"",""1"",""2865""
""blur"",""1"",""7750""
","""event"",""trial"",""time""
""focus"",""1"",""252""
""focus"",""1"",""5759""
""focus"",""1"",""85099""
","""event"",""trial"",""time""
""fullscreenenter"",""1"",""85223""
","
","","","592.2000000178814","","","22","10616","5009","&#9789;","elianto","#f73b6a7A"," "," ","1","0","[1443.6000000238419]","1","0","4","","","","","","","",""
"pit-trial","92","840579","0.0-2.0-17.2-1.2","battery-v0.2","","""event"",""trial"",""time""
""blur"",""1"",""138""
""focus"",""1"",""252""
""blur"",""1"",""2865""
""focus"",""1"",""5759""
""blur"",""1"",""7750""
""focus"",""1"",""85099""
""fullscreenenter"",""1"",""85223""
","""event"",""trial"",""time""
""blur"",""1"",""138""
""blur"",""1"",""2865""
""blur"",""1"",""7750""
","""event"",""trial"",""time""
""focus"",""1"",""252""
""focus"",""1"",""5759""
""focus"",""1"",""85099""
","""event"",""trial"",""time""
""fullscreenenter"",""1"",""85223""
","
","","","610","","","22","10616","5009","&#9789;","elianto","#f73b6a7A"," "," ","1","0","[1461.4000000059605]","1","0","4","","","","","","","",""
"pit-trial","93","844016","0.0-2.0-17.2-2.2","battery-v0.2","","""event"",""trial"",""time""
""blur"",""1"",""138""
""focus"",""1"",""252""
""blur"",""1"",""2865""
""focus"",""1"",""5759""
""blur"",""1"",""7750""
""focus"",""1"",""85099""
""fullscreenenter"",""1"",""85223""
","""event"",""trial"",""time""
""blur"",""1"",""138""
""blur"",""1"",""2865""
""blur"",""1"",""7750""
","""event"",""trial"",""time""
""focus"",""1"",""252""
""focus"",""1"",""5759""
""focus"",""1"",""85099""
","""event"",""trial"",""time""
""fullscreenenter"",""1"",""85223""
","
","","","583.5","","","22","10616","5009","&#9789;","elianto","#f73b6a7A"," "," ","1","0","[1434.800000011921]","1","0","4","","","","","","","",""
"pit-trial","94","847386","0.0-2.0-17.2-3.2","battery-v0.2","","""event"",""trial"",""time""
""blur"",""1"",""138""
""focus"",""1"",""252""
""blur"",""1"",""2865""
""focus"",""1"",""5759""
""blur"",""1"",""7750""
""focus"",""1"",""85099""
""fullscreenenter"",""1"",""85223""
","""event"",""trial"",""time""
""blur"",""1"",""138""
""blur"",""1"",""2865""
""blur"",""1"",""7750""
","""event"",""trial"",""time""
""focus"",""1"",""252""
""focus"",""1"",""5759""
""focus"",""1"",""85099""
","""event"",""trial"",""time""
""fullscreenenter"",""1"",""85223""
","
","","","517.1999999880791","","","22","10616","5009","&#9789;","elianto","#f73b6a7A"," "," ","1","-10","[1367.5]","1","0","4","","","","","","","",""
"pit-trial","95","850603","0.0-2.0-17.2-4.2","battery-v0.2","","""event"",""trial"",""time""
""blur"",""1"",""138""
""focus"",""1"",""252""
""blur"",""1"",""2865""
""focus"",""1"",""5759""
""blur"",""1"",""7750""
""focus"",""1"",""85099""
""fullscreenenter"",""1"",""85223""
","""event"",""trial"",""time""
""blur"",""1"",""138""
""blur"",""1"",""2865""
""blur"",""1"",""7750""
","""event"",""trial"",""time""
""focus"",""1"",""252""
""focus"",""1"",""5759""
""focus"",""1"",""85099""
","""event"",""trial"",""time""
""fullscreenenter"",""1"",""85223""
","
","","","363.69999998807907","","","22","10616","5009","&#9789;","elianto","#f73b6a7A"," "," ","1","0","[1214.5999999940395]","1","0","4","","","","","","","",""
"pit-trial","96","854084","0.0-2.0-17.3-0.3","battery-v0.2","","""event"",""trial"",""time""
""blur"",""1"",""138""
""focus"",""1"",""252""
""blur"",""1"",""2865""
""focus"",""1"",""5759""
""blur"",""1"",""7750""
""focus"",""1"",""85099""
""fullscreenenter"",""1"",""85223""
","""event"",""trial"",""time""
""blur"",""1"",""138""
""blur"",""1"",""2865""
""blur"",""1"",""7750""
","""event"",""trial"",""time""
""focus"",""1"",""252""
""focus"",""1"",""5759""
""focus"",""1"",""85099""
","""event"",""trial"",""time""
""fullscreenenter"",""1"",""85223""
","
","","","627.9000000059605","","","22","10616","5009","&#9789;","elianto","#f73b6a7A"," "," ","1","0","[1478.199999988079]","1","0","4","","","","","","","",""
"pit-trial","97","857468","0.0-2.0-17.3-1.3","battery-v0.2","","""event"",""trial"",""time""
""blur"",""1"",""138""
""focus"",""1"",""252""
""blur"",""1"",""2865""
""focus"",""1"",""5759""
""blur"",""1"",""7750""
""focus"",""1"",""85099""
""fullscreenenter"",""1"",""85223""
","""event"",""trial"",""time""
""blur"",""1"",""138""
""blur"",""1"",""2865""
""blur"",""1"",""7750""
","""event"",""trial"",""time""
""focus"",""1"",""252""
""focus"",""1"",""5759""
""focus"",""1"",""85099""
","""event"",""trial"",""time""
""fullscreenenter"",""1"",""85223""
","
","","","531.5999999940395","","","22","10616","5009","&#9789;","elianto","#f73b6a7A"," "," ","1","0","[1381.800000011921]","1","0","4","","","","","","","",""
"pit-trial","98","860818","0.0-2.0-17.3-2.3","battery-v0.2","","""event"",""trial"",""time""
""blur"",""1"",""138""
""focus"",""1"",""252""
""blur"",""1"",""2865""
""focus"",""1"",""5759""
""blur"",""1"",""7750""
""focus"",""1"",""85099""
""fullscreenenter"",""1"",""85223""
","""event"",""trial"",""time""
""blur"",""1"",""138""
""blur"",""1"",""2865""
""blur"",""1"",""7750""
","""event"",""trial"",""time""
""focus"",""1"",""252""
""focus"",""1"",""5759""
""focus"",""1"",""85099""
","""event"",""trial"",""time""
""fullscreenenter"",""1"",""85223""
","
","","","497.80000001192093","","","22","10616","5009","&#9789;","elianto","#f73b6a7A"," "," ","1","0","[1348.4000000059605]","1","0","4","","","","","","","",""
"pit-trial","99","864129","0.0-2.0-17.3-3.3","battery-v0.2","","""event"",""trial"",""time""
""blur"",""1"",""138""
""focus"",""1"",""252""
""blur"",""1"",""2865""
""focus"",""1"",""5759""
""blur"",""1"",""7750""
""focus"",""1"",""85099""
""fullscreenenter"",""1"",""85223""
","""event"",""trial"",""time""
""blur"",""1"",""138""
""blur"",""1"",""2865""
""blur"",""1"",""7750""
","""event"",""trial"",""time""
""focus"",""1"",""252""
""focus"",""1"",""5759""
""focus"",""1"",""85099""
","""event"",""trial"",""time""
""fullscreenenter"",""1"",""85223""
","
","","","458.09999999403954","","","22","10616","5009","&#9789;","elianto","#f73b6a7A"," "," ","1","-10","[1308.4000000059605]","1","0","4","","","","","","","",""
"pit-trial","100","867509","0.0-2.0-17.3-4.3","battery-v0.2","","""event"",""trial"",""time""
""blur"",""1"",""138""
""focus"",""1"",""252""
""blur"",""1"",""2865""
""focus"",""1"",""5759""
""blur"",""1"",""7750""
""focus"",""1"",""85099""
""fullscreenenter"",""1"",""85223""
","""event"",""trial"",""time""
""blur"",""1"",""138""
""blur"",""1"",""2865""
""blur"",""1"",""7750""
","""event"",""trial"",""time""
""focus"",""1"",""252""
""focus"",""1"",""5759""
""focus"",""1"",""85099""
","""event"",""trial"",""time""
""fullscreenenter"",""1"",""85223""
","
","","","526.5999999940395","","","22","10616","5009","&#9789;","elianto","#f73b6a7A"," "," ","1","0","[1378.199999988079]","1","0","4","","","","","","","",""
"call-function","101","867510","0.0-2.0-18.0","battery-v0.2","","""event"",""trial"",""time""
""blur"",""1"",""138""
""focus"",""1"",""252""
""blur"",""1"",""2865""
""focus"",""1"",""5759""
""blur"",""1"",""7750""
""focus"",""1"",""85099""
""fullscreenenter"",""1"",""85223""
","""event"",""trial"",""time""
""blur"",""1"",""138""
""blur"",""1"",""2865""
""blur"",""1"",""7750""
","""event"",""trial"",""time""
""focus"",""1"",""252""
""focus"",""1"",""5759""
""focus"",""1"",""85099""
","""event"",""trial"",""time""
""fullscreenenter"",""1"",""85223""
","
","","","","","","","","","","","","","","","","","","","","","","","","","","",""
"pit-instructions","102","984881","0.0-2.0-19.0","battery-v0.2","","""event"",""trial"",""time""
""blur"",""1"",""138""
""focus"",""1"",""252""
""blur"",""1"",""2865""
""focus"",""1"",""5759""
""blur"",""1"",""7750""
""focus"",""1"",""85099""
""fullscreenenter"",""1"",""85223""
","""event"",""trial"",""time""
""blur"",""1"",""138""
""blur"",""1"",""2865""
""blur"",""1"",""7750""
","""event"",""trial"",""time""
""focus"",""1"",""252""
""focus"",""1"",""5759""
""focus"",""1"",""85099""
","""event"",""trial"",""time""
""fullscreenenter"",""1"",""85223""
","
","","[{""page_index"":0,""viewing_time"":47288.59999999404},{""page_index"":1,""viewing_time"":7247.300000011921},{""page_index"":2,""viewing_time"":15109.799999982119},{""page_index"":3,""viewing_time"":10543.5},{""page_index"":4,""viewing_time"":8874.90000000596},{""page_index"":5,""viewing_time"":8748.5},{""page_index"":6,""viewing_time"":8301.09999999404},{""page_index"":7,""viewing_time"":6660.5},{""page_index"":8,""viewing_time"":4596.200000017881}]","117370.79999998212","","","","","","","","","","","","","","","","","","","","","","","",""
"pit-comprehension","103","989325","0.0-2.0-20.0-0.0","battery-v0.2","","""event"",""trial"",""time""
""blur"",""1"",""138""
""focus"",""1"",""252""
""blur"",""1"",""2865""
""focus"",""1"",""5759""
""blur"",""1"",""7750""
""focus"",""1"",""85099""
""fullscreenenter"",""1"",""85223""
","""event"",""trial"",""time""
""blur"",""1"",""138""
""blur"",""1"",""2865""
""blur"",""1"",""7750""
","""event"",""trial"",""time""
""focus"",""1"",""252""
""focus"",""1"",""5759""
""focus"",""1"",""85099""
","""event"",""trial"",""time""
""fullscreenenter"",""1"",""85223""
","
","","","4442.300000011921","[""SPACE""]","0","22","10616","5009","","","","","","","","","","","","","","","","","","",""
"pit-instructions","104","992227","0.0-2.0-20.0-1.0","battery-v0.2","","""event"",""trial"",""time""
""blur"",""1"",""138""
""focus"",""1"",""252""
""blur"",""1"",""2865""
""focus"",""1"",""5759""
""blur"",""1"",""7750""
""focus"",""1"",""85099""
""fullscreenenter"",""1"",""85223""
","""event"",""trial"",""time""
""blur"",""1"",""138""
""blur"",""1"",""2865""
""blur"",""1"",""7750""
","""event"",""trial"",""time""
""focus"",""1"",""252""
""focus"",""1"",""5759""
""focus"",""1"",""85099""
","""event"",""trial"",""time""
""fullscreenenter"",""1"",""85223""
","
","","[{""page_index"":0,""viewing_time"":2875.5}]","2875.9000000059605","","","","","","","","","","","","","","","","","","","","","","","",""
"pit-comprehension","105","997501","0.0-2.0-21.0-0.0","battery-v0.2","","""event"",""trial"",""time""
""blur"",""1"",""138""
""focus"",""1"",""252""
""blur"",""1"",""2865""
""focus"",""1"",""5759""
""blur"",""1"",""7750""
""focus"",""1"",""85099""
""fullscreenenter"",""1"",""85223""
","""event"",""trial"",""time""
""blur"",""1"",""138""
""blur"",""1"",""2865""
""blur"",""1"",""7750""
","""event"",""trial"",""time""
""focus"",""1"",""252""
""focus"",""1"",""5759""
""focus"",""1"",""85099""
","""event"",""trial"",""time""
""fullscreenenter"",""1"",""85223""
","
","","","5270.9000000059605","[""10""]","0","22","10616","5009","","","","","","","","","","","","","","","","","","",""
"pit-instructions","106","999443","0.0-2.0-21.0-1.0","battery-v0.2","","""event"",""trial"",""time""
""blur"",""1"",""138""
""focus"",""1"",""252""
""blur"",""1"",""2865""
""focus"",""1"",""5759""
""blur"",""1"",""7750""
""focus"",""1"",""85099""
""fullscreenenter"",""1"",""85223""
","""event"",""trial"",""time""
""blur"",""1"",""138""
""blur"",""1"",""2865""
""blur"",""1"",""7750""
","""event"",""trial"",""time""
""focus"",""1"",""252""
""focus"",""1"",""5759""
""focus"",""1"",""85099""
","""event"",""trial"",""time""
""fullscreenenter"",""1"",""85223""
","
","","[{""page_index"":0,""viewing_time"":1918.699999988079}]","1919.0999999940395","","","","","","","","","","","","","","","","","","","","","","","",""
"pit-comprehension","107","1006877","0.0-2.0-22.0-0.0","battery-v0.2","","""event"",""trial"",""time""
""blur"",""1"",""138""
""focus"",""1"",""252""
""blur"",""1"",""2865""
""focus"",""1"",""5759""
""blur"",""1"",""7750""
""focus"",""1"",""85099""
""fullscreenenter"",""1"",""85223""
","""event"",""trial"",""time""
""blur"",""1"",""138""
""blur"",""1"",""2865""
""blur"",""1"",""7750""
","""event"",""trial"",""time""
""focus"",""1"",""252""
""focus"",""1"",""5759""
""focus"",""1"",""85099""
","""event"",""trial"",""time""
""fullscreenenter"",""1"",""85223""
","
","","","7431.5999999940395","[""0""]","0","22","10616","5009","","","","","","","","","","","","","","","","","","",""
"pit-instructions","108","1008436","0.0-2.0-22.0-1.0","battery-v0.2","","""event"",""trial"",""time""
""blur"",""1"",""138""
""focus"",""1"",""252""
""blur"",""1"",""2865""
""focus"",""1"",""5759""
""blur"",""1"",""7750""
""focus"",""1"",""85099""
""fullscreenenter"",""1"",""85223""
","""event"",""trial"",""time""
""blur"",""1"",""138""
""blur"",""1"",""2865""
""blur"",""1"",""7750""
","""event"",""trial"",""time""
""focus"",""1"",""252""
""focus"",""1"",""5759""
""focus"",""1"",""85099""
","""event"",""trial"",""time""
""fullscreenenter"",""1"",""85223""
","
","","[{""page_index"":0,""viewing_time"":1534}]","1534.300000011921","","","","","","","","","","","","","","","","","","","","","","","",""
"pit-comprehension","109","1018576","0.0-2.0-23.0-0.0","battery-v0.2","","""event"",""trial"",""time""
""blur"",""1"",""138""
""focus"",""1"",""252""
""blur"",""1"",""2865""
""focus"",""1"",""5759""
""blur"",""1"",""7750""
""focus"",""1"",""85099""
""fullscreenenter"",""1"",""85223""
","""event"",""trial"",""time""
""blur"",""1"",""138""
""blur"",""1"",""2865""
""blur"",""1"",""7750""
","""event"",""trial"",""time""
""focus"",""1"",""252""
""focus"",""1"",""5759""
""focus"",""1"",""85099""
","""event"",""trial"",""time""
""fullscreenenter"",""1"",""85223""
","
","","","10138.799999982119","[""True""]","0","22","10616","5009","","","","","","","","","","","","","","","","","","",""
"pit-instructions","110","1021419","0.0-2.0-23.0-1.0","battery-v0.2","","""event"",""trial"",""time""
""blur"",""1"",""138""
""focus"",""1"",""252""
""blur"",""1"",""2865""
""focus"",""1"",""5759""
""blur"",""1"",""7750""
""focus"",""1"",""85099""
""fullscreenenter"",""1"",""85223""
","""event"",""trial"",""time""
""blur"",""1"",""138""
""blur"",""1"",""2865""
""blur"",""1"",""7750""
","""event"",""trial"",""time""
""focus"",""1"",""252""
""focus"",""1"",""5759""
""focus"",""1"",""85099""
","""event"",""trial"",""time""
""fullscreenenter"",""1"",""85223""
","
","","[{""page_index"":0,""viewing_time"":2817.5999999940395}]","2817.9000000059605","","","","","","","","","","","","","","","","","","","","","","","",""
"pit-comprehension","111","1029152","0.0-2.0-24.0-0.0","battery-v0.2","","""event"",""trial"",""time""
""blur"",""1"",""138""
""focus"",""1"",""252""
""blur"",""1"",""2865""
""focus"",""1"",""5759""
""blur"",""1"",""7750""
""focus"",""1"",""85099""
""fullscreenenter"",""1"",""85223""
","""event"",""trial"",""time""
""blur"",""1"",""138""
""blur"",""1"",""2865""
""blur"",""1"",""7750""
","""event"",""trial"",""time""
""focus"",""1"",""252""
""focus"",""1"",""5759""
""focus"",""1"",""85099""
","""event"",""trial"",""time""
""fullscreenenter"",""1"",""85223""
","
","","","7731.4000000059605","[""True""]","0","22","10616","5009","","","","","","","","","","","","","","","","","","",""
"pit-instructions","112","1032002","0.0-2.0-24.0-1.0","battery-v0.2","","""event"",""trial"",""time""
""blur"",""1"",""138""
""focus"",""1"",""252""
""blur"",""1"",""2865""
""focus"",""1"",""5759""
""blur"",""1"",""7750""
""focus"",""1"",""85099""
""fullscreenenter"",""1"",""85223""
","""event"",""trial"",""time""
""blur"",""1"",""138""
""blur"",""1"",""2865""
""blur"",""1"",""7750""
","""event"",""trial"",""time""
""focus"",""1"",""252""
""focus"",""1"",""5759""
""focus"",""1"",""85099""
","""event"",""trial"",""time""
""fullscreenenter"",""1"",""85223""
","
","","[{""page_index"":0,""viewing_time"":2824.699999988079}]","2824.9000000059605","","","","","","","","","","","","","","","","","","","","","","","",""
"pit-comprehension","113","1038355","0.0-2.0-25.0-0.0","battery-v0.2","","""event"",""trial"",""time""
""blur"",""1"",""138""
""focus"",""1"",""252""
""blur"",""1"",""2865""
""focus"",""1"",""5759""
""blur"",""1"",""7750""
""focus"",""1"",""85099""
""fullscreenenter"",""1"",""85223""
","""event"",""trial"",""time""
""blur"",""1"",""138""
""blur"",""1"",""2865""
""blur"",""1"",""7750""
","""event"",""trial"",""time""
""focus"",""1"",""252""
""focus"",""1"",""5759""
""focus"",""1"",""85099""
","""event"",""trial"",""time""
""fullscreenenter"",""1"",""85223""
","
","","","6351","[""True""]","0","22","10616","5009","","","","","","","","","","","","","","","","","","",""
"pit-instructions","114","1040890","0.0-2.0-25.0-1.0","battery-v0.2","","""event"",""trial"",""time""
""blur"",""1"",""138""
""focus"",""1"",""252""
""blur"",""1"",""2865""
""focus"",""1"",""5759""
""blur"",""1"",""7750""
""focus"",""1"",""85099""
""fullscreenenter"",""1"",""85223""
","""event"",""trial"",""time""
""blur"",""1"",""138""
""blur"",""1"",""2865""
""blur"",""1"",""7750""
","""event"",""trial"",""time""
""focus"",""1"",""252""
""focus"",""1"",""5759""
""focus"",""1"",""85099""
","""event"",""trial"",""time""
""fullscreenenter"",""1"",""85223""
","
","","[{""page_index"":0,""viewing_time"":2510.0999999940395}]","2510.5","","","","","","","","","","","","","","","","","","","","","","","",""
"pit-comprehension","115","1045540","0.0-2.0-26.0-0.0","battery-v0.2","","""event"",""trial"",""time""
""blur"",""1"",""138""
""focus"",""1"",""252""
""blur"",""1"",""2865""
""focus"",""1"",""5759""
""blur"",""1"",""7750""
""focus"",""1"",""85099""
""fullscreenenter"",""1"",""85223""
""blur"",""116"",""1050192""
""focus"",""116"",""1050202""
""fullscreenexit"",""116"",""1050208""
","""event"",""trial"",""time""
""blur"",""1"",""138""
""blur"",""1"",""2865""
""blur"",""1"",""7750""
""blur"",""116"",""1050192""
","""event"",""trial"",""time""
""focus"",""1"",""252""
""focus"",""1"",""5759""
""focus"",""1"",""85099""
""focus"",""116"",""1050202""
","""event"",""trial"",""time""
""fullscreenenter"",""1"",""85223""
","""event"",""trial"",""time""
""fullscreenexit"",""116"",""1050208""
","","","4648.0999999940395","[""False""]","0","22","10616","5009","","","","","","","","","","","","","","","","","","",""
"pit-instructions","116","1053602","0.0-2.0-26.0-1.0","battery-v0.2","","""event"",""trial"",""time""
""blur"",""1"",""138""
""focus"",""1"",""252""
""blur"",""1"",""2865""
""focus"",""1"",""5759""
""blur"",""1"",""7750""
""focus"",""1"",""85099""
""fullscreenenter"",""1"",""85223""
""blur"",""116"",""1050192""
""focus"",""116"",""1050202""
""fullscreenexit"",""116"",""1050208""
","""event"",""trial"",""time""
""blur"",""1"",""138""
""blur"",""1"",""2865""
""blur"",""1"",""7750""
""blur"",""116"",""1050192""
","""event"",""trial"",""time""
""focus"",""1"",""252""
""focus"",""1"",""5759""
""focus"",""1"",""85099""
""focus"",""116"",""1050202""
","""event"",""trial"",""time""
""fullscreenenter"",""1"",""85223""
","""event"",""trial"",""time""
""fullscreenexit"",""116"",""1050208""
","","[{""page_index"":0,""viewing_time"":8037.199999988079}]","8037.4000000059605","","","","","","","","","","","","","","","","","","","","","","","",""
"pit-instructions","117","1069135","0.0-3.0","battery-v0.2","","""event"",""trial"",""time""
""blur"",""1"",""138""
""focus"",""1"",""252""
""blur"",""1"",""2865""
""focus"",""1"",""5759""
""blur"",""1"",""7750""
""focus"",""1"",""85099""
""fullscreenenter"",""1"",""85223""
""blur"",""116"",""1050192""
""focus"",""116"",""1050202""
""fullscreenexit"",""116"",""1050208""
","""event"",""trial"",""time""
""blur"",""1"",""138""
""blur"",""1"",""2865""
""blur"",""1"",""7750""
""blur"",""116"",""1050192""
","""event"",""trial"",""time""
""focus"",""1"",""252""
""focus"",""1"",""5759""
""focus"",""1"",""85099""
""focus"",""116"",""1050202""
","""event"",""trial"",""time""
""fullscreenenter"",""1"",""85223""
","""event"",""trial"",""time""
""fullscreenexit"",""116"",""1050208""
","","[{""page_index"":0,""viewing_time"":4221},{""page_index"":1,""viewing_time"":5130.299999982119},{""page_index"":2,""viewing_time"":6180.0999999940395}]","15531.699999988079","","","","","","","","","","","","","","","","","","","","","","","",""
"pit-trial","118","1072488","0.0-4.0","battery-v0.2","","""event"",""trial"",""time""
""blur"",""1"",""138""
""focus"",""1"",""252""
""blur"",""1"",""2865""
""focus"",""1"",""5759""
""blur"",""1"",""7750""
""focus"",""1"",""85099""
""fullscreenenter"",""1"",""85223""
""blur"",""116"",""1050192""
""focus"",""116"",""1050202""
""fullscreenexit"",""116"",""1050208""
","""event"",""trial"",""time""
""blur"",""1"",""138""
""blur"",""1"",""2865""
""blur"",""1"",""7750""
""blur"",""116"",""1050192""
","""event"",""trial"",""time""
""focus"",""1"",""252""
""focus"",""1"",""5759""
""focus"",""1"",""85099""
""focus"",""116"",""1050202""
","""event"",""trial"",""time""
""fullscreenenter"",""1"",""85223""
","""event"",""trial"",""time""
""fullscreenexit"",""116"",""1050208""
","","","482.7999999821186","","","22","10616","5009","&#9728;","elianto","#f73b6a7A","-1"," ","0","0","[1333.9000000059605]","1","1","","","10616","1","0","4","lose","no-go","1"
"pit-trial","119","1075974","0.0-5.0","battery-v0.2","","""event"",""trial"",""time""
""blur"",""1"",""138""
""focus"",""1"",""252""
""blur"",""1"",""2865""
""focus"",""1"",""5759""
""blur"",""1"",""7750""
""focus"",""1"",""85099""
""fullscreenenter"",""1"",""85223""
""blur"",""116"",""1050192""
""focus"",""116"",""1050202""
""fullscreenexit"",""116"",""1050208""
","""event"",""trial"",""time""
""blur"",""1"",""138""
""blur"",""1"",""2865""
""blur"",""1"",""7750""
""blur"",""116"",""1050192""
","""event"",""trial"",""time""
""focus"",""1"",""252""
""focus"",""1"",""5759""
""focus"",""1"",""85099""
""focus"",""116"",""1050202""
","""event"",""trial"",""time""
""fullscreenenter"",""1"",""85223""
","""event"",""trial"",""time""
""fullscreenexit"",""116"",""1050208""
","","","621","","","22","10616","5009","&#9752;","elianto","#f73b6a7A"," "," ","1","0","[1473.9000000059605]","1","1","","","10616","2","3","3","lose","go","0"
"pit-trial","120","1079902","0.0-6.0","battery-v0.2","","""event"",""trial"",""time""
""blur"",""1"",""138""
""focus"",""1"",""252""
""blur"",""1"",""2865""
""focus"",""1"",""5759""
""blur"",""1"",""7750""
""focus"",""1"",""85099""
""fullscreenenter"",""1"",""85223""
""blur"",""116"",""1050192""
""focus"",""116"",""1050202""
""fullscreenexit"",""116"",""1050208""
","""event"",""trial"",""time""
""blur"",""1"",""138""
""blur"",""1"",""2865""
""blur"",""1"",""7750""
""blur"",""116"",""1050192""
","""event"",""trial"",""time""
""focus"",""1"",""252""
""focus"",""1"",""5759""
""focus"",""1"",""85099""
""focus"",""116"",""1050202""
","""event"",""trial"",""time""
""fullscreenenter"",""1"",""85223""
","""event"",""trial"",""time""
""fullscreenexit"",""116"",""1050208""
","","","1068.199999988079","","","22","10616","5009","&#9730;","elianto","#3366ff99"," "," ","1","+10","[1923.800000011921]","1","1","","","10616","3","1","1","win","go","0"
"pit-trial","121","1084774","0.0-7.0","battery-v0.2","","""event"",""trial"",""time""
""blur"",""1"",""138""
""focus"",""1"",""252""
""blur"",""1"",""2865""
""focus"",""1"",""5759""
""blur"",""1"",""7750""
""focus"",""1"",""85099""
""fullscreenenter"",""1"",""85223""
""blur"",""116"",""1050192""
""focus"",""116"",""1050202""
""fullscreenexit"",""116"",""1050208""
","""event"",""trial"",""time""
""blur"",""1"",""138""
""blur"",""1"",""2865""
""blur"",""1"",""7750""
""blur"",""116"",""1050192""
","""event"",""trial"",""time""
""focus"",""1"",""252""
""focus"",""1"",""5759""
""focus"",""1"",""85099""
""focus"",""116"",""1050202""
","""event"",""trial"",""time""
""fullscreenenter"",""1"",""85223""
","""event"",""trial"",""time""
""fullscreenexit"",""116"",""1050208""
","","","-1","","","22","10616","5009","&#9733;","elianto","#3366ff99","-1","-1","1","+10","[]","0","1","","","10616","4","2","2","win","no-go","0"
"pit-trial","122","1088389","0.0-8.0","battery-v0.2","","""event"",""trial"",""time""
""blur"",""1"",""138""
""focus"",""1"",""252""
""blur"",""1"",""2865""
""focus"",""1"",""5759""
""blur"",""1"",""7750""
""focus"",""1"",""85099""
""fullscreenenter"",""1"",""85223""
""blur"",""116"",""1050192""
""focus"",""116"",""1050202""
""fullscreenexit"",""116"",""1050208""
","""event"",""trial"",""time""
""blur"",""1"",""138""
""blur"",""1"",""2865""
""blur"",""1"",""7750""
""blur"",""116"",""1050192""
","""event"",""trial"",""time""
""focus"",""1"",""252""
""focus"",""1"",""5759""
""focus"",""1"",""85099""
""focus"",""116"",""1050202""
","""event"",""trial"",""time""
""fullscreenenter"",""1"",""85223""
","""event"",""trial"",""time""
""fullscreenexit"",""116"",""1050208""
","","","755","","","22","10616","5009","&#9728;","elianto","#f73b6a7A","-1"," ","0","-10","[1607.4000000059605]","1","1","","","10616","5","0","4","lose","no-go","0"
"pit-trial","123","1092419","0.0-9.0","battery-v0.2","","""event"",""trial"",""time""
""blur"",""1"",""138""
""focus"",""1"",""252""
""blur"",""1"",""2865""
""focus"",""1"",""5759""
""blur"",""1"",""7750""
""focus"",""1"",""85099""
""fullscreenenter"",""1"",""85223""
""blur"",""116"",""1050192""
""focus"",""116"",""1050202""
""fullscreenexit"",""116"",""1050208""
","""event"",""trial"",""time""
""blur"",""1"",""138""
""blur"",""1"",""2865""
""blur"",""1"",""7750""
""blur"",""116"",""1050192""
","""event"",""trial"",""time""
""focus"",""1"",""252""
""focus"",""1"",""5759""
""focus"",""1"",""85099""
""focus"",""116"",""1050202""
","""event"",""trial"",""time""
""fullscreenenter"",""1"",""85223""
","""event"",""trial"",""time""
""fullscreenexit"",""116"",""1050208""
","","","1161.0999999940395","","","22","10616","5009","&#9730;","elianto","#3366ff99"," "," ","1","+10","[2017]","1","1","","","10616","6","1","1","win","go","0"
"pit-trial","124","1097052","0.0-10.0","battery-v0.2","","""event"",""trial"",""time""
""blur"",""1"",""138""
""focus"",""1"",""252""
""blur"",""1"",""2865""
""focus"",""1"",""5759""
""blur"",""1"",""7750""
""focus"",""1"",""85099""
""fullscreenenter"",""1"",""85223""
""blur"",""116"",""1050192""
""focus"",""116"",""1050202""
""fullscreenexit"",""116"",""1050208""
","""event"",""trial"",""time""
""blur"",""1"",""138""
""blur"",""1"",""2865""
""blur"",""1"",""7750""
""blur"",""116"",""1050192""
","""event"",""trial"",""time""
""focus"",""1"",""252""
""focus"",""1"",""5759""
""focus"",""1"",""85099""
""focus"",""116"",""1050202""
","""event"",""trial"",""time""
""fullscreenenter"",""1"",""85223""
","""event"",""trial"",""time""
""fullscreenexit"",""116"",""1050208""
","","","1766","","","22","10616","5009","&#9733;","elianto","#3366ff99","-1"," ","0","+10","[2616.699999988079]","1","1","","","10616","7","2","2","win","no-go","1"
"pit-trial","125","1101916","0.0-11.0","battery-v0.2","","""event"",""trial"",""time""
""blur"",""1"",""138""
""focus"",""1"",""252""
""blur"",""1"",""2865""
""focus"",""1"",""5759""
""blur"",""1"",""7750""
""focus"",""1"",""85099""
""fullscreenenter"",""1"",""85223""
""blur"",""116"",""1050192""
""focus"",""116"",""1050202""
""fullscreenexit"",""116"",""1050208""
","""event"",""trial"",""time""
""blur"",""1"",""138""
""blur"",""1"",""2865""
""blur"",""1"",""7750""
""blur"",""116"",""1050192""
","""event"",""trial"",""time""
""focus"",""1"",""252""
""focus"",""1"",""5759""
""focus"",""1"",""85099""
""focus"",""116"",""1050202""
","""event"",""trial"",""time""
""fullscreenenter"",""1"",""85223""
","""event"",""trial"",""time""
""fullscreenexit"",""116"",""1050208""
","","","-1","","","22","10616","5009","&#9752;","elianto","#f73b6a7A"," ","-1","0","-10","[]","0","1","","","10616","8","3","3","lose","go","0"
"pit-trial","126","1105546","0.0-12.0","battery-v0.2","","""event"",""trial"",""time""
""blur"",""1"",""138""
""focus"",""1"",""252""
""blur"",""1"",""2865""
""focus"",""1"",""5759""
""blur"",""1"",""7750""
""focus"",""1"",""85099""
""fullscreenenter"",""1"",""85223""
""blur"",""116"",""1050192""
""focus"",""116"",""1050202""
""fullscreenexit"",""116"",""1050208""
","""event"",""trial"",""time""
""blur"",""1"",""138""
""blur"",""1"",""2865""
""blur"",""1"",""7750""
""blur"",""116"",""1050192""
","""event"",""trial"",""time""
""focus"",""1"",""252""
""focus"",""1"",""5759""
""focus"",""1"",""85099""
""focus"",""116"",""1050202""
","""event"",""trial"",""time""
""fullscreenenter"",""1"",""85223""
","""event"",""trial"",""time""
""fullscreenexit"",""116"",""1050208""
","","","777.8000000119209","","","22","10616","5009","&#9752;","elianto","#f73b6a7A"," "," ","1","0","[1628]","1","1","","","10616","9","3","3","lose","go","0"
"pit-trial","127","1108957","0.0-13.0","battery-v0.2","","""event"",""trial"",""time""
""blur"",""1"",""138""
""focus"",""1"",""252""
""blur"",""1"",""2865""
""focus"",""1"",""5759""
""blur"",""1"",""7750""
""focus"",""1"",""85099""
""fullscreenenter"",""1"",""85223""
""blur"",""116"",""1050192""
""focus"",""116"",""1050202""
""fullscreenexit"",""116"",""1050208""
","""event"",""trial"",""time""
""blur"",""1"",""138""
""blur"",""1"",""2865""
""blur"",""1"",""7750""
""blur"",""116"",""1050192""
","""event"",""trial"",""time""
""focus"",""1"",""252""
""focus"",""1"",""5759""
""focus"",""1"",""85099""
""focus"",""116"",""1050202""
","""event"",""trial"",""time""
""fullscreenenter"",""1"",""85223""
","""event"",""trial"",""time""
""fullscreenexit"",""116"",""1050208""
","","","557.3999999761581","","","22","10616","5009","&#9730;","elianto","#3366ff99"," "," ","1","+10","[1408]","1","1","","","10616","10","1","1","win","go","0"
"pit-trial","128","1112335","0.0-14.0","battery-v0.2","","""event"",""trial"",""time""
""blur"",""1"",""138""
""focus"",""1"",""252""
""blur"",""1"",""2865""
""focus"",""1"",""5759""
""blur"",""1"",""7750""
""focus"",""1"",""85099""
""fullscreenenter"",""1"",""85223""
""blur"",""116"",""1050192""
""focus"",""116"",""1050202""
""fullscreenexit"",""116"",""1050208""
","""event"",""trial"",""time""
""blur"",""1"",""138""
""blur"",""1"",""2865""
""blur"",""1"",""7750""
""blur"",""116"",""1050192""
","""event"",""trial"",""time""
""focus"",""1"",""252""
""focus"",""1"",""5759""
""focus"",""1"",""85099""
""focus"",""116"",""1050202""
","""event"",""trial"",""time""
""fullscreenenter"",""1"",""85223""
","""event"",""trial"",""time""
""fullscreenexit"",""116"",""1050208""
","","","525.1999999880791","","","22","10616","5009","&#9733;","elianto","#3366ff99","-1"," ","0","0","[1376]","1","1","","","10616","11","2","2","win","no-go","0"
"pit-trial","129","1117187","0.0-15.0","battery-v0.2","","""event"",""trial"",""time""
""blur"",""1"",""138""
""focus"",""1"",""252""
""blur"",""1"",""2865""
""focus"",""1"",""5759""
""blur"",""1"",""7750""
""focus"",""1"",""85099""
""fullscreenenter"",""1"",""85223""
""blur"",""116"",""1050192""
""focus"",""116"",""1050202""
""fullscreenexit"",""116"",""1050208""
","""event"",""trial"",""time""
""blur"",""1"",""138""
""blur"",""1"",""2865""
""blur"",""1"",""7750""
""blur"",""116"",""1050192""
","""event"",""trial"",""time""
""focus"",""1"",""252""
""focus"",""1"",""5759""
""focus"",""1"",""85099""
""focus"",""116"",""1050202""
","""event"",""trial"",""time""
""fullscreenenter"",""1"",""85223""
","""event"",""trial"",""time""
""fullscreenexit"",""116"",""1050208""
