"trial_type","trial_index","time_elapsed","internal_node_id","task_version","subject_id","interactions","blur_events","focus_events","fullscreenenter_events","fullscreenexit_events","success","view_history","rt","responses","num_errors","age","subject","participantId","rune","rune_set","hex","correct","choice","accuracy","outcome","keys","total_keys","block","practice","value","sub","trial","stimulus","robot","valence","action","sham"
"pavlovia","0","21","0.0-0.0","battery-v0.2","","""event"",""trial"",""time""
""fullscreenenter"",""1"",""5943""
","
","
","""event"",""trial"",""time""
""fullscreenenter"",""1"",""5943""
","
","","","","","","","","","","","","","","","","","","","","","","","","","","",""
"fullscreen","1","6928","0.0-1.0","battery-v0.2","","""event"",""trial"",""time""
""fullscreenenter"",""1"",""5943""
","
","
","""event"",""trial"",""time""
""fullscreenenter"",""1"",""5943""
","
","true","","","","","","","","","","","","","","","","","","","","","","","","","",""
"pit-instructions","2","14467","0.0-2.0-0.0","battery-v0.2","","""event"",""trial"",""time""
""fullscreenenter"",""1"",""5943""
","
","
","""event"",""trial"",""time""
""fullscreenenter"",""1"",""5943""
","
","","[{""page_index"":0,""viewing_time"":7532.399999976158}]","7532.899999976158","","","","","","","","","","","","","","","","","","","","","","","",""
"pit-comprehension","3","19267","0.0-2.0-1.0-0.0","battery-v0.2","","""event"",""trial"",""time""
""fullscreenenter"",""1"",""5943""
","
","
","""event"",""trial"",""time""
""fullscreenenter"",""1"",""5943""
","
","","","4794.899999976158","[""shark""]","0","12","4116","704","","","","","","","","","","","","","","","","","","",""
"pit-instructions","4","21299","0.0-2.0-1.0-1.0","battery-v0.2","","""event"",""trial"",""time""
""fullscreenenter"",""1"",""5943""
","
","
","""event"",""trial"",""time""
""fullscreenenter"",""1"",""5943""
","
","","[{""page_index"":0,""viewing_time"":2008.8000000715256}]","2009.3999999761581","","","","","","","","","","","","","","","","","","","","","","","",""
"pit-comprehension","5","24359","0.0-2.0-2.0-0.0","battery-v0.2","","""event"",""trial"",""time""
""fullscreenenter"",""1"",""5943""
","
","
","""event"",""trial"",""time""
""fullscreenenter"",""1"",""5943""
","
","","","3054.600000023842","[""tiger""]","0","12","4116","704","","","","","","","","","","","","","","","","","","",""
"pit-instructions","6","26199","0.0-2.0-2.0-1.0","battery-v0.2","","""event"",""trial"",""time""
""fullscreenenter"",""1"",""5943""
","
","
","""event"",""trial"",""time""
""fullscreenenter"",""1"",""5943""
","
","","[{""page_index"":0,""viewing_time"":1834.1000000238419}]","1834.7000000476837","","","","","","","","","","","","","","","","","","","","","","","",""
"pit-instructions","7","131830","0.0-2.0-3.0","battery-v0.2","","""event"",""trial"",""time""
""fullscreenenter"",""1"",""5943""
","
","
","""event"",""trial"",""time""
""fullscreenenter"",""1"",""5943""
","
","","[{""page_index"":0,""viewing_time"":9312.200000047684},{""page_index"":1,""viewing_time"":8719},{""page_index"":2,""viewing_time"":10223.899999976158},{""page_index"":3,""viewing_time"":6270.5},{""page_index"":4,""viewing_time"":5779.799999952316},{""page_index"":5,""viewing_time"":6309.200000047684},{""page_index"":6,""viewing_time"":6901.299999952316},{""page_index"":7,""viewing_time"":7503},{""page_index"":8,""viewing_time"":7326},{""page_index"":9,""viewing_time"":7997},{""page_index"":10,""viewing_time"":8651.899999976158},{""page_index"":11,""viewing_time"":7641.5},{""page_index"":12,""viewing_time"":6710},{""page_index"":13,""viewing_time"":5152.100000023842}]","104498.29999995232","","","","","","","","","","","","","","","","","","","","","","","",""
"pit-trial","8","135284","0.0-2.0-4.0-0.0","battery-v0.2","","""event"",""trial"",""time""
""fullscreenenter"",""1"",""5943""
","
","
","""event"",""trial"",""time""
""fullscreenenter"",""1"",""5943""
","
","","","582.2000000476837","","","12","4116","704","&#9784;","elianto","#FFFFF080"," "," ","1","&#10004","[1436.7999999523163]","1","0","0","","","","","","","",""
"pit-trial","9","138785","0.0-2.0-4.1-0.1","battery-v0.2","","""event"",""trial"",""time""
""fullscreenenter"",""1"",""5943""
","
","
","""event"",""trial"",""time""
""fullscreenenter"",""1"",""5943""
","
","","","619","","","12","4116","704","&#9784;","elianto","#FFFFF080"," "," ","1","&#10004","[1469.2000000476837]","1","0","0","","","","","","","",""
"pit-trial","10","142514","0.0-2.0-4.2-0.2","battery-v0.2","","""event"",""trial"",""time""
""fullscreenenter"",""1"",""5943""
","
","
","""event"",""trial"",""time""
""fullscreenenter"",""1"",""5943""
","
","","","873.7000000476837","","","12","4116","704","&#9784;","elianto","#FFFFF080"," "," ","1","&#10004","[1725.2000000476837]","1","0","0","","","","","","","",""
"pit-trial","11","145854","0.0-2.0-4.3-0.3","battery-v0.2","","""event"",""trial"",""time""
""fullscreenenter"",""1"",""5943""
","
","
","""event"",""trial"",""time""
""fullscreenenter"",""1"",""5943""
","
","","","463.10000002384186","","","12","4116","704","&#9784;","elianto","#FFFFF080"," "," ","1","&#10004","[1314.8000000715256]","1","0","0","","","","","","","",""
"pit-trial","12","149364","0.0-2.0-4.4-0.4","battery-v0.2","","""event"",""trial"",""time""
""fullscreenenter"",""1"",""5943""
","
","
","""event"",""trial"",""time""
""fullscreenenter"",""1"",""5943""
","
","","","633.6000000238419","","","12","4116","704","&#9784;","elianto","#FFFFF080"," "," ","1","&#10004","[1485.8999999761581]","1","0","0","","","","","","","",""
"pit-instructions","13","170768","0.0-2.0-5.0","battery-v0.2","","""event"",""trial"",""time""
""fullscreenenter"",""1"",""5943""
","
","
","""event"",""trial"",""time""
""fullscreenenter"",""1"",""5943""
","
","","[{""page_index"":0,""viewing_time"":5066.799999952316},{""page_index"":1,""viewing_time"":5769.899999976158},{""page_index"":2,""viewing_time"":5169.800000071526},{""page_index"":3,""viewing_time"":5389.699999928474}]","21397","","","","","","","","","","","","","","","","","","","","","","","",""
"pit-trial","14","175636","0.0-2.0-6.0-0.0","battery-v0.2","","""event"",""trial"",""time""
""fullscreenenter"",""1"",""5943""
","
","
","""event"",""trial"",""time""
""fullscreenenter"",""1"",""5943""
","
","","","-1","","","12","4116","704","&#9854;","elianto","#FFFFF080","-1","-1","1","&#10004","[]","0","0","1","","","","","","","",""
"pit-trial","15","180525","0.0-2.0-6.1-0.1","battery-v0.2","","""event"",""trial"",""time""
""fullscreenenter"",""1"",""5943""
","
","
","""event"",""trial"",""time""
""fullscreenenter"",""1"",""5943""
","
","","","-1","","","12","4116","704","&#9854;","elianto","#FFFFF080","-1","-1","1","&#10004","[]","0","0","1","","","","","","","",""
"pit-trial","16","185396","0.0-2.0-6.2-0.2","battery-v0.2","","""event"",""trial"",""time""
""fullscreenenter"",""1"",""5943""
","
","
","""event"",""trial"",""time""
""fullscreenenter"",""1"",""5943""
","
","","","-1","","","12","4116","704","&#9854;","elianto","#FFFFF080","-1","-1","1","&#10004","[]","0","0","1","","","","","","","",""
"pit-trial","17","190286","0.0-2.0-6.3-0.3","battery-v0.2","","""event"",""trial"",""time""
""fullscreenenter"",""1"",""5943""
","
","
","""event"",""trial"",""time""
""fullscreenenter"",""1"",""5943""
","
","","","-1","","","12","4116","704","&#9854;","elianto","#FFFFF080","-1","-1","1","&#10004","[]","0","0","1","","","","","","","",""
"pit-trial","18","195165","0.0-2.0-6.4-0.4","battery-v0.2","","""event"",""trial"",""time""
""fullscreenenter"",""1"",""5943""
","
","
","""event"",""trial"",""time""
""fullscreenenter"",""1"",""5943""
","
","","","-1","","","12","4116","704","&#9854;","elianto","#FFFFF080","-1","-1","1","&#10004","[]","0","0","1","","","","","","","",""
"pit-instructions","19","317479","0.0-2.0-7.0","battery-v0.2","","""event"",""trial"",""time""
""fullscreenenter"",""1"",""5943""
","
","
","""event"",""trial"",""time""
""fullscreenenter"",""1"",""5943""
","
","","[{""page_index"":0,""viewing_time"":5547.400000095367},{""page_index"":1,""viewing_time"":8207.5},{""page_index"":2,""viewing_time"":6483.799999952316},{""page_index"":3,""viewing_time"":6490.5},{""page_index"":4,""viewing_time"":6410},{""page_index"":5,""viewing_time"":5354.5},{""page_index"":6,""viewing_time"":4285.799999952316},{""page_index"":7,""viewing_time"":7800},{""page_index"":8,""viewing_time"":6608.700000047684},{""page_index"":9,""viewing_time"":6195.5},{""page_index"":10,""viewing_time"":6694.700000047684},{""page_index"":11,""viewing_time"":6046.299999952316},{""page_index"":12,""viewing_time"":8754.299999952316},{""page_index"":13,""viewing_time"":8449.900000095367},{""page_index"":14,""viewing_time"":8070.099999904633},{""page_index"":15,""viewing_time"":6499.5},{""page_index"":16,""viewing_time"":6407.400000095367},{""page_index"":17,""viewing_time"":8003.199999928474}]","122309.80000007153","","","","","","","","","","","","","","","","","","","","","","","",""
"pit-trial","20","321547","0.0-2.0-8.0-0.0","battery-v0.2","","""event"",""trial"",""time""
""fullscreenenter"",""1"",""5943""
","
","
","""event"",""trial"",""time""
""fullscreenenter"",""1"",""5943""
","
","","","1204.5","","","12","4116","704","&#9776;","elianto","#3366ff99"," "," ","1","+10","[2056.5]","1","0","1","","","","","","","",""
"pit-trial","21","324897","0.0-2.0-8.0-1.0","battery-v0.2","","""event"",""trial"",""time""
""fullscreenenter"",""1"",""5943""
","
","
","""event"",""trial"",""time""
""fullscreenenter"",""1"",""5943""
","
","","","487.5","","","12","4116","704","&#9776;","elianto","#3366ff99"," "," ","1","+10","[1340]","1","0","1","","","","","","","",""
"pit-trial","22","328166","0.0-2.0-8.0-2.0","battery-v0.2","","""event"",""trial"",""time""
""fullscreenenter"",""1"",""5943""
","
","
","""event"",""trial"",""time""
""fullscreenenter"",""1"",""5943""
","
","","","407.60000002384186","","","12","4116","704","&#9776;","elianto","#3366ff99"," "," ","1","+10","[1259.7000000476837]","1","0","1","","","","","","","",""
"pit-trial","23","331546","0.0-2.0-8.0-3.0","battery-v0.2","","""event"",""trial"",""time""
""fullscreenenter"",""1"",""5943""
","
","
","""event"",""trial"",""time""
""fullscreenenter"",""1"",""5943""
","
","","","507.7999999523163","","","12","4116","704","&#9776;","elianto","#3366ff99"," "," ","1","0","[1360]","1","0","1","","","","","","","",""
"pit-trial","24","334836","0.0-2.0-8.0-4.0","battery-v0.2","","""event"",""trial"",""time""
""fullscreenenter"",""1"",""5943""
","
","
","""event"",""trial"",""time""
""fullscreenenter"",""1"",""5943""
","
","","","428","","","12","4116","704","&#9776;","elianto","#3366ff99"," "," ","1","+10","[1280.2000000476837]","1","0","1","","","","","","","",""
"pit-trial","25","338326","0.0-2.0-8.1-0.1","battery-v0.2","","""event"",""trial"",""time""
""fullscreenenter"",""1"",""5943""
","
","
","""event"",""trial"",""time""
""fullscreenenter"",""1"",""5943""
","
","","","627.8000000715256","","","12","4116","704","&#9776;","elianto","#3366ff99"," "," ","1","+10","[1478.3999999761581]","1","0","1","","","","","","","",""
"pit-trial","26","341545","0.0-2.0-8.1-1.1","battery-v0.2","","""event"",""trial"",""time""
""fullscreenenter"",""1"",""5943""
","
","
","""event"",""trial"",""time""
""fullscreenenter"",""1"",""5943""
","
","","","347.2000000476837","","","12","4116","704","&#9776;","elianto","#3366ff99"," "," ","1","+10","[1199.2999999523163]","1","0","1","","","","","","","",""
"pit-trial","27","345245","0.0-2.0-8.1-2.1","battery-v0.2","","""event"",""trial"",""time""
""fullscreenenter"",""1"",""5943""
","
","
","""event"",""trial"",""time""
""fullscreenenter"",""1"",""5943""
","
","","","828.5","","","12","4116","704","&#9776;","elianto","#3366ff99"," "," ","1","+10","[1679.5]","1","0","1","","","","","","","",""
"pit-trial","28","348775","0.0-2.0-8.1-3.1","battery-v0.2","","""event"",""trial"",""time""
""fullscreenenter"",""1"",""5943""
","
","
","""event"",""trial"",""time""
""fullscreenenter"",""1"",""5943""
","
","","","673.0999999046326","","","12","4116","704","&#9776;","elianto","#3366ff99"," "," ","1","0","[1525]","1","0","1","","","","","","","",""
"pit-trial","29","352112","0.0-2.0-8.1-4.1","battery-v0.2","","""event"",""trial"",""time""
""fullscreenenter"",""1"",""5943""
","
","
","""event"",""trial"",""time""
""fullscreenenter"",""1"",""5943""
","
","","","475","","","12","4116","704","&#9776;","elianto","#3366ff99"," "," ","1","+10","[1326.8999999761581]","1","0","1","","","","","","","",""
"pit-trial","30","355152","0.0-2.0-8.2-0.2","battery-v0.2","","""event"",""trial"",""time""
""fullscreenenter"",""1"",""5943""
","
","
","""event"",""trial"",""time""
""fullscreenenter"",""1"",""5943""
","
","","","175.79999995231628","","","12","4116","704","&#9776;","elianto","#3366ff99"," "," ","1","+10","[1027.1999999284744,1341.7999999523163]","2","0","1","","","","","","","",""
"pit-trial","31","358696","0.0-2.0-8.2-1.2","battery-v0.2","","""event"",""trial"",""time""
""fullscreenenter"",""1"",""5943""
","
","
","""event"",""trial"",""time""
""fullscreenenter"",""1"",""5943""
","
","","","680","","","12","4116","704","&#9776;","elianto","#3366ff99"," "," ","1","+10","[1531.8999999761581,1673.3999999761581]","2","0","1","","","","","","","",""
"pit-trial","32","361958","0.0-2.0-8.2-2.2","battery-v0.2","","""event"",""trial"",""time""
""fullscreenenter"",""1"",""5943""
","
","
","""event"",""trial"",""time""
""fullscreenenter"",""1"",""5943""
","
","","","396.39999997615814","","","12","4116","704","&#9776;","elianto","#3366ff99"," "," ","1","+10","[1248.3999999761581]","1","0","1","","","","","","","",""
"pit-trial","33","365280","0.0-2.0-8.2-3.2","battery-v0.2","","""event"",""trial"",""time""
""fullscreenenter"",""1"",""5943""
","
","
","""event"",""trial"",""time""
""fullscreenenter"",""1"",""5943""
","
","","","463.5","","","12","4116","704","&#9776;","elianto","#3366ff99"," "," ","1","0","[1315.8000000715256]","1","0","1","","","","","","","",""
"pit-trial","34","368161","0.0-2.0-8.2-4.2","battery-v0.2","","""event"",""trial"",""time""
""fullscreenenter"",""1"",""5943""
","
","
","""event"",""trial"",""time""
""fullscreenenter"",""1"",""5943""
","
","","","20.300000071525574","","","12","4116","704","&#9776;","elianto","#3366ff99"," "," ","1","+10","[773.2999999523163,871.8999999761581]","2","0","1","","","","","","","",""
"call-function","35","368164","0.0-2.0-9.0","battery-v0.2","","""event"",""trial"",""time""
""fullscreenenter"",""1"",""5943""
","
","
","""event"",""trial"",""time""
""fullscreenenter"",""1"",""5943""
","
","","","","","","","","","","","","","","","","","","","","","","","","","","",""
"pit-instructions","36","406841","0.0-2.0-10.0","battery-v0.2","","""event"",""trial"",""time""
""fullscreenenter"",""1"",""5943""
","
","
","""event"",""trial"",""time""
""fullscreenenter"",""1"",""5943""
","
","","[{""page_index"":0,""viewing_time"":6006.199999928474},{""page_index"":1,""viewing_time"":6812.5},{""page_index"":2,""viewing_time"":9266.800000071526},{""page_index"":3,""viewing_time"":9229.199999928474},{""page_index"":4,""viewing_time"":7359.900000095367}]","38675.39999997616","","","","","","","","","","","","","","","","","","","","","","","",""
"pit-trial","37","410069","0.0-2.0-11.0-0.0","battery-v0.2","","""event"",""trial"",""time""
""fullscreenenter"",""1"",""5943""
","
","
","""event"",""trial"",""time""
""fullscreenenter"",""1"",""5943""
","
","","","350.7999999523163","","","12","4116","704","&#9761;","elianto","#3366ff99","-1"," ","0","0","[1207.1000000238419]","1","0","2","","","","","","","",""
"pit-trial","38","413439","0.0-2.0-11.0-1.0","battery-v0.2","","""event"",""trial"",""time""
""fullscreenenter"",""1"",""5943""
","
","
","""event"",""trial"",""time""
""fullscreenenter"",""1"",""5943""
","
","","","498","","","12","4116","704","&#9761;","elianto","#3366ff99","-1"," ","0","0","[1349.5]","1","0","2","","","","","","","",""
"pit-trial","39","416709","0.0-2.0-11.0-2.0","battery-v0.2","","""event"",""trial"",""time""
""fullscreenenter"",""1"",""5943""
","
","
","""event"",""trial"",""time""
""fullscreenenter"",""1"",""5943""
","
","","","408.5","","","12","4116","704","&#9761;","elianto","#3366ff99","-1"," ","0","0","[1260.9000000953674]","1","0","2","","","","","","","",""
"pit-trial","40","421579","0.0-2.0-11.0-3.0","battery-v0.2","","""event"",""trial"",""time""
""fullscreenenter"",""1"",""5943""
","
","
","""event"",""trial"",""time""
""fullscreenenter"",""1"",""5943""
","
","","","-1","","","12","4116","704","&#9761;","elianto","#3366ff99","-1","-1","1","0","[]","0","0","2","","","","","","","",""
"pit-trial","41","426469","0.0-2.0-11.0-4.0","battery-v0.2","","""event"",""trial"",""time""
""fullscreenenter"",""1"",""5943""
","
","
","""event"",""trial"",""time""
""fullscreenenter"",""1"",""5943""
","
","","","-1","","","12","4116","704","&#9761;","elianto","#3366ff99","-1","-1","1","+10","[]","0","0","2","","","","","","","",""
"pit-trial","42","431349","0.0-2.0-11.1-0.1","battery-v0.2","","""event"",""trial"",""time""
""fullscreenenter"",""1"",""5943""
","
","
","""event"",""trial"",""time""
""fullscreenenter"",""1"",""5943""
","
","","","-1","","","12","4116","704","&#9761;","elianto","#3366ff99","-1","-1","1","+10","[]","0","0","2","","","","","","","",""
"pit-trial","43","434739","0.0-2.0-11.1-1.1","battery-v0.2","","""event"",""trial"",""time""
""fullscreenenter"",""1"",""5943""
","
","
","""event"",""trial"",""time""
""fullscreenenter"",""1"",""5943""
","
","","","520.8999999761581","","","12","4116","704","&#9761;","elianto","#3366ff99","-1"," ","0","0","[1371.7999999523163]","1","0","2","","","","","","","",""
"pit-trial","44","438142","0.0-2.0-11.1-2.1","battery-v0.2","","""event"",""trial"",""time""
""fullscreenenter"",""1"",""5943""
","
","
","""event"",""trial"",""time""
""fullscreenenter"",""1"",""5943""
","
","","","540.5999999046326","","","12","4116","704","&#9761;","elianto","#3366ff99","-1"," ","0","0","[1392.9000000953674]","1","0","2","","","","","","","",""
"pit-trial","45","441099","0.0-2.0-11.1-3.1","battery-v0.2","","""event"",""trial"",""time""
""fullscreenenter"",""1"",""5943""
","
","
","""event"",""trial"",""time""
""fullscreenenter"",""1"",""5943""
","
","","","93.60000002384186","","","12","4116","704","&#9761;","elianto","#3366ff99","-1"," ","0","+10","[945]","1","0","2","","","","","","","",""
"pit-trial","46","444276","0.0-2.0-11.1-4.1","battery-v0.2","","""event"",""trial"",""time""
""fullscreenenter"",""1"",""5943""
","
","
","""event"",""trial"",""time""
""fullscreenenter"",""1"",""5943""
","
","","","311.39999997615814","","","12","4116","704","&#9761;","elianto","#3366ff99","-1"," ","0","0","[1163.5]","1","0","2","","","","","","","",""
"pit-trial","47","447670","0.0-2.0-11.2-0.2","battery-v0.2","","""event"",""trial"",""time""
""fullscreenenter"",""1"",""5943""
","
","
","""event"",""trial"",""time""
""fullscreenenter"",""1"",""5943""
","
","","","529.8999999761581","","","12","4116","704","&#9761;","elianto","#3366ff99","-1"," ","0","0","[1380.7999999523163]","1","0","2","","","","","","","",""
"pit-trial","48","450777","0.0-2.0-11.2-1.2","battery-v0.2","","""event"",""trial"",""time""
""fullscreenenter"",""1"",""5943""
","
","
","""event"",""trial"",""time""
""fullscreenenter"",""1"",""5943""
","
","","","247.20000004768372","","","12","4116","704","&#9761;","elianto","#3366ff99","-1"," ","0","0","[1098.8000000715256]","1","0","2","","","","","","","",""
"pit-trial","49","453859","0.0-2.0-11.2-2.2","battery-v0.2","","""event"",""trial"",""time""
""fullscreenenter"",""1"",""5943""
","
","
","""event"",""trial"",""time""
""fullscreenenter"",""1"",""5943""
","
","","","222.5","","","12","4116","704","&#9761;","elianto","#3366ff99","-1"," ","0","0","[1074.5,1678.8999999761581]","2","0","2","","","","","","","",""
"pit-trial","50","457057","0.0-2.0-11.2-3.2","battery-v0.2","","""event"",""trial"",""time""
""fullscreenenter"",""1"",""5943""
","
","
","""event"",""trial"",""time""
""fullscreenenter"",""1"",""5943""
","
","","","325.59999990463257","","","12","4116","704","&#9761;","elianto","#3366ff99","-1"," ","0","+10","[1178.1000000238419]","1","0","2","","","","","","","",""
"pit-trial","51","460115","0.0-2.0-11.2-4.2","battery-v0.2","","""event"",""trial"",""time""
""fullscreenenter"",""1"",""5943""
","
","
","""event"",""trial"",""time""
""fullscreenenter"",""1"",""5943""
","
","","","199.20000004768372","","","12","4116","704","&#9761;","elianto","#3366ff99","-1"," ","0","0","[1051.2999999523163]","1","0","2","","","","","","","",""
"pit-trial","52","463460","0.0-2.0-11.3-0.3","battery-v0.2","","""event"",""trial"",""time""
""fullscreenenter"",""1"",""5943""
","
","
","""event"",""trial"",""time""
""fullscreenenter"",""1"",""5943""
","
","","","480.39999997615814","","","12","4116","704","&#9761;","elianto","#3366ff99","-1"," ","0","0","[825.2999999523163,1331.3999999761581]","2","0","2","","","","","","","",""
"pit-trial","53","466493","0.0-2.0-11.3-1.3","battery-v0.2","","""event"",""trial"",""time""
""fullscreenenter"",""1"",""5943""
","
","
","""event"",""trial"",""time""
""fullscreenenter"",""1"",""5943""
","
","","","177","","","12","4116","704","&#9761;","elianto","#3366ff99","-1"," ","0","0","[1029.6000000238419]","1","0","2","","","","","","","",""
"pit-trial","54","469950","0.0-2.0-11.3-2.3","battery-v0.2","","""event"",""trial"",""time""
""fullscreenenter"",""1"",""5943""
","
","
","""event"",""trial"",""time""
""fullscreenenter"",""1"",""5943""
","
","","","596.2000000476837","","","12","4116","704","&#9761;","elianto","#3366ff99","-1"," ","0","0","[327.8000000715256,828.4000000953674,1446.2000000476837]","3","0","2","","","","","","","",""
"pit-trial","55","473132","0.0-2.0-11.3-3.3","battery-v0.2","","""event"",""trial"",""time""
""fullscreenenter"",""1"",""5943""
","
","
","""event"",""trial"",""time""
""fullscreenenter"",""1"",""5943""
","
","","","322.1999999284744","","","12","4116","704","&#9761;","elianto","#3366ff99","-1"," ","0","+10","[1174.6000000238419]","1","0","2","","","","","","","",""
"pit-trial","56","476294","0.0-2.0-11.3-4.3","battery-v0.2","","""event"",""trial"",""time""
""fullscreenenter"",""1"",""5943""
","
","
","""event"",""trial"",""time""
""fullscreenenter"",""1"",""5943""
","
","","","303.89999997615814","","","12","4116","704","&#9761;","elianto","#3366ff99","-1"," ","0","0","[1155.8999999761581]","1","0","2","","","","","","","",""
"call-function","57","476296","0.0-2.0-12.0","battery-v0.2","","""event"",""trial"",""time""
""fullscreenenter"",""1"",""5943""
","
","
","""event"",""trial"",""time""
""fullscreenenter"",""1"",""5943""
","
","","","","","","","","","","","","","","","","","","","","","","","","","","",""
"pit-instructions","58","509341","0.0-2.0-13.0","battery-v0.2","","""event"",""trial"",""time""
""fullscreenenter"",""1"",""5943""
","
","
","""event"",""trial"",""time""
""fullscreenenter"",""1"",""5943""
","
","","[{""page_index"":0,""viewing_time"":5513.700000047684},{""page_index"":1,""viewing_time"":6128.899999976158},{""page_index"":2,""viewing_time"":4365.700000047684},{""page_index"":3,""viewing_time"":10200.699999928474},{""page_index"":4,""viewing_time"":6833.600000023842}]","33043.60000002384","","","","","","","","","","","","","","","","","","","","","","","",""
"pit-trial","59","514227","0.0-2.0-14.0-0.0","battery-v0.2","","""event"",""trial"",""time""
""fullscreenenter"",""1"",""5943""
","
","
","""event"",""trial"",""time""
""fullscreenenter"",""1"",""5943""
","
","","","-1","","","12","4116","704","&#9826;","elianto","#f73b6a7A","-1","-1","1","0","[]","0","0","3","","","","","","","",""
"pit-trial","60","519097","0.0-2.0-14.0-1.0","battery-v0.2","","""event"",""trial"",""time""
""fullscreenenter"",""1"",""5943""
","
","
","""event"",""trial"",""time""
""fullscreenenter"",""1"",""5943""
","
","","","-1","","","12","4116","704","&#9826;","elianto","#f73b6a7A","-1","-1","1","0","[]","0","0","3","","","","","","","",""
"pit-trial","61","523980","0.0-2.0-14.0-2.0","battery-v0.2","","""event"",""trial"",""time""
""fullscreenenter"",""1"",""5943""
","
","
","""event"",""trial"",""time""
""fullscreenenter"",""1"",""5943""
","
","","","-1","","","12","4116","704","&#9826;","elianto","#f73b6a7A","-1","-1","1","0","[]","0","0","3","","","","","","","",""
"pit-trial","62","528870","0.0-2.0-14.0-3.0","battery-v0.2","","""event"",""trial"",""time""
""fullscreenenter"",""1"",""5943""
","
","
","""event"",""trial"",""time""
""fullscreenenter"",""1"",""5943""
","
","","","-1","","","12","4116","704","&#9826;","elianto","#f73b6a7A","-1","-1","1","-10","[]","0","0","3","","","","","","","",""
"pit-trial","63","533760","0.0-2.0-14.0-4.0","battery-v0.2","","""event"",""trial"",""time""
""fullscreenenter"",""1"",""5943""
","
","
","""event"",""trial"",""time""
""fullscreenenter"",""1"",""5943""
","
","","","-1","","","12","4116","704","&#9826;","elianto","#f73b6a7A","-1","-1","1","0","[]","0","0","3","","","","","","","",""
"pit-trial","64","538635","0.0-2.0-14.1-0.1","battery-v0.2","","""event"",""trial"",""time""
""fullscreenenter"",""1"",""5943""
","
","
","""event"",""trial"",""time""
""fullscreenenter"",""1"",""5943""
","
","","","-1","","","12","4116","704","&#9826;","elianto","#f73b6a7A","-1","-1","1","0","[]","0","0","3","","","","","","","",""
"pit-trial","65","543507","0.0-2.0-14.1-1.1","battery-v0.2","","""event"",""trial"",""time""
""fullscreenenter"",""1"",""5943""
","
","
","""event"",""trial"",""time""
""fullscreenenter"",""1"",""5943""
","
","","","-1","","","12","4116","704","&#9826;","elianto","#f73b6a7A","-1","-1","1","0","[]","0","0","3","","","","","","","",""
"pit-trial","66","548376","0.0-2.0-14.1-2.1","battery-v0.2","","""event"",""trial"",""time""
""fullscreenenter"",""1"",""5943""
","
","
","""event"",""trial"",""time""
""fullscreenenter"",""1"",""5943""
","
","","","-1","","","12","4116","704","&#9826;","elianto","#f73b6a7A","-1","-1","1","0","[]","0","0","3","","","","","","","",""
"pit-trial","67","553243","0.0-2.0-14.1-3.1","battery-v0.2","","""event"",""trial"",""time""
""fullscreenenter"",""1"",""5943""
","
","
","""event"",""trial"",""time""
""fullscreenenter"",""1"",""5943""
","
","","","-1","","","12","4116","704","&#9826;","elianto","#f73b6a7A","-1","-1","1","-10","[]","0","0","3","","","","","","","",""
"pit-trial","68","558114","0.0-2.0-14.1-4.1","battery-v0.2","","""event"",""trial"",""time""
""fullscreenenter"",""1"",""5943""
","
","
","""event"",""trial"",""time""
""fullscreenenter"",""1"",""5943""
","
","","","-1","","","12","4116","704","&#9826;","elianto","#f73b6a7A","-1","-1","1","0","[]","0","0","3","","","","","","","",""
"pit-trial","69","562985","0.0-2.0-14.2-0.2","battery-v0.2","","""event"",""trial"",""time""
""fullscreenenter"",""1"",""5943""
","
","
","""event"",""trial"",""time""
""fullscreenenter"",""1"",""5943""
","
","","","-1","","","12","4116","704","&#9826;","elianto","#f73b6a7A","-1","-1","1","0","[]","0","0","3","","","","","","","",""
"pit-trial","70","567859","0.0-2.0-14.2-1.2","battery-v0.2","","""event"",""trial"",""time""
""fullscreenenter"",""1"",""5943""
","
","
","""event"",""trial"",""time""
""fullscreenenter"",""1"",""5943""
","
","","","-1","","","12","4116","704","&#9826;","elianto","#f73b6a7A","-1","-1","1","0","[]","0","0","3","","","","","","","",""
"pit-trial","71","572736","0.0-2.0-14.2-2.2","battery-v0.2","","""event"",""trial"",""time""
""fullscreenenter"",""1"",""5943""
","
","
","""event"",""trial"",""time""
""fullscreenenter"",""1"",""5943""
","
","","","-1","","","12","4116","704","&#9826;","elianto","#f73b6a7A","-1","-1","1","0","[]","0","0","3","","","","","","","",""
"pit-trial","72","577604","0.0-2.0-14.2-3.2","battery-v0.2","","""event"",""trial"",""time""
""fullscreenenter"",""1"",""5943""
","
","
","""event"",""trial"",""time""
""fullscreenenter"",""1"",""5943""
","
","","","-1","","","12","4116","704","&#9826;","elianto","#f73b6a7A","-1","-1","1","-10","[]","0","0","3","","","","","","","",""
"pit-trial","73","582474","0.0-2.0-14.2-4.2","battery-v0.2","","""event"",""trial"",""time""
""fullscreenenter"",""1"",""5943""
","
","
","""event"",""trial"",""time""
""fullscreenenter"",""1"",""5943""
","
","","","-1","","","12","4116","704","&#9826;","elianto","#f73b6a7A","-1","-1","1","0","[]","0","0","3","","","","","","","",""
"pit-trial","74","587346","0.0-2.0-14.3-0.3","battery-v0.2","","""event"",""trial"",""time""
""fullscreenenter"",""1"",""5943""
","
","
","""event"",""trial"",""time""
""fullscreenenter"",""1"",""5943""
","
","","","-1","","","12","4116","704","&#9826;","elianto","#f73b6a7A","-1","-1","1","0","[]","0","0","3","","","","","","","",""
"pit-trial","75","592214","0.0-2.0-14.3-1.3","battery-v0.2","","""event"",""trial"",""time""
""fullscreenenter"",""1"",""5943""
","
","
","""event"",""trial"",""time""
""fullscreenenter"",""1"",""5943""
","
","","","-1","","","12","4116","704","&#9826;","elianto","#f73b6a7A","-1","-1","1","0","[]","0","0","3","","","","","","","",""
"pit-trial","76","597090","0.0-2.0-14.3-2.3","battery-v0.2","","""event"",""trial"",""time""
""fullscreenenter"",""1"",""5943""
","
","
","""event"",""trial"",""time""
""fullscreenenter"",""1"",""5943""
","
","","","-1","","","12","4116","704","&#9826;","elianto","#f73b6a7A","-1","-1","1","0","[]","0","0","3","","","","","","","",""
"pit-trial","77","601964","0.0-2.0-14.3-3.3","battery-v0.2","","""event"",""trial"",""time""
""fullscreenenter"",""1"",""5943""
","
","
","""event"",""trial"",""time""
""fullscreenenter"",""1"",""5943""
","
","","","-1","","","12","4116","704","&#9826;","elianto","#f73b6a7A","-1","-1","1","-10","[]","0","0","3","","","","","","","",""
"pit-trial","78","606831","0.0-2.0-14.3-4.3","battery-v0.2","","""event"",""trial"",""time""
""fullscreenenter"",""1"",""5943""
","
","
","""event"",""trial"",""time""
""fullscreenenter"",""1"",""5943""
","
","","","-1","","","12","4116","704","&#9826;","elianto","#f73b6a7A","-1","-1","1","0","[]","0","0","3","","","","","","","",""
"call-function","79","606833","0.0-2.0-15.0","battery-v0.2","","""event"",""trial"",""time""
""fullscreenenter"",""1"",""5943""
","
","
","""event"",""trial"",""time""
""fullscreenenter"",""1"",""5943""
","
","","","","","","","","","","","","","","","","","","","","","","","","","","",""
"pit-instructions","80","632870","0.0-2.0-16.0","battery-v0.2","","""event"",""trial"",""time""
""fullscreenenter"",""1"",""5943""
","
","
","""event"",""trial"",""time""
""fullscreenenter"",""1"",""5943""
","
","","[{""page_index"":0,""viewing_time"":7263.5},{""page_index"":1,""viewing_time"":8275.899999976158},{""page_index"":2,""viewing_time"":5273.600000023842},{""page_index"":3,""viewing_time"":5222.5}]","26036.299999952316","","","","","","","","","","","","","","","","","","","","","","","",""
"pit-trial","81","637745","0.0-2.0-17.0-0.0","battery-v0.2","","""event"",""trial"",""time""
""fullscreenenter"",""1"",""5943""
","
","
","""event"",""trial"",""time""
""fullscreenenter"",""1"",""5943""
","
","","","-1","","","12","4116","704","&#9789;","elianto","#f73b6a7A"," ","-1","0","-10","[]","0","0","4","","","","","","","",""
"pit-trial","82","642635","0.0-2.0-17.0-1.0","battery-v0.2","","""event"",""trial"",""time""
""fullscreenenter"",""1"",""5943""
","
","
","""event"",""trial"",""time""
""fullscreenenter"",""1"",""5943""
","
","","","-1","","","12","4116","704","&#9789;","elianto","#f73b6a7A"," ","-1","0","-10","[]","0","0","4","","","","","","","",""
"pit-trial","83","647527","0.0-2.0-17.0-2.0","battery-v0.2","","""event"",""trial"",""time""
""fullscreenenter"",""1"",""5943""
","
","
","""event"",""trial"",""time""
""fullscreenenter"",""1"",""5943""
","
","","","-1","","","12","4116","704","&#9789;","elianto","#f73b6a7A"," ","-1","0","-10","[]","0","0","4","","","","","","","",""
"pit-trial","84","652407","0.0-2.0-17.0-3.0","battery-v0.2","","""event"",""trial"",""time""
""fullscreenenter"",""1"",""5943""
","
","
","""event"",""trial"",""time""
""fullscreenenter"",""1"",""5943""
","
","","","-1","","","12","4116","704","&#9789;","elianto","#f73b6a7A"," ","-1","0","0","[]","0","0","4","","","","","","","",""
"pit-trial","85","657278","0.0-2.0-17.0-4.0","battery-v0.2","","""event"",""trial"",""time""
""fullscreenenter"",""1"",""5943""
","
","
","""event"",""trial"",""time""
""fullscreenenter"",""1"",""5943""
","
","","","-1","","","12","4116","704","&#9789;","elianto","#f73b6a7A"," ","-1","0","-10","[]","0","0","4","","","","","","","",""
"pit-trial","86","662158","0.0-2.0-17.1-0.1","battery-v0.2","","""event"",""trial"",""time""
""fullscreenenter"",""1"",""5943""
","
","
","""event"",""trial"",""time""
""fullscreenenter"",""1"",""5943""
","
","","","-1","","","12","4116","704","&#9789;","elianto","#f73b6a7A"," ","-1","0","-10","[]","0","0","4","","","","","","","",""
"pit-trial","87","667025","0.0-2.0-17.1-1.1","battery-v0.2","","""event"",""trial"",""time""
""fullscreenenter"",""1"",""5943""
","
","
","""event"",""trial"",""time""
""fullscreenenter"",""1"",""5943""
","
","","","-1","","","12","4116","704","&#9789;","elianto","#f73b6a7A"," ","-1","0","-10","[]","0","0","4","","","","","","","",""
"pit-trial","88","671902","0.0-2.0-17.1-2.1","battery-v0.2","","""event"",""trial"",""time""
""fullscreenenter"",""1"",""5943""
","
","
","""event"",""trial"",""time""
""fullscreenenter"",""1"",""5943""
","
","","","-1","","","12","4116","704","&#9789;","elianto","#f73b6a7A"," ","-1","0","-10","[]","0","0","4","","","","","","","",""
"pit-trial","89","676775","0.0-2.0-17.1-3.1","battery-v0.2","","""event"",""trial"",""time""
""fullscreenenter"",""1"",""5943""
","
","
","""event"",""trial"",""time""
""fullscreenenter"",""1"",""5943""
","
","","","-1","","","12","4116","704","&#9789;","elianto","#f73b6a7A"," ","-1","0","0","[]","0","0","4","","","","","","","",""
"pit-trial","90","681639","0.0-2.0-17.1-4.1","battery-v0.2","","""event"",""trial"",""time""
""fullscreenenter"",""1"",""5943""
","
","
","""event"",""trial"",""time""
""fullscreenenter"",""1"",""5943""
","
","","","-1","","","12","4116","704","&#9789;","elianto","#f73b6a7A"," ","-1","0","-10","[]","0","0","4","","","","","","","",""
"pit-trial","91","686504","0.0-2.0-17.2-0.2","battery-v0.2","","""event"",""trial"",""time""
""fullscreenenter"",""1"",""5943""
","
","
","""event"",""trial"",""time""
""fullscreenenter"",""1"",""5943""
","
","","","-1","","","12","4116","704","&#9789;","elianto","#f73b6a7A"," ","-1","0","-10","[]","0","0","4","","","","","","","",""
"pit-trial","92","691367","0.0-2.0-17.2-1.2","battery-v0.2","","""event"",""trial"",""time""
""fullscreenenter"",""1"",""5943""
","
","
","""event"",""trial"",""time""
""fullscreenenter"",""1"",""5943""
","
","","","-1","","","12","4116","704","&#9789;","elianto","#f73b6a7A"," ","-1","0","-10","[]","0","0","4","","","","","","","",""
"pit-trial","93","696248","0.0-2.0-17.2-2.2","battery-v0.2","","""event"",""trial"",""time""
""fullscreenenter"",""1"",""5943""
","
","
","""event"",""trial"",""time""
""fullscreenenter"",""1"",""5943""
","
","","","-1","","","12","4116","704","&#9789;","elianto","#f73b6a7A"," ","-1","0","-10","[]","0","0","4","","","","","","","",""
"pit-trial","94","701116","0.0-2.0-17.2-3.2","battery-v0.2","","""event"",""trial"",""time""
""fullscreenenter"",""1"",""5943""
","
","
","""event"",""trial"",""time""
""fullscreenenter"",""1"",""5943""
","
","","","-1","","","12","4116","704","&#9789;","elianto","#f73b6a7A"," ","-1","0","0","[]","0","0","4","","","","","","","",""
"pit-trial","95","705999","0.0-2.0-17.2-4.2","battery-v0.2","","""event"",""trial"",""time""
""fullscreenenter"",""1"",""5943""
","
","
","""event"",""trial"",""time""
""fullscreenenter"",""1"",""5943""
","
","","","-1","","","12","4116","704","&#9789;","elianto","#f73b6a7A"," ","-1","0","-10","[]","0","0","4","","","","","","","",""
"pit-trial","96","710865","0.0-2.0-17.3-0.3","battery-v0.2","","""event"",""trial"",""time""
""fullscreenenter"",""1"",""5943""
","
","
","""event"",""trial"",""time""
""fullscreenenter"",""1"",""5943""
","
","","","-1","","","12","4116","704","&#9789;","elianto","#f73b6a7A"," ","-1","0","-10","[]","0","0","4","","","","","","","",""
"pit-trial","97","715730","0.0-2.0-17.3-1.3","battery-v0.2","","""event"",""trial"",""time""
""fullscreenenter"",""1"",""5943""
","
","
","""event"",""trial"",""time""
""fullscreenenter"",""1"",""5943""
","
","","","-1","","","12","4116","704","&#9789;","elianto","#f73b6a7A"," ","-1","0","-10","[]","0","0","4","","","","","","","",""
"pit-trial","98","720592","0.0-2.0-17.3-2.3","battery-v0.2","","""event"",""trial"",""time""
""fullscreenenter"",""1"",""5943""
","
","
","""event"",""trial"",""time""
""fullscreenenter"",""1"",""5943""
","
","","","-1","","","12","4116","704","&#9789;","elianto","#f73b6a7A"," ","-1","0","-10","[]","0","0","4","","","","","","","",""
"pit-trial","99","725466","0.0-2.0-17.3-3.3","battery-v0.2","","""event"",""trial"",""time""
""fullscreenenter"",""1"",""5943""
","
","
","""event"",""trial"",""time""
""fullscreenenter"",""1"",""5943""
","
","","","-1","","","12","4116","704","&#9789;","elianto","#f73b6a7A"," ","-1","0","0","[]","0","0","4","","","","","","","",""
"pit-trial","100","730327","0.0-2.0-17.3-4.3","battery-v0.2","","""event"",""trial"",""time""
""fullscreenenter"",""1"",""5943""
","
","
","""event"",""trial"",""time""
""fullscreenenter"",""1"",""5943""
","
","","","-1","","","12","4116","704","&#9789;","elianto","#f73b6a7A"," ","-1","0","-10","[]","0","0","4","","","","","","","",""
"call-function","101","730331","0.0-2.0-18.0","battery-v0.2","","""event"",""trial"",""time""
""fullscreenenter"",""1"",""5943""
","
","
","""event"",""trial"",""time""
""fullscreenenter"",""1"",""5943""
","
","","","","","","","","","","","","","","","","","","","","","","","","","","",""
"pit-instructions","102","801712","0.0-2.0-19.0","battery-v0.2","","""event"",""trial"",""time""
""fullscreenenter"",""1"",""5943""
","
","
","""event"",""trial"",""time""
""fullscreenenter"",""1"",""5943""
","
","","[{""page_index"":0,""viewing_time"":8968.299999952316},{""page_index"":1,""viewing_time"":8057.400000095367},{""page_index"":2,""viewing_time"":8695.199999928474},{""page_index"":3,""viewing_time"":9338},{""page_index"":4,""viewing_time"":8790.200000047684},{""page_index"":5,""viewing_time"":8630},{""page_index"":6,""viewing_time"":9139.699999928474},{""page_index"":7,""viewing_time"":5969.800000071526},{""page_index"":8,""viewing_time"":3790.5}]","71380.20000004768","","","","","","","","","","","","","","","","","","","","","","","",""
"pit-comprehension","103","814604","0.0-2.0-20.0-0.0","battery-v0.2","","""event"",""trial"",""time""
""fullscreenenter"",""1"",""5943""
","
","
","""event"",""trial"",""time""
""fullscreenenter"",""1"",""5943""
","
","","","12884.399999976158","[""SPACE""]","0","12","4116","704","","","","","","","","","","","","","","","","","","",""
"pit-instructions","104","827629","0.0-2.0-20.0-1.0","battery-v0.2","","""event"",""trial"",""time""
""fullscreenenter"",""1"",""5943""
","
","
","""event"",""trial"",""time""
""fullscreenenter"",""1"",""5943""
","
","","[{""page_index"":0,""viewing_time"":12938.600000023842}]","12939.300000071526","","","","","","","","","","","","","","","","","","","","","","","",""
"pit-comprehension","105","835613","0.0-2.0-21.0-0.0","battery-v0.2","","""event"",""trial"",""time""
""fullscreenenter"",""1"",""5943""
","
","
","""event"",""trial"",""time""
""fullscreenenter"",""1"",""5943""
","
","","","7977.900000095367","[""10""]","0","12","4116","704","","","","","","","","","","","","","","","","","","",""
"pit-instructions","106","842217","0.0-2.0-21.0-1.0","battery-v0.2","","""event"",""trial"",""time""
""fullscreenenter"",""1"",""5943""
","
","
","""event"",""trial"",""time""
""fullscreenenter"",""1"",""5943""
","
","","[{""page_index"":0,""viewing_time"":6528.100000023842}]","6528.700000047684","","","","","","","","","","","","","","","","","","","","","","","",""
"pit-comprehension","107","860463","0.0-2.0-22.0-0.0","battery-v0.2","","""event"",""trial"",""time""
""fullscreenenter"",""1"",""5943""
","
","
","""event"",""trial"",""time""
""fullscreenenter"",""1"",""5943""
","
","","","18239.699999928474","[""-10""]","1","12","4116","704","","","","","","","","","","","","","","","","","","",""
"pit-instructions","108","865591","0.0-2.0-22.0-1.0","battery-v0.2","","""event"",""trial"",""time""
""fullscreenenter"",""1"",""5943""
","
","
","""event"",""trial"",""time""
""fullscreenenter"",""1"",""5943""
","
","","[{""page_index"":0,""viewing_time"":5054.200000047684}]","5054.799999952316","","","","","","","","","","","","","","","","","","","","","","","",""
"pit-instructions","109","866507","0.0-2.0-22.0-2.0-0.0","battery-v0.2","","""event"",""trial"",""time""
""fullscreenenter"",""1"",""5943""
","
","
","""event"",""trial"",""time""
""fullscreenenter"",""1"",""5943""
","
","","[{""page_index"":0,""viewing_time"":911.6000000238419}]","912.6000000238419","","","","","","","","","","","","","","","","","","","","","","","",""
"pit-comprehension","110","872923","0.0-2.0-22.1-0.1","battery-v0.2","","""event"",""trial"",""time""
""fullscreenenter"",""1"",""5943""
","
","
","""event"",""trial"",""time""
""fullscreenenter"",""1"",""5943""
","
","","","6411","[""0""]","0","12","4116","704","","","","","","","","","","","","","","","","","","",""
"pit-instructions","111","877791","0.0-2.0-22.1-1.1","battery-v0.2","","""event"",""trial"",""time""
""fullscreenenter"",""1"",""5943""
","
","
","""event"",""trial"",""time""
""fullscreenenter"",""1"",""5943""
","
","","[{""page_index"":0,""viewing_time"":4788.700000047684}]","4789.100000023842","","","","","","","","","","","","","","","","","","","","","","","",""
"pit-comprehension","112","888749","0.0-2.0-23.0-0.0","battery-v0.2","","""event"",""trial"",""time""
""fullscreenenter"",""1"",""5943""
","
","
","""event"",""trial"",""time""
""fullscreenenter"",""1"",""5943""
","
","","","10953.700000047684","[""True""]","0","12","4116","704","","","","","","","","","","","","","","","","","","",""
"pit-instructions","113","890801","0.0-2.0-23.0-1.0","battery-v0.2","","""event"",""trial"",""time""
""fullscreenenter"",""1"",""5943""
","
","
","""event"",""trial"",""time""
""fullscreenenter"",""1"",""5943""
","
","","[{""page_index"":0,""viewing_time"":1974.6000000238419}]","1975.2000000476837","","","","","","","","","","","","","","","","","","","","","","","",""
"pit-comprehension","114","898599","0.0-2.0-24.0-0.0","battery-v0.2","","""event"",""trial"",""time""
""fullscreenenter"",""1"",""5943""
","
","
","""event"",""trial"",""time""
""fullscreenenter"",""1"",""5943""
","
","","","7793.100000023842","[""True""]","0","12","4116","704","","","","","","","","","","","","","","","","","","",""
"pit-instructions","115","900406","0.0-2.0-24.0-1.0","battery-v0.2","","""event"",""trial"",""time""
""fullscreenenter"",""1"",""5943""
","
","
","""event"",""trial"",""time""
""fullscreenenter"",""1"",""5943""
","
","","[{""page_index"":0,""viewing_time"":1722.1999999284744}]","1722.7999999523163","","","","","","","","","","","","","","","","","","","","","","","",""
"pit-comprehension","116","906779","0.0-2.0-25.0-0.0","battery-v0.2","","""event"",""trial"",""time""
""fullscreenenter"",""1"",""5943""
","
","
","""event"",""trial"",""time""
""fullscreenenter"",""1"",""5943""
","
","","","6368.599999904633","[""True""]","0","12","4116","704","","","","","","","","","","","","","","","","","","",""
"pit-instructions","117","913592","0.0-2.0-25.0-1.0","battery-v0.2","","""event"",""trial"",""time""
""fullscreenenter"",""1"",""5943""
","
","
","""event"",""trial"",""time""
""fullscreenenter"",""1"",""5943""
","
","","[{""page_index"":0,""viewing_time"":6734.799999952316}]","6735.600000023842","","","","","","","","","","","","","","","","","","","","","","","",""
"pit-comprehension","118","930713","0.0-2.0-26.0-0.0","battery-v0.2","","""event"",""trial"",""time""
""fullscreenenter"",""1"",""5943""
","
","
","""event"",""trial"",""time""
""fullscreenenter"",""1"",""5943""
","
","","","17115.5","[""True""]","1","12","4116","704","","","","","","","","","","","","","","","","","","",""
"pit-instructions","119","934021","0.0-2.0-26.0-1.0","battery-v0.2","","""event"",""trial"",""time""
""fullscreenenter"",""1"",""5943""
","
","
","""event"",""trial"",""time""
""fullscreenenter"",""1"",""5943""
","
","","[{""page_index"":0,""viewing_time"":3220.100000023842}]","3220.7000000476837","","","","","","","","","","","","","","","","","","","","","","","",""
"pit-instructions","120","935191","0.0-2.0-26.0-2.0-0.0","battery-v0.2","","""event"",""trial"",""time""
""fullscreenenter"",""1"",""5943""
","
","
","""event"",""trial"",""time""
""fullscreenenter"",""1"",""5943""
","
","","[{""page_index"":0,""viewing_time"":1166.1000000238419}]","1166.7999999523163","","","","","","","","","","","","","","","","","","","","","","","",""
"pit-comprehension","121","939778","0.0-2.0-26.1-0.1","battery-v0.2","","""event"",""trial"",""time""
""fullscreenenter"",""1"",""5943""
","
","
","""event"",""trial"",""time""
""fullscreenenter"",""1"",""5943""
","
","","","4582.300000071526","[""False""]","0","12","4116","704","","","","","","","","","","","","","","","","","","",""
"pit-instructions","122","941291","0.0-2.0-26.1-1.1","battery-v0.2","","""event"",""trial"",""time""
""fullscreenenter"",""1"",""5943""
","
","
","""event"",""trial"",""time""
""fullscreenenter"",""1"",""5943""
","
","","[{""page_index"":0,""viewing_time"":1433.3999999761581}]","1434","","","","","","","","","","","","","","","","","","","","","","","",""
"pit-instructions","123","960982","0.0-3.0","battery-v0.2","","""event"",""trial"",""time""
""fullscreenenter"",""1"",""5943""
","
","
","""event"",""trial"",""time""
""fullscreenenter"",""1"",""5943""
","
","","[{""page_index"":0,""viewing_time"":5227.800000071526},{""page_index"":1,""viewing_time"":6749.5},{""page_index"":2,""viewing_time"":7709.600000023842}]","19687.700000047684","","","","","","","","","","","","","","","","","","","","","","","",""
"pit-trial","124","965869","0.0-4.0","battery-v0.2","","""event"",""trial"",""time""
""fullscreenenter"",""1"",""5943""
","
","
","""event"",""trial"",""time""
""fullscreenenter"",""1"",""5943""
","
","","","-1","","","12","4116","704","&#9728;","elianto","#f73b6a7A","-1","-1","1","0","[]","0","1","","","4116","1","0","4","lose","no-go","0"
"pit-trial","125","969329","0.0-5.0","battery-v0.2","","""event"",""trial"",""time""
""fullscreenenter"",""1"",""5943""
","
","
","""event"",""trial"",""time""
""fullscreenenter"",""1"",""5943""
","
","","","585.5","","","12","4116","704","&#9730;","elianto","#3366ff99"," "," ","1","+10","[1437.1000000238419]","1","1","","","4116","2","1","1","win","go","0"
"pit-trial","126","972679","0.0-6.0","battery-v0.2","","""event"",""trial"",""time""
""fullscreenenter"",""1"",""5943""
","
","
","""event"",""trial"",""time""
""fullscreenenter"",""1"",""5943""
","
","","","471.7999999523163","","","12","4116","704","&#9733;","elianto","#3366ff99","-1"," ","0","0","[1323.6999999284744]","1","1","","","4116","3","2","2","win","no-go","0"
"pit-trial","127","977569","0.0-7.0","battery-v0.2","","""event"",""trial"",""time""
""fullscreenenter"",""1"",""5943""
","
","
","""event"",""trial"",""time""
""fullscreenenter"",""1"",""5943""
","
","","","-1","","","12","4116","704","&#9752;","elianto","#f73b6a7A"," ","-1","0","-10","[]","0","1","","","4116","4","3","3","lose","go","0"
"pit-trial","128","980899","0.0-8.0","battery-v0.2","","""event"",""trial"",""time""
""fullscreenenter"",""1"",""5943""
","
","
","""event"",""trial"",""time""
""fullscreenenter"",""1"",""5943""
","
","","","456.60000002384186","","","12","4116","704","&#9733;","elianto","#3366ff99","-1"," ","0","0","[1307.9000000953674]","1","1","","","4116","5","2","2","win","no-go","0"
"pit-trial","129","984419","0.0-9.0","battery-v0.2","","""event"",""trial"",""time""
""fullscreenenter"",""1"",""5943""
","
","
","""event"",""trial"",""time""
""fullscreenenter"",""1"",""5943""
","
","","","640.2999999523163","","","12","4116","704","&#9730;","elianto","#3366ff99"," "," ","1","0","[1492.2999999523163]","1","1","","","4116","6","1","1","win","go","1"
"pit-trial","130","989309","0.0-10.0","battery-v0.2","","""event"",""trial"",""time""
""fullscreenenter"",""1"",""5943""
","
","
","""event"",""trial"",""time""
""fullscreenenter"",""1"",""5943""
","
","","","-1","","","12","4116","704","&#9728;","elianto","#f73b6a7A","-1","-1","1","0","[]","0","1","","","4116","7","0","4","lose","no-go","0"
"pit-trial","131","992642","0.0-11.0","battery-v0.2","","""event"",""trial"",""time""
""fullscreenenter"",""1"",""5943""
","
","
","""event"",""trial"",""time""
""fullscreenenter"",""1"",""5943""
","
","","","468.7000000476837","","","12","4116","704","&#9752;","elianto","#f73b6a7A"," "," ","1","0","[1321.2000000476837]","1","1","","","4116","8","3","3","lose","go","0"
"pit-trial","132","995947","0.0-12.0","battery-v0.2","","""event"",""trial"",""time""
""fullscreenenter"",""1"",""5943""
","
","
","""event"",""trial"",""time""
""fullscreenenter"",""1"",""5943""
","
","","","439.7000000476837","","","12","4116","704","&#9730;","elianto","#3366ff99"," "," ","1","+10","[1291.5]","1","1","","","4116","9","1","1","win","go","0"
"pit-trial","133","1000820","0.0-13.0","battery-v0.2","","""event"",""trial"",""time""
""fullscreenenter"",""1"",""5943""
","
","
","""event"",""trial"",""time""
""fullscreenenter"",""1"",""5943""
","
","","","-1","","","12","4116","704","&#9752;","elianto","#f73b6a7A"," ","-1","0","-10","[]","0","1","","","4116","10","3","3","lose","go","0"
"pit-trial","134","1004197","0.0-14.0","battery-v0.2","","""event"",""trial"",""time""
""fullscreenenter"",""1"",""5943""
","
","
","""event"",""trial"",""time""
""fullscreenenter"",""1"",""5943""
","
","","","516.2000000476837","","","12","4116","704","&#9733;","elianto","#3366ff99","-1"," ","0","+10","[1367.8999999761581]","1","1","","","4116","11","2","2","win","no-go","1"
"pit-trial","135","1009073","0.0-15.0","battery-v0.2","","""event"",""trial"",""time""
""fullscreenenter"",""1"",""5943""
","
","
","""event"",""trial"",""time""
""fullscreenenter"",""1"",""5943""
","
","","","-1","","","12","4116","704","&#9728;","elianto","#f73b6a7A","-1","-1","1","0","[]","0","1","","","4116","12","0","4","lose","no-go","0"
"pit-trial","136","1012454","0.0-16.0","battery-v0.2","","""event"",""trial"",""time""
""fullscreenenter"",""1"",""5943""
","
","
","""event"",""trial"",""time""
""fullscreenenter"",""1"",""5943""
","
","","","514.1999999284744","","","12","4116","704","&#9733;","elianto","#3366ff99","-1"," ","0","0","[1366]","1","1","","","4116","13","2","2","win","no-go","0"
"pit-trial","137","1017326","0.0-17.0","battery-v0.2","","""event"",""trial"",""time""
""fullscreenenter"",""1"",""5943""
","
","
","""event"",""trial"",""time""
""fullscreenenter"",""1"",""5943""
","
","","","-1","","","12","4116","704","&#9752;","elianto","#f73b6a7A"," ","-1","0","-10","[]","0","1","","","4116","14","3","3","lose","go","0"
"pit-trial","138","1020736","0.0-18.0","battery-v0.2","","""event"",""trial"",""time""
""fullscreenenter"",""1"",""5943""
","
","
","""event"",""trial"",""time""
""fullscreenenter"",""1"",""5943""
","
","","","546.1000000238419","","","12","4116","704","&#9730;","elianto","#3366ff99"," "," ","1","+10","[1396.5]","1","1","","","4116","15","1","1","win","go","0"
"pit-trial","139","1025607","0.0-19.0","battery-v0.2","","""event"",""trial"",""time""
""fullscreenenter"",""1"",""5943""
","
","
","""event"",""trial"",""time""
""fullscreenenter"",""1"",""5943""
","
","","","-1","","","12","4116","704","&#9728;","elianto","#f73b6a7A","-1","-1","1","0","[368.5]","1","1","","","4116","16","0","4","lose","no-go","0"
"pit-trial","140","1028927","0.0-20.0","battery-v0.2","","""event"",""trial"",""time""
""fullscreenenter"",""1"",""5943""
","
","
","""event"",""trial"",""time""
""fullscreenenter"",""1"",""5943""
","
","","","450.5","","","12","4116","704","&#9730;","elianto","#3366ff99"," "," ","1","0","[1301.6999999284744]","1","1","","","4116","17","1","1","win","go","1"
"pit-trial","141","1033793","0.0-21.0","battery-v0.2","","""event"",""trial"",""time""
""fullscreenenter"",""1"",""5943""
","
","
","""event"",""trial"",""time""
""fullscreenenter"",""1"",""5943""
","
","","","-1","","","12","4116","704","&#9728;","elianto","#f73b6a7A","-1","-1","1","0","[]","0","1","","","4116","18","0","4","lose","no-go","0"
"pit-trial","142","1037127","0.0-22.0","battery-v0.2","","""event"",""trial"",""time""
""fullscreenenter"",""1"",""5943""
","
","
","""event"",""trial"",""time""
""fullscreenenter"",""1"",""5943""
","
","","","474.7999999523163","","","12","4116","704","&#9733;","elianto","#3366ff99","-1"," ","0","0","[1326.6000000238419]","1","1","","","4116","19","2","2","win","no-go","0"
"pit-trial","143","1042002","0.0-23.0","battery-v0.2","","""event"",""trial"",""time""
""fullscreenenter"",""1"",""5943""
","
","
","""event"",""trial"",""time""
""fullscreenenter"",""1"",""5943""
","
","","","-1","","","12","4116","704","&#9752;","elianto","#f73b6a7A"," ","-1","0","-10","[]","0","1","","","4116","20","3","3","lose","go","0"
"pit-instructions","144","1057465","0.0-24.0","battery-v0.2","","""event"",""trial"",""time""
""fullscreenenter"",""1"",""5943""
","
","
","""event"",""trial"",""time""
""fullscreenenter"",""1"",""5943""
","
","","[{""page_index"":0,""viewing_time"":5977.5},{""page_index"":1,""viewing_time"":9482.5}]","15461","","","","","","","","","","","","","","","","","","","","","","","",""
"pit-trial","145","1062349","0.0-25.0","battery-v0.2","","""event"",""trial"",""time""
""fullscreenenter"",""1"",""5943""
","
","
","""event"",""trial"",""time""
""fullscreenenter"",""1"",""5943""
","
","","","-1","","","12","4116","704","y","elianto","#f73b6a7A"," ","-1","0","-10","[]","0","2","","","4116","21","2","3","lose","go","0"
"pit-trial","146","1067229","0.0-26.0","battery-v0.2","","""event"",""trial"",""time""
""fullscreenenter"",""1"",""5943""
","
","
","""event"",""trial"",""time""
""fullscreenenter"",""1"",""5943""
","
","","","-1","","","12","4116","704","m","elianto","#f73b6a7A"," ","-1","0","-10","[]","0","2","","","4116","22","0","3","lose","go","0"
"pit-trial","147","1070569","0.0-27.0","battery-v0.2","","""event"",""trial"",""time""
""fullscreenenter"",""1"",""5943""
","
","
","""event"",""trial"",""time""
""fullscreenenter"",""1"",""5943""
","
","","","459.5","","","12","4116","704","r","elianto","#3366ff99","-1"," ","0","0","[1311.2999999523163]","1","2","","","4116","23","1","2","win","no-go","0"
"pit-trial","148","1075439","0.0-28.0","battery-v0.2","","""event"",""trial"",""time""
""fullscreenenter"",""1"",""5943""
","
","
","""event"",""trial"",""time""
""fullscreenenter"",""1"",""5943""
","
","","","-1","","","12","4116","704","h","elianto","#f73b6a7A","-1","-1","1","0","[]","0","2","","","4116","24","3","4","lose","no-go","0"
"pit-trial","149","1080329","0.0-29.0","battery-v0.2","","""event"",""trial"",""time""
""fullscreenenter"",""1"",""5943""
","
","
","""event"",""trial"",""time""
""fullscreenenter"",""1"",""5943""
","
","","","-1","","","12","4116","704","h","elianto","#f73b6a7A","-1","-1","1","0","[]","0","2","","","4116","25","3","4","lose","no-go","0"
"pit-trial","150","1083629","0.0-30.0","battery-v0.2","","""event"",""trial"",""time""
""fullscreenenter"",""1"",""5943""
","
","
","""event"",""trial"",""time""
""fullscreenenter"",""1"",""5943""
","
","","","433.1999999284744","","","12","4116","704","r","elianto","#3366ff99","-1"," ","0","0","[1285.3999999761581]","1","2","","","4116","26","1","2","win","no-go","0"
"pit-trial","151","1088003","0.0-31.0","battery-v0.2","","""event"",""trial"",""time""
""fullscreenenter"",""1"",""5943""
","
","
","""event"",""trial"",""time""
""fullscreenenter"",""1"",""5943""
","
","","","1509.3999999761581","","","12","4116","704","m","elianto","#f73b6a7A"," "," ","1","0","[2361.7999999523163]","1","2","","","4116","27","0","3","lose","go","0"
"pit-trial","152","1092873","0.0-32.0","battery-v0.2","","""event"",""trial"",""time""
""fullscreenenter"",""1"",""5943""
","
","
","""event"",""trial"",""time""
""fullscreenenter"",""1"",""5943""
","
","","","-1","","","12","4116","704","y","elianto","#f73b6a7A"," ","-1","0","-10","[]","0","2","","","4116","28","2","3","lose","go","0"
"pit-trial","153","1097736","0.0-33.0","battery-v0.2","","""event"",""trial"",""time""
""fullscreenenter"",""1"",""5943""
","
","
","""event"",""trial"",""time""
""fullscreenenter"",""1"",""5943""
","
","","","-1","","","12","4116","704","h","elianto","#f73b6a7A","-1","-1","1","0","[]","0","2","","","4116","29","3","4","lose","no-go","0"
"pit-trial","154","1102601","0.0-34.0","battery-v0.2","","""event"",""trial"",""time""
""fullscreenenter"",""1"",""5943""
","
","
","""event"",""trial"",""time""
""fullscreenenter"",""1"",""5943""
","
","","","-1","","","12","4116","704","y","elianto","#f73b6a7A"," ","-1","0","-10","[]","0","2","","","4116","30","2","3","lose","go","0"
"pit-trial","155","1106001","0.0-35.0","battery-v0.2","","""event"",""trial"",""time""
""fullscreenenter"",""1"",""5943""
","
","
","""event"",""trial"",""time""
""fullscreenenter"",""1"",""5943""
","
","","","540.2000000476837","","","12","4116","704","r","elianto","#3366ff99","-1"," ","0","0","[1391.7000000476837]","1","2","","","4116","31","1","2","win","no-go","0"
"pit-trial","156","1110875","0.0-36.0","battery-v0.2","","""event"",""trial"",""time""
""fullscreenenter"",""1"",""5943""
","
","
","""event"",""trial"",""time""
""fullscreenenter"",""1"",""5943""
","
","","","-1","","","12","4116","704","m","elianto","#f73b6a7A"," ","-1","0","-10","[]","0","2","","","4116","32","0","3","lose","go","0"
"pit-trial","157","1115747","0.0-37.0","battery-v0.2","","""event"",""trial"",""time""
""fullscreenenter"",""1"",""5943""
","
","
","""event"",""trial"",""time""
""fullscreenenter"",""1"",""5943""
","
","","","-1","","","12","4116","704","m","elianto","#f73b6a7A"," ","-1","0","0","[]","0","2","","","4116","33","0","3","lose","go","1"
"pit-trial","158","1119202","0.0-38.0","battery-v0.2","","""event"",""trial"",""time""
""fullscreenenter"",""1"",""5943""
","
","
","""event"",""trial"",""time""
""fullscreenenter"",""1"",""5943""
","
","","","590.2999999523163","","","12","4116","704","r","elianto","#3366ff99","-1"," ","0","0","[1442.2999999523163]","1","2","","","4116","34","1","2","win","no-go","0"
"pit-trial","159","1124074","0.0-39.0","battery-v0.2","","""event"",""trial"",""time""
""fullscreenenter"",""1"",""5943""
","
","
","""event"",""trial"",""time""
""fullscreenenter"",""1"",""5943""
","
","","","-1","","","12","4116","704","y","elianto","#f73b6a7A"," ","-1","0","-10","[]","0","2","","","4116","35","2","3","lose","go","0"
"pit-trial","160","1128950","0.0-40.0","battery-v0.2","","""event"",""trial"",""time""
""fullscreenenter"",""1"",""5943""
","
","
","""event"",""trial"",""time""
""fullscreenenter"",""1"",""5943""
","
","","","-1","","","12","4116","704","h","elianto","#f73b6a7A","-1","-1","1","0","[]","0","2","","","4116","36","3","4","lose","no-go","0"
"pit-trial","161","1133827","0.0-41.0","battery-v0.2","","""event"",""trial"",""time""
""fullscreenenter"",""1"",""5943""
","
","
","""event"",""trial"",""time""
""fullscreenenter"",""1"",""5943""
","
","","","-1","","","12","4116","704","m","elianto","#f73b6a7A"," ","-1","0","-10","[]","0","2","","","4116","37","0","3","lose","go","0"
"pit-trial","162","1137236","0.0-42.0","battery-v0.2","","""event"",""trial"",""time""
""fullscreenenter"",""1"",""5943""
","
","
","""event"",""trial"",""time""
""fullscreenenter"",""1"",""5943""
","
","","","537.2999999523163","","","12","4116","704","r","elianto","#3366ff99","-1"," ","0","0","[1389.3999999761581]","1","2","","","4116","38","1","2","win","no-go","0"
"pit-trial","163","1142105","0.0-43.0","battery-v0.2","","""event"",""trial"",""time""
""fullscreenenter"",""1"",""5943""
","
","
","""event"",""trial"",""time""
""fullscreenenter"",""1"",""5943""
","
","","","-1","","","12","4116","704","h","elianto","#f73b6a7A","-1","-1","1","0","[]","0","2","","","4116","39","3","4","lose","no-go","0"
"pit-trial","164","1146983","0.0-44.0","battery-v0.2","","""event"",""trial"",""time""
""fullscreenenter"",""1"",""5943""
","
","
","""event"",""trial"",""time""
""fullscreenenter"",""1"",""5943""
","
","","","-1","","","12","4116","704","y","elianto","#f73b6a7A"," ","-1","0","-10","[]","0","2","","","4116","40","2","3","lose","go","0"
"pit-trial","165","1151847","0.0-45.0","battery-v0.2","","""event"",""trial"",""time""
""fullscreenenter"",""1"",""5943""
","
","
","""event"",""trial"",""time""
""fullscreenenter"",""1"",""5943""
","
","","","-1","","","12","4116","704","m","elianto","#f73b6a7A"," ","-1","0","0","[]","0","2","","","4116","41","0","3","lose","go","1"
"pit-trial","166","1156723","0.0-46.0","battery-v0.2","","""event"",""trial"",""time""
""fullscreenenter"",""1"",""5943""
","
","
","""event"",""trial"",""time""
""fullscreenenter"",""1"",""5943""
","
","","","-1","","","12","4116","704","y","elianto","#f73b6a7A"," ","-1","0","-10","[]","0","2","","","4116","42","2","3","lose","go","0"
"pit-trial","167","1161594","0.0-47.0","battery-v0.2","","""event"",""trial"",""time""
""fullscreenenter"",""1"",""5943""
","
","
","""event"",""trial"",""time""
""fullscreenenter"",""1"",""5943""
","
","","","-1","","","12","4116","704","h","elianto","#f73b6a7A","-1","-1","1","0","[]","0","2","","","4116","43","3","4","lose","no-go","0"
"pit-trial","168","1164966","0.0-48.0","battery-v0.2","","""event"",""trial"",""time""
""fullscreenenter"",""1"",""5943""
","
","
","""event"",""trial"",""time""
""fullscreenenter"",""1"",""5943""
","
","","","514.1000000238419","","","12","4116","704","r","elianto","#3366ff99","-1"," ","0","0","[1366.1999999284744]","1","2","","","4116","44","1","2","win","no-go","0"
"pit-trial","169","1168625","0.0-49.0","battery-v0.2","","""event"",""trial"",""time""
""fullscreenenter"",""1"",""5943""
","
","
","""event"",""trial"",""time""
""fullscreenenter"",""1"",""5943""
","
","","","797.2000000476837","","","12","4116","704","r","elianto","#3366ff99","-1"," ","0","0","[1649.1000000238419]","1","2","","","4116","45","1","2","win","no-go","0"
"pit-trial","170","1173495","0.0-50.0","battery-v0.2","","""event"",""trial"",""time""
""fullscreenenter"",""1"",""5943""
","
","
","""event"",""trial"",""time""
""fullscreenenter"",""1"",""5943""
","
","","","-1","","","12","4116","704","y","elianto","#f73b6a7A"," ","-1","0","-10","[]","0","2","","","4116","46","2","3","lose","go","0"
"pit-trial","171","1178363","0.0-51.0","battery-v0.2","","""event"",""trial"",""time""
""fullscreenenter"",""1"",""5943""
","
","
","""event"",""trial"",""time""
""fullscreenenter"",""1"",""5943""
","
","","","-1","","","12","4116","704","h","elianto","#f73b6a7A","-1","-1","1","-10","[]","0","2","","","4116","47","3","4","lose","no-go","1"
"pit-trial","172","1183230","0.0-52.0","battery-v0.2","","""event"",""trial"",""time""
""fullscreenenter"",""1"",""5943""
","
","
","""event"",""trial"",""time""
""fullscreenenter"",""1"",""5943""
","
","","","-1","","","12","4116","704","m","elianto","#f73b6a7A"," ","-1","0","-10","[]","0","2","","","4116","48","0","3","lose","go","0"
"pit-trial","173","1186613","0.0-53.0","battery-v0.2","","""event"",""trial"",""time""
""fullscreenenter"",""1"",""5943""
","
","
","""event"",""trial"",""time""
""fullscreenenter"",""1"",""5943""
","
","","","517.2999999523163","","","12","4116","704","r","elianto","#3366ff99","-1"," ","0","+10","[1368.8999999761581]","1","2","","","4116","49","1","2","win","no-go","1"
"pit-trial","174","1191479","0.0-54.0","battery-v0.2","","""event"",""trial"",""time""
""fullscreenenter"",""1"",""5943""
","
","
","""event"",""trial"",""time""
""fullscreenenter"",""1"",""5943""
","
","","","-1","","","12","4116","704","y","elianto","#f73b6a7A"," ","-1","0","-10","[]","0","2","","","4116","50","2","3","lose","go","0"
"pit-trial","175","1196340","0.0-55.0","battery-v0.2","","""event"",""trial"",""time""
""fullscreenenter"",""1"",""5943""
","
","
","""event"",""trial"",""time""
""fullscreenenter"",""1"",""5943""
","
","","","-1","","","12","4116","704","h","elianto","#f73b6a7A","-1","-1","1","0","[]","0","2","","","4116","51","3","4","lose","no-go","0"
"pit-trial","176","1201221","0.0-56.0","battery-v0.2","","""event"",""trial"",""time""
""fullscreenenter"",""1"",""5943""
","
","
","""event"",""trial"",""time""
""fullscreenenter"",""1"",""5943""
","
","","","-1","","","12","4116","704","m","elianto","#f73b6a7A"," ","-1","0","-10","[]","0","2","","","4116","52","0","3","lose","go","0"
"pit-trial","177","1206091","0.0-57.0","battery-v0.2","","""event"",""trial"",""time""
""fullscreenenter"",""1"",""5943""
","
","
","""event"",""trial"",""time""
""fullscreenenter"",""1"",""5943""
","
","","","-1","","","12","4116","704","y","elianto","#f73b6a7A"," ","-1","0","-10","[]","0","2","","","4116","53","2","3","lose","go","0"
"pit-trial","178","1210962","0.0-58.0","battery-v0.2","","""event"",""trial"",""time""
""fullscreenenter"",""1"",""5943""
","
","
","""event"",""trial"",""time""
""fullscreenenter"",""1"",""5943""
","
","","","-1","","","12","4116","704","m","elianto","#f73b6a7A"," ","-1","0","-10","[]","0","2","","","4116","54","0","3","lose","go","0"
"pit-trial","179","1215828","0.0-59.0","battery-v0.2","","""event"",""trial"",""time""
""fullscreenenter"",""1"",""5943""
","
","
","""event"",""trial"",""time""
""fullscreenenter"",""1"",""5943""
","
","","","-1","","","12","4116","704","h","elianto","#f73b6a7A","-1","-1","1","0","[]","0","2","","","4116","55","3","4","lose","no-go","0"
"pit-trial","180","1219242","0.0-60.0","battery-v0.2","","""event"",""trial"",""time""
""fullscreenenter"",""1"",""5943""
","
","
","""event"",""trial"",""time""
""fullscreenenter"",""1"",""5943""
","
","","","555.1999999284744","","","12","4116","704","r","elianto","#3366ff99","-1"," ","0","0","[1407.5999999046326,3135.7999999523163]","2","2","","","4116","56","1","2","win","no-go","0"
"pit-trial","181","1224117","0.0-61.0","battery-v0.2","","""event"",""trial"",""time""
""fullscreenenter"",""1"",""5943""
","
","
","""event"",""trial"",""time""
""fullscreenenter"",""1"",""5943""
","
","","","-1","","","12","4116","704","h","elianto","#f73b6a7A","-1","-1","1","-10","[]","0","2","","","4116","57","3","4","lose","no-go","1"
"pit-trial","182","1228990","0.0-62.0","battery-v0.2","","""event"",""trial"",""time""
""fullscreenenter"",""1"",""5943""
","
","
","""event"",""trial"",""time""
""fullscreenenter"",""1"",""5943""
","
","","","-1","","","12","4116","704","m","elianto","#f73b6a7A"," ","-1","0","-10","[]","0","2","","","4116","58","0","3","lose","go","0"
"pit-trial","183","1233868","0.0-63.0","battery-v0.2","","""event"",""trial"",""time""
""fullscreenenter"",""1"",""5943""
","
","
","""event"",""trial"",""time""
""fullscreenenter"",""1"",""5943""
","
","","","-1","","","12","4116","704","y","elianto","#f73b6a7A"," ","-1","0","-10","[]","0","2","","","4116","59","2","3","lose","go","0"
"pit-trial","184","1237294","0.0-64.0","battery-v0.2","","""event"",""trial"",""time""
""fullscreenenter"",""1"",""5943""
","
","
","""event"",""trial"",""time""
""fullscreenenter"",""1"",""5943""
","
","","","563.7999999523163","","","12","4116","704","z","elianto","#3366ff99"," "," ","1","+10","[1416.2999999523163]","1","2","","","4116","60","4","1","win","go","0"
"pit-trial","185","1240787","0.0-65.0","battery-v0.2","","""event"",""trial"",""time""
""fullscreenenter"",""1"",""5943""
","
","
","""event"",""trial"",""time""
""fullscreenenter"",""1"",""5943""
","
","","","632.2999999523163","","","12","4116","704","r","elianto","#3366ff99","-1"," ","0","0","[1484.1000000238419]","1","2","","","4116","61","1","2","win","no-go","0"
"pit-trial","186","1245652","0.0-66.0","battery-v0.2","","""event"",""trial"",""time""
""fullscreenenter"",""1"",""5943""
","
","
","""event"",""trial"",""time""
""fullscreenenter"",""1"",""5943""
","
","","","-1","","","12","4116","704","y","elianto","#f73b6a7A"," ","-1","0","-10","[]","0","2","","","4116","62","2","3","lose","go","0"
"pit-trial","187","1250519","0.0-67.0","battery-v0.2","","""event"",""trial"",""time""
""fullscreenenter"",""1"",""5943""
","
","
","""event"",""trial"",""time""
""fullscreenenter"",""1"",""5943""
","
","","","-1","","","12","4116","704","h","elianto","#f73b6a7A","-1","-1","1","0","[]","0","2","","","4116","63","3","4","lose","no-go","0"
"pit-trial","188","1253947","0.0-68.0","battery-v0.2","","""event"",""trial"",""time""
""fullscreenenter"",""1"",""5943""
","
","
","""event"",""trial"",""time""
""fullscreenenter"",""1"",""5943""
","
","","","557.1000000238419","","","12","4116","704","z","elianto","#3366ff99"," "," ","1","+10","[1408.5999999046326]","1","2","","","4116","64","4","1","win","go","0"
"pit-trial","189","1257382","0.0-69.0","battery-v0.2","","""event"",""trial"",""time""
""fullscreenenter"",""1"",""5943""
","
","
","""event"",""trial"",""time""
""fullscreenenter"",""1"",""5943""
","
","","","572.5","","","12","4116","704","r","elianto","#3366ff99","-1"," ","0","0","[1424.7000000476837]","1","2","","","4116","65","1","2","win","no-go","0"
"pit-trial","190","1262254","0.0-70.0","battery-v0.2","","""event"",""trial"",""time""
""fullscreenenter"",""1"",""5943""
","
","
","""event"",""trial"",""time""
""fullscreenenter"",""1"",""5943""
","
","","","-1","","","12","4116","704","h","elianto","#f73b6a7A","-1","-1","1","0","[]","0","2","","","4116","66","3","4","lose","no-go","0"
"pit-trial","191","1265722","0.0-71.0","battery-v0.2","","""event"",""trial"",""time""
""fullscreenenter"",""1"",""5943""
","
","
","""event"",""trial"",""time""
""fullscreenenter"",""1"",""5943""
","
","","","603.3000000715256","","","12","4116","704","z","elianto","#3366ff99"," "," ","1","0","[1454.8000000715256]","1","2","","","4116","67","4","1","win","go","1"
"pit-trial","192","1269160","0.0-72.0","battery-v0.2","","""event"",""trial"",""time""
""fullscreenenter"",""1"",""5943""
","
","
","""event"",""trial"",""time""
""fullscreenenter"",""1"",""5943""
","
","","","576.8000000715256","","","12","4116","704","c","elianto","#3366ff99","-1"," ","0","0","[1429]","1","2","","","4116","68","5","2","win","no-go","0"
"pit-trial","193","1272640","0.0-73.0","battery-v0.2","","""event"",""trial"",""time""
""fullscreenenter"",""1"",""5943""
","
","
","""event"",""trial"",""time""
""fullscreenenter"",""1"",""5943""
","
","","","617.2999999523163","","","12","4116","704","r","elianto","#3366ff99","-1"," ","0","+10","[1469.0999999046326]","1","2","","","4116","69","1","2","win","no-go","1"
"pit-trial","194","1277525","0.0-74.0","battery-v0.2","","""event"",""trial"",""time""
""fullscreenenter"",""1"",""5943""
","
","
","""event"",""trial"",""time""
""fullscreenenter"",""1"",""5943""
","
","","","-1","","","12","4116","704","y","elianto","#f73b6a7A"," ","-1","0","-10","[]","0","2","","","4116","70","2","3","lose","go","0"
"pit-trial","195","1280958","0.0-75.0","battery-v0.2","","""event"",""trial"",""time""
""fullscreenenter"",""1"",""5943""
","
","
","""event"",""trial"",""time""
""fullscreenenter"",""1"",""5943""
","
","","","566.5","","","12","4116","704","z","elianto","#3366ff99"," "," ","1","0","[1418.2999999523163]","1","2","","","4116","71","4","1","win","go","1"
"pit-trial","196","1284414","0.0-76.0","battery-v0.2","","""event"",""trial"",""time""
""fullscreenenter"",""1"",""5943""
","
","
","""event"",""trial"",""time""
""fullscreenenter"",""1"",""5943""
","
","","","597.3999999761581","","","12","4116","704","c","elianto","#3366ff99","-1"," ","0","+10","[1449.2000000476837]","1","2","","","4116","72","5","2","win","no-go","1"
"pit-trial","197","1288346","0.0-77.0","battery-v0.2","","""event"",""trial"",""time""
""fullscreenenter"",""1"",""5943""
","
","
","""event"",""trial"",""time""
""fullscreenenter"",""1"",""5943""
","
","","","1065.2000000476837","","","12","4116","704","c","elianto","#3366ff99","-1"," ","0","+10","[1917.6999999284744]","1","2","","","4116","73","5","2","win","no-go","1"
"pit-trial","198","1291754","0.0-78.0","battery-v0.2","","""event"",""trial"",""time""
""fullscreenenter"",""1"",""5943""
","
","
","""event"",""trial"",""time""
""fullscreenenter"",""1"",""5943""
","
","","","546.2999999523163","","","12","4116","704","r","elianto","#3366ff99","-1"," ","0","0","[1398]","1","2","","","4116","74","1","2","win","no-go","0"
"pit-trial","199","1296626","0.0-79.0","battery-v0.2","","""event"",""trial"",""time""
""fullscreenenter"",""1"",""5943""
","
","
","""event"",""trial"",""time""
""fullscreenenter"",""1"",""5943""
","
","","","-1","","","12","4116","704","h","elianto","#f73b6a7A","-1","-1","1","0","[]","0","2","","","4116","75","3","4","lose","no-go","0"
"pit-trial","200","1300022","0.0-80.0","battery-v0.2","","""event"",""trial"",""time""
""fullscreenenter"",""1"",""5943""
","
","
","""event"",""trial"",""time""
""fullscreenenter"",""1"",""5943""
","
","","","536.1000000238419","","","12","4116","704","z","elianto","#3366ff99"," "," ","1","+10","[1387.5]","1","2","","","4116","76","4","1","win","go","0"
"pit-trial","201","1303582","0.0-81.0","battery-v0.2","","""event"",""trial"",""time""
""fullscreenenter"",""1"",""5943""
","
","
","""event"",""trial"",""time""
""fullscreenenter"",""1"",""5943""
","
","","","699.1000000238419","","","12","4116","704","z","elianto","#3366ff99"," "," ","1","+10","[1551.7000000476837]","1","2","","","4116","77","4","1","win","go","0"
"pit-trial","202","1307070","0.0-82.0","battery-v0.2","","""event"",""trial"",""time""
""fullscreenenter"",""1"",""5943""
","
","
","""event"",""trial"",""time""
""fullscreenenter"",""1"",""5943""
","
","","","625.2999999523163","","","12","4116","704","z","elianto","#3366ff99"," "," ","1","+10","[1477]","1","2","","","4116","78","4","1","win","go","0"
"pit-trial","203","1311696","0.0-83.0","battery-v0.2","","""event"",""trial"",""time""
""fullscreenenter"",""1"",""5943""
","
","
","""event"",""trial"",""time""
""fullscreenenter"",""1"",""5943""
","
","","","1761.7999999523163","","","12","4116","704","h","elianto","#f73b6a7A","-1"," ","0","-10","[2613.6999999284744]","1","2","","","4116","79","3","4","lose","no-go","0"
"pit-trial","204","1315182","0.0-84.0","battery-v0.2","","""event"",""trial"",""time""
""fullscreenenter"",""1"",""5943""
","
","
","""event"",""trial"",""time""
""fullscreenenter"",""1"",""5943""
","
","","","627.2000000476837","","","12","4116","704","c","elianto","#3366ff99","-1"," ","0","0","[1478.8999999761581]","1","2","","","4116","80","5","2","win","no-go","0"
"pit-trial","205","1320048","0.0-85.0","battery-v0.2","","""event"",""trial"",""time""
""fullscreenenter"",""1"",""5943""
","
","
","""event"",""trial"",""time""
""fullscreenenter"",""1"",""5943""
","
","","","-1","","","12","4116","704","t","elianto","#f73b6a7A","-1","-1","1","-10","[]","0","2","","","4116","81","7","4","lose","no-go","1"
"pit-trial","206","1324921","0.0-86.0","battery-v0.2","","""event"",""trial"",""time""
""fullscreenenter"",""1"",""5943""
","
","
","""event"",""trial"",""time""
""fullscreenenter"",""1"",""5943""
","
","","","-1","","","12","4116","704","h","elianto","#f73b6a7A","-1","-1","1","0","[]","0","2","","","4116","82","3","4","lose","no-go","0"
"pit-trial","207","1328392","0.0-87.0","battery-v0.2","","""event"",""trial"",""time""
""fullscreenenter"",""1"",""5943""
","
","
","""event"",""trial"",""time""
""fullscreenenter"",""1"",""5943""
","
","","","597.7000000476837","","","12","4116","704","c","elianto","#3366ff99","-1"," ","0","0","[1449.5]","1","2","","","4116","83","5","2","win","no-go","0"
"pit-trial","208","1331831","0.0-88.0","battery-v0.2","","""event"",""trial"",""time""
""fullscreenenter"",""1"",""5943""
","
","
","""event"",""trial"",""time""
""fullscreenenter"",""1"",""5943""
","
","","","576.1000000238419","","","12","4116","704","z","elianto","#3366ff99"," "," ","1","0","[1427.8999999761581]","1","2","","","4116","84","4","1","win","go","1"
"pit-trial","209","1336694","0.0-89.0","battery-v0.2","","""event"",""trial"",""time""
""fullscreenenter"",""1"",""5943""
","
","
","""event"",""trial"",""time""
""fullscreenenter"",""1"",""5943""
","
","","","-1","","","12","4116","704","t","elianto","#f73b6a7A","-1","-1","1","0","[]","0","2","","","4116","85","7","4","lose","no-go","0"
"pit-trial","210","1340568","0.0-90.0","battery-v0.2","","""event"",""trial"",""time""
""fullscreenenter"",""1"",""5943""
","
","
","""event"",""trial"",""time""
""fullscreenenter"",""1"",""5943""
","
","","","1013","","","12","4116","704","c","elianto","#3366ff99","-1"," ","0","0","[1864.5999999046326]","1","2","","","4116","86","5","2","win","no-go","0"
"pit-trial","211","1345439","0.0-91.0","battery-v0.2","","""event"",""trial"",""time""
""fullscreenenter"",""1"",""5943""
","
","
","""event"",""trial"",""time""
""fullscreenenter"",""1"",""5943""
","
","","","-1","","","12","4116","704","b","elianto","#f73b6a7A"," ","-1","0","-10","[]","0","2","","","4116","87","6","3","lose","go","0"
"pit-trial","212","1348800","0.0-92.0","battery-v0.2","","""event"",""trial"",""time""
""fullscreenenter"",""1"",""5943""
","
","
","""event"",""trial"",""time""
""fullscreenenter"",""1"",""5943""
","
","","","499.2999999523163","","","12","4116","704","z","elianto","#3366ff99"," "," ","1","+10","[1351.1000000238419]","1","2","","","4116","88","4","1","win","go","0"
"pit-trial","213","1352279","0.0-93.0","battery-v0.2","","""event"",""trial"",""time""
""fullscreenenter"",""1"",""5943""
","
","
","""event"",""trial"",""time""
""fullscreenenter"",""1"",""5943""
","
","","","619.2000000476837","","","12","4116","704","z","elianto","#3366ff99"," "," ","1","+10","[1471]","1","2","","","4116","89","4","1","win","go","0"
"pit-trial","214","1355656","0.0-94.0","battery-v0.2","","""event"",""trial"",""time""
""fullscreenenter"",""1"",""5943""
","
","
","""event"",""trial"",""time""
""fullscreenenter"",""1"",""5943""
","
","","","513.3999999761581","","","12","4116","704","c","elianto","#3366ff99","-1"," ","0","0","[1365.2000000476837]","1","2","","","4116","90","5","2","win","no-go","0"
"pit-trial","215","1360526","0.0-95.0","battery-v0.2","","""event"",""trial"",""time""
""fullscreenenter"",""1"",""5943""
","
","
","""event"",""trial"",""time""
""fullscreenenter"",""1"",""5943""
","
","","","-1","","","12","4116","704","t","elianto","#f73b6a7A","-1","-1","1","0","[]","0","2","","","4116","91","7","4","lose","no-go","0"
"pit-trial","216","1365391","0.0-96.0","battery-v0.2","","""event"",""trial"",""time""
""fullscreenenter"",""1"",""5943""
","
","
","""event"",""trial"",""time""
""fullscreenenter"",""1"",""5943""
","
","","","-1","","","12","4116","704","b","elianto","#f73b6a7A"," ","-1","0","-10","[]","0","2","","","4116","92","6","3","lose","go","0"
"pit-trial","217","1370264","0.0-97.0","battery-v0.2","","""event"",""trial"",""time""
""fullscreenenter"",""1"",""5943""
","
","
","""event"",""trial"",""time""
""fullscreenenter"",""1"",""5943""
","
","","","-1","","","12","4116","704","b","elianto","#f73b6a7A"," ","-1","0","-10","[]","0","2","","","4116","93","6","3","lose","go","0"
"pit-trial","218","1373617","0.0-98.0","battery-v0.2","","""event"",""trial"",""time""
""fullscreenenter"",""1"",""5943""
","
","
","""event"",""trial"",""time""
""fullscreenenter"",""1"",""5943""
","
","","","488.7000000476837","","","12","4116","704","c","elianto","#3366ff99","-1"," ","0","0","[1340.5]","1","2","","","4116","94","5","2","win","no-go","0"
"pit-trial","219","1377010","0.0-99.0","battery-v0.2","","""event"",""trial"",""time""
""fullscreenenter"",""1"",""5943""
","
","
","""event"",""trial"",""time""
""fullscreenenter"",""1"",""5943""
","
","","","527.8999999761581","","","12","4116","704","f","elianto","#3366ff99"," "," ","1","+10","[1379.5]","1","2","","","4116","95","8","1","win","go","0"
"pit-trial","220","1381874","0.0-100.0","battery-v0.2","","""event"",""trial"",""time""
""fullscreenenter"",""1"",""5943""
","
","
","""event"",""trial"",""time""
""fullscreenenter"",""1"",""5943""
","
","","","-1","","","12","4116","704","t","elianto","#f73b6a7A","-1","-1","1","0","[]","0","2","","","4116","96","7","4","lose","no-go","0"
"pit-trial","221","1385407","0.0-101.0","battery-v0.2","","""event"",""trial"",""time""
""fullscreenenter"",""1"",""5943""
","
","
","""event"",""trial"",""time""
""fullscreenenter"",""1"",""5943""
","
","","","666.1000000238419","","","12","4116","704","f","elianto","#3366ff99"," "," ","1","+10","[1517.1999999284744]","1","2","","","4116","97","8","1","win","go","0"
"pit-trial","222","1390283","0.0-102.0","battery-v0.2","","""event"",""trial"",""time""
""fullscreenenter"",""1"",""5943""
","
","
","""event"",""trial"",""time""
""fullscreenenter"",""1"",""5943""
","
","","","-1","","","12","4116","704","b","elianto","#f73b6a7A"," ","-1","0","-10","[]","0","2","","","4116","98","6","3","lose","go","0"
"pit-trial","223","1395154","0.0-103.0","battery-v0.2","","""event"",""trial"",""time""
""fullscreenenter"",""1"",""5943""
","
","
","""event"",""trial"",""time""
""fullscreenenter"",""1"",""5943""
","
","","","-1","","","12","4116","704","t","elianto","#f73b6a7A","-1","-1","1","0","[]","0","2","","","4116","99","7","4","lose","no-go","0"
"pit-trial","224","1398848","0.0-104.0","battery-v0.2","","""event"",""trial"",""time""
""fullscreenenter"",""1"",""5943""
","
","
","""event"",""trial"",""time""
""fullscreenenter"",""1"",""5943""
","
","","","832.1000000238419","","","12","4116","704","c","elianto","#3366ff99","-1"," ","0","0","[1683.7000000476837]","1","2","","","4116","100","5","2","win","no-go","0"
"pit-trial","225","1403723","0.0-105.0","battery-v0.2","","""event"",""trial"",""time""
""fullscreenenter"",""1"",""5943""
","
","
","""event"",""trial"",""time""
""fullscreenenter"",""1"",""5943""
","
","","","-1","","","12","4116","704","t","elianto","#f73b6a7A","-1","-1","1","0","[]","0","2","","","4116","101","7","4","lose","no-go","0"
"pit-trial","226","1407720","0.0-106.0","battery-v0.2","","""event"",""trial"",""time""
""fullscreenenter"",""1"",""5943""
","
","
","""event"",""trial"",""time""
""fullscreenenter"",""1"",""5943""
","
","","","1132.3999999761581","","","12","4116","704","c","elianto","#3366ff99","-1"," ","0","0","[1984.2000000476837]","1","2","","","4116","102","5","2","win","no-go","0"
"pit-trial","227","1411082","0.0-107.0","battery-v0.2","","""event"",""trial"",""time""
""fullscreenenter"",""1"",""5943""
","
","
","""event"",""trial"",""time""
""fullscreenenter"",""1"",""5943""
","
","","","495.60000002384186","","","12","4116","704","f","elianto","#3366ff99"," "," ","1","+10","[1347.7000000476837]","1","2","","","4116","103","8","1","win","go","0"
"pit-trial","228","1415065","0.0-108.0","battery-v0.2","","""event"",""trial"",""time""
""fullscreenenter"",""1"",""5943""
","
","
","""event"",""trial"",""time""
""fullscreenenter"",""1"",""5943""
","
","","","1118.1000000238419","","","12","4116","704","n","elianto","#3366ff99"," "," ","1","+10","[1969.4000000953674]","1","2","","","4116","104","9","1","win","go","0"
"pit-trial","229","1419928","0.0-109.0","battery-v0.2","","""event"",""trial"",""time""
""fullscreenenter"",""1"",""5943""
","
","
","""event"",""trial"",""time""
""fullscreenenter"",""1"",""5943""
","
","","","-1","","","12","4116","704","b","elianto","#f73b6a7A"," ","-1","0","-10","[]","0","2","","","4116","105","6","3","lose","go","0"
"pit-trial","230","1423576","0.0-110.0","battery-v0.2","","""event"",""trial"",""time""
""fullscreenenter"",""1"",""5943""
","
","
","""event"",""trial"",""time""
""fullscreenenter"",""1"",""5943""
","
","","","786.8999999761581","","","12","4116","704","z","elianto","#3366ff99"," "," ","1","0","[1638.1000000238419]","1","2","","","4116","106","4","1","win","go","1"
"pit-trial","231","1427063","0.0-111.0","battery-v0.2","","""event"",""trial"",""time""
""fullscreenenter"",""1"",""5943""
","
","
","""event"",""trial"",""time""
""fullscreenenter"",""1"",""5943""
","
","","","628.7999999523163","","","12","4116","704","f","elianto","#3366ff99"," "," ","1","0","[1479.6000000238419]","1","2","","","4116","107","8","1","win","go","1"
"pit-trial","232","1430297","0.0-112.0","battery-v0.2","","""event"",""trial"",""time""
""fullscreenenter"",""1"",""5943""
","
","
","""event"",""trial"",""time""
""fullscreenenter"",""1"",""5943""
","
","","","374.90000009536743","","","12","4116","704","n","elianto","#3366ff99"," "," ","1","+10","[1228.1000000238419]","1","2","","","4116","108","9","1","win","go","0"
"pit-trial","233","1433793","0.0-113.0","battery-v0.2","","""event"",""trial"",""time""
""fullscreenenter"",""1"",""5943""
","
","
","""event"",""trial"",""time""
""fullscreenenter"",""1"",""5943""
","
","","","636.5","","","12","4116","704","f","elianto","#3366ff99"," "," ","1","+10","[1488]","1","2","","","4116","109","8","1","win","go","0"
"pit-trial","234","1437200","0.0-114.0","battery-v0.2","","""event"",""trial"",""time""
""fullscreenenter"",""1"",""5943""
","
","
","""event"",""trial"",""time""
""fullscreenenter"",""1"",""5943""
","
","","","547.2000000476837","","","12","4116","704","c","elianto","#3366ff99","-1"," ","0","0","[384.60000002384186,1398.5,2122.3000000715256]","3","2","","","4116","110","5","2","win","no-go","0"
"pit-trial","235","1442066","0.0-115.0","battery-v0.2","","""event"",""trial"",""time""
""fullscreenenter"",""1"",""5943""
","
","
","""event"",""trial"",""time""
""fullscreenenter"",""1"",""5943""
","
","","","-1","","","12","4116","704","b","elianto","#f73b6a7A"," ","-1","0","0","[]","0","2","","","4116","111","6","3","lose","go","1"
"pit-trial","236","1445487","0.0-116.0","battery-v0.2","","""event"",""trial"",""time""
""fullscreenenter"",""1"",""5943""
","
","
","""event"",""trial"",""time""
""fullscreenenter"",""1"",""5943""
","
","","","559.2000000476837","","","12","4116","704","n","elianto","#3366ff99"," "," ","1","+10","[1410.7000000476837]","1","2","","","4116","112","9","1","win","go","0"
"pit-trial","237","1448913","0.0-117.0","battery-v0.2","","""event"",""trial"",""time""
""fullscreenenter"",""1"",""5943""
","
","
","""event"",""trial"",""time""
""fullscreenenter"",""1"",""5943""
","
","","","563.5","","","12","4116","704","f","elianto","#3366ff99"," "," ","1","+10","[1415]","1","2","","","4116","113","8","1","win","go","0"
"pit-trial","238","1453786","0.0-118.0","battery-v0.2","","""event"",""trial"",""time""
""fullscreenenter"",""1"",""5943""
","
","
","""event"",""trial"",""time""
""fullscreenenter"",""1"",""5943""
","
","","","-1","","","12","4116","704","b","elianto","#f73b6a7A"," ","-1","0","-10","[]","0","2","","","4116","114","6","3","lose","go","0"
"pit-trial","239","1457168","0.0-119.0","battery-v0.2","","""event"",""trial"",""time""
""fullscreenenter"",""1"",""5943""
","
","
","""event"",""trial"",""time""
""fullscreenenter"",""1"",""5943""
","
","","","525","","","12","4116","704","c","elianto","#3366ff99","-1"," ","0","+10","[1376.7000000476837]","1","2","","","4116","115","5","2","win","no-go","1"
"pit-trial","240","1461276","0.0-120.0","battery-v0.2","","""event"",""trial"",""time""
""fullscreenenter"",""1"",""5943""
","
","
","""event"",""trial"",""time""
""fullscreenenter"",""1"",""5943""
","
","","","1247","","","12","4116","704","n","elianto","#3366ff99"," "," ","1","0","[2098.8000000715256]","1","2","","","4116","116","9","1","win","go","1"
"pit-trial","241","1464837","0.0-121.0","battery-v0.2","","""event"",""trial"",""time""
""fullscreenenter"",""1"",""5943""
","
","
","""event"",""trial"",""time""
""fullscreenenter"",""1"",""5943""
","
","","","697.6000000238419","","","12","4116","704","n","elianto","#3366ff99"," "," ","1","+10","[1548.1000000238419]","1","2","","","4116","117","9","1","win","go","0"
"pit-trial","242","1468307","0.0-122.0","battery-v0.2","","""event"",""trial"",""time""
""fullscreenenter"",""1"",""5943""
","
","
","""event"",""trial"",""time""
""fullscreenenter"",""1"",""5943""
","
","","","602","","","12","4116","704","f","elianto","#3366ff99"," "," ","1","+10","[1454.7999999523163]","1","2","","","4116","118","8","1","win","go","0"
"pit-trial","243","1473186","0.0-123.0","battery-v0.2","","""event"",""trial"",""time""
""fullscreenenter"",""1"",""5943""
","
","
","""event"",""trial"",""time""
""fullscreenenter"",""1"",""5943""
","
","","","-1","","","12","4116","704","b","elianto","#f73b6a7A"," ","-1","0","-10","[]","0","2","","","4116","119","6","3","lose","go","0"
"pit-trial","244","1476560","0.0-124.0","battery-v0.2","","""event"",""trial"",""time""
""fullscreenenter"",""1"",""5943""
","
","
","""event"",""trial"",""time""
""fullscreenenter"",""1"",""5943""
","
","","","510.90000009536743","","","12","4116","704","c","elianto","#3366ff99","-1"," ","0","0","[1362.6000000238419]","1","2","","","4116","120","5","2","win","no-go","0"
"pit-trial","245","1481426","0.0-125.0","battery-v0.2","","""event"",""trial"",""time""
""fullscreenenter"",""1"",""5943""
","
","
","""event"",""trial"",""time""
""fullscreenenter"",""1"",""5943""
","
","","","-1","","","12","4116","704","t","elianto","#f73b6a7A","-1","-1","1","0","[]","0","2","","","4116","121","7","4","lose","no-go","0"
"pit-trial","246","1486289","0.0-126.0","battery-v0.2","","""event"",""trial"",""time""
""fullscreenenter"",""1"",""5943""
","
","
","""event"",""trial"",""time""
""fullscreenenter"",""1"",""5943""
","
","","","-1","","","12","4116","704","b","elianto","#f73b6a7A"," ","-1","0","0","[3044.899999976158,3726.5]","2","2","","","4116","122","6","3","lose","go","1"
"pit-trial","247","1489723","0.0-127.0","battery-v0.2","","""event"",""trial"",""time""
""fullscreenenter"",""1"",""5943""
","
","
","""event"",""trial"",""time""
""fullscreenenter"",""1"",""5943""
","
","","","568.6999999284744","","","12","4116","704","f","elianto","#3366ff99"," "," ","1","0","[1419.2999999523163]","1","2","","","4116","123","8","1","win","go","1"
"pit-trial","248","1493274","0.0-128.0","battery-v0.2","","""event"",""trial"",""time""
""fullscreenenter"",""1"",""5943""
","
","
","""event"",""trial"",""time""
""fullscreenenter"",""1"",""5943""
","
","","","692.6000000238419","","","12","4116","704","n","elianto","#3366ff99"," "," ","1","+10","[1544.7999999523163]","1","2","","","4116","124","9","1","win","go","0"
"pit-trial","249","1497074","0.0-129.0","battery-v0.2","","""event"",""trial"",""time""
""fullscreenenter"",""1"",""5943""
","
","
","""event"",""trial"",""time""
""fullscreenenter"",""1"",""5943""
","
","","","939.9000000953674","","","12","4116","704","n","elianto","#3366ff99"," "," ","1","+10","[1792.1000000238419]","1","2","","","4116","125","9","1","win","go","0"
"pit-trial","250","1501936","0.0-130.0","battery-v0.2","","""event"",""trial"",""time""
""fullscreenenter"",""1"",""5943""
","
","
","""event"",""trial"",""time""
""fullscreenenter"",""1"",""5943""
","
","","","-1","","","12","4116","704","t","elianto","#f73b6a7A","-1","-1","1","0","[]","0","2","","","4116","126","7","4","lose","no-go","0"
"pit-trial","251","1505353","0.0-131.0","battery-v0.2","","""event"",""trial"",""time""
""fullscreenenter"",""1"",""5943""
","
","
","""event"",""trial"",""time""
""fullscreenenter"",""1"",""5943""
","
","","","556.6000000238419","","","12","4116","704","f","elianto","#3366ff99"," "," ","1","+10","[1409]","1","2","","","4116","127","8","1","win","go","0"
"pit-trial","252","1510217","0.0-132.0","battery-v0.2","","""event"",""trial"",""time""
""fullscreenenter"",""1"",""5943""
","
","
","""event"",""trial"",""time""
""fullscreenenter"",""1"",""5943""
","
","","","-1","","","12","4116","704","b","elianto","#f73b6a7A"," ","-1","0","-10","[]","0","2","","","4116","128","6","3","lose","go","0"
"pit-trial","253","1513696","0.0-133.0","battery-v0.2","","""event"",""trial"",""time""
""fullscreenenter"",""1"",""5943""
","
","
","""event"",""trial"",""time""
""fullscreenenter"",""1"",""5943""
","
","","","618.6000000238419","","","12","4116","704","n","elianto","#3366ff99"," "," ","1","+10","[1470.2999999523163]","1","2","","","4116","129","9","1","win","go","0"
"pit-trial","254","1518571","0.0-134.0","battery-v0.2","","""event"",""trial"",""time""
""fullscreenenter"",""1"",""5943""
","
","
","""event"",""trial"",""time""
""fullscreenenter"",""1"",""5943""
","
","","","-1","","","12","4116","704","t","elianto","#f73b6a7A","-1","-1","1","0","[]","0","2","","","4116","130","7","4","lose","no-go","0"
"pit-trial","255","1522011","0.0-135.0","battery-v0.2","","""event"",""trial"",""time""
""fullscreenenter"",""1"",""5943""
","
","
","""event"",""trial"",""time""
""fullscreenenter"",""1"",""5943""
","
","","","578.7999999523163","","","12","4116","704","f","elianto","#3366ff99"," "," ","1","0","[1430.6999999284744]","1","2","","","4116","131","8","1","win","go","1"
"pit-trial","256","1526882","0.0-136.0","battery-v0.2","","""event"",""trial"",""time""
""fullscreenenter"",""1"",""5943""
","
","
","""event"",""trial"",""time""
""fullscreenenter"",""1"",""5943""
","
","","","-1","","","12","4116","704","b","elianto","#f73b6a7A"," ","-1","0","-10","[]","0","2","","","4116","132","6","3","lose","go","0"
"pit-trial","257","1530136","0.0-137.0","battery-v0.2","","""event"",""trial"",""time""
""fullscreenenter"",""1"",""5943""
","
","
","""event"",""trial"",""time""
""fullscreenenter"",""1"",""5943""
","
","","","382.7999999523163","","","12","4116","704","f","elianto","#3366ff99"," "," ","1","+10","[1234.8999999761581]","1","2","","","4116","133","8","1","win","go","0"
"pit-trial","258","1533474","0.0-138.0","battery-v0.2","","""event"",""trial"",""time""
""fullscreenenter"",""1"",""5943""
","
","
","""event"",""trial"",""time""
""fullscreenenter"",""1"",""5943""
","
","","","476.89999997615814","","","12","4116","704","n","elianto","#3366ff99"," "," ","1","+10","[1328.7000000476837]","1","2","","","4116","134","9","1","win","go","0"
"pit-trial","259","1538344","0.0-139.0","battery-v0.2","","""event"",""trial"",""time""
""fullscreenenter"",""1"",""5943""
","
","
","""event"",""trial"",""time""
""fullscreenenter"",""1"",""5943""
","
","","","-1","","","12","4116","704","t","elianto","#f73b6a7A","-1","-1","1","0","[]","0","2","","","4116","135","7","4","lose","no-go","0"
"pit-trial","260","1543208","0.0-140.0","battery-v0.2","","""event"",""trial"",""time""
""fullscreenenter"",""1"",""5943""
","
","
","""event"",""trial"",""time""
""fullscreenenter"",""1"",""5943""
","
","","","-1","","","12","4116","704","b","elianto","#f73b6a7A"," ","-1","0","-10","[]","0","2","","","4116","136","6","3","lose","go","0"
"pit-trial","261","1546504","0.0-141.0","battery-v0.2","","""event"",""trial"",""time""
""fullscreenenter"",""1"",""5943""
","
","
","""event"",""trial"",""time""
""fullscreenenter"",""1"",""5943""
","
","","","436.6999999284744","","","12","4116","704","n","elianto","#3366ff99"," "," ","1","+10","[1288.5999999046326]","1","2","","","4116","137","9","1","win","go","0"
"pit-trial","262","1551368","0.0-142.0","battery-v0.2","","""event"",""trial"",""time""
""fullscreenenter"",""1"",""5943""
","
","
","""event"",""trial"",""time""
""fullscreenenter"",""1"",""5943""
","
","","","-1","","","12","4116","704","b","elianto","#f73b6a7A"," ","-1","0","0","[]","0","2","","","4116","138","6","3","lose","go","1"
"pit-trial","263","1556243","0.0-143.0","battery-v0.2","","""event"",""trial"",""time""
""fullscreenenter"",""1"",""5943""
","
","
","""event"",""trial"",""time""
""fullscreenenter"",""1"",""5943""
","
","","","-1","","","12","4116","704","t","elianto","#f73b6a7A","-1","-1","1","0","[]","0","2","","","4116","139","7","4","lose","no-go","0"
"pit-trial","264","1559625","0.0-144.0","battery-v0.2","","""event"",""trial"",""time""
""fullscreenenter"",""1"",""5943""
","
","
","""event"",""trial"",""time""
""fullscreenenter"",""1"",""5943""
","
","","","522.9000000953674","","","12","4116","704","f","elianto","#3366ff99"," "," ","1","+10","[1374.7000000476837]","1","2","","","4116","140","8","1","win","go","0"
"pit-instructions","265","1575761","0.0-145.0","battery-v0.2","","""event"",""trial"",""time""
""fullscreenenter"",""1"",""5943""
","
","
","""event"",""trial"",""time""
""fullscreenenter"",""1"",""5943""
","
","","[{""page_index"":0,""viewing_time"":6702.600000023842},{""page_index"":1,""viewing_time"":9427.600000023842}]","16131.5","","","","","","","","","","","","","","","","","","","","","","","",""
"pit-trial","266","1580659","0.0-146.0","battery-v0.2","","""event"",""trial"",""time""
""fullscreenenter"",""1"",""5943""
","
","
","""event"",""trial"",""time""
""fullscreenenter"",""1"",""5943""
","
","","","-1","","","12","4116","704","w","elianto","#f73b6a7A"," ","-1","0","-10","[]","0","3","","","4116","141","3","3","lose","go","0"
"pit-trial","267","1585549","0.0-147.0","battery-v0.2","","""event"",""trial"",""time""
""fullscreenenter"",""1"",""5943""
","
","
","""event"",""trial"",""time""
""fullscreenenter"",""1"",""5943""
","
","","","-1","","","12","4116","704","j","elianto","#f73b6a7A","-1","-1","1","-10","[]","0","3","","","4116","142","0","4","lose","no-go","1"
"pit-trial","268","1588929","0.0-148.0","battery-v0.2","","""event"",""trial"",""time""
""fullscreenenter"",""1"",""5943""
","
","
","""event"",""trial"",""time""
""fullscreenenter"",""1"",""5943""
","
","","","518.3000000715256","","","12","4116","704","d","elianto","#3366ff99"," "," ","1","+10","[1369.6000000238419]","1","3","","","4116","143","1","1","win","go","0"
"pit-trial","269","1593829","0.0-149.0","battery-v0.2","","""event"",""trial"",""time""
""fullscreenenter"",""1"",""5943""
","
","
","""event"",""trial"",""time""
""fullscreenenter"",""1"",""5943""
","
