"trial_type","trial_index","time_elapsed","internal_node_id","task_version","subject_id","interactions","blur_events","focus_events","fullscreenenter_events","fullscreenexit_events","success","view_history","rt","responses","num_errors","age","subject","participantId","rune","rune_set","hex","correct","choice","accuracy","outcome","keys","total_keys","block","practice","value","sub","trial","stimulus","robot","valence","action","sham"
"pavlovia","0","9","0.0-0.0","battery-v0.2","","""event"",""trial"",""time""
""fullscreenenter"",""1"",""2080""
","
","
","""event"",""trial"",""time""
""fullscreenenter"",""1"",""2080""
","
","","","","","","","","","","","","","","","","","","","","","","","","","","",""
"fullscreen","1","3067","0.0-1.0","battery-v0.2","","""event"",""trial"",""time""
""fullscreenenter"",""1"",""2080""
","
","
","""event"",""trial"",""time""
""fullscreenenter"",""1"",""2080""
","
","true","","","","","","","","","","","","","","","","","","","","","","","","","",""
"pit-instructions","2","7658","0.0-2.0-0.0","battery-v0.2","","""event"",""trial"",""time""
""fullscreenenter"",""1"",""2080""
","
","
","""event"",""trial"",""time""
""fullscreenenter"",""1"",""2080""
","
","","[{""page_index"":0,""viewing_time"":4583}]","4583.399999976158","","","","","","","","","","","","","","","","","","","","","","","",""
"pit-comprehension","3","12250","0.0-2.0-1.0-0.0","battery-v0.2","","""event"",""trial"",""time""
""fullscreenenter"",""1"",""2080""
","
","
","""event"",""trial"",""time""
""fullscreenenter"",""1"",""2080""
","
","","","4588.800000011921","[""shark""]","0","20","7259","3876","","","","","","","","","","","","","","","","","","",""
"pit-instructions","4","16138","0.0-2.0-1.0-1.0","battery-v0.2","","""event"",""trial"",""time""
""fullscreenenter"",""1"",""2080""
","
","
","""event"",""trial"",""time""
""fullscreenenter"",""1"",""2080""
","
","","[{""page_index"":0,""viewing_time"":3876.300000011921}]","3876.599999964237","","","","","","","","","","","","","","","","","","","","","","","",""
"pit-comprehension","5","19099","0.0-2.0-2.0-0.0","battery-v0.2","","""event"",""trial"",""time""
""fullscreenenter"",""1"",""2080""
","
","
","""event"",""trial"",""time""
""fullscreenenter"",""1"",""2080""
","
","","","2958.800000011921","[""tiger""]","0","20","7259","3876","","","","","","","","","","","","","","","","","","",""
"pit-instructions","6","20666","0.0-2.0-2.0-1.0","battery-v0.2","","""event"",""trial"",""time""
""fullscreenenter"",""1"",""2080""
","
","
","""event"",""trial"",""time""
""fullscreenenter"",""1"",""2080""
","
","","[{""page_index"":0,""viewing_time"":1562}]","1562.4000000357628","","","","","","","","","","","","","","","","","","","","","","","",""
"pit-instructions","7","121306","0.0-2.0-3.0","battery-v0.2","","""event"",""trial"",""time""
""fullscreenenter"",""1"",""2080""
","
","
","""event"",""trial"",""time""
""fullscreenenter"",""1"",""2080""
","
","","[{""page_index"":0,""viewing_time"":7973.399999976158},{""page_index"":1,""viewing_time"":7023},{""page_index"":2,""viewing_time"":9912.600000023842},{""page_index"":3,""viewing_time"":6159.699999988079},{""page_index"":4,""viewing_time"":5631.899999976158},{""page_index"":5,""viewing_time"":6080.300000011921},{""page_index"":6,""viewing_time"":7327.800000011921},{""page_index"":7,""viewing_time"":7024},{""page_index"":8,""viewing_time"":7351.800000011921},{""page_index"":9,""viewing_time"":8391.799999952316},{""page_index"":10,""viewing_time"":7872.400000035763},{""page_index"":11,""viewing_time"":7280.199999988079},{""page_index"":12,""viewing_time"":6712.199999988079},{""page_index"":13,""viewing_time"":5895.100000023842}]","100636.59999996424","","","","","","","","","","","","","","","","","","","","","","","",""
"pit-trial","8","125287","0.0-2.0-4.0-0.0","battery-v0.2","","""event"",""trial"",""time""
""fullscreenenter"",""1"",""2080""
","
","
","""event"",""trial"",""time""
""fullscreenenter"",""1"",""2080""
","
","","","1107.300000011921","","","20","7259","3876","&#9784;","elianto","#FFFFF080"," "," ","1","&#10004","[1962.2000000476837]","1","0","0","","","","","","","",""
"pit-trial","9","128896","0.0-2.0-4.1-0.1","battery-v0.2","","""event"",""trial"",""time""
""fullscreenenter"",""1"",""2080""
","
","
","""event"",""trial"",""time""
""fullscreenenter"",""1"",""2080""
","
","","","747.1000000238419","","","20","7259","3876","&#9784;","elianto","#FFFFF080"," "," ","1","&#10004","[1601.300000011921]","1","0","0","","","","","","","",""
"pit-trial","10","132365","0.0-2.0-4.2-0.2","battery-v0.2","","""event"",""trial"",""time""
""fullscreenenter"",""1"",""2080""
","
","
","""event"",""trial"",""time""
""fullscreenenter"",""1"",""2080""
","
","","","600.4000000357628","","","20","7259","3876","&#9784;","elianto","#FFFFF080"," "," ","1","&#10004","[1462.7000000476837]","1","0","0","","","","","","","",""
"pit-trial","11","135830","0.0-2.0-4.3-0.3","battery-v0.2","","""event"",""trial"",""time""
""fullscreenenter"",""1"",""2080""
","
","
","""event"",""trial"",""time""
""fullscreenenter"",""1"",""2080""
","
","","","597.4000000357628","","","20","7259","3876","&#9784;","elianto","#FFFFF080"," "," ","1","&#10004","[1447.5]","1","0","0","","","","","","","",""
"pit-trial","12","139540","0.0-2.0-4.4-0.4","battery-v0.2","","""event"",""trial"",""time""
""fullscreenenter"",""1"",""2080""
","
","
","""event"",""trial"",""time""
""fullscreenenter"",""1"",""2080""
","
","","","831.3000000119209","","","20","7259","3876","&#9784;","elianto","#FFFFF080"," "," ","1","&#10004","[1692.8999999761581]","1","0","0","","","","","","","",""
"pit-instructions","13","161289","0.0-2.0-5.0","battery-v0.2","","""event"",""trial"",""time""
""fullscreenenter"",""1"",""2080""
","
","
","""event"",""trial"",""time""
""fullscreenenter"",""1"",""2080""
","
","","[{""page_index"":0,""viewing_time"":5218.5},{""page_index"":1,""viewing_time"":5704},{""page_index"":2,""viewing_time"":5350.899999976158},{""page_index"":3,""viewing_time"":5472.300000011921}]","21746","","","","","","","","","","","","","","","","","","","","","","","",""
"pit-trial","14","166156","0.0-2.0-6.0-0.0","battery-v0.2","","""event"",""trial"",""time""
""fullscreenenter"",""1"",""2080""
","
","
","""event"",""trial"",""time""
""fullscreenenter"",""1"",""2080""
","
","","","-1","","","20","7259","3876","&#9854;","elianto","#FFFFF080","-1","-1","1","&#10004","[]","0","0","1","","","","","","","",""
"pit-trial","15","171025","0.0-2.0-6.1-0.1","battery-v0.2","","""event"",""trial"",""time""
""fullscreenenter"",""1"",""2080""
","
","
","""event"",""trial"",""time""
""fullscreenenter"",""1"",""2080""
","
","","","-1","","","20","7259","3876","&#9854;","elianto","#FFFFF080","-1","-1","1","&#10004","[]","0","0","1","","","","","","","",""
"pit-trial","16","175900","0.0-2.0-6.2-0.2","battery-v0.2","","""event"",""trial"",""time""
""fullscreenenter"",""1"",""2080""
","
","
","""event"",""trial"",""time""
""fullscreenenter"",""1"",""2080""
","
","","","-1","","","20","7259","3876","&#9854;","elianto","#FFFFF080","-1","-1","1","&#10004","[]","0","0","1","","","","","","","",""
"pit-trial","17","180777","0.0-2.0-6.3-0.3","battery-v0.2","","""event"",""trial"",""time""
""fullscreenenter"",""1"",""2080""
","
","
","""event"",""trial"",""time""
""fullscreenenter"",""1"",""2080""
","
","","","-1","","","20","7259","3876","&#9854;","elianto","#FFFFF080","-1","-1","1","&#10004","[]","0","0","1","","","","","","","",""
"pit-trial","18","185643","0.0-2.0-6.4-0.4","battery-v0.2","","""event"",""trial"",""time""
""fullscreenenter"",""1"",""2080""
","
","
","""event"",""trial"",""time""
""fullscreenenter"",""1"",""2080""
","
","","","-1","","","20","7259","3876","&#9854;","elianto","#FFFFF080","-1","-1","1","&#10004","[]","0","0","1","","","","","","","",""
"pit-instructions","19","317796","0.0-2.0-7.0","battery-v0.2","","""event"",""trial"",""time""
""fullscreenenter"",""1"",""2080""
","
","
","""event"",""trial"",""time""
""fullscreenenter"",""1"",""2080""
","
","","[{""page_index"":0,""viewing_time"":6144.5},{""page_index"":1,""viewing_time"":7896},{""page_index"":2,""viewing_time"":7215.5},{""page_index"":3,""viewing_time"":6970.100000023842},{""page_index"":4,""viewing_time"":7414.699999988079},{""page_index"":5,""viewing_time"":6962.600000023842},{""page_index"":6,""viewing_time"":5791.299999952316},{""page_index"":7,""viewing_time"":11175.300000011921},{""page_index"":8,""viewing_time"":8390.600000023842},{""page_index"":9,""viewing_time"":7235.699999988079},{""page_index"":10,""viewing_time"":6567.100000023842},{""page_index"":11,""viewing_time"":5412.799999952316},{""page_index"":12,""viewing_time"":7588.300000011921},{""page_index"":13,""viewing_time"":7408.400000035763},{""page_index"":14,""viewing_time"":7527},{""page_index"":15,""viewing_time"":7140.299999952316},{""page_index"":16,""viewing_time"":7208.100000023842},{""page_index"":17,""viewing_time"":8102.800000011921}]","132151.40000003576","","","","","","","","","","","","","","","","","","","","","","","",""
"pit-trial","20","322661","0.0-2.0-8.0-0.0","battery-v0.2","","""event"",""trial"",""time""
""fullscreenenter"",""1"",""2080""
","
","
","""event"",""trial"",""time""
""fullscreenenter"",""1"",""2080""
","
","","","-1","","","20","7259","3876","&#9776;","elianto","#3366ff99"," ","-1","0","0","[3173]","1","0","1","","","","","","","",""
"pit-trial","21","326174","0.0-2.0-8.0-1.0","battery-v0.2","","""event"",""trial"",""time""
""fullscreenenter"",""1"",""2080""
","
","
","""event"",""trial"",""time""
""fullscreenenter"",""1"",""2080""
","
","","","654.9000000357628","","","20","7259","3876","&#9776;","elianto","#3366ff99"," "," ","1","+10","[1510.6000000238419]","1","0","1","","","","","","","",""
"pit-trial","22","329715","0.0-2.0-8.0-2.0","battery-v0.2","","""event"",""trial"",""time""
""fullscreenenter"",""1"",""2080""
","
","
","""event"",""trial"",""time""
""fullscreenenter"",""1"",""2080""
","
","","","678.3999999761581","","","20","7259","3876","&#9776;","elianto","#3366ff99"," "," ","1","+10","[1533.300000011921]","1","0","1","","","","","","","",""
"pit-trial","23","333028","0.0-2.0-8.0-3.0","battery-v0.2","","""event"",""trial"",""time""
""fullscreenenter"",""1"",""2080""
","
","
","""event"",""trial"",""time""
""fullscreenenter"",""1"",""2080""
","
","","","457.0999999642372","","","20","7259","3876","&#9776;","elianto","#3366ff99"," "," ","1","0","[1311.199999988079]","1","0","1","","","","","","","",""
"pit-trial","24","336675","0.0-2.0-8.0-4.0","battery-v0.2","","""event"",""trial"",""time""
""fullscreenenter"",""1"",""2080""
","
","
","""event"",""trial"",""time""
""fullscreenenter"",""1"",""2080""
","
","","","776.4000000357628","","","20","7259","3876","&#9776;","elianto","#3366ff99"," "," ","1","+10","[1629.800000011921]","1","0","1","","","","","","","",""
"pit-trial","25","340147","0.0-2.0-8.1-0.1","battery-v0.2","","""event"",""trial"",""time""
""fullscreenenter"",""1"",""2080""
","
","
","""event"",""trial"",""time""
""fullscreenenter"",""1"",""2080""
","
","","","609.6999999880791","","","20","7259","3876","&#9776;","elianto","#3366ff99"," "," ","1","+10","[1460.199999988079]","1","0","1","","","","","","","",""
"pit-trial","26","343565","0.0-2.0-8.1-1.1","battery-v0.2","","""event"",""trial"",""time""
""fullscreenenter"",""1"",""2080""
","
","
","""event"",""trial"",""time""
""fullscreenenter"",""1"",""2080""
","
","","","556.0999999642372","","","20","7259","3876","&#9776;","elianto","#3366ff99"," "," ","1","+10","[1409.300000011921]","1","0","1","","","","","","","",""
"pit-trial","27","346924","0.0-2.0-8.1-2.1","battery-v0.2","","""event"",""trial"",""time""
""fullscreenenter"",""1"",""2080""
","
","
","""event"",""trial"",""time""
""fullscreenenter"",""1"",""2080""
","
","","","503.80000001192093","","","20","7259","3876","&#9776;","elianto","#3366ff99"," "," ","1","+10","[1356]","1","0","1","","","","","","","",""
"pit-trial","28","350267","0.0-2.0-8.1-3.1","battery-v0.2","","""event"",""trial"",""time""
""fullscreenenter"",""1"",""2080""
","
","
","""event"",""trial"",""time""
""fullscreenenter"",""1"",""2080""
","
","","","489.69999998807907","","","20","7259","3876","&#9776;","elianto","#3366ff99"," "," ","1","0","[1340.3999999761581]","1","0","1","","","","","","","",""
"pit-trial","29","353524","0.0-2.0-8.1-4.1","battery-v0.2","","""event"",""trial"",""time""
""fullscreenenter"",""1"",""2080""
","
","
","""event"",""trial"",""time""
""fullscreenenter"",""1"",""2080""
","
","","","403.5","","","20","7259","3876","&#9776;","elianto","#3366ff99"," "," ","1","+10","[1255]","1","0","1","","","","","","","",""
"pit-trial","30","356913","0.0-2.0-8.2-0.2","battery-v0.2","","""event"",""trial"",""time""
""fullscreenenter"",""1"",""2080""
","
","
","""event"",""trial"",""time""
""fullscreenenter"",""1"",""2080""
","
","","","533.6000000238419","","","20","7259","3876","&#9776;","elianto","#3366ff99"," "," ","1","+10","[1385.5]","1","0","1","","","","","","","",""
"pit-trial","31","360208","0.0-2.0-8.2-1.2","battery-v0.2","","""event"",""trial"",""time""
""fullscreenenter"",""1"",""2080""
","
","
","""event"",""trial"",""time""
""fullscreenenter"",""1"",""2080""
","
","","","440.80000001192093","","","20","7259","3876","&#9776;","elianto","#3366ff99"," "," ","1","+10","[1291.8999999761581]","1","0","1","","","","","","","",""
"pit-trial","32","363621","0.0-2.0-8.2-2.2","battery-v0.2","","""event"",""trial"",""time""
""fullscreenenter"",""1"",""2080""
","
","
","""event"",""trial"",""time""
""fullscreenenter"",""1"",""2080""
","
","","","558.5","","","20","7259","3876","&#9776;","elianto","#3366ff99"," "," ","1","+10","[1409.300000011921]","1","0","1","","","","","","","",""
"pit-trial","33","366938","0.0-2.0-8.2-3.2","battery-v0.2","","""event"",""trial"",""time""
""fullscreenenter"",""1"",""2080""
","
","
","""event"",""trial"",""time""
""fullscreenenter"",""1"",""2080""
","
","","","463.80000001192093","","","20","7259","3876","&#9776;","elianto","#3366ff99"," "," ","1","0","[1314.7999999523163]","1","0","1","","","","","","","",""
"pit-trial","34","370255","0.0-2.0-8.2-4.2","battery-v0.2","","""event"",""trial"",""time""
""fullscreenenter"",""1"",""2080""
","
","
","""event"",""trial"",""time""
""fullscreenenter"",""1"",""2080""
","
","","","462.60000002384186","","","20","7259","3876","&#9776;","elianto","#3366ff99"," "," ","1","+10","[1313.0999999642372]","1","0","1","","","","","","","",""
"call-function","35","370259","0.0-2.0-9.0","battery-v0.2","","""event"",""trial"",""time""
""fullscreenenter"",""1"",""2080""
","
","
","""event"",""trial"",""time""
""fullscreenenter"",""1"",""2080""
","
","","","","","","","","","","","","","","","","","","","","","","","","","","",""
"pit-instructions","36","413230","0.0-2.0-10.0","battery-v0.2","","""event"",""trial"",""time""
""fullscreenenter"",""1"",""2080""
","
","
","""event"",""trial"",""time""
""fullscreenenter"",""1"",""2080""
","
","","[{""page_index"":0,""viewing_time"":6091.599999964237},{""page_index"":1,""viewing_time"":7447.400000035763},{""page_index"":2,""viewing_time"":9920.5},{""page_index"":3,""viewing_time"":10332.099999964237},{""page_index"":4,""viewing_time"":9178.699999988079}]","42970.69999998808","","","","","","","","","","","","","","","","","","","","","","","",""
"pit-trial","37","416824","0.0-2.0-11.0-0.0","battery-v0.2","","""event"",""trial"",""time""
""fullscreenenter"",""1"",""2080""
","
","
","""event"",""trial"",""time""
""fullscreenenter"",""1"",""2080""
","
","","","732.7000000476837","","","20","7259","3876","&#9761;","elianto","#3366ff99","-1"," ","0","0","[1583.5]","1","0","2","","","","","","","",""
"pit-trial","38","420165","0.0-2.0-11.0-1.0","battery-v0.2","","""event"",""trial"",""time""
""fullscreenenter"",""1"",""2080""
","
","
","""event"",""trial"",""time""
""fullscreenenter"",""1"",""2080""
","
","","","476","","","20","7259","3876","&#9761;","elianto","#3366ff99","-1"," ","0","0","[1327.4000000357628]","1","0","2","","","","","","","",""
"pit-trial","39","423763","0.0-2.0-11.0-2.0","battery-v0.2","","""event"",""trial"",""time""
""fullscreenenter"",""1"",""2080""
","
","
","""event"",""trial"",""time""
""fullscreenenter"",""1"",""2080""
","
","","","736.1000000238419","","","20","7259","3876","&#9761;","elianto","#3366ff99","-1"," ","0","0","[1590.7999999523163]","1","0","2","","","","","","","",""
"pit-trial","40","428632","0.0-2.0-11.0-3.0","battery-v0.2","","""event"",""trial"",""time""
""fullscreenenter"",""1"",""2080""
","
","
","""event"",""trial"",""time""
""fullscreenenter"",""1"",""2080""
","
","","","-1","","","20","7259","3876","&#9761;","elianto","#3366ff99","-1","-1","1","0","[]","0","0","2","","","","","","","",""
"pit-trial","41","433512","0.0-2.0-11.0-4.0","battery-v0.2","","""event"",""trial"",""time""
""fullscreenenter"",""1"",""2080""
","
","
","""event"",""trial"",""time""
""fullscreenenter"",""1"",""2080""
","
","","","-1","","","20","7259","3876","&#9761;","elianto","#3366ff99","-1","-1","1","+10","[]","0","0","2","","","","","","","",""
"pit-trial","42","438390","0.0-2.0-11.1-0.1","battery-v0.2","","""event"",""trial"",""time""
""fullscreenenter"",""1"",""2080""
","
","
","""event"",""trial"",""time""
""fullscreenenter"",""1"",""2080""
","
","","","-1","","","20","7259","3876","&#9761;","elianto","#3366ff99","-1","-1","1","+10","[]","0","0","2","","","","","","","",""
"pit-trial","43","443251","0.0-2.0-11.1-1.1","battery-v0.2","","""event"",""trial"",""time""
""fullscreenenter"",""1"",""2080""
","
","
","""event"",""trial"",""time""
""fullscreenenter"",""1"",""2080""
","
","","","-1","","","20","7259","3876","&#9761;","elianto","#3366ff99","-1","-1","1","+10","[]","0","0","2","","","","","","","",""
"pit-trial","44","446631","0.0-2.0-11.1-2.1","battery-v0.2","","""event"",""trial"",""time""
""fullscreenenter"",""1"",""2080""
","
","
","""event"",""trial"",""time""
""fullscreenenter"",""1"",""2080""
","
","","","521.1999999880791","","","20","7259","3876","&#9761;","elianto","#3366ff99","-1"," ","0","0","[1372.7000000476837]","1","0","2","","","","","","","",""
"pit-trial","45","449930","0.0-2.0-11.1-3.1","battery-v0.2","","""event"",""trial"",""time""
""fullscreenenter"",""1"",""2080""
","
","
","""event"",""trial"",""time""
""fullscreenenter"",""1"",""2080""
","
","","","444.7000000476837","","","20","7259","3876","&#9761;","elianto","#3366ff99","-1"," ","0","+10","[1296.1000000238419]","1","0","2","","","","","","","",""
"pit-trial","46","453342","0.0-2.0-11.1-4.1","battery-v0.2","","""event"",""trial"",""time""
""fullscreenenter"",""1"",""2080""
","
","
","""event"",""trial"",""time""
""fullscreenenter"",""1"",""2080""
","
","","","557.8000000119209","","","20","7259","3876","&#9761;","elianto","#3366ff99","-1"," ","0","0","[1407.8999999761581]","1","0","2","","","","","","","",""
"pit-trial","47","456830","0.0-2.0-11.2-0.2","battery-v0.2","","""event"",""trial"",""time""
""fullscreenenter"",""1"",""2080""
","
","
","""event"",""trial"",""time""
""fullscreenenter"",""1"",""2080""
","
","","","632.8999999761581","","","20","7259","3876","&#9761;","elianto","#3366ff99","-1"," ","0","0","[1483.300000011921]","1","0","2","","","","","","","",""
"pit-trial","48","461685","0.0-2.0-11.2-1.2","battery-v0.2","","""event"",""trial"",""time""
""fullscreenenter"",""1"",""2080""
","
","
","""event"",""trial"",""time""
""fullscreenenter"",""1"",""2080""
","
","","","-1","","","20","7259","3876","&#9761;","elianto","#3366ff99","-1","-1","1","+10","[]","0","0","2","","","","","","","",""
"pit-trial","49","465299","0.0-2.0-11.2-2.2","battery-v0.2","","""event"",""trial"",""time""
""fullscreenenter"",""1"",""2080""
","
","
","""event"",""trial"",""time""
""fullscreenenter"",""1"",""2080""
","
","","","757.1000000238419","","","20","7259","3876","&#9761;","elianto","#3366ff99","-1"," ","0","0","[1609.4000000357628]","1","0","2","","","","","","","",""
"pit-trial","50","470155","0.0-2.0-11.2-3.2","battery-v0.2","","""event"",""trial"",""time""
""fullscreenenter"",""1"",""2080""
","
","
","""event"",""trial"",""time""
""fullscreenenter"",""1"",""2080""
","
","","","-1","","","20","7259","3876","&#9761;","elianto","#3366ff99","-1","-1","1","0","[]","0","0","2","","","","","","","",""
"pit-trial","51","475010","0.0-2.0-11.2-4.2","battery-v0.2","","""event"",""trial"",""time""
""fullscreenenter"",""1"",""2080""
","
","
","""event"",""trial"",""time""
""fullscreenenter"",""1"",""2080""
","
","","","-1","","","20","7259","3876","&#9761;","elianto","#3366ff99","-1","-1","1","+10","[]","0","0","2","","","","","","","",""
"pit-trial","52","479158","0.0-2.0-11.3-0.3","battery-v0.2","","""event"",""trial"",""time""
""fullscreenenter"",""1"",""2080""
","
","
","""event"",""trial"",""time""
""fullscreenenter"",""1"",""2080""
","
","","","1292.6000000238419","","","20","7259","3876","&#9761;","elianto","#3366ff99","-1"," ","0","0","[2143]","1","0","2","","","","","","","",""
"pit-trial","53","483671","0.0-2.0-11.3-1.3","battery-v0.2","","""event"",""trial"",""time""
""fullscreenenter"",""1"",""2080""
","
","
","""event"",""trial"",""time""
""fullscreenenter"",""1"",""2080""
","
","","","1658","","","20","7259","3876","&#9761;","elianto","#3366ff99","-1"," ","0","0","[2509]","1","0","2","","","","","","","",""
"pit-trial","54","488524","0.0-2.0-11.3-2.3","battery-v0.2","","""event"",""trial"",""time""
""fullscreenenter"",""1"",""2080""
","
","
","""event"",""trial"",""time""
""fullscreenenter"",""1"",""2080""
","
","","","-1","","","20","7259","3876","&#9761;","elianto","#3366ff99","-1","-1","1","+10","[]","0","0","2","","","","","","","",""
"pit-trial","55","492273","0.0-2.0-11.3-3.3","battery-v0.2","","""event"",""trial"",""time""
""fullscreenenter"",""1"",""2080""
","
","
","""event"",""trial"",""time""
""fullscreenenter"",""1"",""2080""
","
","","","893.4000000357628","","","20","7259","3876","&#9761;","elianto","#3366ff99","-1"," ","0","+10","[1744.2000000476837]","1","0","2","","","","","","","",""
"pit-trial","56","497128","0.0-2.0-11.3-4.3","battery-v0.2","","""event"",""trial"",""time""
""fullscreenenter"",""1"",""2080""
","
","
","""event"",""trial"",""time""
""fullscreenenter"",""1"",""2080""
","
","","","-1","","","20","7259","3876","&#9761;","elianto","#3366ff99","-1","-1","1","+10","[]","0","0","2","","","","","","","",""
"call-function","57","497131","0.0-2.0-12.0","battery-v0.2","","""event"",""trial"",""time""
""fullscreenenter"",""1"",""2080""
","
","
","""event"",""trial"",""time""
""fullscreenenter"",""1"",""2080""
","
","","","","","","","","","","","","","","","","","","","","","","","","","","",""
"pit-instructions","58","534416","0.0-2.0-13.0","battery-v0.2","","""event"",""trial"",""time""
""fullscreenenter"",""1"",""2080""
","
","
","""event"",""trial"",""time""
""fullscreenenter"",""1"",""2080""
","
","","[{""page_index"":0,""viewing_time"":5752.399999976158},{""page_index"":1,""viewing_time"":8968.899999976158},{""page_index"":2,""viewing_time"":3759.2000000476837},{""page_index"":3,""viewing_time"":11388.199999988079},{""page_index"":4,""viewing_time"":7413.399999976158}]","37282.799999952316","","","","","","","","","","","","","","","","","","","","","","","",""
"pit-trial","59","538904","0.0-2.0-14.0-0.0","battery-v0.2","","""event"",""trial"",""time""
""fullscreenenter"",""1"",""2080""
","
","
","""event"",""trial"",""time""
""fullscreenenter"",""1"",""2080""
","
","","","1624.300000011921","","","20","7259","3876","&#9826;","elianto","#f73b6a7A","-1"," ","0","-10","[2483.7000000476837]","1","0","3","","","","","","","",""
"pit-trial","60","542440","0.0-2.0-14.0-1.0","battery-v0.2","","""event"",""trial"",""time""
""fullscreenenter"",""1"",""2080""
","
","
","""event"",""trial"",""time""
""fullscreenenter"",""1"",""2080""
","
","","","671","","","20","7259","3876","&#9826;","elianto","#f73b6a7A","-1"," ","0","-10","[1525]","1","0","3","","","","","","","",""
"pit-trial","61","547314","0.0-2.0-14.0-2.0","battery-v0.2","","""event"",""trial"",""time""
""fullscreenenter"",""1"",""2080""
","
","
","""event"",""trial"",""time""
""fullscreenenter"",""1"",""2080""
","
","","","-1","","","20","7259","3876","&#9826;","elianto","#f73b6a7A","-1","-1","1","0","[]","0","0","3","","","","","","","",""
"pit-trial","62","552183","0.0-2.0-14.0-3.0","battery-v0.2","","""event"",""trial"",""time""
""fullscreenenter"",""1"",""2080""
","
","
","""event"",""trial"",""time""
""fullscreenenter"",""1"",""2080""
","
","","","-1","","","20","7259","3876","&#9826;","elianto","#f73b6a7A","-1","-1","1","-10","[]","0","0","3","","","","","","","",""
"pit-trial","63","557054","0.0-2.0-14.0-4.0","battery-v0.2","","""event"",""trial"",""time""
""fullscreenenter"",""1"",""2080""
","
","
","""event"",""trial"",""time""
""fullscreenenter"",""1"",""2080""
","
","","","-1","","","20","7259","3876","&#9826;","elianto","#f73b6a7A","-1","-1","1","0","[]","0","0","3","","","","","","","",""
"pit-trial","64","561923","0.0-2.0-14.1-0.1","battery-v0.2","","""event"",""trial"",""time""
""fullscreenenter"",""1"",""2080""
","
","
","""event"",""trial"",""time""
""fullscreenenter"",""1"",""2080""
","
","","","-1","","","20","7259","3876","&#9826;","elianto","#f73b6a7A","-1","-1","1","0","[]","0","0","3","","","","","","","",""
"pit-trial","65","566786","0.0-2.0-14.1-1.1","battery-v0.2","","""event"",""trial"",""time""
""fullscreenenter"",""1"",""2080""
","
","
","""event"",""trial"",""time""
""fullscreenenter"",""1"",""2080""
","
","","","-1","","","20","7259","3876","&#9826;","elianto","#f73b6a7A","-1","-1","1","0","[]","0","0","3","","","","","","","",""
"pit-trial","66","571642","0.0-2.0-14.1-2.1","battery-v0.2","","""event"",""trial"",""time""
""fullscreenenter"",""1"",""2080""
","
","
","""event"",""trial"",""time""
""fullscreenenter"",""1"",""2080""
","
","","","-1","","","20","7259","3876","&#9826;","elianto","#f73b6a7A","-1","-1","1","0","[]","0","0","3","","","","","","","",""
"pit-trial","67","576497","0.0-2.0-14.1-3.1","battery-v0.2","","""event"",""trial"",""time""
""fullscreenenter"",""1"",""2080""
","
","
","""event"",""trial"",""time""
""fullscreenenter"",""1"",""2080""
","
","","","-1","","","20","7259","3876","&#9826;","elianto","#f73b6a7A","-1","-1","1","-10","[]","0","0","3","","","","","","","",""
"pit-trial","68","581352","0.0-2.0-14.1-4.1","battery-v0.2","","""event"",""trial"",""time""
""fullscreenenter"",""1"",""2080""
","
","
","""event"",""trial"",""time""
""fullscreenenter"",""1"",""2080""
","
","","","-1","","","20","7259","3876","&#9826;","elianto","#f73b6a7A","-1","-1","1","0","[]","0","0","3","","","","","","","",""
"pit-trial","69","586210","0.0-2.0-14.2-0.2","battery-v0.2","","""event"",""trial"",""time""
""fullscreenenter"",""1"",""2080""
","
","
","""event"",""trial"",""time""
""fullscreenenter"",""1"",""2080""
","
","","","-1","","","20","7259","3876","&#9826;","elianto","#f73b6a7A","-1","-1","1","0","[]","0","0","3","","","","","","","",""
"pit-trial","70","591064","0.0-2.0-14.2-1.2","battery-v0.2","","""event"",""trial"",""time""
""fullscreenenter"",""1"",""2080""
","
","
","""event"",""trial"",""time""
""fullscreenenter"",""1"",""2080""
","
","","","-1","","","20","7259","3876","&#9826;","elianto","#f73b6a7A","-1","-1","1","0","[]","0","0","3","","","","","","","",""
"pit-trial","71","595916","0.0-2.0-14.2-2.2","battery-v0.2","","""event"",""trial"",""time""
""fullscreenenter"",""1"",""2080""
","
","
","""event"",""trial"",""time""
""fullscreenenter"",""1"",""2080""
","
","","","-1","","","20","7259","3876","&#9826;","elianto","#f73b6a7A","-1","-1","1","0","[]","0","0","3","","","","","","","",""
"pit-trial","72","600772","0.0-2.0-14.2-3.2","battery-v0.2","","""event"",""trial"",""time""
""fullscreenenter"",""1"",""2080""
","
","
","""event"",""trial"",""time""
""fullscreenenter"",""1"",""2080""
","
","","","-1","","","20","7259","3876","&#9826;","elianto","#f73b6a7A","-1","-1","1","-10","[]","0","0","3","","","","","","","",""
"pit-trial","73","605626","0.0-2.0-14.2-4.2","battery-v0.2","","""event"",""trial"",""time""
""fullscreenenter"",""1"",""2080""
","
","
","""event"",""trial"",""time""
""fullscreenenter"",""1"",""2080""
","
","","","-1","","","20","7259","3876","&#9826;","elianto","#f73b6a7A","-1","-1","1","0","[]","0","0","3","","","","","","","",""
"pit-trial","74","610483","0.0-2.0-14.3-0.3","battery-v0.2","","""event"",""trial"",""time""
""fullscreenenter"",""1"",""2080""
","
","
","""event"",""trial"",""time""
""fullscreenenter"",""1"",""2080""
","
","","","-1","","","20","7259","3876","&#9826;","elianto","#f73b6a7A","-1","-1","1","0","[]","0","0","3","","","","","","","",""
"pit-trial","75","615340","0.0-2.0-14.3-1.3","battery-v0.2","","""event"",""trial"",""time""
""fullscreenenter"",""1"",""2080""
","
","
","""event"",""trial"",""time""
""fullscreenenter"",""1"",""2080""
","
","","","-1","","","20","7259","3876","&#9826;","elianto","#f73b6a7A","-1","-1","1","0","[]","0","0","3","","","","","","","",""
"pit-trial","76","620195","0.0-2.0-14.3-2.3","battery-v0.2","","""event"",""trial"",""time""
""fullscreenenter"",""1"",""2080""
","
","
","""event"",""trial"",""time""
""fullscreenenter"",""1"",""2080""
","
","","","-1","","","20","7259","3876","&#9826;","elianto","#f73b6a7A","-1","-1","1","0","[]","0","0","3","","","","","","","",""
"pit-trial","77","625050","0.0-2.0-14.3-3.3","battery-v0.2","","""event"",""trial"",""time""
""fullscreenenter"",""1"",""2080""
","
","
","""event"",""trial"",""time""
""fullscreenenter"",""1"",""2080""
","
","","","-1","","","20","7259","3876","&#9826;","elianto","#f73b6a7A","-1","-1","1","-10","[]","0","0","3","","","","","","","",""
"pit-trial","78","629906","0.0-2.0-14.3-4.3","battery-v0.2","","""event"",""trial"",""time""
""fullscreenenter"",""1"",""2080""
","
","
","""event"",""trial"",""time""
""fullscreenenter"",""1"",""2080""
","
","","","-1","","","20","7259","3876","&#9826;","elianto","#f73b6a7A","-1","-1","1","0","[]","0","0","3","","","","","","","",""
"call-function","79","629909","0.0-2.0-15.0","battery-v0.2","","""event"",""trial"",""time""
""fullscreenenter"",""1"",""2080""
","
","
","""event"",""trial"",""time""
""fullscreenenter"",""1"",""2080""
","
","","","","","","","","","","","","","","","","","","","","","","","","","","",""
"pit-instructions","80","657615","0.0-2.0-16.0","battery-v0.2","","""event"",""trial"",""time""
""fullscreenenter"",""1"",""2080""
","
","
","""event"",""trial"",""time""
""fullscreenenter"",""1"",""2080""
","
","","[{""page_index"":0,""viewing_time"":6942.699999988079},{""page_index"":1,""viewing_time"":8951.699999988079},{""page_index"":2,""viewing_time"":5933.399999976158},{""page_index"":3,""viewing_time"":5876}]","27704","","","","","","","","","","","","","","","","","","","","","","","",""
"pit-trial","81","661267","0.0-2.0-17.0-0.0","battery-v0.2","","""event"",""trial"",""time""
""fullscreenenter"",""1"",""2080""
","
","
","""event"",""trial"",""time""
""fullscreenenter"",""1"",""2080""
","
","","","779.6999999880791","","","20","7259","3876","&#9789;","elianto","#f73b6a7A"," "," ","1","0","[1641.8999999761581]","1","0","4","","","","","","","",""
"pit-trial","82","664931","0.0-2.0-17.0-1.0","battery-v0.2","","""event"",""trial"",""time""
""fullscreenenter"",""1"",""2080""
","
","
","""event"",""trial"",""time""
""fullscreenenter"",""1"",""2080""
","
","","","797.1999999880791","","","20","7259","3876","&#9789;","elianto","#f73b6a7A"," "," ","1","0","[1650.3999999761581]","1","0","4","","","","","","","",""
"pit-trial","83","668723","0.0-2.0-17.0-2.0","battery-v0.2","","""event"",""trial"",""time""
""fullscreenenter"",""1"",""2080""
","
","
","""event"",""trial"",""time""
""fullscreenenter"",""1"",""2080""
","
","","","923.6999999880791","","","20","7259","3876","&#9789;","elianto","#f73b6a7A"," "," ","1","0","[1778.699999988079]","1","0","4","","","","","","","",""
"pit-trial","84","672250","0.0-2.0-17.0-3.0","battery-v0.2","","""event"",""trial"",""time""
""fullscreenenter"",""1"",""2080""
","
","
","""event"",""trial"",""time""
""fullscreenenter"",""1"",""2080""
","
","","","669","","","20","7259","3876","&#9789;","elianto","#f73b6a7A"," "," ","1","-10","[1520.6000000238419]","1","0","4","","","","","","","",""
"pit-trial","85","677109","0.0-2.0-17.0-4.0","battery-v0.2","","""event"",""trial"",""time""
""fullscreenenter"",""1"",""2080""
","
","
","""event"",""trial"",""time""
""fullscreenenter"",""1"",""2080""
","
","","","-1","","","20","7259","3876","&#9789;","elianto","#f73b6a7A"," ","-1","0","-10","[]","0","0","4","","","","","","","",""
"pit-trial","86","681977","0.0-2.0-17.1-0.1","battery-v0.2","","""event"",""trial"",""time""
""fullscreenenter"",""1"",""2080""
","
","
","""event"",""trial"",""time""
""fullscreenenter"",""1"",""2080""
","
","","","-1","","","20","7259","3876","&#9789;","elianto","#f73b6a7A"," ","-1","0","-10","[]","0","0","4","","","","","","","",""
"pit-trial","87","686840","0.0-2.0-17.1-1.1","battery-v0.2","","""event"",""trial"",""time""
""fullscreenenter"",""1"",""2080""
","
","
","""event"",""trial"",""time""
""fullscreenenter"",""1"",""2080""
","
","","","-1","","","20","7259","3876","&#9789;","elianto","#f73b6a7A"," ","-1","0","-10","[]","0","0","4","","","","","","","",""
"pit-trial","88","691694","0.0-2.0-17.1-2.1","battery-v0.2","","""event"",""trial"",""time""
""fullscreenenter"",""1"",""2080""
","
","
","""event"",""trial"",""time""
""fullscreenenter"",""1"",""2080""
","
","","","-1","","","20","7259","3876","&#9789;","elianto","#f73b6a7A"," ","-1","0","-10","[]","0","0","4","","","","","","","",""
"pit-trial","89","696550","0.0-2.0-17.1-3.1","battery-v0.2","","""event"",""trial"",""time""
""fullscreenenter"",""1"",""2080""
","
","
","""event"",""trial"",""time""
""fullscreenenter"",""1"",""2080""
","
","","","-1","","","20","7259","3876","&#9789;","elianto","#f73b6a7A"," ","-1","0","0","[]","0","0","4","","","","","","","",""
"pit-trial","90","701404","0.0-2.0-17.1-4.1","battery-v0.2","","""event"",""trial"",""time""
""fullscreenenter"",""1"",""2080""
","
","
","""event"",""trial"",""time""
""fullscreenenter"",""1"",""2080""
","
","","","-1","","","20","7259","3876","&#9789;","elianto","#f73b6a7A"," ","-1","0","-10","[]","0","0","4","","","","","","","",""
"pit-trial","91","706261","0.0-2.0-17.2-0.2","battery-v0.2","","""event"",""trial"",""time""
""fullscreenenter"",""1"",""2080""
","
","
","""event"",""trial"",""time""
""fullscreenenter"",""1"",""2080""
","
","","","-1","","","20","7259","3876","&#9789;","elianto","#f73b6a7A"," ","-1","0","-10","[]","0","0","4","","","","","","","",""
"pit-trial","92","711116","0.0-2.0-17.2-1.2","battery-v0.2","","""event"",""trial"",""time""
""fullscreenenter"",""1"",""2080""
","
","
","""event"",""trial"",""time""
""fullscreenenter"",""1"",""2080""
","
","","","-1","","","20","7259","3876","&#9789;","elianto","#f73b6a7A"," ","-1","0","-10","[]","0","0","4","","","","","","","",""
"pit-trial","93","715972","0.0-2.0-17.2-2.2","battery-v0.2","","""event"",""trial"",""time""
""fullscreenenter"",""1"",""2080""
","
","
","""event"",""trial"",""time""
""fullscreenenter"",""1"",""2080""
","
","","","-1","","","20","7259","3876","&#9789;","elianto","#f73b6a7A"," ","-1","0","-10","[]","0","0","4","","","","","","","",""
"pit-trial","94","720827","0.0-2.0-17.2-3.2","battery-v0.2","","""event"",""trial"",""time""
""fullscreenenter"",""1"",""2080""
","
","
","""event"",""trial"",""time""
""fullscreenenter"",""1"",""2080""
","
","","","-1","","","20","7259","3876","&#9789;","elianto","#f73b6a7A"," ","-1","0","0","[]","0","0","4","","","","","","","",""
"pit-trial","95","725682","0.0-2.0-17.2-4.2","battery-v0.2","","""event"",""trial"",""time""
""fullscreenenter"",""1"",""2080""
","
","
","""event"",""trial"",""time""
""fullscreenenter"",""1"",""2080""
","
","","","-1","","","20","7259","3876","&#9789;","elianto","#f73b6a7A"," ","-1","0","-10","[]","0","0","4","","","","","","","",""
"pit-trial","96","730538","0.0-2.0-17.3-0.3","battery-v0.2","","""event"",""trial"",""time""
""fullscreenenter"",""1"",""2080""
","
","
","""event"",""trial"",""time""
""fullscreenenter"",""1"",""2080""
","
","","","-1","","","20","7259","3876","&#9789;","elianto","#f73b6a7A"," ","-1","0","-10","[]","0","0","4","","","","","","","",""
"pit-trial","97","735393","0.0-2.0-17.3-1.3","battery-v0.2","","""event"",""trial"",""time""
""fullscreenenter"",""1"",""2080""
","
","
","""event"",""trial"",""time""
""fullscreenenter"",""1"",""2080""
","
","","","-1","","","20","7259","3876","&#9789;","elianto","#f73b6a7A"," ","-1","0","-10","[]","0","0","4","","","","","","","",""
"pit-trial","98","740248","0.0-2.0-17.3-2.3","battery-v0.2","","""event"",""trial"",""time""
""fullscreenenter"",""1"",""2080""
","
","
","""event"",""trial"",""time""
""fullscreenenter"",""1"",""2080""
","
","","","-1","","","20","7259","3876","&#9789;","elianto","#f73b6a7A"," ","-1","0","-10","[]","0","0","4","","","","","","","",""
"pit-trial","99","745103","0.0-2.0-17.3-3.3","battery-v0.2","","""event"",""trial"",""time""
""fullscreenenter"",""1"",""2080""
","
","
","""event"",""trial"",""time""
""fullscreenenter"",""1"",""2080""
","
","","","-1","","","20","7259","3876","&#9789;","elianto","#f73b6a7A"," ","-1","0","0","[]","0","0","4","","","","","","","",""
"pit-trial","100","749957","0.0-2.0-17.3-4.3","battery-v0.2","","""event"",""trial"",""time""
""fullscreenenter"",""1"",""2080""
","
","
","""event"",""trial"",""time""
""fullscreenenter"",""1"",""2080""
","
","","","-1","","","20","7259","3876","&#9789;","elianto","#f73b6a7A"," ","-1","0","-10","[]","0","0","4","","","","","","","",""
"call-function","101","749960","0.0-2.0-18.0","battery-v0.2","","""event"",""trial"",""time""
""fullscreenenter"",""1"",""2080""
","
","
","""event"",""trial"",""time""
""fullscreenenter"",""1"",""2080""
","
","","","","","","","","","","","","","","","","","","","","","","","","","","",""
"pit-instructions","102","832395","0.0-2.0-19.0","battery-v0.2","","""event"",""trial"",""time""
""fullscreenenter"",""1"",""2080""
","
","
","""event"",""trial"",""time""
""fullscreenenter"",""1"",""2080""
","
","","[{""page_index"":0,""viewing_time"":6647.599999964237},{""page_index"":1,""viewing_time"":12392.900000035763},{""page_index"":2,""viewing_time"":15027.799999952316},{""page_index"":3,""viewing_time"":8792.600000023842},{""page_index"":4,""viewing_time"":9597.800000011921},{""page_index"":5,""viewing_time"":8395.699999988079},{""page_index"":6,""viewing_time"":8988.100000023842},{""page_index"":7,""viewing_time"":6974.399999976158},{""page_index"":8,""viewing_time"":5615.600000023842}]","82432.89999997616","","","","","","","","","","","","","","","","","","","","","","","",""
"pit-comprehension","103","837205","0.0-2.0-20.0-0.0","battery-v0.2","","""event"",""trial"",""time""
""fullscreenenter"",""1"",""2080""
","
","
","""event"",""trial"",""time""
""fullscreenenter"",""1"",""2080""
","
","","","4805.800000011921","[""SPACE""]","0","20","7259","3876","","","","","","","","","","","","","","","","","","",""
"pit-instructions","104","840773","0.0-2.0-20.0-1.0","battery-v0.2","","""event"",""trial"",""time""
""fullscreenenter"",""1"",""2080""
","
","
","""event"",""trial"",""time""
""fullscreenenter"",""1"",""2080""
","
","","[{""page_index"":0,""viewing_time"":3497.699999988079}]","3498.699999988079","","","","","","","","","","","","","","","","","","","","","","","",""
"pit-comprehension","105","848463","0.0-2.0-21.0-0.0","battery-v0.2","","""event"",""trial"",""time""
""fullscreenenter"",""1"",""2080""
","
","
","""event"",""trial"",""time""
""fullscreenenter"",""1"",""2080""
","
","","","7681.899999976158","[""10""]","0","20","7259","3876","","","","","","","","","","","","","","","","","","",""
"pit-instructions","106","853134","0.0-2.0-21.0-1.0","battery-v0.2","","""event"",""trial"",""time""
""fullscreenenter"",""1"",""2080""
","
","
","""event"",""trial"",""time""
""fullscreenenter"",""1"",""2080""
","
","","[{""page_index"":0,""viewing_time"":4601.800000011921}]","4602.5","","","","","","","","","","","","","","","","","","","","","","","",""
"pit-comprehension","107","859966","0.0-2.0-22.0-0.0","battery-v0.2","","""event"",""trial"",""time""
""fullscreenenter"",""1"",""2080""
","
","
","""event"",""trial"",""time""
""fullscreenenter"",""1"",""2080""
","
","","","6823.399999976158","[""0""]","0","20","7259","3876","","","","","","","","","","","","","","","","","","",""
"pit-instructions","108","866726","0.0-2.0-22.0-1.0","battery-v0.2","","""event"",""trial"",""time""
""fullscreenenter"",""1"",""2080""
","
","
","""event"",""trial"",""time""
""fullscreenenter"",""1"",""2080""
","
","","[{""page_index"":0,""viewing_time"":6707.200000047684}]","6707.800000011921","","","","","","","","","","","","","","","","","","","","","","","",""
"pit-comprehension","109","878672","0.0-2.0-23.0-0.0","battery-v0.2","","""event"",""trial"",""time""
""fullscreenenter"",""1"",""2080""
","
","
","""event"",""trial"",""time""
""fullscreenenter"",""1"",""2080""
","
","","","11940.5","[""False""]","1","20","7259","3876","","","","","","","","","","","","","","","","","","",""
"pit-instructions","110","883101","0.0-2.0-23.0-1.0","battery-v0.2","","""event"",""trial"",""time""
""fullscreenenter"",""1"",""2080""
","
","
","""event"",""trial"",""time""
""fullscreenenter"",""1"",""2080""
","
","","[{""page_index"":0,""viewing_time"":4372.799999952316}]","4373.799999952316","","","","","","","","","","","","","","","","","","","","","","","",""
"pit-instructions","111","884816","0.0-2.0-23.0-2.0-0.0","battery-v0.2","","""event"",""trial"",""time""
""fullscreenenter"",""1"",""2080""
","
","
","""event"",""trial"",""time""
""fullscreenenter"",""1"",""2080""
","
","","[{""page_index"":0,""viewing_time"":1711}]","1711.5999999642372","","","","","","","","","","","","","","","","","","","","","","","",""
"pit-comprehension","112","896142","0.0-2.0-23.1-0.1","battery-v0.2","","""event"",""trial"",""time""
""fullscreenenter"",""1"",""2080""
","
","
","""event"",""trial"",""time""
""fullscreenenter"",""1"",""2080""
","
","","","11320.5","[""True""]","0","20","7259","3876","","","","","","","","","","","","","","","","","","",""
"pit-instructions","113","902515","0.0-2.0-23.1-1.1","battery-v0.2","","""event"",""trial"",""time""
""fullscreenenter"",""1"",""2080""
","
","
","""event"",""trial"",""time""
""fullscreenenter"",""1"",""2080""
","
","","[{""page_index"":0,""viewing_time"":6301.800000011921}]","6302.5","","","","","","","","","","","","","","","","","","","","","","","",""
"pit-comprehension","114","911757","0.0-2.0-24.0-0.0","battery-v0.2","","""event"",""trial"",""time""
""fullscreenenter"",""1"",""2080""
","
","
","""event"",""trial"",""time""
""fullscreenenter"",""1"",""2080""
","
","","","9236.600000023842","[""True""]","0","20","7259","3876","","","","","","","","","","","","","","","","","","",""
"pit-instructions","115","917098","0.0-2.0-24.0-1.0","battery-v0.2","","""event"",""trial"",""time""
""fullscreenenter"",""1"",""2080""
","
","
","""event"",""trial"",""time""
""fullscreenenter"",""1"",""2080""
","
","","[{""page_index"":0,""viewing_time"":5293.599999964237}]","5294.199999988079","","","","","","","","","","","","","","","","","","","","","","","",""
"pit-comprehension","116","925853","0.0-2.0-25.0-0.0","battery-v0.2","","""event"",""trial"",""time""
""fullscreenenter"",""1"",""2080""
","
","
","""event"",""trial"",""time""
""fullscreenenter"",""1"",""2080""
","
","","","8751.300000011921","[""True""]","0","20","7259","3876","","","","","","","","","","","","","","","","","","",""
"pit-instructions","117","927800","0.0-2.0-25.0-1.0","battery-v0.2","","""event"",""trial"",""time""
""fullscreenenter"",""1"",""2080""
","
","
","""event"",""trial"",""time""
""fullscreenenter"",""1"",""2080""
","
","","[{""page_index"":0,""viewing_time"":1880.199999988079}]","1880.699999988079","","","","","","","","","","","","","","","","","","","","","","","",""
"pit-comprehension","118","934684","0.0-2.0-26.0-0.0","battery-v0.2","","""event"",""trial"",""time""
""fullscreenenter"",""1"",""2080""
","
","
","""event"",""trial"",""time""
""fullscreenenter"",""1"",""2080""
","
","","","6879.899999976158","[""True""]","1","20","7259","3876","","","","","","","","","","","","","","","","","","",""
"pit-instructions","119","940654","0.0-2.0-26.0-1.0","battery-v0.2","","""event"",""trial"",""time""
""fullscreenenter"",""1"",""2080""
","
","
","""event"",""trial"",""time""
""fullscreenenter"",""1"",""2080""
","
","","[{""page_index"":0,""viewing_time"":5904.199999988079}]","5904.800000011921","","","","","","","","","","","","","","","","","","","","","","","",""
"pit-instructions","120","941521","0.0-2.0-26.0-2.0-0.0","battery-v0.2","","""event"",""trial"",""time""
""fullscreenenter"",""1"",""2080""
","
","
","""event"",""trial"",""time""
""fullscreenenter"",""1"",""2080""
","
","","[{""page_index"":0,""viewing_time"":863.6000000238419}]","863.8000000119209","","","","","","","","","","","","","","","","","","","","","","","",""
"pit-comprehension","121","946199","0.0-2.0-26.1-0.1","battery-v0.2","","""event"",""trial"",""time""
""fullscreenenter"",""1"",""2080""
","
","
","""event"",""trial"",""time""
""fullscreenenter"",""1"",""2080""
","
","","","4675","[""False""]","0","20","7259","3876","","","","","","","","","","","","","","","","","","",""
"pit-instructions","122","949505","0.0-2.0-26.1-1.1","battery-v0.2","","""event"",""trial"",""time""
""fullscreenenter"",""1"",""2080""
","
","
","""event"",""trial"",""time""
""fullscreenenter"",""1"",""2080""
","
","","[{""page_index"":0,""viewing_time"":3238.5}]","3238.900000035763","","","","","","","","","","","","","","","","","","","","","","","",""
"pit-instructions","123","967290","0.0-3.0","battery-v0.2","","""event"",""trial"",""time""
""fullscreenenter"",""1"",""2080""
","
","
","""event"",""trial"",""time""
""fullscreenenter"",""1"",""2080""
","
","","[{""page_index"":0,""viewing_time"":4072.899999976158},{""page_index"":1,""viewing_time"":5618.600000023842},{""page_index"":2,""viewing_time"":8090.300000011921}]","17783.19999998808","","","","","","","","","","","","","","","","","","","","","","","",""
"pit-trial","124","971056","0.0-4.0","battery-v0.2","","""event"",""trial"",""time""
""fullscreenenter"",""1"",""2080""
","
","
","""event"",""trial"",""time""
""fullscreenenter"",""1"",""2080""
","
","","","891.8000000119209","","","20","7259","3876","&#9733;","elianto","#3366ff99","-1"," ","0","0","[1742.699999988079]","1","1","","","7259","1","2","2","win","no-go","0"
"pit-trial","125","975165","0.0-5.0","battery-v0.2","","""event"",""trial"",""time""
""fullscreenenter"",""1"",""2080""
","
","
","""event"",""trial"",""time""
""fullscreenenter"",""1"",""2080""
","
","","","1252.2000000476837","","","20","7259","3876","&#9730;","elianto","#3366ff99"," "," ","1","+10","[2103.5]","1","1","","","7259","2","1","1","win","go","0"
"pit-trial","126","979862","0.0-6.0","battery-v0.2","","""event"",""trial"",""time""
""fullscreenenter"",""1"",""2080""
","
","
","""event"",""trial"",""time""
""fullscreenenter"",""1"",""2080""
","
","","","1835.199999988079","","","20","7259","3876","&#9752;","elianto","#f73b6a7A"," "," ","1","0","[2688.5]","1","1","","","7259","3","3","3","lose","go","0"
"pit-trial","127","984741","0.0-7.0","battery-v0.2","","""event"",""trial"",""time""
""fullscreenenter"",""1"",""2080""
","
","
","""event"",""trial"",""time""
""fullscreenenter"",""1"",""2080""
","
","","","-1","","","20","7259","3876","&#9728;","elianto","#f73b6a7A","-1","-1","1","0","[3069.7000000476837]","1","1","","","7259","4","0","4","lose","no-go","0"
"pit-trial","128","988869","0.0-8.0","battery-v0.2","","""event"",""trial"",""time""
""fullscreenenter"",""1"",""2080""
","
","
","""event"",""trial"",""time""
""fullscreenenter"",""1"",""2080""
","
","","","1256.2000000476837","","","20","7259","3876","&#9730;","elianto","#3366ff99"," "," ","1","+10","[2116.100000023842]","1","1","","","7259","5","1","1","win","go","0"
"pit-trial","129","992701","0.0-9.0","battery-v0.2","","""event"",""trial"",""time""
""fullscreenenter"",""1"",""2080""
","
","
","""event"",""trial"",""time""
""fullscreenenter"",""1"",""2080""
","
","","","974.1999999880791","","","20","7259","3876","&#9733;","elianto","#3366ff99","-1"," ","0","+10","[1825]","1","1","","","7259","6","2","2","win","no-go","1"
"pit-trial","130","996970","0.0-10.0","battery-v0.2","","""event"",""trial"",""time""
""fullscreenenter"",""1"",""2080""
","
","
","""event"",""trial"",""time""
""fullscreenenter"",""1"",""2080""
","
","","","1407.9000000357628","","","20","7259","3876","&#9752;","elianto","#f73b6a7A"," "," ","1","-10","[2259.300000011921]","1","1","","","7259","7","3","3","lose","go","1"
"pit-trial","131","1000696","0.0-11.0","battery-v0.2","","""event"",""trial"",""time""
""fullscreenenter"",""1"",""2080""
","
","
","""event"",""trial"",""time""
""fullscreenenter"",""1"",""2080""
","
","","","869.8999999761581","","","20","7259","3876","&#9728;","elianto","#f73b6a7A","-1"," ","0","-10","[1720.1000000238419]","1","1","","","7259","8","0","4","lose","no-go","0"
"pit-trial","132","1005552","0.0-12.0","battery-v0.2","","""event"",""trial"",""time""
""fullscreenenter"",""1"",""2080""
","
","
","""event"",""trial"",""time""
""fullscreenenter"",""1"",""2080""
","
","","","-1","","","20","7259","3876","&#9728;","elianto","#f73b6a7A","-1","-1","1","-10","[]","0","1","","","7259","9","0","4","lose","no-go","1"
"pit-trial","133","1009636","0.0-13.0","battery-v0.2","","""event"",""trial"",""time""
""fullscreenenter"",""1"",""2080""
","
","
","""event"",""trial"",""time""
""fullscreenenter"",""1"",""2080""
","
","","","1225.699999988079","","","20","7259","3876","&#9733;","elianto","#3366ff99","-1"," ","0","+10","[2076.800000011921]","1","1","","","7259","10","2","2","win","no-go","1"
"pit-trial","134","1013318","0.0-14.0","battery-v0.2","","""event"",""trial"",""time""
""fullscreenenter"",""1"",""2080""
","
","
","""event"",""trial"",""time""
""fullscreenenter"",""1"",""2080""
","
","","","827.7000000476837","","","20","7259","3876","&#9730;","elianto","#3366ff99"," "," ","1","0","[1678.4000000357628]","1","1","","","7259","11","1","1","win","go","1"
"pit-trial","135","1018184","0.0-15.0","battery-v0.2","","""event"",""trial"",""time""
""fullscreenenter"",""1"",""2080""
","
","
","""event"",""trial"",""time""
""fullscreenenter"",""1"",""2080""
","
","","","-1","","","20","7259","3876","&#9752;","elianto","#f73b6a7A"," ","-1","0","-10","[]","0","1","","","7259","12","3","3","lose","go","0"
"pit-trial","136","1022580","0.0-16.0","battery-v0.2","","""event"",""trial"",""time""
""fullscreenenter"",""1"",""2080""
","
","
","""event"",""trial"",""time""
""fullscreenenter"",""1"",""2080""
","
","","","1542.0999999642372","","","20","7259","3876","&#9728;","elianto","#f73b6a7A","-1"," ","0","-10","[2392.800000011921]","1","1","","","7259","13","0","4","lose","no-go","0"
"pit-trial","137","1026472","0.0-17.0","battery-v0.2","","""event"",""trial"",""time""
""fullscreenenter"",""1"",""2080""
","
","
","""event"",""trial"",""time""
""fullscreenenter"",""1"",""2080""
","
","","","1024.699999988079","","","20","7259","3876","&#9733;","elianto","#3366ff99","-1"," ","0","+10","[1876.7999999523163]","1","1","","","7259","14","2","2","win","no-go","1"
"pit-trial","138","1030191","0.0-18.0","battery-v0.2","","""event"",""trial"",""time""
""fullscreenenter"",""1"",""2080""
","
","
","""event"",""trial"",""time""
""fullscreenenter"",""1"",""2080""
","
","","","864.8000000119209","","","20","7259","3876","&#9730;","elianto","#3366ff99"," "," ","1","0","[1715.199999988079]","1","1","","","7259","15","1","1","win","go","1"
"pit-trial","139","1035046","0.0-19.0","battery-v0.2","","""event"",""trial"",""time""
""fullscreenenter"",""1"",""2080""
","
","
","""event"",""trial"",""time""
""fullscreenenter"",""1"",""2080""
","
","","","-1","","","20","7259","3876","&#9752;","elianto","#f73b6a7A"," ","-1","0","-10","[]","0","1","","","7259","16","3","3","lose","go","0"
"pit-trial","140","1039910","0.0-20.0","battery-v0.2","","""event"",""trial"",""time""
""fullscreenenter"",""1"",""2080""
","
","
","""event"",""trial"",""time""
""fullscreenenter"",""1"",""2080""
","
","","","-1","","","20","7259","3876","&#9728;","elianto","#f73b6a7A","-1","-1","1","0","[]","0","1","","","7259","17","0","4","lose","no-go","0"
"pit-trial","141","1043607","0.0-21.0","battery-v0.2","","""event"",""trial"",""time""
""fullscreenenter"",""1"",""2080""
","
","
","""event"",""trial"",""time""
""fullscreenenter"",""1"",""2080""
","
","","","826.1999999880791","","","20","7259","3876","&#9730;","elianto","#3366ff99"," "," ","1","+10","[1679]","1","1","","","7259","18","1","1","win","go","0"
"pit-trial","142","1047091","0.0-22.0","battery-v0.2","","""event"",""trial"",""time""
""fullscreenenter"",""1"",""2080""
","
","
","""event"",""trial"",""time""
""fullscreenenter"",""1"",""2080""
","
","","","615.4000000357628","","","20","7259","3876","&#9733;","elianto","#3366ff99","-1"," ","0","+10","[1465.300000011921]","1","1","","","7259","19","2","2","win","no-go","1"
"pit-trial","143","1050721","0.0-23.0","battery-v0.2","","""event"",""trial"",""time""
""fullscreenenter"",""1"",""2080""
","
","
","""event"",""trial"",""time""
""fullscreenenter"",""1"",""2080""
","
","","","775.1000000238419","","","20","7259","3876","&#9752;","elianto","#f73b6a7A"," "," ","1","0","[1625.8999999761581]","1","1","","","7259","20","3","3","lose","go","0"
"pit-instructions","144","1073722","0.0-24.0","battery-v0.2","","""event"",""trial"",""time""
""fullscreenenter"",""1"",""2080""
","
","
","""event"",""trial"",""time""
""fullscreenenter"",""1"",""2080""
","
","","[{""page_index"":0,""viewing_time"":15414.199999988079},{""page_index"":1,""viewing_time"":7583.699999988079}]","22998.399999976158","","","","","","","","","","","","","","","","","","","","","","","",""
"pit-trial","145","1077840","0.0-25.0","battery-v0.2","","""event"",""trial"",""time""
""fullscreenenter"",""1"",""2080""
","
","
","""event"",""trial"",""time""
""fullscreenenter"",""1"",""2080""
","
","","","1252.300000011921","","","20","7259","3876","b","elianto","#f73b6a7A","-1"," ","0","-10","[2102.699999988079]","1","2","","","7259","21","3","4","lose","no-go","0"
"pit-trial","146","1081707","0.0-26.0","battery-v0.2","","""event"",""trial"",""time""
""fullscreenenter"",""1"",""2080""
","
","
","""event"",""trial"",""time""
""fullscreenenter"",""1"",""2080""
","
","","","1008.5","","","20","7259","3876","n","elianto","#f73b6a7A"," "," ","1","0","[1859.199999988079]","1","2","","","7259","22","0","3","lose","go","0"
"pit-trial","147","1085366","0.0-27.0","battery-v0.2","","""event"",""trial"",""time""
""fullscreenenter"",""1"",""2080""
","
","
","""event"",""trial"",""time""
""fullscreenenter"",""1"",""2080""
","
","","","802.4000000357628","","","20","7259","3876","f","elianto","#3366ff99","-1"," ","0","0","[1653]","1","2","","","7259","23","1","2","win","no-go","0"
"pit-trial","148","1089055","0.0-28.0","battery-v0.2","","""event"",""trial"",""time""
""fullscreenenter"",""1"",""2080""
","
","
","""event"",""trial"",""time""
""fullscreenenter"",""1"",""2080""
","
","","","831.6999999880791","","","20","7259","3876","t","elianto","#f73b6a7A"," "," ","1","-10","[1683.4000000357628]","1","2","","","7259","24","2","3","lose","go","1"
"pit-trial","149","1093321","0.0-29.0","battery-v0.2","","""event"",""trial"",""time""
""fullscreenenter"",""1"",""2080""
","
","
","""event"",""trial"",""time""
""fullscreenenter"",""1"",""2080""
","
","","","1395.800000011921","","","20","7259","3876","t","elianto","#f73b6a7A"," "," ","1","0","[2247.800000011921]","1","2","","","7259","25","2","3","lose","go","0"
"pit-trial","150","1097297","0.0-30.0","battery-v0.2","","""event"",""trial"",""time""
""fullscreenenter"",""1"",""2080""
","
","
","""event"",""trial"",""time""
""fullscreenenter"",""1"",""2080""
","
","","","1102.3999999761581","","","20","7259","3876","f","elianto","#3366ff99","-1"," ","0","0","[1956.2999999523163]","1","2","","","7259","26","1","2","win","no-go","0"
"pit-trial","151","1102163","0.0-31.0","battery-v0.2","","""event"",""trial"",""time""
""fullscreenenter"",""1"",""2080""
","
","
","""event"",""trial"",""time""
""fullscreenenter"",""1"",""2080""
","
","","","-1","","","20","7259","3876","n","elianto","#f73b6a7A"," ","-1","0","-10","[3005.199999988079]","1","2","","","7259","27","0","3","lose","go","0"
"pit-trial","152","1106695","0.0-32.0","battery-v0.2","","""event"",""trial"",""time""
""fullscreenenter"",""1"",""2080""
","
","
","""event"",""trial"",""time""
""fullscreenenter"",""1"",""2080""
","
","","","1677.7000000476837","","","20","7259","3876","b","elianto","#f73b6a7A","-1"," ","0","-10","[2528.600000023842]","1","2","","","7259","28","3","4","lose","no-go","0"
"pit-trial","153","1111550","0.0-33.0","battery-v0.2","","""event"",""trial"",""time""
""fullscreenenter"",""1"",""2080""
","
","
","""event"",""trial"",""time""
""fullscreenenter"",""1"",""2080""
","
","","","-1","","","20","7259","3876","b","elianto","#f73b6a7A","-1","-1","1","-10","[]","0","2","","","7259","29","3","4","lose","no-go","1"
"pit-trial","154","1115777","0.0-34.0","battery-v0.2","","""event"",""trial"",""time""
""fullscreenenter"",""1"",""2080""
","
","
","""event"",""trial"",""time""
""fullscreenenter"",""1"",""2080""
","
","","","1371.9000000357628","","","20","7259","3876","n","elianto","#f73b6a7A"," "," ","1","0","[2222.600000023842]","1","2","","","7259","30","0","3","lose","go","0"
"pit-trial","155","1120632","0.0-35.0","battery-v0.2","","""event"",""trial"",""time""
""fullscreenenter"",""1"",""2080""
","
","
","""event"",""trial"",""time""
""fullscreenenter"",""1"",""2080""
","
","","","-1","","","20","7259","3876","t","elianto","#f73b6a7A"," ","-1","0","-10","[2920.899999976158]","1","2","","","7259","31","2","3","lose","go","0"
"pit-trial","156","1125487","0.0-36.0","battery-v0.2","","""event"",""trial"",""time""
""fullscreenenter"",""1"",""2080""
","
","
","""event"",""trial"",""time""
""fullscreenenter"",""1"",""2080""
","
","","","-1","","","20","7259","3876","f","elianto","#3366ff99","-1","-1","1","+10","[]","0","2","","","7259","32","1","2","win","no-go","0"
"pit-trial","157","1130343","0.0-37.0","battery-v0.2","","""event"",""trial"",""time""
""fullscreenenter"",""1"",""2080""
","
","
","""event"",""trial"",""time""
""fullscreenenter"",""1"",""2080""
","
","","","-1","","","20","7259","3876","b","elianto","#f73b6a7A","-1","-1","1","-10","[]","0","2","","","7259","33","3","4","lose","no-go","1"
"pit-trial","158","1135210","0.0-38.0","battery-v0.2","","""event"",""trial"",""time""
""fullscreenenter"",""1"",""2080""
","
","
","""event"",""trial"",""time""
""fullscreenenter"",""1"",""2080""
","
","","","-1","","","20","7259","3876","f","elianto","#3366ff99","-1","-1","1","+10","[]","0","2","","","7259","34","1","2","win","no-go","0"
"pit-trial","159","1139716","0.0-39.0","battery-v0.2","","""event"",""trial"",""time""
""fullscreenenter"",""1"",""2080""
","
","
","""event"",""trial"",""time""
""fullscreenenter"",""1"",""2080""
","
","","","1651.5","","","20","7259","3876","n","elianto","#f73b6a7A"," "," ","1","0","[2502]","1","2","","","7259","35","0","3","lose","go","0"
"pit-trial","160","1144433","0.0-40.0","battery-v0.2","","""event"",""trial"",""time""
""fullscreenenter"",""1"",""2080""
","
","
","""event"",""trial"",""time""
""fullscreenenter"",""1"",""2080""
","
","","","1860.5999999642372","","","20","7259","3876","t","elianto","#f73b6a7A"," "," ","1","-10","[2711.399999976158]","1","2","","","7259","36","2","3","lose","go","1"
"pit-trial","161","1149304","0.0-41.0","battery-v0.2","","""event"",""trial"",""time""
""fullscreenenter"",""1"",""2080""
","
","
","""event"",""trial"",""time""
""fullscreenenter"",""1"",""2080""
","
","","","-1","","","20","7259","3876","b","elianto","#f73b6a7A","-1","-1","1","0","[]","0","2","","","7259","37","3","4","lose","no-go","0"
"pit-trial","162","1154159","0.0-42.0","battery-v0.2","","""event"",""trial"",""time""
""fullscreenenter"",""1"",""2080""
","
","
","""event"",""trial"",""time""
""fullscreenenter"",""1"",""2080""
","
","","","-1","","","20","7259","3876","f","elianto","#3366ff99","-1","-1","1","+10","[]","0","2","","","7259","38","1","2","win","no-go","0"
"pit-trial","163","1159015","0.0-43.0","battery-v0.2","","""event"",""trial"",""time""
""fullscreenenter"",""1"",""2080""
","
","
","""event"",""trial"",""time""
""fullscreenenter"",""1"",""2080""
","
","","","-1","","","20","7259","3876","t","elianto","#f73b6a7A"," ","-1","0","-10","[]","0","2","","","7259","39","2","3","lose","go","0"
"pit-trial","164","1163563","0.0-44.0","battery-v0.2","","""event"",""trial"",""time""
""fullscreenenter"",""1"",""2080""
","
","
","""event"",""trial"",""time""
""fullscreenenter"",""1"",""2080""
","
","","","1694","","","20","7259","3876","n","elianto","#f73b6a7A"," "," ","1","0","[2544.5]","1","2","","","7259","40","0","3","lose","go","0"
"pit-trial","165","1168420","0.0-45.0","battery-v0.2","","""event"",""trial"",""time""
""fullscreenenter"",""1"",""2080""
","
","
","""event"",""trial"",""time""
""fullscreenenter"",""1"",""2080""
","
","","","-1","","","20","7259","3876","f","elianto","#3366ff99","-1","-1","1","+10","[]","0","2","","","7259","41","1","2","win","no-go","0"
"pit-trial","166","1171980","0.0-46.0","battery-v0.2","","""event"",""trial"",""time""
""fullscreenenter"",""1"",""2080""
","
","
","""event"",""trial"",""time""
""fullscreenenter"",""1"",""2080""
","
","","","699.7999999523163","","","20","7259","3876","t","elianto","#f73b6a7A"," "," ","1","0","[1551.3999999761581]","1","2","","","7259","42","2","3","lose","go","0"
"pit-trial","167","1176835","0.0-47.0","battery-v0.2","","""event"",""trial"",""time""
""fullscreenenter"",""1"",""2080""
","
","
","""event"",""trial"",""time""
""fullscreenenter"",""1"",""2080""
","
","","","-1","","","20","7259","3876","b","elianto","#f73b6a7A","-1","-1","1","0","[]","0","2","","","7259","43","3","4","lose","no-go","0"
"pit-trial","168","1180896","0.0-48.0","battery-v0.2","","""event"",""trial"",""time""
""fullscreenenter"",""1"",""2080""
","
","
","""event"",""trial"",""time""
""fullscreenenter"",""1"",""2080""
","
","","","1206","","","20","7259","3876","n","elianto","#f73b6a7A"," "," ","1","0","[2056.800000011921]","1","2","","","7259","44","0","3","lose","go","0"
"pit-trial","169","1185752","0.0-49.0","battery-v0.2","","""event"",""trial"",""time""
""fullscreenenter"",""1"",""2080""
","
","
","""event"",""trial"",""time""
""fullscreenenter"",""1"",""2080""
","
","","","-1","","","20","7259","3876","b","elianto","#f73b6a7A","-1","-1","1","0","[]","0","2","","","7259","45","3","4","lose","no-go","0"
"pit-trial","170","1190267","0.0-50.0","battery-v0.2","","""event"",""trial"",""time""
""fullscreenenter"",""1"",""2080""
","
","
","""event"",""trial"",""time""
""fullscreenenter"",""1"",""2080""
","
","","","1659.5","","","20","7259","3876","n","elianto","#f73b6a7A"," "," ","1","0","[2510]","1","2","","","7259","46","0","3","lose","go","0"
"pit-trial","171","1195123","0.0-51.0","battery-v0.2","","""event"",""trial"",""time""
""fullscreenenter"",""1"",""2080""
","
","
","""event"",""trial"",""time""
""fullscreenenter"",""1"",""2080""
","
","","","-1","","","20","7259","3876","f","elianto","#3366ff99","-1","-1","1","0","[]","0","2","","","7259","47","1","2","win","no-go","1"
"pit-trial","172","1199568","0.0-52.0","battery-v0.2","","""event"",""trial"",""time""
""fullscreenenter"",""1"",""2080""
","
","
","""event"",""trial"",""time""
""fullscreenenter"",""1"",""2080""
","
","","","1590.5999999642372","","","20","7259","3876","t","elianto","#f73b6a7A"," "," ","1","-10","[2440.7000000476837]","1","2","","","7259","48","2","3","lose","go","1"
"pit-trial","173","1203379","0.0-53.0","battery-v0.2","","""event"",""trial"",""time""
""fullscreenenter"",""1"",""2080""
","
","
","""event"",""trial"",""time""
""fullscreenenter"",""1"",""2080""
","
","","","954.5","","","20","7259","3876","t","elianto","#f73b6a7A"," "," ","1","0","[1805.3999999761581]","1","2","","","7259","49","2","3","lose","go","0"
"pit-trial","174","1207500","0.0-54.0","battery-v0.2","","""event"",""trial"",""time""
""fullscreenenter"",""1"",""2080""
","
","
","""event"",""trial"",""time""
""fullscreenenter"",""1"",""2080""
","
","","","1267.1000000238419","","","20","7259","3876","n","elianto","#f73b6a7A"," "," ","1","0","[2117.399999976158]","1","2","","","7259","50","0","3","lose","go","0"
"pit-trial","175","1212357","0.0-55.0","battery-v0.2","","""event"",""trial"",""time""
""fullscreenenter"",""1"",""2080""
","
","
","""event"",""trial"",""time""
""fullscreenenter"",""1"",""2080""
","
","","","-1","","","20","7259","3876","b","elianto","#f73b6a7A","-1","-1","1","-10","[]","0","2","","","7259","51","3","4","lose","no-go","1"
"pit-trial","176","1217213","0.0-56.0","battery-v0.2","","""event"",""trial"",""time""
""fullscreenenter"",""1"",""2080""
","
","
","""event"",""trial"",""time""
""fullscreenenter"",""1"",""2080""
","
","","","-1","","","20","7259","3876","f","elianto","#3366ff99","-1","-1","1","+10","[]","0","2","","","7259","52","1","2","win","no-go","0"
"pit-trial","177","1222067","0.0-57.0","battery-v0.2","","""event"",""trial"",""time""
""fullscreenenter"",""1"",""2080""
","
","
","""event"",""trial"",""time""
""fullscreenenter"",""1"",""2080""
","
","","","-1","","","20","7259","3876","b","elianto","#f73b6a7A","-1","-1","1","0","[]","0","2","","","7259","53","3","4","lose","no-go","0"
"pit-trial","178","1226929","0.0-58.0","battery-v0.2","","""event"",""trial"",""time""
""fullscreenenter"",""1"",""2080""
","
","
","""event"",""trial"",""time""
""fullscreenenter"",""1"",""2080""
","
","","","-1","","","20","7259","3876","f","elianto","#3366ff99","-1","-1","1","+10","[]","0","2","","","7259","54","1","2","win","no-go","0"
"pit-trial","179","1231270","0.0-59.0","battery-v0.2","","""event"",""trial"",""time""
""fullscreenenter"",""1"",""2080""
","
","
","""event"",""trial"",""time""
""fullscreenenter"",""1"",""2080""
","
","","","1486","","","20","7259","3876","n","elianto","#f73b6a7A"," "," ","1","-10","[2336.800000011921]","1","2","","","7259","55","0","3","lose","go","1"
"pit-trial","180","1235456","0.0-60.0","battery-v0.2","","""event"",""trial"",""time""
""fullscreenenter"",""1"",""2080""
","
","
","""event"",""trial"",""time""
""fullscreenenter"",""1"",""2080""
","
","","","1328.5","","","20","7259","3876","t","elianto","#f73b6a7A"," "," ","1","0","[2181.300000011921]","1","2","","","7259","56","2","3","lose","go","0"
"pit-trial","181","1240310","0.0-61.0","battery-v0.2","","""event"",""trial"",""time""
""fullscreenenter"",""1"",""2080""
","
","
","""event"",""trial"",""time""
""fullscreenenter"",""1"",""2080""
","
","","","-1","","","20","7259","3876","b","elianto","#f73b6a7A","-1","-1","1","-10","[]","0","2","","","7259","57","3","4","lose","no-go","1"
"pit-trial","182","1244149","0.0-62.0","battery-v0.2","","""event"",""trial"",""time""
""fullscreenenter"",""1"",""2080""
","
","
","""event"",""trial"",""time""
""fullscreenenter"",""1"",""2080""
","
","","","978.5999999642372","","","20","7259","3876","n","elianto","#f73b6a7A"," "," ","1","-10","[1829.5999999642372]","1","2","","","7259","58","0","3","lose","go","1"
"pit-trial","183","1248648","0.0-63.0","battery-v0.2","","""event"",""trial"",""time""
""fullscreenenter"",""1"",""2080""
","
","
","""event"",""trial"",""time""
""fullscreenenter"",""1"",""2080""
","
","","","1644.1000000238419","","","20","7259","3876","t","elianto","#f73b6a7A"," "," ","1","0","[2495.100000023842]","1","2","","","7259","59","2","3","lose","go","0"
"pit-trial","184","1252901","0.0-64.0","battery-v0.2","","""event"",""trial"",""time""
""fullscreenenter"",""1"",""2080""
","
","
","""event"",""trial"",""time""
""fullscreenenter"",""1"",""2080""
","
","","","1397.5","","","20","7259","3876","c","elianto","#3366ff99"," "," ","1","+10","[2248.5]","1","2","","","7259","60","4","1","win","go","0"
"pit-trial","185","1257075","0.0-65.0","battery-v0.2","","""event"",""trial"",""time""
""fullscreenenter"",""1"",""2080""
","
","
","""event"",""trial"",""time""
""fullscreenenter"",""1"",""2080""
","
","","","1318.0999999642372","","","20","7259","3876","t","elianto","#f73b6a7A"," "," ","1","0","[2168.099999964237]","1","2","","","7259","61","2","3","lose","go","0"
"pit-trial","186","1261930","0.0-66.0","battery-v0.2","","""event"",""trial"",""time""
""fullscreenenter"",""1"",""2080""
","
","
","""event"",""trial"",""time""
""fullscreenenter"",""1"",""2080""
","
","","","-1","","","20","7259","3876","f","elianto","#3366ff99","-1","-1","1","+10","[]","0","2","","","7259","62","1","2","win","no-go","0"
"pit-trial","187","1266790","0.0-67.0","battery-v0.2","","""event"",""trial"",""time""
""fullscreenenter"",""1"",""2080""
","
","
","""event"",""trial"",""time""
""fullscreenenter"",""1"",""2080""
","
","","","-1","","","20","7259","3876","b","elianto","#f73b6a7A","-1","-1","1","0","[]","0","2","","","7259","63","3","4","lose","no-go","0"
"pit-trial","188","1270798","0.0-68.0","battery-v0.2","","""event"",""trial"",""time""
""fullscreenenter"",""1"",""2080""
","
","
","""event"",""trial"",""time""
""fullscreenenter"",""1"",""2080""
","
","","","1152.9000000357628","","","20","7259","3876","c","elianto","#3366ff99"," "," ","1","+10","[2003]","1","2","","","7259","64","4","1","win","go","0"
"pit-trial","189","1274573","0.0-69.0","battery-v0.2","","""event"",""trial"",""time""
""fullscreenenter"",""1"",""2080""
","
","
","""event"",""trial"",""time""
""fullscreenenter"",""1"",""2080""
","
","","","921.5999999642372","","","20","7259","3876","c","elianto","#3366ff99"," "," ","1","+10","[1772.7000000476837]","1","2","","","7259","65","4","1","win","go","0"
"pit-trial","190","1278715","0.0-70.0","battery-v0.2","","""event"",""trial"",""time""
""fullscreenenter"",""1"",""2080""
","
","
","""event"",""trial"",""time""
""fullscreenenter"",""1"",""2080""
","
","","","1287.300000011921","","","20","7259","3876","z","elianto","#3366ff99","-1"," ","0","0","[2137.600000023842]","1","2","","","7259","66","5","2","win","no-go","0"
"pit-trial","191","1283571","0.0-71.0","battery-v0.2","","""event"",""trial"",""time""
""fullscreenenter"",""1"",""2080""
","
","
","""event"",""trial"",""time""
""fullscreenenter"",""1"",""2080""
","
","","","-1","","","20","7259","3876","f","elianto","#3366ff99","-1","-1","1","+10","[]","0","2","","","7259","67","1","2","win","no-go","0"
"pit-trial","192","1288425","0.0-72.0","battery-v0.2","","""event"",""trial"",""time""
""fullscreenenter"",""1"",""2080""
","
","
","""event"",""trial"",""time""
""fullscreenenter"",""1"",""2080""
","
","","","-1","","","20","7259","3876","b","elianto","#f73b6a7A","-1","-1","1","0","[]","0","2","","","7259","68","3","4","lose","no-go","0"
"pit-trial","193","1292482","0.0-73.0","battery-v0.2","","""event"",""trial"",""time""
""fullscreenenter"",""1"",""2080""
","
","
","""event"",""trial"",""time""
""fullscreenenter"",""1"",""2080""
","
","","","1201.7999999523163","","","20","7259","3876","c","elianto","#3366ff99"," "," ","1","+10","[2052.900000035763]","1","2","","","7259","69","4","1","win","go","0"
"pit-trial","194","1296619","0.0-74.0","battery-v0.2","","""event"",""trial"",""time""
""fullscreenenter"",""1"",""2080""
","
","
","""event"",""trial"",""time""
""fullscreenenter"",""1"",""2080""
","
","","","1281.800000011921","","","20","7259","3876","z","elianto","#3366ff99","-1"," ","0","0","[2131.7999999523163]","1","2","","","7259","70","5","2","win","no-go","0"
"pit-trial","195","1301474","0.0-75.0","battery-v0.2","","""event"",""trial"",""time""
""fullscreenenter"",""1"",""2080""
","
","
","""event"",""trial"",""time""
""fullscreenenter"",""1"",""2080""
","
","","","-1","","","20","7259","3876","f","elianto","#3366ff99","-1","-1","1","+10","[]","0","2","","","7259","71","1","2","win","no-go","0"
"pit-trial","196","1305956","0.0-76.0","battery-v0.2","","""event"",""trial"",""time""
""fullscreenenter"",""1"",""2080""
","
","
","""event"",""trial"",""time""
""fullscreenenter"",""1"",""2080""
","
","","","1624.0999999642372","","","20","7259","3876","t","elianto","#f73b6a7A"," "," ","1","-10","[2476.699999988079]","1","2","","","7259","72","2","3","lose","go","1"
"pit-trial","197","1309783","0.0-77.0","battery-v0.2","","""event"",""trial"",""time""
""fullscreenenter"",""1"",""2080""
","
","
","""event"",""trial"",""time""
""fullscreenenter"",""1"",""2080""
","
","","","971.3000000119209","","","20","7259","3876","c","elianto","#3366ff99"," "," ","1","+10","[1822.4000000357628]","1","2","","","7259","73","4","1","win","go","0"
"pit-trial","198","1314648","0.0-78.0","battery-v0.2","","""event"",""trial"",""time""
""fullscreenenter"",""1"",""2080""
","
","
","""event"",""trial"",""time""
""fullscreenenter"",""1"",""2080""
","
","","","-1","","","20","7259","3876","f","elianto","#3366ff99","-1","-1","1","+10","[]","0","2","","","7259","74","1","2","win","no-go","0"
"pit-trial","199","1319504","0.0-79.0","battery-v0.2","","""event"",""trial"",""time""
""fullscreenenter"",""1"",""2080""
","
","
","""event"",""trial"",""time""
""fullscreenenter"",""1"",""2080""
","
","","","-1","","","20","7259","3876","z","elianto","#3366ff99","-1","-1","1","0","[]","0","2","","","7259","75","5","2","win","no-go","1"
"pit-trial","200","1324370","0.0-80.0","battery-v0.2","","""event"",""trial"",""time""
""fullscreenenter"",""1"",""2080""
","
","
","""event"",""trial"",""time""
""fullscreenenter"",""1"",""2080""
","
","","","-1","","","20","7259","3876","b","elianto","#f73b6a7A","-1","-1","1","0","[]","0","2","","","7259","76","3","4","lose","no-go","0"
"pit-trial","201","1329238","0.0-81.0","battery-v0.2","","""event"",""trial"",""time""
""fullscreenenter"",""1"",""2080""
","
","
","""event"",""trial"",""time""
""fullscreenenter"",""1"",""2080""
","
","","","-1","","","20","7259","3876","z","elianto","#3366ff99","-1","-1","1","+10","[]","0","2","","","7259","77","5","2","win","no-go","0"
"pit-trial","202","1333073","0.0-82.0","battery-v0.2","","""event"",""trial"",""time""
""fullscreenenter"",""1"",""2080""
","
","
","""event"",""trial"",""time""
""fullscreenenter"",""1"",""2080""
","
","","","980.1000000238419","","","20","7259","3876","c","elianto","#3366ff99"," "," ","1","+10","[1831.5]","1","2","","","7259","78","4","1","win","go","0"
"pit-trial","203","1337929","0.0-83.0","battery-v0.2","","""event"",""trial"",""time""
""fullscreenenter"",""1"",""2080""
","
","
","""event"",""trial"",""time""
""fullscreenenter"",""1"",""2080""
","
","","","-1","","","20","7259","3876","b","elianto","#f73b6a7A","-1","-1","1","0","[]","0","2","","","7259","79","3","4","lose","no-go","0"
"pit-trial","204","1341651","0.0-84.0","battery-v0.2","","""event"",""trial"",""time""
""fullscreenenter"",""1"",""2080""
","
","
","""event"",""trial"",""time""
""fullscreenenter"",""1"",""2080""
","
","","","857.6000000238419","","","20","7259","3876","c","elianto","#3366ff99"," "," ","1","0","[1708.8999999761581]","1","2","","","7259","80","4","1","win","go","1"
"pit-trial","205","1346508","0.0-85.0","battery-v0.2","","""event"",""trial"",""time""
""fullscreenenter"",""1"",""2080""
","
","
","""event"",""trial"",""time""
""fullscreenenter"",""1"",""2080""
","
","","","-1","","","20","7259","3876","b","elianto","#f73b6a7A","-1","-1","1","0","[]","0","2","","","7259","81","3","4","lose","no-go","0"
"pit-trial","206","1350867","0.0-86.0","battery-v0.2","","""event"",""trial"",""time""
""fullscreenenter"",""1"",""2080""
","
","
","""event"",""trial"",""time""
""fullscreenenter"",""1"",""2080""
","
","","","1502.5","","","20","7259","3876","y","elianto","#f73b6a7A","-1"," ","0","-10","[2353.800000011921]","1","2","","","7259","82","7","4","lose","no-go","0"
"pit-trial","207","1354565","0.0-87.0","battery-v0.2","","""event"",""trial"",""time""
""fullscreenenter"",""1"",""2080""
","
","
","""event"",""trial"",""time""
""fullscreenenter"",""1"",""2080""
","
","","","843.5999999642372","","","20","7259","3876","c","elianto","#3366ff99"," "," ","1","+10","[1694.7999999523163]","1","2","","","7259","83","4","1","win","go","0"
"pit-trial","208","1359420","0.0-88.0","battery-v0.2","","""event"",""trial"",""time""
""fullscreenenter"",""1"",""2080""
","
","
","""event"",""trial"",""time""
""fullscreenenter"",""1"",""2080""
","
","","","-1","","","20","7259","3876","z","elianto","#3366ff99","-1","-1","1","+10","[]","0","2","","","7259","84","5","2","win","no-go","0"
"pit-trial","209","1364286","0.0-89.0","battery-v0.2","","""event"",""trial"",""time""
""fullscreenenter"",""1"",""2080""
","
","
","""event"",""trial"",""time""
""fullscreenenter"",""1"",""2080""
","
","","","-1","","","20","7259","3876","z","elianto","#3366ff99","-1","-1","1","+10","[]","0","2","","","7259","85","5","2","win","no-go","0"
"pit-trial","210","1369142","0.0-90.0","battery-v0.2","","""event"",""trial"",""time""
""fullscreenenter"",""1"",""2080""
","
","
","""event"",""trial"",""time""
""fullscreenenter"",""1"",""2080""
","
","","","-1","","","20","7259","3876","y","elianto","#f73b6a7A","-1","-1","1","-10","[]","0","2","","","7259","86","7","4","lose","no-go","1"
"pit-trial","211","1373106","0.0-91.0","battery-v0.2","","""event"",""trial"",""time""
""fullscreenenter"",""1"",""2080""
","
","
","""event"",""trial"",""time""
""fullscreenenter"",""1"",""2080""
","
","","","1108.6000000238419","","","20","7259","3876","h","elianto","#f73b6a7A"," "," ","1","0","[1959.699999988079]","1","2","","","7259","87","6","3","lose","go","0"
"pit-trial","212","1376772","0.0-92.0","battery-v0.2","","""event"",""trial"",""time""
""fullscreenenter"",""1"",""2080""
","
","
","""event"",""trial"",""time""
""fullscreenenter"",""1"",""2080""
","
","","","810.1000000238419","","","20","7259","3876","c","elianto","#3366ff99"," "," ","1","0","[1661.5]","1","2","","","7259","88","4","1","win","go","1"
"pit-trial","213","1380521","0.0-93.0","battery-v0.2","","""event"",""trial"",""time""
""fullscreenenter"",""1"",""2080""
","
","
","""event"",""trial"",""time""
""fullscreenenter"",""1"",""2080""
","
","","","892.3999999761581","","","20","7259","3876","c","elianto","#3366ff99"," "," ","1","+10","[1744.300000011921]","1","2","","","7259","89","4","1","win","go","0"
"pit-trial","214","1385375","0.0-94.0","battery-v0.2","","""event"",""trial"",""time""
""fullscreenenter"",""1"",""2080""
","
","
","""event"",""trial"",""time""
""fullscreenenter"",""1"",""2080""
","
","","","-1","","","20","7259","3876","y","elianto","#f73b6a7A","-1","-1","1","0","[]","0","2","","","7259","90","7","4","lose","no-go","0"
"pit-trial","215","1390094","0.0-95.0","battery-v0.2","","""event"",""trial"",""time""
""fullscreenenter"",""1"",""2080""
","
","
","""event"",""trial"",""time""
""fullscreenenter"",""1"",""2080""
","
","","","1863.9000000357628","","","20","7259","3876","h","elianto","#f73b6a7A"," "," ","1","-10","[2714.5]","1","2","","","7259","91","6","3","lose","go","1"
"pit-trial","216","1394954","0.0-96.0","battery-v0.2","","""event"",""trial"",""time""
""fullscreenenter"",""1"",""2080""
","
","
","""event"",""trial"",""time""
""fullscreenenter"",""1"",""2080""
","
","","","-1","","","20","7259","3876","z","elianto","#3366ff99","-1","-1","1","+10","[]","0","2","","","7259","92","5","2","win","no-go","0"
"pit-trial","217","1399810","0.0-97.0","battery-v0.2","","""event"",""trial"",""time""
""fullscreenenter"",""1"",""2080""
","
","
","""event"",""trial"",""time""
""fullscreenenter"",""1"",""2080""
","
","","","-1","","","20","7259","3876","z","elianto","#3366ff99","-1","-1","1","+10","[]","0","2","","","7259","93","5","2","win","no-go","0"
"pit-trial","218","1403918","0.0-98.0","battery-v0.2","","""event"",""trial"",""time""
""fullscreenenter"",""1"",""2080""
","
","
","""event"",""trial"",""time""
""fullscreenenter"",""1"",""2080""
","
","","","1253.199999988079","","","20","7259","3876","r","elianto","#3366ff99"," "," ","1","+10","[2103.600000023842]","1","2","","","7259","94","8","1","win","go","0"
"pit-trial","219","1408784","0.0-99.0","battery-v0.2","","""event"",""trial"",""time""
""fullscreenenter"",""1"",""2080""
","
","
","""event"",""trial"",""time""
""fullscreenenter"",""1"",""2080""
","
","","","-1","","","20","7259","3876","h","elianto","#f73b6a7A"," ","-1","0","-10","[]","0","2","","","7259","95","6","3","lose","go","0"
"pit-trial","220","1413639","0.0-100.0","battery-v0.2","","""event"",""trial"",""time""
""fullscreenenter"",""1"",""2080""
","
","
","""event"",""trial"",""time""
""fullscreenenter"",""1"",""2080""
","
","","","-1","","","20","7259","3876","y","elianto","#f73b6a7A","-1","-1","1","0","[]","0","2","","","7259","96","7","4","lose","no-go","0"
"pit-trial","221","1418493","0.0-101.0","battery-v0.2","","""event"",""trial"",""time""
""fullscreenenter"",""1"",""2080""
","
","
","""event"",""trial"",""time""
""fullscreenenter"",""1"",""2080""
","
","","","-1","","","20","7259","3876","z","elianto","#3366ff99","-1","-1","1","+10","[]","0","2","","","7259","97","5","2","win","no-go","0"
"pit-trial","222","1423349","0.0-102.0","battery-v0.2","","""event"",""trial"",""time""
""fullscreenenter"",""1"",""2080""
","
","
","""event"",""trial"",""time""
""fullscreenenter"",""1"",""2080""
","
","","","-1","","","20","7259","3876","y","elianto","#f73b6a7A","-1","-1","1","0","[]","0","2","","","7259","98","7","4","lose","no-go","0"
"pit-trial","223","1427015","0.0-103.0","battery-v0.2","","""event"",""trial"",""time""
""fullscreenenter"",""1"",""2080""
","
","
","""event"",""trial"",""time""
""fullscreenenter"",""1"",""2080""
","
","","","810.1000000238419","","","20","7259","3876","h","elianto","#f73b6a7A"," "," ","1","-10","[1661.1000000238419]","1","2","","","7259","99","6","3","lose","go","1"
"pit-trial","224","1431206","0.0-104.0","battery-v0.2","","""event"",""trial"",""time""
""fullscreenenter"",""1"",""2080""
","
","
","""event"",""trial"",""time""
""fullscreenenter"",""1"",""2080""
","
","","","1336.300000011921","","","20","7259","3876","r","elianto","#3366ff99"," "," ","1","+10","[2186.800000011921]","1","2","","","7259","100","8","1","win","go","0"
"pit-trial","225","1434843","0.0-105.0","battery-v0.2","","""event"",""trial"",""time""
""fullscreenenter"",""1"",""2080""
","
","
","""event"",""trial"",""time""
""fullscreenenter"",""1"",""2080""
","
","","","780.8999999761581","","","20","7259","3876","r","elianto","#3366ff99"," "," ","1","+10","[1632.5]","1","2","","","7259","101","8","1","win","go","0"
"pit-trial","226","1439700","0.0-106.0","battery-v0.2","","""event"",""trial"",""time""
""fullscreenenter"",""1"",""2080""
","
","
","""event"",""trial"",""time""
""fullscreenenter"",""1"",""2080""
","
","","","-1","","","20","7259","3876","z","elianto","#3366ff99","-1","-1","1","+10","[]","0","2","","","7259","102","5","2","win","no-go","0"
"pit-trial","227","1443719","0.0-107.0","battery-v0.2","","""event"",""trial"",""time""
""fullscreenenter"",""1"",""2080""
","
","
","""event"",""trial"",""time""
""fullscreenenter"",""1"",""2080""
","
","","","1164","","","20","7259","3876","m","elianto","#3366ff99"," "," ","1","0","[2014.6000000238419]","1","2","","","7259","103","9","1","win","go","1"
"pit-trial","228","1448582","0.0-108.0","battery-v0.2","","""event"",""trial"",""time""
""fullscreenenter"",""1"",""2080""
","
","
","""event"",""trial"",""time""
""fullscreenenter"",""1"",""2080""
","
","","","-1","","","20","7259","3876","y","elianto","#f73b6a7A","-1","-1","1","0","[]","0","2","","","7259","104","7","4","lose","no-go","0"
"pit-trial","229","1452286","0.0-109.0","battery-v0.2","","""event"",""trial"",""time""
""fullscreenenter"",""1"",""2080""
","
","
","""event"",""trial"",""time""
""fullscreenenter"",""1"",""2080""
","
","","","849.3999999761581","","","20","7259","3876","r","elianto","#3366ff99"," "," ","1","+10","[1699.8999999761581]","1","2","","","7259","105","8","1","win","go","0"
"pit-trial","230","1457036","0.0-110.0","battery-v0.2","","""event"",""trial"",""time""
""fullscreenenter"",""1"",""2080""
","
","
","""event"",""trial"",""time""
""fullscreenenter"",""1"",""2080""
","
","","","1895.199999988079","","","20","7259","3876","h","elianto","#f73b6a7A"," "," ","1","0","[2746.100000023842]","1","2","","","7259","106","6","3","lose","go","0"
"pit-trial","231","1461389","0.0-111.0","battery-v0.2","","""event"",""trial"",""time""
""fullscreenenter"",""1"",""2080""
","
","
","""event"",""trial"",""time""
""fullscreenenter"",""1"",""2080""
","
","","","1494.6000000238419","","","20","7259","3876","m","elianto","#3366ff99"," "," ","1","+10","[2349.300000011921]","1","2","","","7259","107","9","1","win","go","0"
"pit-trial","232","1465414","0.0-112.0","battery-v0.2","","""event"",""trial"",""time""
""fullscreenenter"",""1"",""2080""
","
","
","""event"",""trial"",""time""
""fullscreenenter"",""1"",""2080""
","
","","","1169.800000011921","","","20","7259","3876","c","elianto","#3366ff99"," "," ","1","+10","[2020.1000000238419]","1","2","","","7259","108","4","1","win","go","0"
"pit-trial","233","1469321","0.0-113.0","battery-v0.2","","""event"",""trial"",""time""
""fullscreenenter"",""1"",""2080""
","
","
","""event"",""trial"",""time""
""fullscreenenter"",""1"",""2080""
","
","","","1052.800000011921","","","20","7259","3876","m","elianto","#3366ff99"," "," ","1","+10","[1903]","1","2","","","7259","109","9","1","win","go","0"
"pit-trial","234","1473457","0.0-114.0","battery-v0.2","","""event"",""trial"",""time""
""fullscreenenter"",""1"",""2080""
","
","
","""event"",""trial"",""time""
""fullscreenenter"",""1"",""2080""
","
","","","1279.7999999523163","","","20","7259","3876","r","elianto","#3366ff99"," "," ","1","+10","[2130.699999988079]","1","2","","","7259","110","8","1","win","go","0"
"pit-trial","235","1477927","0.0-115.0","battery-v0.2","","""event"",""trial"",""time""
""fullscreenenter"",""1"",""2080""
","
","
","""event"",""trial"",""time""
""fullscreenenter"",""1"",""2080""
","
","","","1610.6000000238419","","","20","7259","3876","h","elianto","#f73b6a7A"," "," ","1","-10","[2462]","1","2","","","7259","111","6","3","lose","go","1"
"pit-trial","236","1482782","0.0-116.0","battery-v0.2","","""event"",""trial"",""time""
""fullscreenenter"",""1"",""2080""
","
","
","""event"",""trial"",""time""
""fullscreenenter"",""1"",""2080""
","
","","","-1","","","20","7259","3876","z","elianto","#3366ff99","-1","-1","1","+10","[]","0","2","","","7259","112","5","2","win","no-go","0"
"pit-trial","237","1487403","0.0-117.0","battery-v0.2","","""event"",""trial"",""time""
""fullscreenenter"",""1"",""2080""
","
","
","""event"",""trial"",""time""
""fullscreenenter"",""1"",""2080""
","
","","","1766.2999999523163","","","20","7259","3876","r","elianto","#3366ff99"," "," ","1","+10","[2616.399999976158]","1","2","","","7259","113","8","1","win","go","0"
"pit-trial","238","1491712","0.0-118.0","battery-v0.2","","""event"",""trial"",""time""
""fullscreenenter"",""1"",""2080""
","
","
","""event"",""trial"",""time""
""fullscreenenter"",""1"",""2080""
","
","","","1453.8999999761581","","","20","7259","3876","m","elianto","#3366ff99"," "," ","1","+10","[2303.899999976158]","1","2","","","7259","114","9","1","win","go","0"
"pit-trial","239","1496570","0.0-119.0","battery-v0.2","","""event"",""trial"",""time""
""fullscreenenter"",""1"",""2080""
","
","
","""event"",""trial"",""time""
""fullscreenenter"",""1"",""2080""
","
","","","-1","","","20","7259","3876","z","elianto","#3366ff99","-1","-1","1","+10","[]","0","2","","","7259","115","5","2","win","no-go","0"
"pit-trial","240","1501018","0.0-120.0","battery-v0.2","","""event"",""trial"",""time""
""fullscreenenter"",""1"",""2080""
","
","
","""event"",""trial"",""time""
""fullscreenenter"",""1"",""2080""
","
","","","1592.4000000357628","","","20","7259","3876","h","elianto","#f73b6a7A"," "," ","1","0","[2443.300000011921]","1","2","","","7259","116","6","3","lose","go","0"
"pit-trial","241","1505504","0.0-121.0","battery-v0.2","","""event"",""trial"",""time""
""fullscreenenter"",""1"",""2080""
","
","
","""event"",""trial"",""time""
""fullscreenenter"",""1"",""2080""
","
","","","1626.5","","","20","7259","3876","h","elianto","#f73b6a7A"," "," ","1","0","[2481.5]","1","2","","","7259","117","6","3","lose","go","0"
"pit-trial","242","1510359","0.0-122.0","battery-v0.2","","""event"",""trial"",""time""
""fullscreenenter"",""1"",""2080""
","
","
","""event"",""trial"",""time""
""fullscreenenter"",""1"",""2080""
","
","","","-1","","","20","7259","3876","z","elianto","#3366ff99","-1","-1","1","0","[]","0","2","","","7259","118","5","2","win","no-go","1"
"pit-trial","243","1514883","0.0-123.0","battery-v0.2","","""event"",""trial"",""time""
""fullscreenenter"",""1"",""2080""
","
","
","""event"",""trial"",""time""
""fullscreenenter"",""1"",""2080""
","
","","","1670.6000000238419","","","20","7259","3876","m","elianto","#3366ff99"," "," ","1","+10","[2520.899999976158]","1","2","","","7259","119","9","1","win","go","0"
"pit-trial","244","1519340","0.0-124.0","battery-v0.2","","""event"",""trial"",""time""
""fullscreenenter"",""1"",""2080""
","
","
","""event"",""trial"",""time""
""fullscreenenter"",""1"",""2080""
","
","","","1601.3999999761581","","","20","7259","3876","r","elianto","#3366ff99"," "," ","1","0","[2451.800000011921]","1","2","","","7259","120","8","1","win","go","1"
"pit-trial","245","1523795","0.0-125.0","battery-v0.2","","""event"",""trial"",""time""
""fullscreenenter"",""1"",""2080""
","
","
","""event"",""trial"",""time""
""fullscreenenter"",""1"",""2080""
","
","","","1599.8999999761581","","","20","7259","3876","h","elianto","#f73b6a7A"," "," ","1","0","[2450]","1","2","","","7259","121","6","3","lose","go","0"
"pit-trial","246","1528014","0.0-126.0","battery-v0.2","","""event"",""trial"",""time""
""fullscreenenter"",""1"",""2080""
","
","
","""event"",""trial"",""time""
""fullscreenenter"",""1"",""2080""
","
","","","1363.300000011921","","","20","7259","3876","m","elianto","#3366ff99"," "," ","1","0","[2214.599999964237]","1","2","","","7259","122","9","1","win","go","1"
"pit-trial","247","1532882","0.0-127.0","battery-v0.2","","""event"",""trial"",""time""
""fullscreenenter"",""1"",""2080""
","
","
","""event"",""trial"",""time""
""fullscreenenter"",""1"",""2080""
","
","","","-1","","","20","7259","3876","y","elianto","#f73b6a7A","-1","-1","1","0","[]","0","2","","","7259","123","7","4","lose","no-go","0"
"pit-trial","248","1537063","0.0-128.0","battery-v0.2","","""event"",""trial"",""time""
""fullscreenenter"",""1"",""2080""
","
","
","""event"",""trial"",""time""
""fullscreenenter"",""1"",""2080""
","
","","","1322.5999999642372","","","20","7259","3876","r","elianto","#3366ff99"," "," ","1","+10","[2176.099999964237]","1","2","","","7259","124","8","1","win","go","0"
"pit-trial","249","1541917","0.0-129.0","battery-v0.2","","""event"",""trial"",""time""
""fullscreenenter"",""1"",""2080""
","
","
","""event"",""trial"",""time""
""fullscreenenter"",""1"",""2080""
","
","","","-1","","","20","7259","3876","y","elianto","#f73b6a7A","-1","-1","1","-10","[]","0","2","","","7259","125","7","4","lose","no-go","1"
"pit-trial","250","1546642","0.0-130.0","battery-v0.2","","""event"",""trial"",""time""
""fullscreenenter"",""1"",""2080""
","
","
","""event"",""trial"",""time""
""fullscreenenter"",""1"",""2080""
","
","","","1868.8999999761581","","","20","7259","3876","m","elianto","#3366ff99"," "," ","1","+10","[2719.600000023842]","1","2","","","7259","126","9","1","win","go","0"
"pit-trial","251","1551062","0.0-131.0","battery-v0.2","","""event"",""trial"",""time""
""fullscreenenter"",""1"",""2080""
","
","
","""event"",""trial"",""time""
""fullscreenenter"",""1"",""2080""
","
","","","1565.0999999642372","","","20","7259","3876","h","elianto","#f73b6a7A"," "," ","1","0","[2415.2000000476837]","1","2","","","7259","127","6","3","lose","go","0"
"pit-trial","252","1555620","0.0-132.0","battery-v0.2","","""event"",""trial"",""time""
""fullscreenenter"",""1"",""2080""
","
","
","""event"",""trial"",""time""
""fullscreenenter"",""1"",""2080""
","
","","","1703.1000000238419","","","20","7259","3876","r","elianto","#3366ff99"," "," ","1","+10","[2553.399999976158]","1","2","","","7259","128","8","1","win","go","0"
"pit-trial","253","1560475","0.0-133.0","battery-v0.2","","""event"",""trial"",""time""
""fullscreenenter"",""1"",""2080""
","
","
","""event"",""trial"",""time""
""fullscreenenter"",""1"",""2080""
","
","","","-1","","","20","7259","3876","y","elianto","#f73b6a7A","-1","-1","1","-10","[]","0","2","","","7259","129","7","4","lose","no-go","1"
"pit-trial","254","1564388","0.0-134.0","battery-v0.2","","""event"",""trial"",""time""
""fullscreenenter"",""1"",""2080""
","
","
","""event"",""trial"",""time""
""fullscreenenter"",""1"",""2080""
","
","","","1056.5","","","20","7259","3876","r","elianto","#3366ff99"," "," ","1","0","[1907.7000000476837]","1","2","","","7259","130","8","1","win","go","1"
"pit-trial","255","1568703","0.0-135.0","battery-v0.2","","""event"",""trial"",""time""
""fullscreenenter"",""1"",""2080""
","
","
","""event"",""trial"",""time""
""fullscreenenter"",""1"",""2080""
","
","","","1457","","","20","7259","3876","h","elianto","#f73b6a7A"," "," ","1","0","[2307.300000011921]","1","2","","","7259","131","6","3","lose","go","0"
"pit-trial","256","1573137","0.0-136.0","battery-v0.2","","""event"",""trial"",""time""
""fullscreenenter"",""1"",""2080""
","
","
","""event"",""trial"",""time""
""fullscreenenter"",""1"",""2080""
","
","","","1579.3999999761581","","","20","7259","3876","m","elianto","#3366ff99"," "," ","1","+10","[2430.2999999523163]","1","2","","","7259","132","9","1","win","go","0"
"pit-trial","257","1577330","0.0-137.0","battery-v0.2","","""event"",""trial"",""time""
""fullscreenenter"",""1"",""2080""
","
","
","""event"",""trial"",""time""
""fullscreenenter"",""1"",""2080""
","
","","","1336.300000011921","","","20","7259","3876","h","elianto","#f73b6a7A"," "," ","1","0","[2187.2999999523163]","1","2","","","7259","133","6","3","lose","go","0"
"pit-trial","258","1582184","0.0-138.0","battery-v0.2","","""event"",""trial"",""time""
""fullscreenenter"",""1"",""2080""
","
","
","""event"",""trial"",""time""
""fullscreenenter"",""1"",""2080""
","
","","","-1","","","20","7259","3876","y","elianto","#f73b6a7A","-1","-1","1","0","[]","0","2","","","7259","134","7","4","lose","no-go","0"
"pit-trial","259","1586633","0.0-139.0","battery-v0.2","","""event"",""trial"",""time""
""fullscreenenter"",""1"",""2080""
","
","
","""event"",""trial"",""time""
""fullscreenenter"",""1"",""2080""
","
","","","1593.5","","","20","7259","3876","r","elianto","#3366ff99"," "," ","1","+10","[2444.5]","1","2","","","7259","135","8","1","win","go","0"
"pit-trial","260","1591009","0.0-140.0","battery-v0.2","","""event"",""trial"",""time""
""fullscreenenter"",""1"",""2080""
","
","
","""event"",""trial"",""time""
""fullscreenenter"",""1"",""2080""
","
","","","1518.699999988079","","","20","7259","3876","m","elianto","#3366ff99"," "," ","1","+10","[2370.800000011921]","1","2","","","7259","136","9","1","win","go","0"
"pit-trial","261","1594707","0.0-141.0","battery-v0.2","","""event"",""trial"",""time""
""fullscreenenter"",""1"",""2080""
","
","
","""event"",""trial"",""time""
""fullscreenenter"",""1"",""2080""
","
","","","840.6000000238419","","","20","7259","3876","m","elianto","#3366ff99"," "," ","1","+10","[1693.6000000238419]","1","2","","","7259","137","9","1","win","go","0"
"pit-trial","262","1598874","0.0-142.0","battery-v0.2","","""event"",""trial"",""time""
""fullscreenenter"",""1"",""2080""
","
","
","""event"",""trial"",""time""
""fullscreenenter"",""1"",""2080""
","
","","","1309.4000000357628","","","20","7259","3876","h","elianto","#f73b6a7A"," "," ","1","0","[2161.800000011921]","1","2","","","7259","138","6","3","lose","go","0"
"pit-trial","263","1603729","0.0-143.0","battery-v0.2","","""event"",""trial"",""time""
""fullscreenenter"",""1"",""2080""
","
","
","""event"",""trial"",""time""
""fullscreenenter"",""1"",""2080""
","
","","","-1","","","20","7259","3876","y","elianto","#f73b6a7A","-1","-1","1","0","[]","0","2","","","7259","139","7","4","lose","no-go","0"
"pit-trial","264","1607469","0.0-144.0","battery-v0.2","","""event"",""trial"",""time""
""fullscreenenter"",""1"",""2080""
","
","
","""event"",""trial"",""time""
""fullscreenenter"",""1"",""2080""
","
","","","884.6999999880791","","","20","7259","3876","r","elianto","#3366ff99"," "," ","1","+10","[1735.800000011921]","1","2","","","7259","140","8","1","win","go","0"
"pit-instructions","265","1702604","0.0-145.0","battery-v0.2","","""event"",""trial"",""time""
""fullscreenenter"",""1"",""2080""
","
","
","""event"",""trial"",""time""
""fullscreenenter"",""1"",""2080""
","
","","[{""page_index"":0,""viewing_time"":86530.69999998808},{""page_index"":1,""viewing_time"":8600.5}]","95131.59999996424","","","","","","","","","","","","","","","","","","","","","","","",""
"pit-trial","266","1707118","0.0-146.0","battery-v0.2","","""event"",""trial"",""time""
""fullscreenenter"",""1"",""2080""
","
","
","""event"",""trial"",""time""
""fullscreenenter"",""1"",""2080""
","
","","","1641.699999988079","","","20","7259","3876","l","elianto","#3366ff99"," "," ","1","+10","[2495.5]","1","3","","","7259","141","1","1","win","go","0"
"pit-trial","267","1710817","0.0-147.0","battery-v0.2","","""event"",""trial"",""time""
""fullscreenenter"",""1"",""2080""
","
","
","""event"",""trial"",""time""
""fullscreenenter"",""1"",""2080""
","
