"trial_type","trial_index","time_elapsed","internal_node_id","task_version","subject_id","interactions","blur_events","focus_events","fullscreenenter_events","fullscreenexit_events","success","view_history","rt","responses","num_errors","age","subject","participantId","rune","rune_set","hex","correct","choice","accuracy","outcome","keys","total_keys","block","practice","value","sub","trial","stimulus","robot","valence","action","sham"
"pavlovia","0","10","0.0-0.0","battery-v0.2","","""event"",""trial"",""time""
""fullscreenenter"",""1"",""2975""
","
","
","""event"",""trial"",""time""
""fullscreenenter"",""1"",""2975""
","
","","","","","","","","","","","","","","","","","","","","","","","","","","",""
"fullscreen","1","3963","0.0-1.0","battery-v0.2","","""event"",""trial"",""time""
""fullscreenenter"",""1"",""2975""
","
","
","""event"",""trial"",""time""
""fullscreenenter"",""1"",""2975""
","
","true","","","","","","","","","","","","","","","","","","","","","","","","","",""
"pit-instructions","2","12438","0.0-2.0-0.0","battery-v0.2","","""event"",""trial"",""time""
""fullscreenenter"",""1"",""2975""
","
","
","""event"",""trial"",""time""
""fullscreenenter"",""1"",""2975""
","
","","[{""page_index"":0,""viewing_time"":8471.80000000028}]","8472.100000000093","","","","","","","","","","","","","","","","","","","","","","","",""
"pit-comprehension","3","15361","0.0-2.0-1.0-0.0","battery-v0.2","","""event"",""trial"",""time""
""fullscreenenter"",""1"",""2975""
","
","
","""event"",""trial"",""time""
""fullscreenenter"",""1"",""2975""
","
","","","2920.600000000093","[""shark""]","0","19","13366","5791","","","","","","","","","","","","","","","","","","",""
"pit-instructions","4","16730","0.0-2.0-1.0-1.0","battery-v0.2","","""event"",""trial"",""time""
""fullscreenenter"",""1"",""2975""
","
","
","""event"",""trial"",""time""
""fullscreenenter"",""1"",""2975""
","
","","[{""page_index"":0,""viewing_time"":1359.1000000000931}]","1359.3000000002794","","","","","","","","","","","","","","","","","","","","","","","",""
"pit-comprehension","5","19189","0.0-2.0-2.0-0.0","battery-v0.2","","""event"",""trial"",""time""
""fullscreenenter"",""1"",""2975""
","
","
","""event"",""trial"",""time""
""fullscreenenter"",""1"",""2975""
","
","","","2456.2999999998137","[""tiger""]","0","19","13366","5791","","","","","","","","","","","","","","","","","","",""
"pit-instructions","6","19869","0.0-2.0-2.0-1.0","battery-v0.2","","""event"",""trial"",""time""
""fullscreenenter"",""1"",""2975""
","
","
","""event"",""trial"",""time""
""fullscreenenter"",""1"",""2975""
","
","","[{""page_index"":0,""viewing_time"":678}]","678.1999999997206","","","","","","","","","","","","","","","","","","","","","","","",""
"pit-instructions","7","131896","0.0-2.0-3.0","battery-v0.2","","""event"",""trial"",""time""
""fullscreenenter"",""1"",""2975""
","
","
","""event"",""trial"",""time""
""fullscreenenter"",""1"",""2975""
","
","","[{""page_index"":0,""viewing_time"":8150.600000000093},{""page_index"":1,""viewing_time"":8714.19999999972},{""page_index"":2,""viewing_time"":9752.30000000028},{""page_index"":3,""viewing_time"":6168.199999999721},{""page_index"":4,""viewing_time"":5974.899999999907},{""page_index"":5,""viewing_time"":5608.5},{""page_index"":6,""viewing_time"":7057.100000000093},{""page_index"":7,""viewing_time"":6591.399999999907},{""page_index"":8,""viewing_time"":11186.600000000093},{""page_index"":9,""viewing_time"":12357.200000000186},{""page_index"":10,""viewing_time"":8551.299999999814},{""page_index"":11,""viewing_time"":8670.899999999907},{""page_index"":12,""viewing_time"":8203.80000000028},{""page_index"":13,""viewing_time"":5038.5}]","112025.6000000001","","","","","","","","","","","","","","","","","","","","","","","",""
"pit-trial","8","135019","0.0-2.0-4.0-0.0","battery-v0.2","","""event"",""trial"",""time""
""fullscreenenter"",""1"",""2975""
","
","
","""event"",""trial"",""time""
""fullscreenenter"",""1"",""2975""
","
","","","256.79999999981374","","","19","13366","5791","&#9784;","elianto","#FFFFF080"," "," ","1","&#10004","[1109.3000000002794]","1","0","0","","","","","","","",""
"pit-trial","9","138526","0.0-2.0-4.1-0.1","battery-v0.2","","""event"",""trial"",""time""
""fullscreenenter"",""1"",""2975""
","
","
","""event"",""trial"",""time""
""fullscreenenter"",""1"",""2975""
","
","","","649.7000000001863","","","19","13366","5791","&#9784;","elianto","#FFFFF080"," "," ","1","&#10004","[1503.3999999999069]","1","0","0","","","","","","","",""
"pit-trial","10","142011","0.0-2.0-4.2-0.2","battery-v0.2","","""event"",""trial"",""time""
""fullscreenenter"",""1"",""2975""
","
","
","""event"",""trial"",""time""
""fullscreenenter"",""1"",""2975""
","
","","","617.1000000000931","","","19","13366","5791","&#9784;","elianto","#FFFFF080"," "," ","1","&#10004","[1469.8999999999069]","1","0","0","","","","","","","",""
"pit-trial","11","145330","0.0-2.0-4.3-0.3","battery-v0.2","","""event"",""trial"",""time""
""fullscreenenter"",""1"",""2975""
","
","
","""event"",""trial"",""time""
""fullscreenenter"",""1"",""2975""
","
","","","454.3000000002794","","","19","13366","5791","&#9784;","elianto","#FFFFF080"," "," ","1","&#10004","[1309.9000000003725]","1","0","0","","","","","","","",""
"pit-trial","12","148676","0.0-2.0-4.4-0.4","battery-v0.2","","""event"",""trial"",""time""
""fullscreenenter"",""1"",""2975""
","
","
","""event"",""trial"",""time""
""fullscreenenter"",""1"",""2975""
","
","","","481.70000000018626","","","19","13366","5791","&#9784;","elianto","#FFFFF080"," "," ","1","&#10004","[1334.6000000000931]","1","0","0","","","","","","","",""
"pit-instructions","13","171271","0.0-2.0-5.0","battery-v0.2","","""event"",""trial"",""time""
""fullscreenenter"",""1"",""2975""
","
","
","""event"",""trial"",""time""
""fullscreenenter"",""1"",""2975""
","
","","[{""page_index"":0,""viewing_time"":5486.700000000186},{""page_index"":1,""viewing_time"":5597.600000000093},{""page_index"":2,""viewing_time"":5432.799999999814},{""page_index"":3,""viewing_time"":6076}]","22593.399999999907","","","","","","","","","","","","","","","","","","","","","","","",""
"pit-trial","14","176130","0.0-2.0-6.0-0.0","battery-v0.2","","""event"",""trial"",""time""
""fullscreenenter"",""1"",""2975""
","
","
","""event"",""trial"",""time""
""fullscreenenter"",""1"",""2975""
","
","","","-1","","","19","13366","5791","&#9854;","elianto","#FFFFF080","-1","-1","1","&#10004","[]","0","0","1","","","","","","","",""
"pit-trial","15","181002","0.0-2.0-6.1-0.1","battery-v0.2","","""event"",""trial"",""time""
""fullscreenenter"",""1"",""2975""
","
","
","""event"",""trial"",""time""
""fullscreenenter"",""1"",""2975""
","
","","","-1","","","19","13366","5791","&#9854;","elianto","#FFFFF080","-1","-1","1","&#10004","[]","0","0","1","","","","","","","",""
"pit-trial","16","185861","0.0-2.0-6.2-0.2","battery-v0.2","","""event"",""trial"",""time""
""fullscreenenter"",""1"",""2975""
","
","
","""event"",""trial"",""time""
""fullscreenenter"",""1"",""2975""
","
","","","-1","","","19","13366","5791","&#9854;","elianto","#FFFFF080","-1","-1","1","&#10004","[]","0","0","1","","","","","","","",""
"pit-trial","17","190729","0.0-2.0-6.3-0.3","battery-v0.2","","""event"",""trial"",""time""
""fullscreenenter"",""1"",""2975""
","
","
","""event"",""trial"",""time""
""fullscreenenter"",""1"",""2975""
","
","","","-1","","","19","13366","5791","&#9854;","elianto","#FFFFF080","-1","-1","1","&#10004","[]","0","0","1","","","","","","","",""
"pit-trial","18","195597","0.0-2.0-6.4-0.4","battery-v0.2","","""event"",""trial"",""time""
""fullscreenenter"",""1"",""2975""
","
","
","""event"",""trial"",""time""
""fullscreenenter"",""1"",""2975""
","
","","","-1","","","19","13366","5791","&#9854;","elianto","#FFFFF080","-1","-1","1","&#10004","[]","0","0","1","","","","","","","",""
"pit-instructions","19","319549","0.0-2.0-7.0","battery-v0.2","","""event"",""trial"",""time""
""fullscreenenter"",""1"",""2975""
","
","
","""event"",""trial"",""time""
""fullscreenenter"",""1"",""2975""
","
","","[{""page_index"":0,""viewing_time"":7665.799999999814},{""page_index"":1,""viewing_time"":12526.400000000373},{""page_index"":2,""viewing_time"":6445.399999999907},{""page_index"":3,""viewing_time"":6265.399999999907},{""page_index"":4,""viewing_time"":5404.700000000186},{""page_index"":5,""viewing_time"":8263.899999999907},{""page_index"":6,""viewing_time"":4986.100000000093},{""page_index"":7,""viewing_time"":7406.699999999721},{""page_index"":8,""viewing_time"":6744},{""page_index"":9,""viewing_time"":6307.700000000186},{""page_index"":10,""viewing_time"":6627.100000000093},{""page_index"":11,""viewing_time"":4363.699999999721},{""page_index"":12,""viewing_time"":6756.200000000186},{""page_index"":13,""viewing_time"":7076.5},{""page_index"":14,""viewing_time"":7211.600000000093},{""page_index"":15,""viewing_time"":6331.5999999996275},{""page_index"":16,""viewing_time"":6385.4000000003725},{""page_index"":17,""viewing_time"":7181.199999999721}]","123949.70000000019","","","","","","","","","","","","","","","","","","","","","","","",""
"pit-trial","20","323040","0.0-2.0-8.0-0.0","battery-v0.2","","""event"",""trial"",""time""
""fullscreenenter"",""1"",""2975""
","
","
","""event"",""trial"",""time""
""fullscreenenter"",""1"",""2975""
","
","","","627.7999999998137","","","19","13366","5791","&#9776;","elianto","#3366ff99"," "," ","1","+10","[1482.8999999999069]","1","0","1","","","","","","","",""
"pit-trial","21","326408","0.0-2.0-8.0-1.0","battery-v0.2","","""event"",""trial"",""time""
""fullscreenenter"",""1"",""2975""
","
","
","""event"",""trial"",""time""
""fullscreenenter"",""1"",""2975""
","
","","","505.90000000037253","","","19","13366","5791","&#9776;","elianto","#3366ff99"," "," ","1","+10","[1363.9000000003725]","1","0","1","","","","","","","",""
"pit-trial","22","329790","0.0-2.0-8.0-2.0","battery-v0.2","","""event"",""trial"",""time""
""fullscreenenter"",""1"",""2975""
","
","
","""event"",""trial"",""time""
""fullscreenenter"",""1"",""2975""
","
","","","519.5","","","19","13366","5791","&#9776;","elianto","#3366ff99"," "," ","1","+10","[1374.6000000000931]","1","0","1","","","","","","","",""
"pit-trial","23","333176","0.0-2.0-8.0-3.0","battery-v0.2","","""event"",""trial"",""time""
""fullscreenenter"",""1"",""2975""
","
","
","""event"",""trial"",""time""
""fullscreenenter"",""1"",""2975""
","
","","","524","","","19","13366","5791","&#9776;","elianto","#3366ff99"," "," ","1","0","[1374.6999999997206]","1","0","1","","","","","","","",""
"pit-trial","24","336517","0.0-2.0-8.0-4.0","battery-v0.2","","""event"",""trial"",""time""
""fullscreenenter"",""1"",""2975""
","
","
","""event"",""trial"",""time""
""fullscreenenter"",""1"",""2975""
","
","","","485.60000000009313","","","19","13366","5791","&#9776;","elianto","#3366ff99"," "," ","1","+10","[1338.6000000000931]","1","0","1","","","","","","","",""
"pit-trial","25","339815","0.0-2.0-8.1-0.1","battery-v0.2","","""event"",""trial"",""time""
""fullscreenenter"",""1"",""2975""
","
","
","""event"",""trial"",""time""
""fullscreenenter"",""1"",""2975""
","
","","","425.89999999990687","","","19","13366","5791","&#9776;","elianto","#3366ff99"," "," ","1","+10","[1282.2000000001863]","1","0","1","","","","","","","",""
"pit-trial","26","343222","0.0-2.0-8.1-1.1","battery-v0.2","","""event"",""trial"",""time""
""fullscreenenter"",""1"",""2975""
","
","
","""event"",""trial"",""time""
""fullscreenenter"",""1"",""2975""
","
","","","546.2999999998137","","","19","13366","5791","&#9776;","elianto","#3366ff99"," "," ","1","+10","[1398.6000000000931]","1","0","1","","","","","","","",""
"pit-trial","27","347592","0.0-2.0-8.1-2.1","battery-v0.2","","""event"",""trial"",""time""
""fullscreenenter"",""1"",""2975""
","
","
","""event"",""trial"",""time""
""fullscreenenter"",""1"",""2975""
","
","","","1502.0999999996275","","","19","13366","5791","&#9776;","elianto","#3366ff99"," "," ","1","+10","[2365.1999999997206]","1","0","1","","","","","","","",""
"pit-trial","28","350936","0.0-2.0-8.1-3.1","battery-v0.2","","""event"",""trial"",""time""
""fullscreenenter"",""1"",""2975""
","
","
","""event"",""trial"",""time""
""fullscreenenter"",""1"",""2975""
","
","","","484.89999999990687","","","19","13366","5791","&#9776;","elianto","#3366ff99"," "," ","1","0","[1342.6000000000931]","1","0","1","","","","","","","",""
"pit-trial","29","354287","0.0-2.0-8.1-4.1","battery-v0.2","","""event"",""trial"",""time""
""fullscreenenter"",""1"",""2975""
","
","
","""event"",""trial"",""time""
""fullscreenenter"",""1"",""2975""
","
","","","490.90000000037253","","","19","13366","5791","&#9776;","elianto","#3366ff99"," "," ","1","+10","[1348.1000000000931]","1","0","1","","","","","","","",""
"pit-trial","30","357593","0.0-2.0-8.2-0.2","battery-v0.2","","""event"",""trial"",""time""
""fullscreenenter"",""1"",""2975""
","
","
","""event"",""trial"",""time""
""fullscreenenter"",""1"",""2975""
","
","","","453.39999999990687","","","19","13366","5791","&#9776;","elianto","#3366ff99"," "," ","1","+10","[1304.1000000000931]","1","0","1","","","","","","","",""
"pit-trial","31","362446","0.0-2.0-8.2-1.2","battery-v0.2","","""event"",""trial"",""time""
""fullscreenenter"",""1"",""2975""
","
","
","""event"",""trial"",""time""
""fullscreenenter"",""1"",""2975""
","
","","","-1","","","19","13366","5791","&#9776;","elianto","#3366ff99"," ","-1","0","0","[]","0","0","1","","","","","","","",""
"pit-trial","32","365759","0.0-2.0-8.2-2.2","battery-v0.2","","""event"",""trial"",""time""
""fullscreenenter"",""1"",""2975""
","
","
","""event"",""trial"",""time""
""fullscreenenter"",""1"",""2975""
","
","","","458.89999999990687","","","19","13366","5791","&#9776;","elianto","#3366ff99"," "," ","1","+10","[1310.6999999997206]","1","0","1","","","","","","","",""
"pit-trial","33","369103","0.0-2.0-8.2-3.2","battery-v0.2","","""event"",""trial"",""time""
""fullscreenenter"",""1"",""2975""
","
","
","""event"",""trial"",""time""
""fullscreenenter"",""1"",""2975""
","
","","","491.79999999981374","","","19","13366","5791","&#9776;","elianto","#3366ff99"," "," ","1","0","[1341.8999999999069]","1","0","1","","","","","","","",""
"pit-trial","34","372469","0.0-2.0-8.2-4.2","battery-v0.2","","""event"",""trial"",""time""
""fullscreenenter"",""1"",""2975""
","
","
","""event"",""trial"",""time""
""fullscreenenter"",""1"",""2975""
","
","","","514.1000000000931","","","19","13366","5791","&#9776;","elianto","#3366ff99"," "," ","1","+10","[1364.5]","1","0","1","","","","","","","",""
"call-function","35","372470","0.0-2.0-9.0","battery-v0.2","","""event"",""trial"",""time""
""fullscreenenter"",""1"",""2975""
","
","
","""event"",""trial"",""time""
""fullscreenenter"",""1"",""2975""
","
","","","","","","","","","","","","","","","","","","","","","","","","","","",""
"pit-instructions","36","413309","0.0-2.0-10.0","battery-v0.2","","""event"",""trial"",""time""
""fullscreenenter"",""1"",""2975""
","
","
","""event"",""trial"",""time""
""fullscreenenter"",""1"",""2975""
","
","","[{""page_index"":0,""viewing_time"":7276.799999999814},{""page_index"":1,""viewing_time"":6999.700000000186},{""page_index"":2,""viewing_time"":10321.600000000093},{""page_index"":3,""viewing_time"":8803.899999999907},{""page_index"":4,""viewing_time"":7435.799999999814}]","40837.89999999991","","","","","","","","","","","","","","","","","","","","","","","",""
"pit-trial","37","417190","0.0-2.0-11.0-0.0","battery-v0.2","","""event"",""trial"",""time""
""fullscreenenter"",""1"",""2975""
","
","
","""event"",""trial"",""time""
""fullscreenenter"",""1"",""2975""
","
","","","1010.1000000000931","","","19","13366","5791","&#9761;","elianto","#3366ff99","-1"," ","0","0","[1874]","1","0","2","","","","","","","",""
"pit-trial","38","421216","0.0-2.0-11.0-1.0","battery-v0.2","","""event"",""trial"",""time""
""fullscreenenter"",""1"",""2975""
","
","
","""event"",""trial"",""time""
""fullscreenenter"",""1"",""2975""
","
","","","1167.4000000003725","","","19","13366","5791","&#9761;","elianto","#3366ff99","-1"," ","0","0","[2017.6000000000931]","1","0","2","","","","","","","",""
"pit-trial","39","425249","0.0-2.0-11.0-2.0","battery-v0.2","","""event"",""trial"",""time""
""fullscreenenter"",""1"",""2975""
","
","
","""event"",""trial"",""time""
""fullscreenenter"",""1"",""2975""
","
","","","1175.5999999996275","","","19","13366","5791","&#9761;","elianto","#3366ff99","-1"," ","0","0","[2027.1999999997206]","1","0","2","","","","","","","",""
"pit-trial","40","430112","0.0-2.0-11.0-3.0","battery-v0.2","","""event"",""trial"",""time""
""fullscreenenter"",""1"",""2975""
","
","
","""event"",""trial"",""time""
""fullscreenenter"",""1"",""2975""
","
","","","-1","","","19","13366","5791","&#9761;","elianto","#3366ff99","-1","-1","1","0","[]","0","0","2","","","","","","","",""
"pit-trial","41","434976","0.0-2.0-11.0-4.0","battery-v0.2","","""event"",""trial"",""time""
""fullscreenenter"",""1"",""2975""
","
","
","""event"",""trial"",""time""
""fullscreenenter"",""1"",""2975""
","
","","","-1","","","19","13366","5791","&#9761;","elianto","#3366ff99","-1","-1","1","+10","[3341.9000000003725]","1","0","2","","","","","","","",""
"pit-trial","42","438424","0.0-2.0-11.1-0.1","battery-v0.2","","""event"",""trial"",""time""
""fullscreenenter"",""1"",""2975""
","
","
","""event"",""trial"",""time""
""fullscreenenter"",""1"",""2975""
","
","","","587.5999999996275","","","19","13366","5791","&#9761;","elianto","#3366ff99","-1"," ","0","0","[1438.7000000001863]","1","0","2","","","","","","","",""
"pit-trial","43","442197","0.0-2.0-11.1-1.1","battery-v0.2","","""event"",""trial"",""time""
""fullscreenenter"",""1"",""2975""
","
","
","""event"",""trial"",""time""
""fullscreenenter"",""1"",""2975""
","
","","","910.3999999999069","","","19","13366","5791","&#9761;","elianto","#3366ff99","-1"," ","0","0","[1765.9000000003725]","1","0","2","","","","","","","",""
"pit-trial","44","445863","0.0-2.0-11.1-2.1","battery-v0.2","","""event"",""trial"",""time""
""fullscreenenter"",""1"",""2975""
","
","
","""event"",""trial"",""time""
""fullscreenenter"",""1"",""2975""
","
","","","808.6000000000931","","","19","13366","5791","&#9761;","elianto","#3366ff99","-1"," ","0","0","[1664.1000000000931]","1","0","2","","","","","","","",""
"pit-trial","45","450036","0.0-2.0-11.1-3.1","battery-v0.2","","""event"",""trial"",""time""
""fullscreenenter"",""1"",""2975""
","
","
","""event"",""trial"",""time""
""fullscreenenter"",""1"",""2975""
","
","","","1319.2000000001863","","","19","13366","5791","&#9761;","elianto","#3366ff99","-1"," ","0","+10","[2170.899999999907]","1","0","2","","","","","","","",""
"pit-trial","46","454232","0.0-2.0-11.1-4.1","battery-v0.2","","""event"",""trial"",""time""
""fullscreenenter"",""1"",""2975""
","
","
","""event"",""trial"",""time""
""fullscreenenter"",""1"",""2975""
","
","","","1342.7000000001863","","","19","13366","5791","&#9761;","elianto","#3366ff99","-1"," ","0","0","[2193.100000000093]","1","0","2","","","","","","","",""
"pit-trial","47","459084","0.0-2.0-11.2-0.2","battery-v0.2","","""event"",""trial"",""time""
""fullscreenenter"",""1"",""2975""
","
","
","""event"",""trial"",""time""
""fullscreenenter"",""1"",""2975""
","
","","","-1","","","19","13366","5791","&#9761;","elianto","#3366ff99","-1","-1","1","+10","[3143.2000000001863]","1","0","2","","","","","","","",""
"pit-trial","48","462479","0.0-2.0-11.2-1.2","battery-v0.2","","""event"",""trial"",""time""
""fullscreenenter"",""1"",""2975""
","
","
","""event"",""trial"",""time""
""fullscreenenter"",""1"",""2975""
","
","","","541","","","19","13366","5791","&#9761;","elianto","#3366ff99","-1"," ","0","0","[1392.5]","1","0","2","","","","","","","",""
"pit-trial","49","465841","0.0-2.0-11.2-2.2","battery-v0.2","","""event"",""trial"",""time""
""fullscreenenter"",""1"",""2975""
","
","
","""event"",""trial"",""time""
""fullscreenenter"",""1"",""2975""
","
","","","499.10000000009313","","","19","13366","5791","&#9761;","elianto","#3366ff99","-1"," ","0","0","[1351.1000000000931]","1","0","2","","","","","","","",""
"pit-trial","50","469577","0.0-2.0-11.2-3.2","battery-v0.2","","""event"",""trial"",""time""
""fullscreenenter"",""1"",""2975""
","
","
","""event"",""trial"",""time""
""fullscreenenter"",""1"",""2975""
","
","","","884.6000000000931","","","19","13366","5791","&#9761;","elianto","#3366ff99","-1"," ","0","+10","[1734.8999999999069]","1","0","2","","","","","","","",""
"pit-trial","51","474431","0.0-2.0-11.2-4.2","battery-v0.2","","""event"",""trial"",""time""
""fullscreenenter"",""1"",""2975""
","
","
","""event"",""trial"",""time""
""fullscreenenter"",""1"",""2975""
","
","","","-1","","","19","13366","5791","&#9761;","elianto","#3366ff99","-1","-1","1","+10","[3321.899999999907]","1","0","2","","","","","","","",""
"pit-trial","52","477822","0.0-2.0-11.3-0.3","battery-v0.2","","""event"",""trial"",""time""
""fullscreenenter"",""1"",""2975""
","
","
","""event"",""trial"",""time""
""fullscreenenter"",""1"",""2975""
","
","","","538.1000000000931","","","19","13366","5791","&#9761;","elianto","#3366ff99","-1"," ","0","0","[1388.7999999998137]","1","0","2","","","","","","","",""
"pit-trial","53","482674","0.0-2.0-11.3-1.3","battery-v0.2","","""event"",""trial"",""time""
""fullscreenenter"",""1"",""2975""
","
","
","""event"",""trial"",""time""
""fullscreenenter"",""1"",""2975""
","
","","","-1","","","19","13366","5791","&#9761;","elianto","#3366ff99","-1","-1","1","+10","[3263.0999999996275]","1","0","2","","","","","","","",""
"pit-trial","54","486452","0.0-2.0-11.3-2.3","battery-v0.2","","""event"",""trial"",""time""
""fullscreenenter"",""1"",""2975""
","
","
","""event"",""trial"",""time""
""fullscreenenter"",""1"",""2975""
","
","","","924.8000000002794","","","19","13366","5791","&#9761;","elianto","#3366ff99","-1"," ","0","0","[1774.9000000003725]","1","0","2","","","","","","","",""
"pit-trial","55","489781","0.0-2.0-11.3-3.3","battery-v0.2","","""event"",""trial"",""time""
""fullscreenenter"",""1"",""2975""
","
","
","""event"",""trial"",""time""
""fullscreenenter"",""1"",""2975""
","
","","","475.09999999962747","","","19","13366","5791","&#9761;","elianto","#3366ff99","-1"," ","0","+10","[1325.5]","1","0","2","","","","","","","",""
"pit-trial","56","493263","0.0-2.0-11.3-4.3","battery-v0.2","","""event"",""trial"",""time""
""fullscreenenter"",""1"",""2975""
","
","
","""event"",""trial"",""time""
""fullscreenenter"",""1"",""2975""
","
","","","629.1000000000931","","","19","13366","5791","&#9761;","elianto","#3366ff99","-1"," ","0","0","[1480.1000000000931]","1","0","2","","","","","","","",""
"call-function","57","493264","0.0-2.0-12.0","battery-v0.2","","""event"",""trial"",""time""
""fullscreenenter"",""1"",""2975""
","
","
","""event"",""trial"",""time""
""fullscreenenter"",""1"",""2975""
","
","","","","","","","","","","","","","","","","","","","","","","","","","","",""
"pit-instructions","58","524148","0.0-2.0-13.0","battery-v0.2","","""event"",""trial"",""time""
""fullscreenenter"",""1"",""2975""
","
","
","""event"",""trial"",""time""
""fullscreenenter"",""1"",""2975""
","
","","[{""page_index"":0,""viewing_time"":5145.700000000186},{""page_index"":1,""viewing_time"":7425.600000000093},{""page_index"":2,""viewing_time"":3132.399999999907},{""page_index"":3,""viewing_time"":10331.399999999907},{""page_index"":4,""viewing_time"":4848.399999999907}]","30883.600000000093","","","","","","","","","","","","","","","","","","","","","","","",""
"pit-trial","59","529003","0.0-2.0-14.0-0.0","battery-v0.2","","""event"",""trial"",""time""
""fullscreenenter"",""1"",""2975""
","
","
","""event"",""trial"",""time""
""fullscreenenter"",""1"",""2975""
","
","","","-1","","","19","13366","5791","&#9826;","elianto","#f73b6a7A","-1","-1","1","0","[]","0","0","3","","","","","","","",""
"pit-trial","60","533864","0.0-2.0-14.0-1.0","battery-v0.2","","""event"",""trial"",""time""
""fullscreenenter"",""1"",""2975""
","
","
","""event"",""trial"",""time""
""fullscreenenter"",""1"",""2975""
","
","","","-1","","","19","13366","5791","&#9826;","elianto","#f73b6a7A","-1","-1","1","0","[]","0","0","3","","","","","","","",""
"pit-trial","61","537391","0.0-2.0-14.0-2.0","battery-v0.2","","""event"",""trial"",""time""
""fullscreenenter"",""1"",""2975""
","
","
","""event"",""trial"",""time""
""fullscreenenter"",""1"",""2975""
","
","","","660.3999999999069","","","19","13366","5791","&#9826;","elianto","#f73b6a7A","-1"," ","0","-10","[1517.4000000003725]","1","0","3","","","","","","","",""
"pit-trial","62","542258","0.0-2.0-14.0-3.0","battery-v0.2","","""event"",""trial"",""time""
""fullscreenenter"",""1"",""2975""
","
","
","""event"",""trial"",""time""
""fullscreenenter"",""1"",""2975""
","
","","","-1","","","19","13366","5791","&#9826;","elianto","#f73b6a7A","-1","-1","1","-10","[]","0","0","3","","","","","","","",""
"pit-trial","63","547123","0.0-2.0-14.0-4.0","battery-v0.2","","""event"",""trial"",""time""
""fullscreenenter"",""1"",""2975""
","
","
","""event"",""trial"",""time""
""fullscreenenter"",""1"",""2975""
","
","","","-1","","","19","13366","5791","&#9826;","elianto","#f73b6a7A","-1","-1","1","0","[]","0","0","3","","","","","","","",""
"pit-trial","64","551990","0.0-2.0-14.1-0.1","battery-v0.2","","""event"",""trial"",""time""
""fullscreenenter"",""1"",""2975""
","
","
","""event"",""trial"",""time""
""fullscreenenter"",""1"",""2975""
","
","","","-1","","","19","13366","5791","&#9826;","elianto","#f73b6a7A","-1","-1","1","0","[]","0","0","3","","","","","","","",""
"pit-trial","65","556382","0.0-2.0-14.1-1.1","battery-v0.2","","""event"",""trial"",""time""
""fullscreenenter"",""1"",""2975""
","
","
","""event"",""trial"",""time""
""fullscreenenter"",""1"",""2975""
","
","","","1532.7000000001863","","","19","13366","5791","&#9826;","elianto","#f73b6a7A","-1"," ","0","-10","[2383.899999999907]","1","0","3","","","","","","","",""
"pit-trial","66","559584","0.0-2.0-14.1-2.1","battery-v0.2","","""event"",""trial"",""time""
""fullscreenenter"",""1"",""2975""
","
","
","""event"",""trial"",""time""
""fullscreenenter"",""1"",""2975""
","
","","","349.10000000009313","","","19","13366","5791","&#9826;","elianto","#f73b6a7A","-1"," ","0","-10","[1199.6000000000931]","1","0","3","","","","","","","",""
"pit-trial","67","564437","0.0-2.0-14.1-3.1","battery-v0.2","","""event"",""trial"",""time""
""fullscreenenter"",""1"",""2975""
","
","
","""event"",""trial"",""time""
""fullscreenenter"",""1"",""2975""
","
","","","-1","","","19","13366","5791","&#9826;","elianto","#f73b6a7A","-1","-1","1","-10","[]","0","0","3","","","","","","","",""
"pit-trial","68","567946","0.0-2.0-14.1-4.1","battery-v0.2","","""event"",""trial"",""time""
""fullscreenenter"",""1"",""2975""
","
","
","""event"",""trial"",""time""
""fullscreenenter"",""1"",""2975""
","
","","","656.6000000000931","","","19","13366","5791","&#9826;","elianto","#f73b6a7A","-1"," ","0","-10","[1506.8999999999069]","1","0","3","","","","","","","",""
"pit-trial","69","572810","0.0-2.0-14.2-0.2","battery-v0.2","","""event"",""trial"",""time""
""fullscreenenter"",""1"",""2975""
","
","
","""event"",""trial"",""time""
""fullscreenenter"",""1"",""2975""
","
","","","-1","","","19","13366","5791","&#9826;","elianto","#f73b6a7A","-1","-1","1","0","[]","0","0","3","","","","","","","",""
"pit-trial","70","577663","0.0-2.0-14.2-1.2","battery-v0.2","","""event"",""trial"",""time""
""fullscreenenter"",""1"",""2975""
","
","
","""event"",""trial"",""time""
""fullscreenenter"",""1"",""2975""
","
","","","-1","","","19","13366","5791","&#9826;","elianto","#f73b6a7A","-1","-1","1","0","[]","0","0","3","","","","","","","",""
"pit-trial","71","582517","0.0-2.0-14.2-2.2","battery-v0.2","","""event"",""trial"",""time""
""fullscreenenter"",""1"",""2975""
","
","
","""event"",""trial"",""time""
""fullscreenenter"",""1"",""2975""
","
","","","-1","","","19","13366","5791","&#9826;","elianto","#f73b6a7A","-1","-1","1","0","[]","0","0","3","","","","","","","",""
"pit-trial","72","587370","0.0-2.0-14.2-3.2","battery-v0.2","","""event"",""trial"",""time""
""fullscreenenter"",""1"",""2975""
","
","
","""event"",""trial"",""time""
""fullscreenenter"",""1"",""2975""
","
","","","-1","","","19","13366","5791","&#9826;","elianto","#f73b6a7A","-1","-1","1","-10","[2952.2000000001863]","1","0","3","","","","","","","",""
"pit-trial","73","590571","0.0-2.0-14.2-4.2","battery-v0.2","","""event"",""trial"",""time""
""fullscreenenter"",""1"",""2975""
","
","
","""event"",""trial"",""time""
""fullscreenenter"",""1"",""2975""
","
","","","349.20000000018626","","","19","13366","5791","&#9826;","elianto","#f73b6a7A","-1"," ","0","-10","[1199.7999999998137]","1","0","3","","","","","","","",""
"pit-trial","74","595424","0.0-2.0-14.3-0.3","battery-v0.2","","""event"",""trial"",""time""
""fullscreenenter"",""1"",""2975""
","
","
","""event"",""trial"",""time""
""fullscreenenter"",""1"",""2975""
","
","","","-1","","","19","13366","5791","&#9826;","elianto","#f73b6a7A","-1","-1","1","0","[]","0","0","3","","","","","","","",""
"pit-trial","75","600277","0.0-2.0-14.3-1.3","battery-v0.2","","""event"",""trial"",""time""
""fullscreenenter"",""1"",""2975""
","
","
","""event"",""trial"",""time""
""fullscreenenter"",""1"",""2975""
","
","","","-1","","","19","13366","5791","&#9826;","elianto","#f73b6a7A","-1","-1","1","0","[]","0","0","3","","","","","","","",""
"pit-trial","76","604487","0.0-2.0-14.3-2.3","battery-v0.2","","""event"",""trial"",""time""
""fullscreenenter"",""1"",""2975""
","
","
","""event"",""trial"",""time""
""fullscreenenter"",""1"",""2975""
","
","","","1356.3000000002794","","","19","13366","5791","&#9826;","elianto","#f73b6a7A","-1"," ","0","-10","[2207.3000000002794]","1","0","3","","","","","","","",""
"pit-trial","77","609340","0.0-2.0-14.3-3.3","battery-v0.2","","""event"",""trial"",""time""
""fullscreenenter"",""1"",""2975""
","
","
","""event"",""trial"",""time""
""fullscreenenter"",""1"",""2975""
","
","","","-1","","","19","13366","5791","&#9826;","elianto","#f73b6a7A","-1","-1","1","-10","[3609.600000000093]","1","0","3","","","","","","","",""
"pit-trial","78","613900","0.0-2.0-14.3-4.3","battery-v0.2","","""event"",""trial"",""time""
""fullscreenenter"",""1"",""2975""
","
","
","""event"",""trial"",""time""
""fullscreenenter"",""1"",""2975""
","
","","","1707.7999999998137","","","19","13366","5791","&#9826;","elianto","#f73b6a7A","-1"," ","0","-10","[2557.7999999998137]","1","0","3","","","","","","","",""
"call-function","79","613901","0.0-2.0-15.0","battery-v0.2","","""event"",""trial"",""time""
""fullscreenenter"",""1"",""2975""
","
","
","""event"",""trial"",""time""
""fullscreenenter"",""1"",""2975""
","
","","","","","","","","","","","","","","","","","","","","","","","","","","",""
"pit-instructions","80","662448","0.0-2.0-16.0","battery-v0.2","","""event"",""trial"",""time""
""fullscreenenter"",""1"",""2975""
","
","
","""event"",""trial"",""time""
""fullscreenenter"",""1"",""2975""
","
","","[{""page_index"":0,""viewing_time"":9307.399999999907},{""page_index"":1,""viewing_time"":8312.19999999972},{""page_index"":2,""viewing_time"":25830.700000000186},{""page_index"":3,""viewing_time"":5095.700000000186}]","48546.39999999991","","","","","","","","","","","","","","","","","","","","","","","",""
"pit-trial","81","666155","0.0-2.0-17.0-0.0","battery-v0.2","","""event"",""trial"",""time""
""fullscreenenter"",""1"",""2975""
","
","
","""event"",""trial"",""time""
""fullscreenenter"",""1"",""2975""
","
","","","847.3999999999069","","","19","13366","5791","&#9789;","elianto","#f73b6a7A"," "," ","1","0","[1697.8999999999069]","1","0","4","","","","","","","",""
"pit-trial","82","669618","0.0-2.0-17.0-1.0","battery-v0.2","","""event"",""trial"",""time""
""fullscreenenter"",""1"",""2975""
","
","
","""event"",""trial"",""time""
""fullscreenenter"",""1"",""2975""
","
","","","608.7000000001863","","","19","13366","5791","&#9789;","elianto","#f73b6a7A"," "," ","1","0","[1460.2999999998137]","1","0","4","","","","","","","",""
"pit-trial","83","673077","0.0-2.0-17.0-2.0","battery-v0.2","","""event"",""trial"",""time""
""fullscreenenter"",""1"",""2975""
","
","
","""event"",""trial"",""time""
""fullscreenenter"",""1"",""2975""
","
","","","594.7000000001863","","","19","13366","5791","&#9789;","elianto","#f73b6a7A"," "," ","1","0","[1448.3999999999069]","1","0","4","","","","","","","",""
"pit-trial","84","676327","0.0-2.0-17.0-3.0","battery-v0.2","","""event"",""trial"",""time""
""fullscreenenter"",""1"",""2975""
","
","
","""event"",""trial"",""time""
""fullscreenenter"",""1"",""2975""
","
","","","379.40000000037253","","","19","13366","5791","&#9789;","elianto","#f73b6a7A"," "," ","1","-10","[1236.8000000002794]","1","0","4","","","","","","","",""
"pit-trial","85","681192","0.0-2.0-17.0-4.0","battery-v0.2","","""event"",""trial"",""time""
""fullscreenenter"",""1"",""2975""
","
","
","""event"",""trial"",""time""
""fullscreenenter"",""1"",""2975""
","
","","","-1","","","19","13366","5791","&#9789;","elianto","#f73b6a7A"," ","-1","0","-10","[]","0","0","4","","","","","","","",""
"pit-trial","86","684476","0.0-2.0-17.1-0.1","battery-v0.2","","""event"",""trial"",""time""
""fullscreenenter"",""1"",""2975""
","
","
","""event"",""trial"",""time""
""fullscreenenter"",""1"",""2975""
","
","","","417","","","19","13366","5791","&#9789;","elianto","#f73b6a7A"," "," ","1","0","[1269.8999999999069]","1","0","4","","","","","","","",""
"pit-trial","87","687637","0.0-2.0-17.1-1.1","battery-v0.2","","""event"",""trial"",""time""
""fullscreenenter"",""1"",""2975""
","
","
","""event"",""trial"",""time""
""fullscreenenter"",""1"",""2975""
","
","","","295.60000000009313","","","19","13366","5791","&#9789;","elianto","#f73b6a7A"," "," ","1","0","[1156.5]","1","0","4","","","","","","","",""
"pit-trial","88","690937","0.0-2.0-17.1-2.1","battery-v0.2","","""event"",""trial"",""time""
""fullscreenenter"",""1"",""2975""
","
","
","""event"",""trial"",""time""
""fullscreenenter"",""1"",""2975""
","
","","","437.60000000009313","","","19","13366","5791","&#9789;","elianto","#f73b6a7A"," "," ","1","0","[1292.4000000003725]","1","0","4","","","","","","","",""
"pit-trial","89","694059","0.0-2.0-17.1-3.1","battery-v0.2","","""event"",""trial"",""time""
""fullscreenenter"",""1"",""2975""
","
","
","""event"",""trial"",""time""
""fullscreenenter"",""1"",""2975""
","
","","","256","","","19","13366","5791","&#9789;","elianto","#f73b6a7A"," "," ","1","-10","[1113.5999999996275]","1","0","4","","","","","","","",""
"pit-trial","90","697554","0.0-2.0-17.1-4.1","battery-v0.2","","""event"",""trial"",""time""
""fullscreenenter"",""1"",""2975""
","
","
","""event"",""trial"",""time""
""fullscreenenter"",""1"",""2975""
","
","","","643.1000000000931","","","19","13366","5791","&#9789;","elianto","#f73b6a7A"," "," ","1","0","[1493.2999999998137]","1","0","4","","","","","","","",""
"pit-trial","91","700868","0.0-2.0-17.2-0.2","battery-v0.2","","""event"",""trial"",""time""
""fullscreenenter"",""1"",""2975""
","
","
","""event"",""trial"",""time""
""fullscreenenter"",""1"",""2975""
","
","","","458.60000000009313","","","19","13366","5791","&#9789;","elianto","#f73b6a7A"," "," ","1","0","[1310.6000000000931]","1","0","4","","","","","","","",""
"pit-trial","92","704411","0.0-2.0-17.2-1.2","battery-v0.2","","""event"",""trial"",""time""
""fullscreenenter"",""1"",""2975""
","
","
","""event"",""trial"",""time""
""fullscreenenter"",""1"",""2975""
","
","","","690.2999999998137","","","19","13366","5791","&#9789;","elianto","#f73b6a7A"," "," ","1","0","[1541.1999999997206]","1","0","4","","","","","","","",""
"pit-trial","93","709265","0.0-2.0-17.2-2.2","battery-v0.2","","""event"",""trial"",""time""
""fullscreenenter"",""1"",""2975""
","
","
","""event"",""trial"",""time""
""fullscreenenter"",""1"",""2975""
","
","","","-1","","","19","13366","5791","&#9789;","elianto","#f73b6a7A"," ","-1","0","-10","[3420.899999999907]","1","0","4","","","","","","","",""
"pit-trial","94","712388","0.0-2.0-17.2-3.2","battery-v0.2","","""event"",""trial"",""time""
""fullscreenenter"",""1"",""2975""
","
","
","""event"",""trial"",""time""
""fullscreenenter"",""1"",""2975""
","
","","","271.5","","","19","13366","5791","&#9789;","elianto","#f73b6a7A"," "," ","1","-10","[1121.5999999996275]","1","0","4","","","","","","","",""
"pit-trial","95","715605","0.0-2.0-17.2-4.2","battery-v0.2","","""event"",""trial"",""time""
""fullscreenenter"",""1"",""2975""
","
","
","""event"",""trial"",""time""
""fullscreenenter"",""1"",""2975""
","
","","","365.3000000002794","","","19","13366","5791","&#9789;","elianto","#f73b6a7A"," "," ","1","0","[1215.8000000002794]","1","0","4","","","","","","","",""
"pit-trial","96","720459","0.0-2.0-17.3-0.3","battery-v0.2","","""event"",""trial"",""time""
""fullscreenenter"",""1"",""2975""
","
","
","""event"",""trial"",""time""
""fullscreenenter"",""1"",""2975""
","
","","","-1","","","19","13366","5791","&#9789;","elianto","#f73b6a7A"," ","-1","0","-10","[3646.600000000093]","1","0","4","","","","","","","",""
"pit-trial","97","723564","0.0-2.0-17.3-1.3","battery-v0.2","","""event"",""trial"",""time""
""fullscreenenter"",""1"",""2975""
","
","
","""event"",""trial"",""time""
""fullscreenenter"",""1"",""2975""
","
","","","251.60000000009313","","","19","13366","5791","&#9789;","elianto","#f73b6a7A"," "," ","1","0","[1102.6000000000931]","1","0","4","","","","","","","",""
"pit-trial","98","727163","0.0-2.0-17.3-2.3","battery-v0.2","","""event"",""trial"",""time""
""fullscreenenter"",""1"",""2975""
","
","
","""event"",""trial"",""time""
""fullscreenenter"",""1"",""2975""
","
","","","733.1000000000931","","","19","13366","5791","&#9789;","elianto","#f73b6a7A"," "," ","1","0","[1583.8999999999069]","1","0","4","","","","","","","",""
"pit-trial","99","730340","0.0-2.0-17.3-3.3","battery-v0.2","","""event"",""trial"",""time""
""fullscreenenter"",""1"",""2975""
","
","
","""event"",""trial"",""time""
""fullscreenenter"",""1"",""2975""
","
","","","323.5","","","19","13366","5791","&#9789;","elianto","#f73b6a7A"," "," ","1","-10","[1175.3999999999069]","1","0","4","","","","","","","",""
"pit-trial","100","733698","0.0-2.0-17.3-4.3","battery-v0.2","","""event"",""trial"",""time""
""fullscreenenter"",""1"",""2975""
","
","
","""event"",""trial"",""time""
""fullscreenenter"",""1"",""2975""
","
","","","504.39999999990687","","","19","13366","5791","&#9789;","elianto","#f73b6a7A"," "," ","1","0","[1355.3999999999069]","1","0","4","","","","","","","",""
"call-function","101","733699","0.0-2.0-18.0","battery-v0.2","","""event"",""trial"",""time""
""fullscreenenter"",""1"",""2975""
","
","
","""event"",""trial"",""time""
""fullscreenenter"",""1"",""2975""
","
","","","","","","","","","","","","","","","","","","","","","","","","","","",""
"pit-instructions","102","804154","0.0-2.0-19.0","battery-v0.2","","""event"",""trial"",""time""
""fullscreenenter"",""1"",""2975""
","
","
","""event"",""trial"",""time""
""fullscreenenter"",""1"",""2975""
","
","","[{""page_index"":0,""viewing_time"":6644.5999999996275},{""page_index"":1,""viewing_time"":6460},{""page_index"":2,""viewing_time"":13754.80000000028},{""page_index"":3,""viewing_time"":7788.899999999907},{""page_index"":4,""viewing_time"":8593.100000000093},{""page_index"":5,""viewing_time"":8662.799999999814},{""page_index"":6,""viewing_time"":8202.600000000093},{""page_index"":7,""viewing_time"":6527.799999999814},{""page_index"":8,""viewing_time"":3820.4000000003725}]","70455.29999999981","","","","","","","","","","","","","","","","","","","","","","","",""
"pit-comprehension","103","809196","0.0-2.0-20.0-0.0","battery-v0.2","","""event"",""trial"",""time""
""fullscreenenter"",""1"",""2975""
","
","
","""event"",""trial"",""time""
""fullscreenenter"",""1"",""2975""
","
","","","5039.100000000093","[""SPACE""]","0","19","13366","5791","","","","","","","","","","","","","","","","","","",""
"pit-instructions","104","811743","0.0-2.0-20.0-1.0","battery-v0.2","","""event"",""trial"",""time""
""fullscreenenter"",""1"",""2975""
","
","
","""event"",""trial"",""time""
""fullscreenenter"",""1"",""2975""
","
","","[{""page_index"":0,""viewing_time"":2511.399999999907}]","2511.600000000093","","","","","","","","","","","","","","","","","","","","","","","",""
"pit-comprehension","105","818767","0.0-2.0-21.0-0.0","battery-v0.2","","""event"",""trial"",""time""
""fullscreenenter"",""1"",""2975""
","
","
","""event"",""trial"",""time""
""fullscreenenter"",""1"",""2975""
","
","","","7021.5","[""10""]","0","19","13366","5791","","","","","","","","","","","","","","","","","","",""
"pit-instructions","106","820279","0.0-2.0-21.0-1.0","battery-v0.2","","""event"",""trial"",""time""
""fullscreenenter"",""1"",""2975""
","
","
","""event"",""trial"",""time""
""fullscreenenter"",""1"",""2975""
","
","","[{""page_index"":0,""viewing_time"":1474.7999999998137}]","1475","","","","","","","","","","","","","","","","","","","","","","","",""
"pit-comprehension","107","827443","0.0-2.0-22.0-0.0","battery-v0.2","","""event"",""trial"",""time""
""fullscreenenter"",""1"",""2975""
","
","
","""event"",""trial"",""time""
""fullscreenenter"",""1"",""2975""
","
","","","7161.899999999907","[""0""]","0","19","13366","5791","","","","","","","","","","","","","","","","","","",""
"pit-instructions","108","828942","0.0-2.0-22.0-1.0","battery-v0.2","","""event"",""trial"",""time""
""fullscreenenter"",""1"",""2975""
","
","
","""event"",""trial"",""time""
""fullscreenenter"",""1"",""2975""
","
","","[{""page_index"":0,""viewing_time"":1460.5999999996275}]","1460.8999999999069","","","","","","","","","","","","","","","","","","","","","","","",""
"pit-comprehension","109","840239","0.0-2.0-23.0-0.0","battery-v0.2","","""event"",""trial"",""time""
""fullscreenenter"",""1"",""2975""
","
","
","""event"",""trial"",""time""
""fullscreenenter"",""1"",""2975""
","
","","","11294.700000000186","[""True""]","0","19","13366","5791","","","","","","","","","","","","","","","","","","",""
"pit-instructions","110","841717","0.0-2.0-23.0-1.0","battery-v0.2","","""event"",""trial"",""time""
""fullscreenenter"",""1"",""2975""
","
","
","""event"",""trial"",""time""
""fullscreenenter"",""1"",""2975""
","
","","[{""page_index"":0,""viewing_time"":1438.3999999999069}]","1438.6000000000931","","","","","","","","","","","","","","","","","","","","","","","",""
"pit-comprehension","111","849825","0.0-2.0-24.0-0.0","battery-v0.2","","""event"",""trial"",""time""
""fullscreenenter"",""1"",""2975""
","
","
","""event"",""trial"",""time""
""fullscreenenter"",""1"",""2975""
","
","","","8105.4000000003725","[""True""]","0","19","13366","5791","","","","","","","","","","","","","","","","","","",""
"pit-instructions","112","851278","0.0-2.0-24.0-1.0","battery-v0.2","","""event"",""trial"",""time""
""fullscreenenter"",""1"",""2975""
","
","
","""event"",""trial"",""time""
""fullscreenenter"",""1"",""2975""
","
","","[{""page_index"":0,""viewing_time"":1415}]","1415.1999999997206","","","","","","","","","","","","","","","","","","","","","","","",""
"pit-comprehension","113","858026","0.0-2.0-25.0-0.0","battery-v0.2","","""event"",""trial"",""time""
""fullscreenenter"",""1"",""2975""
","
","
","""event"",""trial"",""time""
""fullscreenenter"",""1"",""2975""
","
","","","6746.200000000186","[""True""]","0","19","13366","5791","","","","","","","","","","","","","","","","","","",""
"pit-instructions","114","859523","0.0-2.0-25.0-1.0","battery-v0.2","","""event"",""trial"",""time""
""fullscreenenter"",""1"",""2975""
","
","
","""event"",""trial"",""time""
""fullscreenenter"",""1"",""2975""
","
","","[{""page_index"":0,""viewing_time"":1455.7999999998137}]","1455.8999999999069","","","","","","","","","","","","","","","","","","","","","","","",""
"pit-comprehension","115","866614","0.0-2.0-26.0-0.0","battery-v0.2","","""event"",""trial"",""time""
""fullscreenenter"",""1"",""2975""
","
","
","""event"",""trial"",""time""
""fullscreenenter"",""1"",""2975""
","
","","","7088.600000000093","[""False""]","0","19","13366","5791","","","","","","","","","","","","","","","","","","",""
"pit-instructions","116","868095","0.0-2.0-26.0-1.0","battery-v0.2","","""event"",""trial"",""time""
""fullscreenenter"",""1"",""2975""
","
","
","""event"",""trial"",""time""
""fullscreenenter"",""1"",""2975""
","
","","[{""page_index"":0,""viewing_time"":1439.7999999998137}]","1440","","","","","","","","","","","","","","","","","","","","","","","",""
"pit-instructions","117","884770","0.0-3.0","battery-v0.2","","""event"",""trial"",""time""
""fullscreenenter"",""1"",""2975""
","
","
","""event"",""trial"",""time""
""fullscreenenter"",""1"",""2975""
","
","","[{""page_index"":0,""viewing_time"":3993.100000000093},{""page_index"":1,""viewing_time"":5038.899999999907},{""page_index"":2,""viewing_time"":7641.600000000093}]","16673.799999999814","","","","","","","","","","","","","","","","","","","","","","","",""
"pit-trial","118","888268","0.0-4.0","battery-v0.2","","""event"",""trial"",""time""
""fullscreenenter"",""1"",""2975""
","
","
","""event"",""trial"",""time""
""fullscreenenter"",""1"",""2975""
","
","","","639.2000000001863","","","19","13366","5791","&#9752;","elianto","#f73b6a7A"," "," ","1","0","[1492.5]","1","1","","","13366","1","3","3","lose","go","0"
"pit-trial","119","891651","0.0-5.0","battery-v0.2","","""event"",""trial"",""time""
""fullscreenenter"",""1"",""2975""
","
","
","""event"",""trial"",""time""
""fullscreenenter"",""1"",""2975""
","
","","","518.8999999999069","","","19","13366","5791","&#9730;","elianto","#3366ff99"," "," ","1","+10","[1377.5999999996275]","1","1","","","13366","2","1","1","win","go","0"
"pit-trial","120","895069","0.0-6.0","battery-v0.2","","""event"",""trial"",""time""
""fullscreenenter"",""1"",""2975""
","
","
","""event"",""trial"",""time""
""fullscreenenter"",""1"",""2975""
","
","","","558.6000000000931","","","19","13366","5791","&#9728;","elianto","#f73b6a7A","-1"," ","0","-10","[1408.7000000001863]","1","1","","","13366","3","0","4","lose","no-go","0"
"pit-trial","121","898419","0.0-7.0","battery-v0.2","","""event"",""trial"",""time""
""fullscreenenter"",""1"",""2975""
","
","
","""event"",""trial"",""time""
""fullscreenenter"",""1"",""2975""
","
","","","489.5","","","19","13366","5791","&#9733;","elianto","#3366ff99","-1"," ","0","0","[1343.8999999999069]","1","1","","","13366","4","2","2","win","no-go","0"
"pit-trial","122","901883","0.0-8.0","battery-v0.2","","""event"",""trial"",""time""
""fullscreenenter"",""1"",""2975""
","
","
","""event"",""trial"",""time""
""fullscreenenter"",""1"",""2975""
","
","","","595.8999999999069","","","19","13366","5791","&#9728;","elianto","#f73b6a7A","-1"," ","0","-10","[1456.8999999999069]","1","1","","","13366","5","0","4","lose","no-go","0"
"pit-trial","123","905194","0.0-9.0","battery-v0.2","","""event"",""trial"",""time""
""fullscreenenter"",""1"",""2975""
","
","
","""event"",""trial"",""time""
""fullscreenenter"",""1"",""2975""
","
","","","443","","","19","13366","5791","&#9730;","elianto","#3366ff99"," "," ","1","+10","[1301]","1","1","","","13366","6","1","1","win","go","0"
"pit-trial","124","908652","0.0-10.0","battery-v0.2","","""event"",""trial"",""time""
""fullscreenenter"",""1"",""2975""
","
","
","""event"",""trial"",""time""
""fullscreenenter"",""1"",""2975""
","
","","","597.8000000002794","","","19","13366","5791","&#9733;","elianto","#3366ff99","-1"," ","0","0","[1450.7000000001863]","1","1","","","13366","7","2","2","win","no-go","0"
"pit-trial","125","911999","0.0-11.0","battery-v0.2","","""event"",""trial"",""time""
""fullscreenenter"",""1"",""2975""
","
","
","""event"",""trial"",""time""
""fullscreenenter"",""1"",""2975""
","
","","","491.6999999997206","","","19","13366","5791","&#9752;","elianto","#f73b6a7A"," "," ","1","0","[1341.9000000003725]","1","1","","","13366","8","3","3","lose","go","0"
"pit-trial","126","915403","0.0-12.0","battery-v0.2","","""event"",""trial"",""time""
""fullscreenenter"",""1"",""2975""
","
","
","""event"",""trial"",""time""
""fullscreenenter"",""1"",""2975""
","
","","","546.3000000002794","","","19","13366","5791","&#9733;","elianto","#3366ff99","-1"," ","0","+10","[1402.7000000001863]","1","1","","","13366","9","2","2","win","no-go","1"
"pit-trial","127","920257","0.0-13.0","battery-v0.2","","""event"",""trial"",""time""
""fullscreenenter"",""1"",""2975""
","
","
","""event"",""trial"",""time""
""fullscreenenter"",""1"",""2975""
","
","","","-1","","","19","13366","5791","&#9728;","elianto","#f73b6a7A","-1","-1","1","0","[]","0","1","","","13366","10","0","4","lose","no-go","0"
"pit-trial","128","923917","0.0-14.0","battery-v0.2","","""event"",""trial"",""time""
""fullscreenenter"",""1"",""2975""
","
","
","""event"",""trial"",""time""
""fullscreenenter"",""1"",""2975""
","
","","","806.3999999999069","","","19","13366","5791","&#9730;","elianto","#3366ff99"," "," ","1","0","[1657.5]","1","1","","","13366","11","1","1","win","go","1"
"pit-trial","129","928778","0.0-15.0","battery-v0.2","","""event"",""trial"",""time""
""fullscreenenter"",""1"",""2975""
","
","
","""event"",""trial"",""time""
""fullscreenenter"",""1"",""2975""
","
","","","-1","","","19","13366","5791","&#9752;","elianto","#f73b6a7A"," ","-1","0","0","[]","0","1","","","13366","12","3","3","lose","go","1"
"pit-trial","130","933639","0.0-16.0","battery-v0.2","","""event"",""trial"",""time""
""fullscreenenter"",""1"",""2975""
","
","
","""event"",""trial"",""time""
""fullscreenenter"",""1"",""2975""
","
","","","-1","","","19","13366","5791","&#9752;","elianto","#f73b6a7A"," ","-1","0","0","[]","0","1","","","13366","13","3","3","lose","go","1"
"pit-trial","131","937283","0.0-17.0","battery-v0.2","","""event"",""trial"",""time""
""fullscreenenter"",""1"",""2975""
","
","
","""event"",""trial"",""time""
""fullscreenenter"",""1"",""2975""
","
","","","791.3000000002794","","","19","13366","5791","&#9728;","elianto","#f73b6a7A","-1"," ","0","0","[1642.2000000001863]","1","1","","","13366","14","0","4","lose","no-go","1"
"pit-trial","132","940704","0.0-18.0","battery-v0.2","","""event"",""trial"",""time""
""fullscreenenter"",""1"",""2975""
","
","
","""event"",""trial"",""time""
""fullscreenenter"",""1"",""2975""
","
","","","567.8000000002794","","","19","13366","5791","&#9730;","elianto","#3366ff99"," "," ","1","+10","[1418.5]","1","1","","","13366","15","1","1","win","go","0"
"pit-trial","133","944253","0.0-19.0","battery-v0.2","","""event"",""trial"",""time""
""fullscreenenter"",""1"",""2975""
","
","
","""event"",""trial"",""time""
""fullscreenenter"",""1"",""2975""
","
","","","696.2000000001863","","","19","13366","5791","&#9733;","elianto","#3366ff99","-1"," ","0","0","[1547.1000000000931]","1","1","","","13366","16","2","2","win","no-go","0"
"pit-trial","134","949109","0.0-20.0","battery-v0.2","","""event"",""trial"",""time""
""fullscreenenter"",""1"",""2975""
","
","
","""event"",""trial"",""time""
""fullscreenenter"",""1"",""2975""
","
","","","-1","","","19","13366","5791","&#9752;","elianto","#f73b6a7A"," ","-1","0","-10","[3672.100000000093]","1","1","","","13366","17","3","3","lose","go","0"
"pit-trial","135","952563","0.0-21.0","battery-v0.2","","""event"",""trial"",""time""
""fullscreenenter"",""1"",""2975""
","
","
","""event"",""trial"",""time""
""fullscreenenter"",""1"",""2975""
","
","","","600.8999999999069","","","19","13366","5791","&#9730;","elianto","#3366ff99"," "," ","1","+10","[1451.5]","1","1","","","13366","18","1","1","win","go","0"
"pit-trial","136","955999","0.0-22.0","battery-v0.2","","""event"",""trial"",""time""
""fullscreenenter"",""1"",""2975""
","
","
","""event"",""trial"",""time""
""fullscreenenter"",""1"",""2975""
","
","","","583.6000000000931","","","19","13366","5791","&#9733;","elianto","#3366ff99","-1"," ","0","0","[1433.8000000002794]","1","1","","","13366","19","2","2","win","no-go","0"
"pit-trial","137","960852","0.0-23.0","battery-v0.2","","""event"",""trial"",""time""
""fullscreenenter"",""1"",""2975""
","
","
","""event"",""trial"",""time""
""fullscreenenter"",""1"",""2975""
","
","","","-1","","","19","13366","5791","&#9728;","elianto","#f73b6a7A","-1","-1","1","-10","[3364.100000000093]","1","1","","","13366","20","0","4","lose","no-go","1"
"pit-instructions","138","977148","0.0-24.0","battery-v0.2","","""event"",""trial"",""time""
""fullscreenenter"",""1"",""2975""
","
","
","""event"",""trial"",""time""
""fullscreenenter"",""1"",""2975""
","
","","[{""page_index"":0,""viewing_time"":6067},{""page_index"":1,""viewing_time"":10228.19999999972}]","16295.399999999907","","","","","","","","","","","","","","","","","","","","","","","",""
"pit-trial","139","980639","0.0-25.0","battery-v0.2","","""event"",""trial"",""time""
""fullscreenenter"",""1"",""2975""
","
","
","""event"",""trial"",""time""
""fullscreenenter"",""1"",""2975""
","
","","","631.6000000000931","","","19","13366","5791","l","elianto","#3366ff99"," "," ","1","+10","[1481.6999999997206]","1","2","","","13366","21","1","1","win","go","0"
"pit-trial","140","984500","0.0-26.0","battery-v0.2","","""event"",""trial"",""time""
""fullscreenenter"",""1"",""2975""
","
","
","""event"",""trial"",""time""
""fullscreenenter"",""1"",""2975""
","
","","","1001.3999999999069","","","19","13366","5791","u","elianto","#f73b6a7A","-1"," ","0","-10","[1854.3999999999069]","1","2","","","13366","22","0","4","lose","no-go","0"
"pit-trial","141","989372","0.0-27.0","battery-v0.2","","""event"",""trial"",""time""
""fullscreenenter"",""1"",""2975""
","
","
","""event"",""trial"",""time""
""fullscreenenter"",""1"",""2975""
","
","","","-1","","","19","13366","5791","a","elianto","#f73b6a7A","-1","-1","1","0","[]","0","2","","","13366","23","2","4","lose","no-go","0"
"pit-trial","142","994235","0.0-28.0","battery-v0.2","","""event"",""trial"",""time""
""fullscreenenter"",""1"",""2975""
","
","
","""event"",""trial"",""time""
""fullscreenenter"",""1"",""2975""
","
","","","-1","","","19","13366","5791","g","elianto","#f73b6a7A"," ","-1","0","-10","[3292.600000000093]","1","2","","","13366","24","3","3","lose","go","0"
"pit-trial","143","997891","0.0-29.0","battery-v0.2","","""event"",""trial"",""time""
""fullscreenenter"",""1"",""2975""
","
","
","""event"",""trial"",""time""
""fullscreenenter"",""1"",""2975""
","
","","","788.2000000001863","","","19","13366","5791","a","elianto","#f73b6a7A","-1"," ","0","-10","[1648.8999999999069]","1","2","","","13366","25","2","4","lose","no-go","0"
"pit-trial","144","1002750","0.0-30.0","battery-v0.2","","""event"",""trial"",""time""
""fullscreenenter"",""1"",""2975""
","
","
","""event"",""trial"",""time""
""fullscreenenter"",""1"",""2975""
","
","","","-1","","","19","13366","5791","u","elianto","#f73b6a7A","-1","-1","1","0","[]","0","2","","","13366","26","0","4","lose","no-go","0"
"pit-trial","145","1006201","0.0-31.0","battery-v0.2","","""event"",""trial"",""time""
""fullscreenenter"",""1"",""2975""
","
","
","""event"",""trial"",""time""
""fullscreenenter"",""1"",""2975""
","
","","","582.5","","","19","13366","5791","l","elianto","#3366ff99"," "," ","1","+10","[1433.5999999996275]","1","2","","","13366","27","1","1","win","go","0"
"pit-trial","146","1010028","0.0-32.0","battery-v0.2","","""event"",""trial"",""time""
""fullscreenenter"",""1"",""2975""
","
","
","""event"",""trial"",""time""
""fullscreenenter"",""1"",""2975""
","
","","","974.7999999998137","","","19","13366","5791","g","elianto","#f73b6a7A"," "," ","1","0","[1825]","1","2","","","13366","28","3","3","lose","go","0"
"pit-trial","147","1014881","0.0-33.0","battery-v0.2","","""event"",""trial"",""time""
""fullscreenenter"",""1"",""2975""
","
","
","""event"",""trial"",""time""
""fullscreenenter"",""1"",""2975""
","
","","","-1","","","19","13366","5791","a","elianto","#f73b6a7A","-1","-1","1","0","[]","0","2","","","13366","29","2","4","lose","no-go","0"
"pit-trial","148","1018641","0.0-34.0","battery-v0.2","","""event"",""trial"",""time""
""fullscreenenter"",""1"",""2975""
","
","
","""event"",""trial"",""time""
""fullscreenenter"",""1"",""2975""
","
","","","907","","","19","13366","5791","g","elianto","#f73b6a7A"," "," ","1","0","[1757.8999999999069]","1","2","","","13366","30","3","3","lose","go","0"
"pit-trial","149","1021986","0.0-35.0","battery-v0.2","","""event"",""trial"",""time""
""fullscreenenter"",""1"",""2975""
","
","
","""event"",""trial"",""time""
""fullscreenenter"",""1"",""2975""
","
","","","491.6999999997206","","","19","13366","5791","l","elianto","#3366ff99"," "," ","1","0","[1342.7999999998137]","1","2","","","13366","31","1","1","win","go","1"
"pit-trial","150","1026837","0.0-36.0","battery-v0.2","","""event"",""trial"",""time""
""fullscreenenter"",""1"",""2975""
","
","
","""event"",""trial"",""time""
""fullscreenenter"",""1"",""2975""
","
","","","-1","","","19","13366","5791","u","elianto","#f73b6a7A","-1","-1","1","0","[]","0","2","","","13366","32","0","4","lose","no-go","0"
"pit-trial","151","1031696","0.0-37.0","battery-v0.2","","""event"",""trial"",""time""
""fullscreenenter"",""1"",""2975""
","
","
","""event"",""trial"",""time""
""fullscreenenter"",""1"",""2975""
","
","","","-1","","","19","13366","5791","u","elianto","#f73b6a7A","-1","-1","1","0","[]","0","2","","","13366","33","0","4","lose","no-go","0"
"pit-trial","152","1036549","0.0-38.0","battery-v0.2","","""event"",""trial"",""time""
""fullscreenenter"",""1"",""2975""
","
","
","""event"",""trial"",""time""
""fullscreenenter"",""1"",""2975""
","
","","","-1","","","19","13366","5791","a","elianto","#f73b6a7A","-1","-1","1","0","[]","0","2","","","13366","34","2","4","lose","no-go","0"
"pit-trial","153","1040085","0.0-39.0","battery-v0.2","","""event"",""trial"",""time""
""fullscreenenter"",""1"",""2975""
","
","
","""event"",""trial"",""time""
""fullscreenenter"",""1"",""2975""
","
","","","682.1999999997206","","","19","13366","5791","g","elianto","#f73b6a7A"," "," ","1","0","[1534]","1","2","","","13366","35","3","3","lose","go","0"
"pit-trial","154","1043523","0.0-40.0","battery-v0.2","","""event"",""trial"",""time""
""fullscreenenter"",""1"",""2975""
","
","
","""event"",""trial"",""time""
""fullscreenenter"",""1"",""2975""
","
","","","585.3999999999069","","","19","13366","5791","l","elianto","#3366ff99"," "," ","1","+10","[1436.6999999997206]","1","2","","","13366","36","1","1","win","go","0"
"pit-trial","155","1047092","0.0-41.0","battery-v0.2","","""event"",""trial"",""time""
""fullscreenenter"",""1"",""2975""
","
","
","""event"",""trial"",""time""
""fullscreenenter"",""1"",""2975""
","
","","","716.6000000000931","","","19","13366","5791","g","elianto","#f73b6a7A"," "," ","1","0","[1566.6000000000931]","1","2","","","13366","37","3","3","lose","go","0"
"pit-trial","156","1051944","0.0-42.0","battery-v0.2","","""event"",""trial"",""time""
""fullscreenenter"",""1"",""2975""
","
","
","""event"",""trial"",""time""
""fullscreenenter"",""1"",""2975""
","
","","","-1","","","19","13366","5791","u","elianto","#f73b6a7A","-1","-1","1","0","[]","0","2","","","13366","38","0","4","lose","no-go","0"
"pit-trial","157","1056805","0.0-43.0","battery-v0.2","","""event"",""trial"",""time""
""fullscreenenter"",""1"",""2975""
","
","
","""event"",""trial"",""time""
""fullscreenenter"",""1"",""2975""
","
","","","-1","","","19","13366","5791","a","elianto","#f73b6a7A","-1","-1","1","0","[]","0","2","","","13366","39","2","4","lose","no-go","0"
"pit-trial","158","1060351","0.0-44.0","battery-v0.2","","""event"",""trial"",""time""
""fullscreenenter"",""1"",""2975""
","
","
","""event"",""trial"",""time""
""fullscreenenter"",""1"",""2975""
","
","","","692.6000000000931","","","19","13366","5791","l","elianto","#3366ff99"," "," ","1","+10","[1543.3000000002794]","1","2","","","13366","40","1","1","win","go","0"
"pit-trial","159","1065233","0.0-45.0","battery-v0.2","","""event"",""trial"",""time""
""fullscreenenter"",""1"",""2975""
","
","
","""event"",""trial"",""time""
""fullscreenenter"",""1"",""2975""
","
","","","-1","","","19","13366","5791","a","elianto","#f73b6a7A","-1","-1","1","0","[]","0","2","","","13366","41","2","4","lose","no-go","0"
"pit-trial","160","1068663","0.0-46.0","battery-v0.2","","""event"",""trial"",""time""
""fullscreenenter"",""1"",""2975""
","
","
","""event"",""trial"",""time""
""fullscreenenter"",""1"",""2975""
","
","","","577.7000000001863","","","19","13366","5791","g","elianto","#f73b6a7A"," "," ","1","0","[1428.1000000000931]","1","2","","","13366","42","3","3","lose","go","0"
"pit-trial","161","1072076","0.0-47.0","battery-v0.2","","""event"",""trial"",""time""
""fullscreenenter"",""1"",""2975""
","
","
","""event"",""trial"",""time""
""fullscreenenter"",""1"",""2975""
","
","","","559.5","","","19","13366","5791","l","elianto","#3366ff99"," "," ","1","+10","[1411]","1","2","","","13366","43","1","1","win","go","0"
"pit-trial","162","1076935","0.0-48.0","battery-v0.2","","""event"",""trial"",""time""
""fullscreenenter"",""1"",""2975""
","
","
","""event"",""trial"",""time""
""fullscreenenter"",""1"",""2975""
","
","","","-1","","","19","13366","5791","u","elianto","#f73b6a7A","-1","-1","1","0","[]","0","2","","","13366","44","0","4","lose","no-go","0"
"pit-trial","163","1081788","0.0-49.0","battery-v0.2","","""event"",""trial"",""time""
""fullscreenenter"",""1"",""2975""
","
","
","""event"",""trial"",""time""
""fullscreenenter"",""1"",""2975""
","
","","","-1","","","19","13366","5791","a","elianto","#f73b6a7A","-1","-1","1","0","[]","0","2","","","13366","45","2","4","lose","no-go","0"
"pit-trial","164","1085379","0.0-50.0","battery-v0.2","","""event"",""trial"",""time""
""fullscreenenter"",""1"",""2975""
","
","
","""event"",""trial"",""time""
""fullscreenenter"",""1"",""2975""
","
","","","725.6999999997206","","","19","13366","5791","g","elianto","#f73b6a7A"," "," ","1","0","[1576.1999999997206]","1","2","","","13366","46","3","3","lose","go","0"
"pit-trial","165","1089064","0.0-51.0","battery-v0.2","","""event"",""trial"",""time""
""fullscreenenter"",""1"",""2975""
","
","
","""event"",""trial"",""time""
""fullscreenenter"",""1"",""2975""
","
","","","831.6999999997206","","","19","13366","5791","p","elianto","#3366ff99","-1"," ","0","0","[1681.8999999999069]","1","2","","","13366","47","4","2","win","no-go","0"
"pit-trial","166","1093920","0.0-52.0","battery-v0.2","","""event"",""trial"",""time""
""fullscreenenter"",""1"",""2975""
","
","
","""event"",""trial"",""time""
""fullscreenenter"",""1"",""2975""
","
","","","-1","","","19","13366","5791","u","elianto","#f73b6a7A","-1","-1","1","0","[]","0","2","","","13366","48","0","4","lose","no-go","0"
"pit-trial","167","1098773","0.0-53.0","battery-v0.2","","""event"",""trial"",""time""
""fullscreenenter"",""1"",""2975""
","
","
","""event"",""trial"",""time""
""fullscreenenter"",""1"",""2975""
","
","","","-1","","","19","13366","5791","u","elianto","#f73b6a7A","-1","-1","1","-10","[3467.9000000003725]","1","2","","","13366","49","0","4","lose","no-go","1"
"pit-trial","168","1102196","0.0-54.0","battery-v0.2","","""event"",""trial"",""time""
""fullscreenenter"",""1"",""2975""
","
","
","""event"",""trial"",""time""
""fullscreenenter"",""1"",""2975""
","
","","","570.4000000003725","","","19","13366","5791","g","elianto","#f73b6a7A"," "," ","1","0","[1420.8000000002794]","1","2","","","13366","50","3","3","lose","go","0"
"pit-trial","169","1105624","0.0-55.0","battery-v0.2","","""event"",""trial"",""time""
""fullscreenenter"",""1"",""2975""
","
","
","""event"",""trial"",""time""
""fullscreenenter"",""1"",""2975""
","
","","","576.3999999999069","","","19","13366","5791","l","elianto","#3366ff99"," "," ","1","+10","[1426.7999999998137]","1","2","","","13366","51","1","1","win","go","0"
"pit-trial","170","1109256","0.0-56.0","battery-v0.2","","""event"",""trial"",""time""
""fullscreenenter"",""1"",""2975""
","
","
","""event"",""trial"",""time""
""fullscreenenter"",""1"",""2975""
","
","","","778.1000000000931","","","19","13366","5791","p","elianto","#3366ff99","-1"," ","0","+10","[1628.8000000002794]","1","2","","","13366","52","4","2","win","no-go","1"
"pit-trial","171","1114109","0.0-57.0","battery-v0.2","","""event"",""trial"",""time""
""fullscreenenter"",""1"",""2975""
","
","
","""event"",""trial"",""time""
""fullscreenenter"",""1"",""2975""
","
","","","-1","","","19","13366","5791","u","elianto","#f73b6a7A","-1","-1","1","0","[]","0","2","","","13366","53","0","4","lose","no-go","0"
"pit-trial","172","1117590","0.0-58.0","battery-v0.2","","""event"",""trial"",""time""
""fullscreenenter"",""1"",""2975""
","
","
","""event"",""trial"",""time""
""fullscreenenter"",""1"",""2975""
","
","","","627.8000000002794","","","19","13366","5791","p","elianto","#3366ff99","-1"," ","0","0","[1479.3999999999069]","1","2","","","13366","54","4","2","win","no-go","0"
"pit-trial","173","1120992","0.0-59.0","battery-v0.2","","""event"",""trial"",""time""
""fullscreenenter"",""1"",""2975""
","
","
","""event"",""trial"",""time""
""fullscreenenter"",""1"",""2975""
","
","","","549.2999999998137","","","19","13366","5791","l","elianto","#3366ff99"," "," ","1","+10","[1399.5]","1","2","","","13366","55","1","1","win","go","0"
"pit-trial","174","1125846","0.0-60.0","battery-v0.2","","""event"",""trial"",""time""
""fullscreenenter"",""1"",""2975""
","
","
","""event"",""trial"",""time""
""fullscreenenter"",""1"",""2975""
","
","","","-1","","","19","13366","5791","a","elianto","#f73b6a7A","-1","-1","1","0","[]","0","2","","","13366","56","2","4","lose","no-go","0"
"pit-trial","175","1129465","0.0-61.0","battery-v0.2","","""event"",""trial"",""time""
""fullscreenenter"",""1"",""2975""
","
","
","""event"",""trial"",""time""
""fullscreenenter"",""1"",""2975""
","
","","","766.7000000001863","","","19","13366","5791","g","elianto","#f73b6a7A"," "," ","1","0","[1617.7999999998137]","1","2","","","13366","57","3","3","lose","go","0"
"pit-trial","176","1132972","0.0-62.0","battery-v0.2","","""event"",""trial"",""time""
""fullscreenenter"",""1"",""2975""
","
","
","""event"",""trial"",""time""
""fullscreenenter"",""1"",""2975""
","
","","","655.0999999996275","","","19","13366","5791","l","elianto","#3366ff99"," "," ","1","+10","[1505.7999999998137]","1","2","","","13366","58","1","1","win","go","0"
"pit-trial","177","1136283","0.0-63.0","battery-v0.2","","""event"",""trial"",""time""
""fullscreenenter"",""1"",""2975""
","
","
","""event"",""trial"",""time""
""fullscreenenter"",""1"",""2975""
","
","","","456.8000000002794","","","19","13366","5791","p","elianto","#3366ff99","-1"," ","0","0","[1308.6000000000931]","1","2","","","13366","59","4","2","win","no-go","0"
"pit-trial","178","1141136","0.0-64.0","battery-v0.2","","""event"",""trial"",""time""
""fullscreenenter"",""1"",""2975""
","
","
","""event"",""trial"",""time""
""fullscreenenter"",""1"",""2975""
","
","","","-1","","","19","13366","5791","u","elianto","#f73b6a7A","-1","-1","1","0","[]","0","2","","","13366","60","0","4","lose","no-go","0"
"pit-trial","179","1144633","0.0-65.0","battery-v0.2","","""event"",""trial"",""time""
""fullscreenenter"",""1"",""2975""
","
","
","""event"",""trial"",""time""
""fullscreenenter"",""1"",""2975""
","
","","","645.1999999997206","","","19","13366","5791","g","elianto","#f73b6a7A"," "," ","1","0","[1495.5999999996275]","1","2","","","13366","61","3","3","lose","go","0"
"pit-trial","180","1149486","0.0-66.0","battery-v0.2","","""event"",""trial"",""time""
""fullscreenenter"",""1"",""2975""
","
","
","""event"",""trial"",""time""
""fullscreenenter"",""1"",""2975""
","
","","","-1","","","19","13366","5791","a","elianto","#f73b6a7A","-1","-1","1","0","[]","0","2","","","13366","62","2","4","lose","no-go","0"
"pit-trial","181","1152920","0.0-67.0","battery-v0.2","","""event"",""trial"",""time""
""fullscreenenter"",""1"",""2975""
","
","
","""event"",""trial"",""time""
""fullscreenenter"",""1"",""2975""
","
","","","581.6000000000931","","","19","13366","5791","p","elianto","#3366ff99","-1"," ","0","0","[1432]","1","2","","","13366","63","4","2","win","no-go","0"
"pit-trial","182","1156382","0.0-68.0","battery-v0.2","","""event"",""trial"",""time""
""fullscreenenter"",""1"",""2975""
","
","
","""event"",""trial"",""time""
""fullscreenenter"",""1"",""2975""
","
","","","610.3999999999069","","","19","13366","5791","l","elianto","#3366ff99"," "," ","1","+10","[1460.8999999999069]","1","2","","","13366","64","1","1","win","go","0"
"pit-trial","183","1159947","0.0-69.0","battery-v0.2","","""event"",""trial"",""time""
""fullscreenenter"",""1"",""2975""
","
","
","""event"",""trial"",""time""
""fullscreenenter"",""1"",""2975""
","
","","","711.7000000001863","","","19","13366","5791","g","elianto","#f73b6a7A"," "," ","1","0","[1563]","1","2","","","13366","65","3","3","lose","go","0"
"pit-trial","184","1164801","0.0-70.0","battery-v0.2","","""event"",""trial"",""time""
""fullscreenenter"",""1"",""2975""
","
","
","""event"",""trial"",""time""
""fullscreenenter"",""1"",""2975""
","
","","","-1","","","19","13366","5791","a","elianto","#f73b6a7A","-1","-1","1","-10","[3436.100000000093]","1","2","","","13366","66","2","4","lose","no-go","1"
"pit-trial","185","1168182","0.0-71.0","battery-v0.2","","""event"",""trial"",""time""
""fullscreenenter"",""1"",""2975""
","
","
","""event"",""trial"",""time""
""fullscreenenter"",""1"",""2975""
","
","","","528.8000000002794","","","19","13366","5791","l","elianto","#3366ff99"," "," ","1","+10","[1379.2000000001863]","1","2","","","13366","67","1","1","win","go","0"
"pit-trial","186","1171559","0.0-72.0","battery-v0.2","","""event"",""trial"",""time""
""fullscreenenter"",""1"",""2975""
","
","
","""event"",""trial"",""time""
""fullscreenenter"",""1"",""2975""
","
","","","525.1000000000931","","","19","13366","5791","p","elianto","#3366ff99","-1"," ","0","0","[1375.3000000002794]","1","2","","","13366","68","4","2","win","no-go","0"
"pit-trial","187","1175076","0.0-73.0","battery-v0.2","","""event"",""trial"",""time""
""fullscreenenter"",""1"",""2975""
","
","
","""event"",""trial"",""time""
""fullscreenenter"",""1"",""2975""
","
","","","663.6000000000931","","","19","13366","5791","g","elianto","#f73b6a7A"," "," ","1","-10","[1513.8000000002794]","1","2","","","13366","69","3","3","lose","go","1"
"pit-trial","188","1178644","0.0-74.0","battery-v0.2","","""event"",""trial"",""time""
""fullscreenenter"",""1"",""2975""
","
","
","""event"",""trial"",""time""
""fullscreenenter"",""1"",""2975""
","
","","","715.7000000001863","","","19","13366","5791","s","elianto","#3366ff99"," "," ","1","+10","[1566.3000000002794]","1","2","","","13366","70","5","1","win","go","0"
"pit-trial","189","1181940","0.0-75.0","battery-v0.2","","""event"",""trial"",""time""
""fullscreenenter"",""1"",""2975""
","
","
","""event"",""trial"",""time""
""fullscreenenter"",""1"",""2975""
","
","","","443.29999999981374","","","19","13366","5791","p","elianto","#3366ff99","-1"," ","0","+10","[1293.8999999999069]","1","2","","","13366","71","4","2","win","no-go","1"
"pit-trial","190","1185243","0.0-76.0","battery-v0.2","","""event"",""trial"",""time""
""fullscreenenter"",""1"",""2975""
","
","
","""event"",""trial"",""time""
""fullscreenenter"",""1"",""2975""
","
","","","450","","","19","13366","5791","l","elianto","#3366ff99"," "," ","1","+10","[1301]","1","2","","","13366","72","1","1","win","go","0"
"pit-trial","191","1188597","0.0-77.0","battery-v0.2","","""event"",""trial"",""time""
""fullscreenenter"",""1"",""2975""
","
","
","""event"",""trial"",""time""
""fullscreenenter"",""1"",""2975""
","
","","","501.70000000018626","","","19","13366","5791","s","elianto","#3366ff99"," "," ","1","+10","[1352.1000000000931]","1","2","","","13366","73","5","1","win","go","0"
"pit-trial","192","1192068","0.0-78.0","battery-v0.2","","""event"",""trial"",""time""
""fullscreenenter"",""1"",""2975""
","
","
","""event"",""trial"",""time""
""fullscreenenter"",""1"",""2975""
","
","","","617.8999999999069","","","19","13366","5791","p","elianto","#3366ff99","-1"," ","0","0","[1468.6000000000931]","1","2","","","13366","74","4","2","win","no-go","0"
"pit-trial","193","1195745","0.0-79.0","battery-v0.2","","""event"",""trial"",""time""
""fullscreenenter"",""1"",""2975""
","
","
","""event"",""trial"",""time""
""fullscreenenter"",""1"",""2975""
","
","","","824.4000000003725","","","19","13366","5791","g","elianto","#f73b6a7A"," "," ","1","0","[1675.9000000003725]","1","2","","","13366","75","3","3","lose","go","0"
"pit-trial","194","1199017","0.0-80.0","battery-v0.2","","""event"",""trial"",""time""
""fullscreenenter"",""1"",""2975""
","
","
","""event"",""trial"",""time""
""fullscreenenter"",""1"",""2975""
","
","","","419.39999999990687","","","19","13366","5791","l","elianto","#3366ff99"," "," ","1","+10","[1270.2999999998137]","1","2","","","13366","76","1","1","win","go","0"
"pit-trial","195","1202249","0.0-81.0","battery-v0.2","","""event"",""trial"",""time""
""fullscreenenter"",""1"",""2975""
","
","
","""event"",""trial"",""time""
""fullscreenenter"",""1"",""2975""
","
","","","377.3000000002794","","","19","13366","5791","w","elianto","#f73b6a7A","-1"," ","0","-10","[1229]","1","2","","","13366","77","6","4","lose","no-go","0"
"pit-trial","196","1205763","0.0-82.0","battery-v0.2","","""event"",""trial"",""time""
""fullscreenenter"",""1"",""2975""
","
","
","""event"",""trial"",""time""
""fullscreenenter"",""1"",""2975""
","
","","","650.2999999998137","","","19","13366","5791","g","elianto","#f73b6a7A"," "," ","1","0","[1511.6999999997206]","1","2","","","13366","78","3","3","lose","go","0"
"pit-trial","197","1209199","0.0-83.0","battery-v0.2","","""event"",""trial"",""time""
""fullscreenenter"",""1"",""2975""
","
","
","""event"",""trial"",""time""
""fullscreenenter"",""1"",""2975""
","
","","","582.7999999998137","","","19","13366","5791","s","elianto","#3366ff99"," "," ","1","+10","[1432.7999999998137]","1","2","","","13366","79","5","1","win","go","0"
"pit-trial","198","1212391","0.0-84.0","battery-v0.2","","""event"",""trial"",""time""
""fullscreenenter"",""1"",""2975""
","
","
","""event"",""trial"",""time""
""fullscreenenter"",""1"",""2975""
","
","","","327.5","","","19","13366","5791","p","elianto","#3366ff99","-1"," ","0","0","[1178.2000000001863]","1","2","","","13366","80","4","2","win","no-go","0"
"pit-trial","199","1215685","0.0-85.0","battery-v0.2","","""event"",""trial"",""time""
""fullscreenenter"",""1"",""2975""
","
","
","""event"",""trial"",""time""
""fullscreenenter"",""1"",""2975""
","
","","","442.39999999990687","","","19","13366","5791","p","elianto","#3366ff99","-1"," ","0","+10","[1292.5]","1","2","","","13366","81","4","2","win","no-go","1"
"pit-trial","200","1219014","0.0-86.0","battery-v0.2","","""event"",""trial"",""time""
""fullscreenenter"",""1"",""2975""
","
","
","""event"",""trial"",""time""
""fullscreenenter"",""1"",""2975""
","
","","","475.60000000009313","","","19","13366","5791","s","elianto","#3366ff99"," "," ","1","0","[1327]","1","2","","","13366","82","5","1","win","go","1"
"pit-trial","201","1222279","0.0-87.0","battery-v0.2","","""event"",""trial"",""time""
""fullscreenenter"",""1"",""2975""
","
","
","""event"",""trial"",""time""
""fullscreenenter"",""1"",""2975""
","
","","","412.8000000002794","","","19","13366","5791","w","elianto","#f73b6a7A","-1"," ","0","0","[1263]","1","2","","","13366","83","6","4","lose","no-go","1"
"pit-trial","202","1225662","0.0-88.0","battery-v0.2","","""event"",""trial"",""time""
""fullscreenenter"",""1"",""2975""
","
","
","""event"",""trial"",""time""
""fullscreenenter"",""1"",""2975""
","
","","","528.3999999999069","","","19","13366","5791","e","elianto","#f73b6a7A"," "," ","1","0","[1379.7000000001863]","1","2","","","13366","84","7","3","lose","go","0"
"pit-trial","203","1228944","0.0-89.0","battery-v0.2","","""event"",""trial"",""time""
""fullscreenenter"",""1"",""2975""
","
","
","""event"",""trial"",""time""
""fullscreenenter"",""1"",""2975""
","
","","","429.5","","","19","13366","5791","p","elianto","#3366ff99","-1"," ","0","0","[1280.1000000000931]","1","2","","","13366","85","4","2","win","no-go","0"
"pit-trial","204","1232398","0.0-90.0","battery-v0.2","","""event"",""trial"",""time""
""fullscreenenter"",""1"",""2975""
","
","
","""event"",""trial"",""time""
""fullscreenenter"",""1"",""2975""
","
","","","602.7999999998137","","","19","13366","5791","e","elianto","#f73b6a7A"," "," ","1","0","[1452.8999999999069]","1","2","","","13366","86","7","3","lose","go","0"
"pit-trial","205","1235756","0.0-91.0","battery-v0.2","","""event"",""trial"",""time""
""fullscreenenter"",""1"",""2975""
","
","
","""event"",""trial"",""time""
""fullscreenenter"",""1"",""2975""
","
","","","504.1999999997206","","","19","13366","5791","s","elianto","#3366ff99"," "," ","1","+10","[1355.5]","1","2","","","13366","87","5","1","win","go","0"
"pit-trial","206","1239163","0.0-92.0","battery-v0.2","","""event"",""trial"",""time""
""fullscreenenter"",""1"",""2975""
","
","
","""event"",""trial"",""time""
""fullscreenenter"",""1"",""2975""
","
","","","554.3000000002794","","","19","13366","5791","w","elianto","#f73b6a7A","-1"," ","0","-10","[1404.8000000002794]","1","2","","","13366","88","6","4","lose","no-go","0"
"pit-trial","207","1244030","0.0-93.0","battery-v0.2","","""event"",""trial"",""time""
""fullscreenenter"",""1"",""2975""
","
","
","""event"",""trial"",""time""
""fullscreenenter"",""1"",""2975""
","
","","","-1","","","19","13366","5791","w","elianto","#f73b6a7A","-1","-1","1","0","[]","0","2","","","13366","89","6","4","lose","no-go","0"
"pit-trial","208","1248167","0.0-94.0","battery-v0.2","","""event"",""trial"",""time""
""fullscreenenter"",""1"",""2975""
","
","
","""event"",""trial"",""time""
""fullscreenenter"",""1"",""2975""
","
","","","1284.5","","","19","13366","5791","e","elianto","#f73b6a7A"," "," ","1","0","[2135.3000000002794]","1","2","","","13366","90","7","3","lose","go","0"
"pit-trial","209","1251531","0.0-95.0","battery-v0.2","","""event"",""trial"",""time""
""fullscreenenter"",""1"",""2975""
","
","
","""event"",""trial"",""time""
""fullscreenenter"",""1"",""2975""
","
","","","509.5","","","19","13366","5791","s","elianto","#3366ff99"," "," ","1","+10","[1361]","1","2","","","13366","91","5","1","win","go","0"
"pit-trial","210","1254935","0.0-96.0","battery-v0.2","","""event"",""trial"",""time""
""fullscreenenter"",""1"",""2975""
","
","
","""event"",""trial"",""time""
""fullscreenenter"",""1"",""2975""
","
","","","550.9000000003725","","","19","13366","5791","p","elianto","#3366ff99","-1"," ","0","+10","[1401.9000000003725]","1","2","","","13366","92","4","2","win","no-go","1"
"pit-trial","211","1259788","0.0-97.0","battery-v0.2","","""event"",""trial"",""time""
""fullscreenenter"",""1"",""2975""
","
","
","""event"",""trial"",""time""
""fullscreenenter"",""1"",""2975""
","
","","","-1","","","19","13366","5791","e","elianto","#f73b6a7A"," ","-1","0","0","[]","0","2","","","13366","93","7","3","lose","go","1"
"pit-trial","212","1264641","0.0-98.0","battery-v0.2","","""event"",""trial"",""time""
""fullscreenenter"",""1"",""2975""
","
","
","""event"",""trial"",""time""
""fullscreenenter"",""1"",""2975""
","
","","","-1","","","19","13366","5791","w","elianto","#f73b6a7A","-1","-1","1","0","[]","0","2","","","13366","94","6","4","lose","no-go","0"
"pit-trial","213","1268131","0.0-99.0","battery-v0.2","","""event"",""trial"",""time""
""fullscreenenter"",""1"",""2975""
","
","
","""event"",""trial"",""time""
""fullscreenenter"",""1"",""2975""
","
","","","637.8000000002794","","","19","13366","5791","d","elianto","#3366ff99","-1"," ","0","0","[1488.2000000001863]","1","2","","","13366","95","8","2","win","no-go","0"
"pit-trial","214","1271603","0.0-100.0","battery-v0.2","","""event"",""trial"",""time""
""fullscreenenter"",""1"",""2975""
","
","
","""event"",""trial"",""time""
""fullscreenenter"",""1"",""2975""
","
","","","617.3999999999069","","","19","13366","5791","s","elianto","#3366ff99"," "," ","1","+10","[1468.2999999998137]","1","2","","","13366","96","5","1","win","go","0"
"pit-trial","215","1276456","0.0-101.0","battery-v0.2","","""event"",""trial"",""time""
""fullscreenenter"",""1"",""2975""
","
","
","""event"",""trial"",""time""
""fullscreenenter"",""1"",""2975""
","
","","","-1","","","19","13366","5791","w","elianto","#f73b6a7A","-1","-1","1","0","[]","0","2","","","13366","97","6","4","lose","no-go","0"
"pit-trial","216","1279951","0.0-102.0","battery-v0.2","","""event"",""trial"",""time""
""fullscreenenter"",""1"",""2975""
","
","
","""event"",""trial"",""time""
""fullscreenenter"",""1"",""2975""
","
","","","642.8999999999069","","","19","13366","5791","s","elianto","#3366ff99"," "," ","1","+10","[1493.2000000001863]","1","2","","","13366","98","5","1","win","go","0"
"pit-trial","217","1283358","0.0-103.0","battery-v0.2","","""event"",""trial"",""time""
""fullscreenenter"",""1"",""2975""
","
","
","""event"",""trial"",""time""
""fullscreenenter"",""1"",""2975""
","
","","","555.2000000001863","","","19","13366","5791","d","elianto","#3366ff99","-1"," ","0","0","[1405.3999999999069]","1","2","","","13366","99","8","2","win","no-go","0"
"pit-trial","218","1288210","0.0-104.0","battery-v0.2","","""event"",""trial"",""time""
""fullscreenenter"",""1"",""2975""
","
","
","""event"",""trial"",""time""
""fullscreenenter"",""1"",""2975""
","
","","","-1","","","19","13366","5791","e","elianto","#f73b6a7A"," ","-1","0","0","[]","0","2","","","13366","100","7","3","lose","go","1"
"pit-trial","219","1291737","0.0-105.0","battery-v0.2","","""event"",""trial"",""time""
""fullscreenenter"",""1"",""2975""
","
","
","""event"",""trial"",""time""
""fullscreenenter"",""1"",""2975""
","
","","","674.6000000000931","","","19","13366","5791","j","elianto","#3366ff99","-1"," ","0","+10","[1526.1000000000931]","1","2","","","13366","101","9","2","win","no-go","1"
"pit-trial","220","1296591","0.0-106.0","battery-v0.2","","""event"",""trial"",""time""
""fullscreenenter"",""1"",""2975""
","
","
","""event"",""trial"",""time""
""fullscreenenter"",""1"",""2975""
","
","","","-1","","","19","13366","5791","w","elianto","#f73b6a7A","-1","-1","1","0","[]","0","2","","","13366","102","6","4","lose","no-go","0"
"pit-trial","221","1300089","0.0-107.0","battery-v0.2","","""event"",""trial"",""time""
""fullscreenenter"",""1"",""2975""
","
","
","""event"",""trial"",""time""
""fullscreenenter"",""1"",""2975""
","
","","","645","","","19","13366","5791","s","elianto","#3366ff99"," "," ","1","0","[1495.8999999999069]","1","2","","","13366","103","5","1","win","go","1"
"pit-trial","222","1304457","0.0-108.0","battery-v0.2","","""event"",""trial"",""time""
""fullscreenenter"",""1"",""2975""
","
","
","""event"",""trial"",""time""
""fullscreenenter"",""1"",""2975""
","
","","","1514.7999999998137","","","19","13366","5791","d","elianto","#3366ff99","-1"," ","0","0","[2365.5]","1","2","","","13366","104","8","2","win","no-go","0"
"pit-trial","223","1307995","0.0-109.0","battery-v0.2","","""event"",""trial"",""time""
""fullscreenenter"",""1"",""2975""
","
","
","""event"",""trial"",""time""
""fullscreenenter"",""1"",""2975""
","
","","","685.5","","","19","13366","5791","j","elianto","#3366ff99","-1"," ","0","0","[1535.6000000000931]","1","2","","","13366","105","9","2","win","no-go","0"
"pit-trial","224","1311638","0.0-110.0","battery-v0.2","","""event"",""trial"",""time""
""fullscreenenter"",""1"",""2975""
","
","
","""event"",""trial"",""time""
""fullscreenenter"",""1"",""2975""
","
","","","789.7999999998137","","","19","13366","5791","d","elianto","#3366ff99","-1"," ","0","0","[1640.2999999998137]","1","2","","","13366","106","8","2","win","no-go","0"
"pit-trial","225","1315413","0.0-111.0","battery-v0.2","","""event"",""trial"",""time""
""fullscreenenter"",""1"",""2975""
","
","
","""event"",""trial"",""time""
""fullscreenenter"",""1"",""2975""
","
","","","923.6999999997206","","","19","13366","5791","s","elianto","#3366ff99"," "," ","1","0","[1774.1000000000931]","1","2","","","13366","107","5","1","win","go","1"
"pit-trial","226","1320267","0.0-112.0","battery-v0.2","","""event"",""trial"",""time""
""fullscreenenter"",""1"",""2975""
","
","
","""event"",""trial"",""time""
""fullscreenenter"",""1"",""2975""
","
","","","-1","","","19","13366","5791","w","elianto","#f73b6a7A","-1","-1","1","0","[]","0","2","","","13366","108","6","4","lose","no-go","0"
"pit-trial","227","1324165","0.0-113.0","battery-v0.2","","""event"",""trial"",""time""
""fullscreenenter"",""1"",""2975""
","
","
","""event"",""trial"",""time""
""fullscreenenter"",""1"",""2975""
","
","","","1045.5","","","19","13366","5791","s","elianto","#3366ff99"," "," ","1","+10","[1896.5999999996275]","1","2","","","13366","109","5","1","win","go","0"
"pit-trial","228","1329017","0.0-114.0","battery-v0.2","","""event"",""trial"",""time""
""fullscreenenter"",""1"",""2975""
","
","
","""event"",""trial"",""time""
""fullscreenenter"",""1"",""2975""
","
","","","-1","","","19","13366","5791","w","elianto","#f73b6a7A","-1","-1","1","0","[]","0","2","","","13366","110","6","4","lose","no-go","0"
"pit-trial","229","1332389","0.0-115.0","battery-v0.2","","""event"",""trial"",""time""
""fullscreenenter"",""1"",""2975""
","
","
","""event"",""trial"",""time""
""fullscreenenter"",""1"",""2975""
","
","","","518.5999999996275","","","19","13366","5791","d","elianto","#3366ff99","-1"," ","0","0","[1369.5]","1","2","","","13366","111","8","2","win","no-go","0"
"pit-trial","230","1335996","0.0-116.0","battery-v0.2","","""event"",""trial"",""time""
""fullscreenenter"",""1"",""2975""
","
","
","""event"",""trial"",""time""
""fullscreenenter"",""1"",""2975""
","
","","","754.3000000002794","","","19","13366","5791","j","elianto","#3366ff99","-1"," ","0","0","[1606.2000000001863]","1","2","","","13366","112","9","2","win","no-go","0"
"pit-trial","231","1340849","0.0-117.0","battery-v0.2","","""event"",""trial"",""time""
""fullscreenenter"",""1"",""2975""
","
","
","""event"",""trial"",""time""
""fullscreenenter"",""1"",""2975""
","
","","","-1","","","19","13366","5791","e","elianto","#f73b6a7A"," ","-1","0","-10","[3316.6999999997206]","1","2","","","13366","113","7","3","lose","go","0"
"pit-trial","232","1344145","0.0-118.0","battery-v0.2","","""event"",""trial"",""time""
""fullscreenenter"",""1"",""2975""
","
","
","""event"",""trial"",""time""
""fullscreenenter"",""1"",""2975""
","
","","","442.20000000018626","","","19","13366","5791","j","elianto","#3366ff99","-1"," ","0","0","[1293.8000000002794]","1","2","","","13366","114","9","2","win","no-go","0"
"pit-trial","233","1347607","0.0-119.0","battery-v0.2","","""event"",""trial"",""time""
""fullscreenenter"",""1"",""2975""
","
","
","""event"",""trial"",""time""
""fullscreenenter"",""1"",""2975""
","
","","","610.8999999999069","","","19","13366","5791","s","elianto","#3366ff99"," "," ","1","+10","[1461.1000000000931]","1","2","","","13366","115","5","1","win","go","0"
"pit-trial","234","1350981","0.0-120.0","battery-v0.2","","""event"",""trial"",""time""
""fullscreenenter"",""1"",""2975""
","
","
","""event"",""trial"",""time""
""fullscreenenter"",""1"",""2975""
","
","","","519.7000000001863","","","19","13366","5791","d","elianto","#3366ff99","-1"," ","0","+10","[1371.2000000001863]","1","2","","","13366","116","8","2","win","no-go","1"
"pit-trial","235","1354312","0.0-121.0","battery-v0.2","","""event"",""trial"",""time""
""fullscreenenter"",""1"",""2975""
","
","
","""event"",""trial"",""time""
""fullscreenenter"",""1"",""2975""
","
","","","478.20000000018626","","","19","13366","5791","d","elianto","#3366ff99","-1"," ","0","0","[1329.6000000000931]","1","2","","","13366","117","8","2","win","no-go","0"
"pit-trial","236","1359165","0.0-122.0","battery-v0.2","","""event"",""trial"",""time""
""fullscreenenter"",""1"",""2975""
","
","
","""event"",""trial"",""time""
""fullscreenenter"",""1"",""2975""
","
","","","-1","","","19","13366","5791","w","elianto","#f73b6a7A","-1","-1","1","-10","[3383.5]","1","2","","","13366","118","6","4","lose","no-go","1"
"pit-trial","237","1362505","0.0-123.0","battery-v0.2","","""event"",""trial"",""time""
""fullscreenenter"",""1"",""2975""
","
","
","""event"",""trial"",""time""
""fullscreenenter"",""1"",""2975""
","
","","","481","","","19","13366","5791","s","elianto","#3366ff99"," "," ","1","+10","[1331.8000000002794]","1","2","","","13366","119","5","1","win","go","0"
"pit-trial","238","1365819","0.0-124.0","battery-v0.2","","""event"",""trial"",""time""
""fullscreenenter"",""1"",""2975""
","
","
","""event"",""trial"",""time""
""fullscreenenter"",""1"",""2975""
","
","","","460.10000000009313","","","19","13366","5791","j","elianto","#3366ff99","-1"," ","0","0","[1311.1000000000931]","1","2","","","13366","120","9","2","win","no-go","0"
"pit-trial","239","1369533","0.0-125.0","battery-v0.2","","""event"",""trial"",""time""
""fullscreenenter"",""1"",""2975""
","
","
","""event"",""trial"",""time""
""fullscreenenter"",""1"",""2975""
","
","","","860.7000000001863","","","19","13366","5791","d","elianto","#3366ff99","-1"," ","0","0","[1712.4000000003725]","1","2","","","13366","121","8","2","win","no-go","0"
"pit-trial","240","1373541","0.0-126.0","battery-v0.2","","""event"",""trial"",""time""
""fullscreenenter"",""1"",""2975""
","
","
","""event"",""trial"",""time""
""fullscreenenter"",""1"",""2975""
","
","","","1154.6999999997206","","","19","13366","5791","j","elianto","#3366ff99","-1"," ","0","0","[2005.5]","1","2","","","13366","122","9","2","win","no-go","0"
"pit-trial","241","1377155","0.0-127.0","battery-v0.2","","""event"",""trial"",""time""
""fullscreenenter"",""1"",""2975""
","
","
","""event"",""trial"",""time""
""fullscreenenter"",""1"",""2975""
","
","","","759.8000000002794","","","19","13366","5791","s","elianto","#3366ff99"," "," ","1","+10","[1611.6000000000931]","1","2","","","13366","123","5","1","win","go","0"
"pit-trial","242","1382017","0.0-128.0","battery-v0.2","","""event"",""trial"",""time""
""fullscreenenter"",""1"",""2975""
","
","
","""event"",""trial"",""time""
""fullscreenenter"",""1"",""2975""
","
","","","-1","","","19","13366","5791","e","elianto","#f73b6a7A"," ","-1","0","-10","[3339.100000000093]","1","2","","","13366","124","7","3","lose","go","0"
"pit-trial","243","1385234","0.0-129.0","battery-v0.2","","""event"",""trial"",""time""
""fullscreenenter"",""1"",""2975""
","
","
","""event"",""trial"",""time""
""fullscreenenter"",""1"",""2975""
","
","","","364.90000000037253","","","19","13366","5791","e","elianto","#f73b6a7A"," "," ","1","0","[1215.2000000001863]","1","2","","","13366","125","7","3","lose","go","0"
"pit-trial","244","1388428","0.0-130.0","battery-v0.2","","""event"",""trial"",""time""
""fullscreenenter"",""1"",""2975""
","
","
","""event"",""trial"",""time""
""fullscreenenter"",""1"",""2975""
","
","","","341.20000000018626","","","19","13366","5791","w","elianto","#f73b6a7A","-1"," ","0","-10","[1191.4000000003725]","1","2","","","13366","126","6","4","lose","no-go","0"
"pit-trial","245","1391878","0.0-131.0","battery-v0.2","","""event"",""trial"",""time""
""fullscreenenter"",""1"",""2975""
","
","
","""event"",""trial"",""time""
""fullscreenenter"",""1"",""2975""
","
","","","598.6000000005588","","","19","13366","5791","j","elianto","#3366ff99","-1"," ","0","+10","[1449.0999999996275]","1","2","","","13366","127","9","2","win","no-go","1"
"pit-trial","246","1395178","0.0-132.0","battery-v0.2","","""event"",""trial"",""time""
""fullscreenenter"",""1"",""2975""
","
","
","""event"",""trial"",""time""
""fullscreenenter"",""1"",""2975""
","
","","","446.5","","","19","13366","5791","d","elianto","#3366ff99","-1"," ","0","0","[1297.199999999255]","1","2","","","13366","128","8","2","win","no-go","0"
"pit-trial","247","1398458","0.0-133.0","battery-v0.2","","""event"",""trial"",""time""
""fullscreenenter"",""1"",""2975""
","
","
","""event"",""trial"",""time""
""fullscreenenter"",""1"",""2975""
","
","","","413.70000000018626","","","19","13366","5791","e","elianto","#f73b6a7A"," "," ","1","0","[1265.5]","1","2","","","13366","129","7","3","lose","go","0"
"pit-trial","248","1401809","0.0-134.0","battery-v0.2","","""event"",""trial"",""time""
""fullscreenenter"",""1"",""2975""
","
","
","""event"",""trial"",""time""
""fullscreenenter"",""1"",""2975""
","
","","","498.30000000074506","","","19","13366","5791","w","elianto","#f73b6a7A","-1"," ","0","-10","[1349.2000000001863]","1","2","","","13366","130","6","4","lose","no-go","0"
"pit-trial","249","1405157","0.0-135.0","battery-v0.2","","""event"",""trial"",""time""
""fullscreenenter"",""1"",""2975""
","
","
","""event"",""trial"",""time""
""fullscreenenter"",""1"",""2975""
","
","","","495.40000000037253","","","19","13366","5791","d","elianto","#3366ff99","-1"," ","0","0","[1346.1000000005588]","1","2","","","13366","131","8","2","win","no-go","0"
"pit-trial","250","1408544","0.0-136.0","battery-v0.2","","""event"",""trial"",""time""
""fullscreenenter"",""1"",""2975""
","
","
","""event"",""trial"",""time""
""fullscreenenter"",""1"",""2975""
","
","","","535.4000000003725","","","19","13366","5791","j","elianto","#3366ff99","-1"," ","0","0","[1386.300000000745]","1","2","","","13366","132","9","2","win","no-go","0"
"pit-trial","251","1413396","0.0-137.0","battery-v0.2","","""event"",""trial"",""time""
""fullscreenenter"",""1"",""2975""
","
","
","""event"",""trial"",""time""
""fullscreenenter"",""1"",""2975""
","
","","","-1","","","19","13366","5791","w","elianto","#f73b6a7A","-1","-1","1","0","[]","0","2","","","13366","133","6","4","lose","no-go","0"
"pit-trial","252","1417057","0.0-138.0","battery-v0.2","","""event"",""trial"",""time""
""fullscreenenter"",""1"",""2975""
","
","
","""event"",""trial"",""time""
""fullscreenenter"",""1"",""2975""
","
","","","798.5","","","19","13366","5791","j","elianto","#3366ff99","-1"," ","0","0","[1659.2000000001863]","1","2","","","13366","134","9","2","win","no-go","0"
"pit-trial","253","1421910","0.0-139.0","battery-v0.2","","""event"",""trial"",""time""
""fullscreenenter"",""1"",""2975""
","
","
","""event"",""trial"",""time""
""fullscreenenter"",""1"",""2975""
","
","","","-1","","","19","13366","5791","e","elianto","#f73b6a7A"," ","-1","0","-10","[3396.5999999996275]","1","2","","","13366","135","7","3","lose","go","0"
"pit-trial","254","1425108","0.0-140.0","battery-v0.2","","""event"",""trial"",""time""
""fullscreenenter"",""1"",""2975""
","
","
","""event"",""trial"",""time""
""fullscreenenter"",""1"",""2975""
","
","","","346.1000000005588","","","19","13366","5791","d","elianto","#3366ff99","-1"," ","0","0","[1196.7000000001863]","1","2","","","13366","136","8","2","win","no-go","0"
"pit-trial","255","1428551","0.0-141.0","battery-v0.2","","""event"",""trial"",""time""
""fullscreenenter"",""1"",""2975""
","
","
","""event"",""trial"",""time""
""fullscreenenter"",""1"",""2975""
","
","","","589.8000000007451","","","19","13366","5791","j","elianto","#3366ff99","-1"," ","0","0","[1440.7000000001863]","1","2","","","13366","137","9","2","win","no-go","0"
"pit-trial","256","1431942","0.0-142.0","battery-v0.2","","""event"",""trial"",""time""
""fullscreenenter"",""1"",""2975""
","
","
","""event"",""trial"",""time""
""fullscreenenter"",""1"",""2975""
","
","","","538.4000000003725","","","19","13366","5791","d","elianto","#3366ff99","-1"," ","0","0","[1388.699999999255]","1","2","","","13366","138","8","2","win","no-go","0"
"pit-trial","257","1436795","0.0-143.0","battery-v0.2","","""event"",""trial"",""time""
""fullscreenenter"",""1"",""2975""
","
","
","""event"",""trial"",""time""
""fullscreenenter"",""1"",""2975""
","
","","","-1","","","19","13366","5791","w","elianto","#f73b6a7A","-1","-1","1","0","[]","0","2","","","13366","139","6","4","lose","no-go","0"
"pit-trial","258","1440723","0.0-144.0","battery-v0.2","","""event"",""trial"",""time""
""fullscreenenter"",""1"",""2975""
","
","
","""event"",""trial"",""time""
""fullscreenenter"",""1"",""2975""
","
","","","1075.3999999994412","","","19","13366","5791","e","elianto","#f73b6a7A"," "," ","1","-10","[1926.2999999998137]","1","2","","","13366","140","7","3","lose","go","1"
"pit-instructions","259","1456019","0.0-145.0","battery-v0.2","","""event"",""trial"",""time""
""fullscreenenter"",""1"",""2975""
","
","
","""event"",""trial"",""time""
""fullscreenenter"",""1"",""2975""
","
","","[{""page_index"":0,""viewing_time"":5730.299999999814},{""page_index"":1,""viewing_time"":9565.099999999627}]","15295.699999999255","","","","","","","","","","","","","","","","","","","","","","","",""
"pit-trial","260","1459356","0.0-146.0","battery-v0.2","","""event"",""trial"",""time""
""fullscreenenter"",""1"",""2975""
","
","
","""event"",""trial"",""time""
""fullscreenenter"",""1"",""2975""
","
","","","476.90000000037253","","","19","13366","5791","m","elianto","#f73b6a7A"," "," ","1","0","[1329.7999999998137]","1","3","","","13366","141","0","3","lose","go","0"
"pit-trial","261","1462699","0.0-147.0","battery-v0.2","","""event"",""trial"",""time""
""fullscreenenter"",""1"",""2975""
","
","
","""event"",""trial"",""time""
""fullscreenenter"",""1"",""2975""
","
","","","480.80000000074506","","","19","13366","5791","r","elianto","#3366ff99","-1"," ","0","0","[1335.5]","1","3","","","13366","142","1","2","win","no-go","0"
"pit-trial","262","1467563","0.0-148.0","battery-v0.2","","""event"",""trial"",""time""
""fullscreenenter"",""1"",""2975""
","
","
","""event"",""trial"",""time""
""fullscreenenter"",""1"",""2975""
","
