"trial_type","trial_index","time_elapsed","internal_node_id","task_version","subject_id","interactions","blur_events","focus_events","fullscreenenter_events","fullscreenexit_events","success","rune","rune_set","hex","correct","choice","rt","accuracy","outcome","keys","total_keys","age","subject","participantId","sub","block","trial","stimulus","robot","valence","action","sham","view_history"
"pavlovia","0","7","0.0-0.0","battery-v0.2","","""event"",""trial"",""time""
""fullscreenenter"",""1"",""1367""
","
","
","""event"",""trial"",""time""
""fullscreenenter"",""1"",""1367""
","
","","","","","","","","","","","","","","","","","","","","","","",""
"fullscreen","1","2354","0.0-1.0","battery-v0.2","","""event"",""trial"",""time""
""fullscreenenter"",""1"",""1367""
","
","
","""event"",""trial"",""time""
""fullscreenenter"",""1"",""1367""
","
","true","","","","","","","","","","","","","","","","","","","","","",""
"pit-trial","2","6077","0.0-2.0","battery-v0.2","","""event"",""trial"",""time""
""fullscreenenter"",""1"",""1367""
","
","
","""event"",""trial"",""time""
""fullscreenenter"",""1"",""1367""
","
","","&#9730;","elianto","#3366ff99"," "," ","866.2999999523163","1","+10","[1717.1000000238419]","1","9","999","999","999","1","1","1","1","win","go","0",""
"pit-trial","3","9234","0.0-3.0","battery-v0.2","","""event"",""trial"",""time""
""fullscreenenter"",""1"",""1367""
""blur"",""4"",""11171""
","""event"",""trial"",""time""
""blur"",""4"",""11171""
","
","""event"",""trial"",""time""
""fullscreenenter"",""1"",""1367""
","
","","&#9728;","elianto","#f73b6a7A","-1"," ","304.1999999284744","0","-10","[1154.1999999284744]","1","9","999","999","999","1","2","0","4","lose","no-go","0",""
"pit-trial","4","16105","0.0-4.0","battery-v0.2","","""event"",""trial"",""time""
""fullscreenenter"",""1"",""1367""
""blur"",""4"",""11171""
","""event"",""trial"",""time""
""blur"",""4"",""11171""
","
","""event"",""trial"",""time""
""fullscreenenter"",""1"",""1367""
","
","","&#9733;","elianto","#3366ff99","-1","-1","-1","1","+10","[]","0","9","999","999","999","1","3","2","2","win","no-go","0",""
"pit-trial","5","21652","0.0-5.0","battery-v0.2","","""event"",""trial"",""time""
""fullscreenenter"",""1"",""1367""
""blur"",""4"",""11171""
""focus"",""6"",""23173""
","""event"",""trial"",""time""
""blur"",""4"",""11171""
","""event"",""trial"",""time""
""focus"",""6"",""23173""
","""event"",""trial"",""time""
""fullscreenenter"",""1"",""1367""
","
","","&#9752;","elianto","#f73b6a7A"," ","-1","-1","0","0","[]","0","9","999","999","999","1","4","3","3","lose","go","1",""
"pit-trial","6","25617","0.0-6.0","battery-v0.2","","""event"",""trial"",""time""
""fullscreenenter"",""1"",""1367""
""blur"",""4"",""11171""
""focus"",""6"",""23173""
","""event"",""trial"",""time""
""blur"",""4"",""11171""
","""event"",""trial"",""time""
""focus"",""6"",""23173""
","""event"",""trial"",""time""
""fullscreenenter"",""1"",""1367""
","
","","&#9752;","elianto","#f73b6a7A"," "," ","1070","1","-10","[1959.2000000476837]","1","9","999","999","999","1","5","3","3","lose","go","1",""
"pit-trial","7","28561","0.0-7.0","battery-v0.2","","""event"",""trial"",""time""
""fullscreenenter"",""1"",""1367""
""blur"",""4"",""11171""
""focus"",""6"",""23173""
","""event"",""trial"",""time""
""blur"",""4"",""11171""
","""event"",""trial"",""time""
""focus"",""6"",""23173""
","""event"",""trial"",""time""
""fullscreenenter"",""1"",""1367""
","
","","&#9728;","elianto","#f73b6a7A","-1"," ","88","0","-10","[939.8000000715256]","1","9","999","999","999","1","6","0","4","lose","no-go","0",""
"pit-trial","8","31554","0.0-8.0","battery-v0.2","","""event"",""trial"",""time""
""fullscreenenter"",""1"",""1367""
""blur"",""4"",""11171""
""focus"",""6"",""23173""
","""event"",""trial"",""time""
""blur"",""4"",""11171""
","""event"",""trial"",""time""
""focus"",""6"",""23173""
","""event"",""trial"",""time""
""fullscreenenter"",""1"",""1367""
","
","","&#9733;","elianto","#3366ff99","-1"," ","136.19999992847443","0","0","[988.3000000715256]","1","9","999","999","999","1","7","2","2","win","no-go","0",""
"pit-trial","9","34589","0.0-9.0","battery-v0.2","","""event"",""trial"",""time""
""fullscreenenter"",""1"",""1367""
""blur"",""4"",""11171""
""focus"",""6"",""23173""
","""event"",""trial"",""time""
""blur"",""4"",""11171""
","""event"",""trial"",""time""
""focus"",""6"",""23173""
","""event"",""trial"",""time""
""fullscreenenter"",""1"",""1367""
","
","","&#9730;","elianto","#3366ff99"," "," ","182.39999997615814","1","+10","[1032.8999999761581]","1","9","999","999","999","1","8","1","1","win","go","0",""
"pit-trial","10","37672","0.0-10.0","battery-v0.2","","""event"",""trial"",""time""
""fullscreenenter"",""1"",""1367""
""blur"",""4"",""11171""
""focus"",""6"",""23173""
","""event"",""trial"",""time""
""blur"",""4"",""11171""
","""event"",""trial"",""time""
""focus"",""6"",""23173""
","""event"",""trial"",""time""
""fullscreenenter"",""1"",""1367""
","
","","&#9730;","elianto","#3366ff99"," "," ","230.80000007152557","1","0","[1080.8000000715256]","1","9","999","999","999","1","9","1","1","win","go","1",""
"pit-trial","11","40754","0.0-11.0","battery-v0.2","","""event"",""trial"",""time""
""fullscreenenter"",""1"",""1367""
""blur"",""4"",""11171""
""focus"",""6"",""23173""
","""event"",""trial"",""time""
""blur"",""4"",""11171""
","""event"",""trial"",""time""
""focus"",""6"",""23173""
","""event"",""trial"",""time""
""fullscreenenter"",""1"",""1367""
","
","","&#9733;","elianto","#3366ff99","-1"," ","229.90000009536743","0","0","[1080]","1","9","999","999","999","1","10","2","2","win","no-go","0",""
"pit-trial","12","43704","0.0-12.0","battery-v0.2","","""event"",""trial"",""time""
""fullscreenenter"",""1"",""1367""
""blur"",""4"",""11171""
""focus"",""6"",""23173""
","""event"",""trial"",""time""
""blur"",""4"",""11171""
","""event"",""trial"",""time""
""focus"",""6"",""23173""
","""event"",""trial"",""time""
""fullscreenenter"",""1"",""1367""
","
","","&#9728;","elianto","#f73b6a7A","-1"," ","94.29999995231628","0","-10","[944.5]","1","9","999","999","999","1","11","0","4","lose","no-go","0",""
"pit-trial","13","46739","0.0-13.0","battery-v0.2","","""event"",""trial"",""time""
""fullscreenenter"",""1"",""1367""
""blur"",""4"",""11171""
""focus"",""6"",""23173""
","""event"",""trial"",""time""
""blur"",""4"",""11171""
","""event"",""trial"",""time""
""focus"",""6"",""23173""
","""event"",""trial"",""time""
""fullscreenenter"",""1"",""1367""
","
","","&#9752;","elianto","#f73b6a7A"," "," ","181.60000002384186","1","-10","[1031.7999999523163]","1","9","999","999","999","1","12","3","3","lose","go","1",""
"pit-trial","14","49665","0.0-14.0","battery-v0.2","","""event"",""trial"",""time""
""fullscreenenter"",""1"",""1367""
""blur"",""4"",""11171""
""focus"",""6"",""23173""
","""event"",""trial"",""time""
""blur"",""4"",""11171""
","""event"",""trial"",""time""
""focus"",""6"",""23173""
","""event"",""trial"",""time""
""fullscreenenter"",""1"",""1367""
","
","","&#9752;","elianto","#f73b6a7A"," "," ","71.89999997615814","1","0","[922.1000000238419]","1","9","999","999","999","1","13","3","3","lose","go","0",""
"pit-trial","15","52612","0.0-15.0","battery-v0.2","","""event"",""trial"",""time""
""fullscreenenter"",""1"",""1367""
""blur"",""4"",""11171""
""focus"",""6"",""23173""
","""event"",""trial"",""time""
""blur"",""4"",""11171""
","""event"",""trial"",""time""
""focus"",""6"",""23173""
","""event"",""trial"",""time""
""fullscreenenter"",""1"",""1367""
","
","","&#9728;","elianto","#f73b6a7A","-1"," ","92.70000004768372","0","0","[943.4000000953674]","1","9","999","999","999","1","14","0","4","lose","no-go","1",""
"pit-trial","16","55558","0.0-16.0","battery-v0.2","","""event"",""trial"",""time""
""fullscreenenter"",""1"",""1367""
""blur"",""4"",""11171""
""focus"",""6"",""23173""
","""event"",""trial"",""time""
""blur"",""4"",""11171""
","""event"",""trial"",""time""
""focus"",""6"",""23173""
","""event"",""trial"",""time""
""fullscreenenter"",""1"",""1367""
","
","","&#9733;","elianto","#3366ff99","-1"," ","93.39999997615814","0","+10","[943.7000000476837]","1","9","999","999","999","1","15","2","2","win","no-go","1",""
"pit-trial","17","58531","0.0-17.0","battery-v0.2","","""event"",""trial"",""time""
""fullscreenenter"",""1"",""1367""
""blur"",""4"",""11171""
""focus"",""6"",""23173""
","""event"",""trial"",""time""
""blur"",""4"",""11171""
","""event"",""trial"",""time""
""focus"",""6"",""23173""
","""event"",""trial"",""time""
""fullscreenenter"",""1"",""1367""
","
","","&#9730;","elianto","#3366ff99"," "," ","117.70000004768372","1","+10","[967.6000000238419]","1","9","999","999","999","1","16","1","1","win","go","0",""
"pit-trial","18","61477","0.0-18.0","battery-v0.2","","""event"",""trial"",""time""
""fullscreenenter"",""1"",""1367""
""blur"",""4"",""11171""
""focus"",""6"",""23173""
","""event"",""trial"",""time""
""blur"",""4"",""11171""
","""event"",""trial"",""time""
""focus"",""6"",""23173""
","""event"",""trial"",""time""
""fullscreenenter"",""1"",""1367""
","
","","&#9733;","elianto","#3366ff99","-1"," ","90.5","0","0","[942.6000000238419]","1","9","999","999","999","1","17","2","2","win","no-go","0",""
"pit-trial","19","64628","0.0-19.0","battery-v0.2","","""event"",""trial"",""time""
""fullscreenenter"",""1"",""1367""
""blur"",""4"",""11171""
""focus"",""6"",""23173""
","""event"",""trial"",""time""
""blur"",""4"",""11171""
","""event"",""trial"",""time""
""focus"",""6"",""23173""
","""event"",""trial"",""time""
""fullscreenenter"",""1"",""1367""
","
","","&#9752;","elianto","#f73b6a7A"," "," ","295","1","0","[1146]","1","9","999","999","999","1","18","3","3","lose","go","0",""
"pit-trial","20","67639","0.0-20.0","battery-v0.2","","""event"",""trial"",""time""
""fullscreenenter"",""1"",""1367""
""blur"",""4"",""11171""
""focus"",""6"",""23173""
","""event"",""trial"",""time""
""blur"",""4"",""11171""
","""event"",""trial"",""time""
""focus"",""6"",""23173""
","""event"",""trial"",""time""
""fullscreenenter"",""1"",""1367""
","
","","&#9730;","elianto","#3366ff99"," "," ","159.39999997615814","1","+10","[1010]","1","9","999","999","999","1","19","1","1","win","go","0",""
"pit-trial","21","70588","0.0-21.0","battery-v0.2","","""event"",""trial"",""time""
""fullscreenenter"",""1"",""1367""
""blur"",""4"",""11171""
""focus"",""6"",""23173""
","""event"",""trial"",""time""
""blur"",""4"",""11171""
","""event"",""trial"",""time""
""focus"",""6"",""23173""
","""event"",""trial"",""time""
""fullscreenenter"",""1"",""1367""
","
","","&#9728;","elianto","#f73b6a7A","-1"," ","96.29999995231628","0","0","[946.5]","1","9","999","999","999","1","20","0","4","lose","no-go","1",""
"pit-instructions","22","88372","0.0-22.0","battery-v0.2","","""event"",""trial"",""time""
""fullscreenenter"",""1"",""1367""
""blur"",""4"",""11171""
""focus"",""6"",""23173""
","""event"",""trial"",""time""
""blur"",""4"",""11171""
","""event"",""trial"",""time""
""focus"",""6"",""23173""
","""event"",""trial"",""time""
""fullscreenenter"",""1"",""1367""
","
","","","","","","","17782.899999976158","","","","","","","","","","","","","","","","[{""page_index"":0,""viewing_time"":10697.399999976158},{""page_index"":1,""viewing_time"":7085.200000047684}]"
"pit-trial","23","93229","0.0-23.0","battery-v0.2","","""event"",""trial"",""time""
""fullscreenenter"",""1"",""1367""
""blur"",""4"",""11171""
""focus"",""6"",""23173""
","""event"",""trial"",""time""
""blur"",""4"",""11171""
","""event"",""trial"",""time""
""focus"",""6"",""23173""
","""event"",""trial"",""time""
""fullscreenenter"",""1"",""1367""
","
","","h","elianto","#f73b6a7A"," ","-1","-1","0","-10","[]","0","9","999","999","999","2","21","3","3","lose","go","0",""
"pit-trial","24","96664","0.0-24.0","battery-v0.2","","""event"",""trial"",""time""
""fullscreenenter"",""1"",""1367""
""blur"",""4"",""11171""
""focus"",""6"",""23173""
","""event"",""trial"",""time""
""blur"",""4"",""11171""
","""event"",""trial"",""time""
""focus"",""6"",""23173""
","""event"",""trial"",""time""
""fullscreenenter"",""1"",""1367""
","
","","y","elianto","#f73b6a7A","-1"," ","581.1000000238419","0","-10","[1431.6999999284744]","1","9","999","999","999","2","22","2","4","lose","no-go","0",""
"pit-trial","25","100222","0.0-25.0","battery-v0.2","","""event"",""trial"",""time""
""fullscreenenter"",""1"",""1367""
""blur"",""4"",""11171""
""focus"",""6"",""23173""
","""event"",""trial"",""time""
""blur"",""4"",""11171""
","""event"",""trial"",""time""
""focus"",""6"",""23173""
","""event"",""trial"",""time""
""fullscreenenter"",""1"",""1367""
","
","","r","elianto","#3366ff99"," "," ","700.6000000238419","1","+10","[1551.8999999761581]","1","9","999","999","999","2","23","1","1","win","go","0",""
"pit-trial","26","103773","0.0-26.0","battery-v0.2","","""event"",""trial"",""time""
""fullscreenenter"",""1"",""1367""
""blur"",""4"",""11171""
""focus"",""6"",""23173""
","""event"",""trial"",""time""
""blur"",""4"",""11171""
","""event"",""trial"",""time""
""focus"",""6"",""23173""
","""event"",""trial"",""time""
""fullscreenenter"",""1"",""1367""
","
","","m","elianto","#f73b6a7A","-1"," ","695.6999999284744","0","0","[1548.5]","1","9","999","999","999","2","24","0","4","lose","no-go","1",""
"pit-trial","27","107464","0.0-27.0","battery-v0.2","","""event"",""trial"",""time""
""fullscreenenter"",""1"",""1367""
""blur"",""4"",""11171""
""focus"",""6"",""23173""
","""event"",""trial"",""time""
""blur"",""4"",""11171""
","""event"",""trial"",""time""
""focus"",""6"",""23173""
","""event"",""trial"",""time""
""fullscreenenter"",""1"",""1367""
","
","","m","elianto","#f73b6a7A","-1"," ","834.3999999761581","0","-10","[1687.1000000238419]","1","9","999","999","999","2","25","0","4","lose","no-go","0",""
"pit-trial","28","111288","0.0-28.0","battery-v0.2","","""event"",""trial"",""time""
""fullscreenenter"",""1"",""1367""
""blur"",""4"",""11171""
""focus"",""6"",""23173""
","""event"",""trial"",""time""
""blur"",""4"",""11171""
","""event"",""trial"",""time""
""focus"",""6"",""23173""
","""event"",""trial"",""time""
""fullscreenenter"",""1"",""1367""
","
","","y","elianto","#f73b6a7A","-1"," ","971.3000000715256","0","-10","[1822.2000000476837]","1","9","999","999","999","2","26","2","4","lose","no-go","0",""
"pit-trial","29","115472","0.0-29.0","battery-v0.2","","""event"",""trial"",""time""
""fullscreenenter"",""1"",""1367""
""blur"",""4"",""11171""
""focus"",""6"",""23173""
","""event"",""trial"",""time""
""blur"",""4"",""11171""
","""event"",""trial"",""time""
""focus"",""6"",""23173""
","""event"",""trial"",""time""
""fullscreenenter"",""1"",""1367""
","
","","h","elianto","#f73b6a7A"," "," ","1329.3999999761581","1","-10","[2181.600000023842]","1","9","999","999","999","2","27","3","3","lose","go","1",""
"pit-trial","30","119323","0.0-30.0","battery-v0.2","","""event"",""trial"",""time""
""fullscreenenter"",""1"",""1367""
""blur"",""4"",""11171""
""focus"",""6"",""23173""
","""event"",""trial"",""time""
""blur"",""4"",""11171""
","""event"",""trial"",""time""
""focus"",""6"",""23173""
","""event"",""trial"",""time""
""fullscreenenter"",""1"",""1367""
","
","","r","elianto","#3366ff99"," "," ","997.8000000715256","1","0","[1848.2000000476837]","1","9","999","999","999","2","28","1","1","win","go","1",""
"pit-trial","31","124180","0.0-31.0","battery-v0.2","","""event"",""trial"",""time""
""fullscreenenter"",""1"",""1367""
""blur"",""4"",""11171""
""focus"",""6"",""23173""
","""event"",""trial"",""time""
""blur"",""4"",""11171""
","""event"",""trial"",""time""
""focus"",""6"",""23173""
","""event"",""trial"",""time""
""fullscreenenter"",""1"",""1367""
","
","","h","elianto","#f73b6a7A"," ","-1","-1","0","-10","[]","0","9","999","999","999","2","29","3","3","lose","go","0",""
"pit-trial","32","127760","0.0-32.0","battery-v0.2","","""event"",""trial"",""time""
""fullscreenenter"",""1"",""1367""
""blur"",""4"",""11171""
""focus"",""6"",""23173""
","""event"",""trial"",""time""
""blur"",""4"",""11171""
","""event"",""trial"",""time""
""focus"",""6"",""23173""
","""event"",""trial"",""time""
""fullscreenenter"",""1"",""1367""
","
","","r","elianto","#3366ff99"," "," ","724.2000000476837","1","0","[1574.6000000238419]","1","9","999","999","999","2","30","1","1","win","go","1",""
"pit-trial","33","131605","0.0-33.0","battery-v0.2","","""event"",""trial"",""time""
""fullscreenenter"",""1"",""1367""
""blur"",""4"",""11171""
""focus"",""6"",""23173""
","""event"",""trial"",""time""
""blur"",""4"",""11171""
","""event"",""trial"",""time""
""focus"",""6"",""23173""
","""event"",""trial"",""time""
""fullscreenenter"",""1"",""1367""
","
","","m","elianto","#f73b6a7A","-1"," ","989.7999999523163","0","0","[1841.5999999046326]","1","9","999","999","999","2","31","0","4","lose","no-go","1",""
"pit-trial","34","136459","0.0-34.0","battery-v0.2","","""event"",""trial"",""time""
""fullscreenenter"",""1"",""1367""
""blur"",""4"",""11171""
""focus"",""6"",""23173""
","""event"",""trial"",""time""
""blur"",""4"",""11171""
","""event"",""trial"",""time""
""focus"",""6"",""23173""
","""event"",""trial"",""time""
""fullscreenenter"",""1"",""1367""
","
","","y","elianto","#f73b6a7A","-1","-1","-1","1","0","[]","0","9","999","999","999","2","32","2","4","lose","no-go","0",""
"pit-trial","35","141313","0.0-35.0","battery-v0.2","","""event"",""trial"",""time""
""fullscreenenter"",""1"",""1367""
""blur"",""4"",""11171""
""focus"",""6"",""23173""
","""event"",""trial"",""time""
""blur"",""4"",""11171""
","""event"",""trial"",""time""
""focus"",""6"",""23173""
","""event"",""trial"",""time""
""fullscreenenter"",""1"",""1367""
","
","","m","elianto","#f73b6a7A","-1","-1","-1","1","0","[3019.399999976158]","1","9","999","999","999","2","33","0","4","lose","no-go","0",""
"pit-trial","36","146165","0.0-36.0","battery-v0.2","","""event"",""trial"",""time""
""fullscreenenter"",""1"",""1367""
""blur"",""4"",""11171""
""focus"",""6"",""23173""
","""event"",""trial"",""time""
""blur"",""4"",""11171""
","""event"",""trial"",""time""
""focus"",""6"",""23173""
","""event"",""trial"",""time""
""fullscreenenter"",""1"",""1367""
","
","","h","elianto","#f73b6a7A"," ","-1","-1","0","0","[]","0","9","999","999","999","2","34","3","3","lose","go","1",""
"pit-trial","37","151021","0.0-37.0","battery-v0.2","","""event"",""trial"",""time""
""fullscreenenter"",""1"",""1367""
""blur"",""4"",""11171""
""focus"",""6"",""23173""
","""event"",""trial"",""time""
""blur"",""4"",""11171""
","""event"",""trial"",""time""
""focus"",""6"",""23173""
","""event"",""trial"",""time""
""fullscreenenter"",""1"",""1367""
","
","","r","elianto","#3366ff99"," ","-1","-1","0","0","[]","0","9","999","999","999","2","35","1","1","win","go","0",""
"pit-trial","38","155876","0.0-38.0","battery-v0.2","","""event"",""trial"",""time""
""fullscreenenter"",""1"",""1367""
""blur"",""4"",""11171""
""focus"",""6"",""23173""
","""event"",""trial"",""time""
""blur"",""4"",""11171""
","""event"",""trial"",""time""
""focus"",""6"",""23173""
","""event"",""trial"",""time""
""fullscreenenter"",""1"",""1367""
","
","","y","elianto","#f73b6a7A","-1","-1","-1","1","-10","[]","0","9","999","999","999","2","36","2","4","lose","no-go","1",""
"pit-trial","39","159434","0.0-39.0","battery-v0.2","","""event"",""trial"",""time""
""fullscreenenter"",""1"",""1367""
""blur"",""4"",""11171""
""focus"",""6"",""23173""
","""event"",""trial"",""time""
""blur"",""4"",""11171""
","""event"",""trial"",""time""
""focus"",""6"",""23173""
","""event"",""trial"",""time""
""fullscreenenter"",""1"",""1367""
","
","","r","elianto","#3366ff99"," "," ","703.5","1","+10","[1555.9000000953674]","1","9","999","999","999","2","37","1","1","win","go","0",""
"pit-trial","40","164291","0.0-40.0","battery-v0.2","","""event"",""trial"",""time""
""fullscreenenter"",""1"",""1367""
""blur"",""4"",""11171""
""focus"",""6"",""23173""
","""event"",""trial"",""time""
""blur"",""4"",""11171""
","""event"",""trial"",""time""
""focus"",""6"",""23173""
","""event"",""trial"",""time""
""fullscreenenter"",""1"",""1367""
","
","","h","elianto","#f73b6a7A"," ","-1","-1","0","-10","[]","0","9","999","999","999","2","38","3","3","lose","go","0",""
"pit-trial","41","167716","0.0-41.0","battery-v0.2","","""event"",""trial"",""time""
""fullscreenenter"",""1"",""1367""
""blur"",""4"",""11171""
""focus"",""6"",""23173""
","""event"",""trial"",""time""
""blur"",""4"",""11171""
","""event"",""trial"",""time""
""focus"",""6"",""23173""
","""event"",""trial"",""time""
""fullscreenenter"",""1"",""1367""
","
","","m","elianto","#f73b6a7A","-1"," ","569.5","0","-10","[1421.2999999523163]","1","9","999","999","999","2","39","0","4","lose","no-go","0",""
"pit-trial","42","171092","0.0-42.0","battery-v0.2","","""event"",""trial"",""time""
""fullscreenenter"",""1"",""1367""
""blur"",""4"",""11171""
""focus"",""6"",""23173""
","""event"",""trial"",""time""
""blur"",""4"",""11171""
","""event"",""trial"",""time""
""focus"",""6"",""23173""
","""event"",""trial"",""time""
""fullscreenenter"",""1"",""1367""
","
","","y","elianto","#f73b6a7A","-1"," ","519.7999999523163","0","-10","[1370.1999999284744]","1","9","999","999","999","2","40","2","4","lose","no-go","0",""
"pit-trial","43","174148","0.0-43.0","battery-v0.2","","""event"",""trial"",""time""
""fullscreenenter"",""1"",""1367""
""blur"",""4"",""11171""
""focus"",""6"",""23173""
","""event"",""trial"",""time""
""blur"",""4"",""11171""
","""event"",""trial"",""time""
""focus"",""6"",""23173""
","""event"",""trial"",""time""
""fullscreenenter"",""1"",""1367""
","
","","r","elianto","#3366ff99"," "," ","203.5","1","0","[1054.2999999523163]","1","9","999","999","999","2","41","1","1","win","go","1",""
"pit-trial","44","177615","0.0-44.0","battery-v0.2","","""event"",""trial"",""time""
""fullscreenenter"",""1"",""1367""
""blur"",""4"",""11171""
""focus"",""6"",""23173""
","""event"",""trial"",""time""
""blur"",""4"",""11171""
","""event"",""trial"",""time""
""focus"",""6"",""23173""
","""event"",""trial"",""time""
""fullscreenenter"",""1"",""1367""
","
","","y","elianto","#f73b6a7A","-1"," ","612.1000000238419","0","0","[1462.7999999523163]","1","9","999","999","999","2","42","2","4","lose","no-go","1",""
"pit-trial","45","181033","0.0-45.0","battery-v0.2","","""event"",""trial"",""time""
""fullscreenenter"",""1"",""1367""
""blur"",""4"",""11171""
""focus"",""6"",""23173""
","""event"",""trial"",""time""
""blur"",""4"",""11171""
","""event"",""trial"",""time""
""focus"",""6"",""23173""
","""event"",""trial"",""time""
""fullscreenenter"",""1"",""1367""
","
","","m","elianto","#f73b6a7A","-1"," ","564.8999999761581","0","0","[1416.2000000476837]","1","9","999","999","999","2","43","0","4","lose","no-go","1",""
"pit-trial","46","184905","0.0-46.0","battery-v0.2","","""event"",""trial"",""time""
""fullscreenenter"",""1"",""1367""
""blur"",""4"",""11171""
""focus"",""6"",""23173""
","""event"",""trial"",""time""
""blur"",""4"",""11171""
","""event"",""trial"",""time""
""focus"",""6"",""23173""
","""event"",""trial"",""time""
""fullscreenenter"",""1"",""1367""
","
","","h","elianto","#f73b6a7A"," "," ","1016.2999999523163","1","0","[1867.1999999284744]","1","9","999","999","999","2","44","3","3","lose","go","0",""
"pit-trial","47","188505","0.0-47.0","battery-v0.2","","""event"",""trial"",""time""
""fullscreenenter"",""1"",""1367""
""blur"",""4"",""11171""
""focus"",""6"",""23173""
","""event"",""trial"",""time""
""blur"",""4"",""11171""
","""event"",""trial"",""time""
""focus"",""6"",""23173""
","""event"",""trial"",""time""
""fullscreenenter"",""1"",""1367""
","
","","y","elianto","#f73b6a7A","-1"," ","743.5","0","-10","[1594.6000000238419]","1","9","999","999","999","2","45","2","4","lose","no-go","0",""
"pit-trial","48","192398","0.0-48.0","battery-v0.2","","""event"",""trial"",""time""
""fullscreenenter"",""1"",""1367""
""blur"",""4"",""11171""
""focus"",""6"",""23173""
","""event"",""trial"",""time""
""blur"",""4"",""11171""
","""event"",""trial"",""time""
""focus"",""6"",""23173""
","""event"",""trial"",""time""
""fullscreenenter"",""1"",""1367""
","
","","z","elianto","#3366ff99","-1"," ","1036.8999999761581","0","0","[1887.2999999523163]","1","9","999","999","999","2","46","4","2","win","no-go","0",""
"pit-trial","49","196153","0.0-49.0","battery-v0.2","","""event"",""trial"",""time""
""fullscreenenter"",""1"",""1367""
""blur"",""4"",""11171""
""focus"",""6"",""23173""
","""event"",""trial"",""time""
""blur"",""4"",""11171""
","""event"",""trial"",""time""
""focus"",""6"",""23173""
","""event"",""trial"",""time""
""fullscreenenter"",""1"",""1367""
","
","","m","elianto","#f73b6a7A","-1"," ","900","0","-10","[1752]","1","9","999","999","999","2","47","0","4","lose","no-go","0",""
"pit-trial","50","199886","0.0-50.0","battery-v0.2","","""event"",""trial"",""time""
""fullscreenenter"",""1"",""1367""
""blur"",""4"",""11171""
""focus"",""6"",""23173""
","""event"",""trial"",""time""
""blur"",""4"",""11171""
","""event"",""trial"",""time""
""focus"",""6"",""23173""
","""event"",""trial"",""time""
""fullscreenenter"",""1"",""1367""
","
","","h","elianto","#f73b6a7A"," "," ","881.5999999046326","1","0","[1731.7999999523163]","1","9","999","999","999","2","48","3","3","lose","go","0",""
"pit-trial","51","204743","0.0-51.0","battery-v0.2","","""event"",""trial"",""time""
""fullscreenenter"",""1"",""1367""
""blur"",""4"",""11171""
""focus"",""6"",""23173""
","""event"",""trial"",""time""
""blur"",""4"",""11171""
","""event"",""trial"",""time""
""focus"",""6"",""23173""
","""event"",""trial"",""time""
""fullscreenenter"",""1"",""1367""
","
","","m","elianto","#f73b6a7A","-1","-1","-1","1","-10","[]","0","9","999","999","999","2","49","0","4","lose","no-go","1",""
"pit-trial","52","208750","0.0-52.0","battery-v0.2","","""event"",""trial"",""time""
""fullscreenenter"",""1"",""1367""
""blur"",""4"",""11171""
""focus"",""6"",""23173""
","""event"",""trial"",""time""
""blur"",""4"",""11171""
","""event"",""trial"",""time""
""focus"",""6"",""23173""
","""event"",""trial"",""time""
""fullscreenenter"",""1"",""1367""
","
","","z","elianto","#3366ff99","-1"," ","1155.5","0","0","[2006.5]","1","9","999","999","999","2","50","4","2","win","no-go","0",""
"pit-trial","53","213608","0.0-53.0","battery-v0.2","","""event"",""trial"",""time""
""fullscreenenter"",""1"",""1367""
""blur"",""4"",""11171""
""focus"",""6"",""23173""
","""event"",""trial"",""time""
""blur"",""4"",""11171""
","""event"",""trial"",""time""
""focus"",""6"",""23173""
","""event"",""trial"",""time""
""fullscreenenter"",""1"",""1367""
","
","","r","elianto","#3366ff99"," ","-1","-1","0","0","[]","0","9","999","999","999","2","51","1","1","win","go","0",""
"pit-trial","54","217773","0.0-54.0","battery-v0.2","","""event"",""trial"",""time""
""fullscreenenter"",""1"",""1367""
""blur"",""4"",""11171""
""focus"",""6"",""23173""
","""event"",""trial"",""time""
""blur"",""4"",""11171""
","""event"",""trial"",""time""
""focus"",""6"",""23173""
","""event"",""trial"",""time""
""fullscreenenter"",""1"",""1367""
","
","","h","elianto","#f73b6a7A"," "," ","1310.6999999284744","1","-10","[2162]","1","9","999","999","999","2","52","3","3","lose","go","1",""
"pit-trial","55","222627","0.0-55.0","battery-v0.2","","""event"",""trial"",""time""
""fullscreenenter"",""1"",""1367""
""blur"",""4"",""11171""
""focus"",""6"",""23173""
","""event"",""trial"",""time""
""blur"",""4"",""11171""
","""event"",""trial"",""time""
""focus"",""6"",""23173""
","""event"",""trial"",""time""
""fullscreenenter"",""1"",""1367""
","
","","z","elianto","#3366ff99","-1","-1","-1","1","+10","[]","0","9","999","999","999","2","53","4","2","win","no-go","0",""
"pit-trial","56","226776","0.0-56.0","battery-v0.2","","""event"",""trial"",""time""
""fullscreenenter"",""1"",""1367""
""blur"",""4"",""11171""
""focus"",""6"",""23173""
","""event"",""trial"",""time""
""blur"",""4"",""11171""
","""event"",""trial"",""time""
""focus"",""6"",""23173""
","""event"",""trial"",""time""
""fullscreenenter"",""1"",""1367""
","
","","r","elianto","#3366ff99"," "," ","1293.1000000238419","1","+10","[2143.399999976158]","1","9","999","999","999","2","54","1","1","win","go","0",""
"pit-trial","57","231629","0.0-57.0","battery-v0.2","","""event"",""trial"",""time""
""fullscreenenter"",""1"",""1367""
""blur"",""4"",""11171""
""focus"",""6"",""23173""
","""event"",""trial"",""time""
""blur"",""4"",""11171""
","""event"",""trial"",""time""
""focus"",""6"",""23173""
","""event"",""trial"",""time""
""fullscreenenter"",""1"",""1367""
","
","","m","elianto","#f73b6a7A","-1","-1","-1","1","-10","[]","0","9","999","999","999","2","55","0","4","lose","no-go","1",""
"pit-trial","58","235437","0.0-58.0","battery-v0.2","","""event"",""trial"",""time""
""fullscreenenter"",""1"",""1367""
""blur"",""4"",""11171""
""focus"",""6"",""23173""
","""event"",""trial"",""time""
""blur"",""4"",""11171""
","""event"",""trial"",""time""
""focus"",""6"",""23173""
","""event"",""trial"",""time""
""fullscreenenter"",""1"",""1367""
","
","","y","elianto","#f73b6a7A","-1"," ","950.9000000953674","0","-10","[1802.9000000953674]","1","9","999","999","999","2","56","2","4","lose","no-go","0",""
"pit-trial","59","239618","0.0-59.0","battery-v0.2","","""event"",""trial"",""time""
""fullscreenenter"",""1"",""1367""
""blur"",""4"",""11171""
""focus"",""6"",""23173""
","""event"",""trial"",""time""
""blur"",""4"",""11171""
","""event"",""trial"",""time""
""focus"",""6"",""23173""
","""event"",""trial"",""time""
""fullscreenenter"",""1"",""1367""
","
","","h","elianto","#f73b6a7A"," "," ","1328.3999999761581","1","0","[2179.7999999523163]","1","9","999","999","999","2","57","3","3","lose","go","0",""
"pit-trial","60","244120","0.0-60.0","battery-v0.2","","""event"",""trial"",""time""
""fullscreenenter"",""1"",""1367""
""blur"",""4"",""11171""
""focus"",""6"",""23173""
","""event"",""trial"",""time""
""blur"",""4"",""11171""
","""event"",""trial"",""time""
""focus"",""6"",""23173""
","""event"",""trial"",""time""
""fullscreenenter"",""1"",""1367""
","
","","m","elianto","#f73b6a7A","-1"," ","1645.9000000953674","0","-10","[2498.3000000715256]","1","9","999","999","999","2","58","0","4","lose","no-go","0",""
"pit-trial","61","248976","0.0-61.0","battery-v0.2","","""event"",""trial"",""time""
""fullscreenenter"",""1"",""1367""
""blur"",""4"",""11171""
""focus"",""6"",""23173""
","""event"",""trial"",""time""
""blur"",""4"",""11171""
","""event"",""trial"",""time""
""focus"",""6"",""23173""
","""event"",""trial"",""time""
""fullscreenenter"",""1"",""1367""
","
","","r","elianto","#3366ff99"," ","-1","-1","0","0","[]","0","9","999","999","999","2","59","1","1","win","go","0",""
"pit-trial","62","252941","0.0-62.0","battery-v0.2","","""event"",""trial"",""time""
""fullscreenenter"",""1"",""1367""
""blur"",""4"",""11171""
""focus"",""6"",""23173""
","""event"",""trial"",""time""
""blur"",""4"",""11171""
","""event"",""trial"",""time""
""focus"",""6"",""23173""
","""event"",""trial"",""time""
""fullscreenenter"",""1"",""1367""
","
","","z","elianto","#3366ff99","-1"," ","1110.8999999761581","0","0","[1960.8999999761581]","1","9","999","999","999","2","60","4","2","win","no-go","0",""
"pit-trial","63","256519","0.0-63.0","battery-v0.2","","""event"",""trial"",""time""
""fullscreenenter"",""1"",""1367""
""blur"",""4"",""11171""
""focus"",""6"",""23173""
","""event"",""trial"",""time""
""blur"",""4"",""11171""
","""event"",""trial"",""time""
""focus"",""6"",""23173""
","""event"",""trial"",""time""
""fullscreenenter"",""1"",""1367""
","
","","y","elianto","#f73b6a7A","-1"," ","722.8999999761581","0","0","[1572.8000000715256]","1","9","999","999","999","2","61","2","4","lose","no-go","1",""
"pit-trial","64","261377","0.0-64.0","battery-v0.2","","""event"",""trial"",""time""
""fullscreenenter"",""1"",""1367""
""blur"",""4"",""11171""
""focus"",""6"",""23173""
","""event"",""trial"",""time""
""blur"",""4"",""11171""
","""event"",""trial"",""time""
""focus"",""6"",""23173""
","""event"",""trial"",""time""
""fullscreenenter"",""1"",""1367""
","
","","z","elianto","#3366ff99","-1","-1","-1","1","+10","[]","0","9","999","999","999","2","62","4","2","win","no-go","0",""
"pit-trial","65","266231","0.0-65.0","battery-v0.2","","""event"",""trial"",""time""
""fullscreenenter"",""1"",""1367""
""blur"",""4"",""11171""
""focus"",""6"",""23173""
","""event"",""trial"",""time""
""blur"",""4"",""11171""
","""event"",""trial"",""time""
""focus"",""6"",""23173""
","""event"",""trial"",""time""
""fullscreenenter"",""1"",""1367""
","
","","h","elianto","#f73b6a7A"," ","-1","-1","0","-10","[]","0","9","999","999","999","2","63","3","3","lose","go","0",""
"pit-trial","66","270465","0.0-66.0","battery-v0.2","","""event"",""trial"",""time""
""fullscreenenter"",""1"",""1367""
""blur"",""4"",""11171""
""focus"",""6"",""23173""
","""event"",""trial"",""time""
""blur"",""4"",""11171""
","""event"",""trial"",""time""
""focus"",""6"",""23173""
","""event"",""trial"",""time""
""fullscreenenter"",""1"",""1367""
","
","","r","elianto","#3366ff99"," "," ","1380.3999999761581","1","0","[2231.399999976158]","1","9","999","999","999","2","64","1","1","win","go","1",""
"pit-trial","67","274513","0.0-67.0","battery-v0.2","","""event"",""trial"",""time""
""fullscreenenter"",""1"",""1367""
""blur"",""4"",""11171""
""focus"",""6"",""23173""
","""event"",""trial"",""time""
""blur"",""4"",""11171""
","""event"",""trial"",""time""
""focus"",""6"",""23173""
","""event"",""trial"",""time""
""fullscreenenter"",""1"",""1367""
","
","","y","elianto","#f73b6a7A","-1"," ","1195","0","-10","[2046.7999999523163]","1","9","999","999","999","2","65","2","4","lose","no-go","0",""
"pit-trial","68","278385","0.0-68.0","battery-v0.2","","""event"",""trial"",""time""
""fullscreenenter"",""1"",""1367""
""blur"",""4"",""11171""
""focus"",""6"",""23173""
","""event"",""trial"",""time""
""blur"",""4"",""11171""
","""event"",""trial"",""time""
""focus"",""6"",""23173""
","""event"",""trial"",""time""
""fullscreenenter"",""1"",""1367""
","
","","r","elianto","#3366ff99"," "," ","1018.5999999046326","1","+10","[1868.6000000238419]","1","9","999","999","999","2","66","1","1","win","go","0",""
"pit-trial","69","282097","0.0-69.0","battery-v0.2","","""event"",""trial"",""time""
""fullscreenenter"",""1"",""1367""
""blur"",""4"",""11171""
""focus"",""6"",""23173""
","""event"",""trial"",""time""
""blur"",""4"",""11171""
","""event"",""trial"",""time""
""focus"",""6"",""23173""
","""event"",""trial"",""time""
""fullscreenenter"",""1"",""1367""
","
","","h","elianto","#f73b6a7A"," "," ","856.7999999523163","1","0","[1708.8999999761581]","1","9","999","999","999","2","67","3","3","lose","go","0",""
"pit-trial","70","286956","0.0-70.0","battery-v0.2","","""event"",""trial"",""time""
""fullscreenenter"",""1"",""1367""
""blur"",""4"",""11171""
""focus"",""6"",""23173""
","""event"",""trial"",""time""
""blur"",""4"",""11171""
","""event"",""trial"",""time""
""focus"",""6"",""23173""
","""event"",""trial"",""time""
""fullscreenenter"",""1"",""1367""
","
","","z","elianto","#3366ff99","-1","-1","-1","1","+10","[]","0","9","999","999","999","2","68","4","2","win","no-go","0",""
"pit-trial","71","291052","0.0-71.0","battery-v0.2","","""event"",""trial"",""time""
""fullscreenenter"",""1"",""1367""
""blur"",""4"",""11171""
""focus"",""6"",""23173""
","""event"",""trial"",""time""
""blur"",""4"",""11171""
","""event"",""trial"",""time""
""focus"",""6"",""23173""
","""event"",""trial"",""time""
""fullscreenenter"",""1"",""1367""
","
","","c","elianto","#3366ff99"," "," ","1240.5","1","+10","[2093.2000000476837]","1","9","999","999","999","2","69","5","1","win","go","0",""
"pit-trial","72","295908","0.0-72.0","battery-v0.2","","""event"",""trial"",""time""
""fullscreenenter"",""1"",""1367""
""blur"",""4"",""11171""
""focus"",""6"",""23173""
","""event"",""trial"",""time""
""blur"",""4"",""11171""
","""event"",""trial"",""time""
""focus"",""6"",""23173""
","""event"",""trial"",""time""
""fullscreenenter"",""1"",""1367""
","
","","z","elianto","#3366ff99","-1","-1","-1","1","+10","[]","0","9","999","999","999","2","70","4","2","win","no-go","0",""
"pit-trial","73","299782","0.0-73.0","battery-v0.2","","""event"",""trial"",""time""
""fullscreenenter"",""1"",""1367""
""blur"",""4"",""11171""
""focus"",""6"",""23173""
","""event"",""trial"",""time""
""blur"",""4"",""11171""
","""event"",""trial"",""time""
""focus"",""6"",""23173""
","""event"",""trial"",""time""
""fullscreenenter"",""1"",""1367""
","
","","r","elianto","#3366ff99"," "," ","1017.3999999761581","1","+10","[1870.3999999761581]","1","9","999","999","999","2","71","1","1","win","go","0",""
"pit-trial","74","304011","0.0-74.0","battery-v0.2","","""event"",""trial"",""time""
""fullscreenenter"",""1"",""1367""
""blur"",""4"",""11171""
""focus"",""6"",""23173""
","""event"",""trial"",""time""
""blur"",""4"",""11171""
","""event"",""trial"",""time""
""focus"",""6"",""23173""
","""event"",""trial"",""time""
""fullscreenenter"",""1"",""1367""
","
","","h","elianto","#f73b6a7A"," "," ","1375.1000000238419","1","0","[2225.899999976158]","1","9","999","999","999","2","72","3","3","lose","go","0",""
"pit-trial","75","308869","0.0-75.0","battery-v0.2","","""event"",""trial"",""time""
""fullscreenenter"",""1"",""1367""
""blur"",""4"",""11171""
""focus"",""6"",""23173""
","""event"",""trial"",""time""
""blur"",""4"",""11171""
","""event"",""trial"",""time""
""focus"",""6"",""23173""
","""event"",""trial"",""time""
""fullscreenenter"",""1"",""1367""
","
","","z","elianto","#3366ff99","-1","-1","-1","1","+10","[]","0","9","999","999","999","2","73","4","2","win","no-go","0",""
"pit-trial","76","312944","0.0-76.0","battery-v0.2","","""event"",""trial"",""time""
""fullscreenenter"",""1"",""1367""
""blur"",""4"",""11171""
""focus"",""6"",""23173""
","""event"",""trial"",""time""
""blur"",""4"",""11171""
","""event"",""trial"",""time""
""focus"",""6"",""23173""
","""event"",""trial"",""time""
""fullscreenenter"",""1"",""1367""
","
","","r","elianto","#3366ff99"," "," ","1219.3999999761581","1","+10","[2070.7999999523163]","1","9","999","999","999","2","74","1","1","win","go","0",""
"pit-trial","77","317040","0.0-77.0","battery-v0.2","","""event"",""trial"",""time""
""fullscreenenter"",""1"",""1367""
""blur"",""4"",""11171""
""focus"",""6"",""23173""
","""event"",""trial"",""time""
""blur"",""4"",""11171""
","""event"",""trial"",""time""
""focus"",""6"",""23173""
","""event"",""trial"",""time""
""fullscreenenter"",""1"",""1367""
","
","","h","elianto","#f73b6a7A"," "," ","1239","1","-10","[2090.7999999523163]","1","9","999","999","999","2","75","3","3","lose","go","1",""
"pit-trial","78","320728","0.0-78.0","battery-v0.2","","""event"",""trial"",""time""
""fullscreenenter"",""1"",""1367""
""blur"",""4"",""11171""
""focus"",""6"",""23173""
","""event"",""trial"",""time""
""blur"",""4"",""11171""
","""event"",""trial"",""time""
""focus"",""6"",""23173""
","""event"",""trial"",""time""
""fullscreenenter"",""1"",""1367""
","
","","c","elianto","#3366ff99"," "," ","832.3999999761581","1","+10","[1684.3999999761581]","1","9","999","999","999","2","76","5","1","win","go","0",""
"pit-trial","79","324352","0.0-79.0","battery-v0.2","","""event"",""trial"",""time""
""fullscreenenter"",""1"",""1367""
""blur"",""4"",""11171""
""focus"",""6"",""23173""
","""event"",""trial"",""time""
""blur"",""4"",""11171""
","""event"",""trial"",""time""
""focus"",""6"",""23173""
","""event"",""trial"",""time""
""fullscreenenter"",""1"",""1367""
","
","","z","elianto","#3366ff99","-1"," ","769.2999999523163","0","0","[1619.5999999046326]","1","9","999","999","999","2","77","4","2","win","no-go","0",""
"pit-trial","80","327952","0.0-80.0","battery-v0.2","","""event"",""trial"",""time""
""fullscreenenter"",""1"",""1367""
""blur"",""4"",""11171""
""focus"",""6"",""23173""
","""event"",""trial"",""time""
""blur"",""4"",""11171""
","""event"",""trial"",""time""
""focus"",""6"",""23173""
","""event"",""trial"",""time""
""fullscreenenter"",""1"",""1367""
","
","","b","elianto","#f73b6a7A","-1"," ","743","0","0","[1594.6000000238419]","1","9","999","999","999","2","78","6","4","lose","no-go","1",""
"pit-trial","81","331818","0.0-81.0","battery-v0.2","","""event"",""trial"",""time""
""fullscreenenter"",""1"",""1367""
""blur"",""4"",""11171""
""focus"",""6"",""23173""
","""event"",""trial"",""time""
""blur"",""4"",""11171""
","""event"",""trial"",""time""
""focus"",""6"",""23173""
","""event"",""trial"",""time""
""fullscreenenter"",""1"",""1367""
","
","","c","elianto","#3366ff99"," "," ","1013.1000000238419","1","+10","[1864.2999999523163]","1","9","999","999","999","2","79","5","1","win","go","0",""
"pit-trial","82","336672","0.0-82.0","battery-v0.2","","""event"",""trial"",""time""
""fullscreenenter"",""1"",""1367""
""blur"",""4"",""11171""
""focus"",""6"",""23173""
","""event"",""trial"",""time""
""blur"",""4"",""11171""
","""event"",""trial"",""time""
""focus"",""6"",""23173""
","""event"",""trial"",""time""
""fullscreenenter"",""1"",""1367""
","
","","h","elianto","#f73b6a7A"," ","-1","-1","0","-10","[]","0","9","999","999","999","2","80","3","3","lose","go","0",""
"pit-trial","83","340277","0.0-83.0","battery-v0.2","","""event"",""trial"",""time""
""fullscreenenter"",""1"",""1367""
""blur"",""4"",""11171""
""focus"",""6"",""23173""
","""event"",""trial"",""time""
""blur"",""4"",""11171""
","""event"",""trial"",""time""
""focus"",""6"",""23173""
","""event"",""trial"",""time""
""fullscreenenter"",""1"",""1367""
","
","","z","elianto","#3366ff99","-1"," ","752.5","0","+10","[1604.1000000238419]","1","9","999","999","999","2","81","4","2","win","no-go","1",""
"pit-trial","84","344645","0.0-84.0","battery-v0.2","","""event"",""trial"",""time""
""fullscreenenter"",""1"",""1367""
""blur"",""4"",""11171""
""focus"",""6"",""23173""
","""event"",""trial"",""time""
""blur"",""4"",""11171""
","""event"",""trial"",""time""
""focus"",""6"",""23173""
","""event"",""trial"",""time""
""fullscreenenter"",""1"",""1367""
","
","","t","elianto","#f73b6a7A"," "," ","1511.2000000476837","1","0","[2363.7000000476837]","1","9","999","999","999","2","82","7","3","lose","go","0",""
"pit-trial","85","348895","0.0-85.0","battery-v0.2","","""event"",""trial"",""time""
""fullscreenenter"",""1"",""1367""
""blur"",""4"",""11171""
""focus"",""6"",""23173""
","""event"",""trial"",""time""
""blur"",""4"",""11171""
","""event"",""trial"",""time""
""focus"",""6"",""23173""
","""event"",""trial"",""time""
""fullscreenenter"",""1"",""1367""
","
","","b","elianto","#f73b6a7A","-1"," ","1395.3999999761581","0","-10","[2248]","1","9","999","999","999","2","83","6","4","lose","no-go","0",""
"pit-trial","86","352788","0.0-86.0","battery-v0.2","","""event"",""trial"",""time""
""fullscreenenter"",""1"",""1367""
""blur"",""4"",""11171""
""focus"",""6"",""23173""
","""event"",""trial"",""time""
""blur"",""4"",""11171""
","""event"",""trial"",""time""
""focus"",""6"",""23173""
","""event"",""trial"",""time""
""fullscreenenter"",""1"",""1367""
","
","","c","elianto","#3366ff99"," "," ","1036.6999999284744","1","+10","[1889.5]","1","9","999","999","999","2","84","5","1","win","go","0",""
"pit-trial","87","357647","0.0-87.0","battery-v0.2","","""event"",""trial"",""time""
""fullscreenenter"",""1"",""1367""
""blur"",""4"",""11171""
""focus"",""6"",""23173""
","""event"",""trial"",""time""
""blur"",""4"",""11171""
","""event"",""trial"",""time""
""focus"",""6"",""23173""
","""event"",""trial"",""time""
""fullscreenenter"",""1"",""1367""
","
","","b","elianto","#f73b6a7A","-1","-1","-1","1","0","[4251.300000071526]","1","9","999","999","999","2","85","6","4","lose","no-go","0",""
"pit-trial","88","361295","0.0-88.0","battery-v0.2","","""event"",""trial"",""time""
""fullscreenenter"",""1"",""1367""
""blur"",""4"",""11171""
""focus"",""6"",""23173""
","""event"",""trial"",""time""
""blur"",""4"",""11171""
","""event"",""trial"",""time""
""focus"",""6"",""23173""
","""event"",""trial"",""time""
""fullscreenenter"",""1"",""1367""
","
","","c","elianto","#3366ff99"," "," ","790.1999999284744","1","0","[1642.6999999284744]","1","9","999","999","999","2","86","5","1","win","go","1",""
"pit-trial","89","365049","0.0-89.0","battery-v0.2","","""event"",""trial"",""time""
""fullscreenenter"",""1"",""1367""
""blur"",""4"",""11171""
""focus"",""6"",""23173""
","""event"",""trial"",""time""
""blur"",""4"",""11171""
","""event"",""trial"",""time""
""focus"",""6"",""23173""
","""event"",""trial"",""time""
""fullscreenenter"",""1"",""1367""
","
","","z","elianto","#3366ff99","-1"," ","899.1999999284744","0","0","[1751.6999999284744]","1","9","999","999","999","2","87","4","2","win","no-go","0",""
"pit-trial","90","369390","0.0-90.0","battery-v0.2","","""event"",""trial"",""time""
""fullscreenenter"",""1"",""1367""
""blur"",""4"",""11171""
""focus"",""6"",""23173""
","""event"",""trial"",""time""
""blur"",""4"",""11171""
","""event"",""trial"",""time""
""focus"",""6"",""23173""
","""event"",""trial"",""time""
""fullscreenenter"",""1"",""1367""
","
","","t","elianto","#f73b6a7A"," "," ","1489.5","1","0","[2340.100000023842]","1","9","999","999","999","2","88","7","3","lose","go","0",""
"pit-trial","91","374207","0.0-91.0","battery-v0.2","","""event"",""trial"",""time""
""fullscreenenter"",""1"",""1367""
""blur"",""4"",""11171""
""focus"",""6"",""23173""
","""event"",""trial"",""time""
""blur"",""4"",""11171""
","""event"",""trial"",""time""
""focus"",""6"",""23173""
","""event"",""trial"",""time""
""fullscreenenter"",""1"",""1367""
","
","","z","elianto","#3366ff99","-1"," ","1961.8999999761581","0","0","[2812.899999976158]","1","9","999","999","999","2","89","4","2","win","no-go","0",""
"pit-trial","92","377604","0.0-92.0","battery-v0.2","","""event"",""trial"",""time""
""fullscreenenter"",""1"",""1367""
""blur"",""4"",""11171""
""focus"",""6"",""23173""
","""event"",""trial"",""time""
""blur"",""4"",""11171""
","""event"",""trial"",""time""
""focus"",""6"",""23173""
","""event"",""trial"",""time""
""fullscreenenter"",""1"",""1367""
","
","","b","elianto","#f73b6a7A","-1"," ","544.1000000238419","0","-10","[1394.3999999761581]","1","9","999","999","999","2","90","6","4","lose","no-go","0",""
"pit-trial","93","381070","0.0-93.0","battery-v0.2","","""event"",""trial"",""time""
""fullscreenenter"",""1"",""1367""
""blur"",""4"",""11171""
""focus"",""6"",""23173""
","""event"",""trial"",""time""
""blur"",""4"",""11171""
","""event"",""trial"",""time""
""focus"",""6"",""23173""
","""event"",""trial"",""time""
""fullscreenenter"",""1"",""1367""
","
","","t","elianto","#f73b6a7A"," "," ","611.3999999761581","1","-10","[1461.3999999761581]","1","9","999","999","999","2","91","7","3","lose","go","1",""
"pit-trial","94","384489","0.0-94.0","battery-v0.2","","""event"",""trial"",""time""
""fullscreenenter"",""1"",""1367""
""blur"",""4"",""11171""
""focus"",""6"",""23173""
","""event"",""trial"",""time""
""blur"",""4"",""11171""
","""event"",""trial"",""time""
""focus"",""6"",""23173""
","""event"",""trial"",""time""
""fullscreenenter"",""1"",""1367""
","
","","c","elianto","#3366ff99"," "," ","564.2000000476837","1","+10","[1414.5]","1","9","999","999","999","2","92","5","1","win","go","0",""
"pit-trial","95","388361","0.0-95.0","battery-v0.2","","""event"",""trial"",""time""
""fullscreenenter"",""1"",""1367""
""blur"",""4"",""11171""
""focus"",""6"",""23173""
","""event"",""trial"",""time""
""blur"",""4"",""11171""
","""event"",""trial"",""time""
""focus"",""6"",""23173""
","""event"",""trial"",""time""
""fullscreenenter"",""1"",""1367""
","
","","b","elianto","#f73b6a7A","-1"," ","1015","0","-10","[1865.8000000715256]","1","9","999","999","999","2","93","6","4","lose","no-go","0",""
"pit-trial","96","391555","0.0-96.0","battery-v0.2","","""event"",""trial"",""time""
""fullscreenenter"",""1"",""1367""
""blur"",""4"",""11171""
""focus"",""6"",""23173""
","""event"",""trial"",""time""
""blur"",""4"",""11171""
","""event"",""trial"",""time""
""focus"",""6"",""23173""
","""event"",""trial"",""time""
""fullscreenenter"",""1"",""1367""
","
","","t","elianto","#f73b6a7A"," "," ","338.8000000715256","1","0","[1189.5]","1","9","999","999","999","2","94","7","3","lose","go","0",""
"pit-trial","97","394814","0.0-97.0","battery-v0.2","","""event"",""trial"",""time""
""fullscreenenter"",""1"",""1367""
""blur"",""4"",""11171""
""focus"",""6"",""23173""
","""event"",""trial"",""time""
""blur"",""4"",""11171""
","""event"",""trial"",""time""
""focus"",""6"",""23173""
","""event"",""trial"",""time""
""fullscreenenter"",""1"",""1367""
","
","","f","elianto","#3366ff99","-1"," ","406.5","0","0","[1256.7000000476837]","1","9","999","999","999","2","95","8","2","win","no-go","0",""
"pit-trial","98","398078","0.0-98.0","battery-v0.2","","""event"",""trial"",""time""
""fullscreenenter"",""1"",""1367""
""blur"",""4"",""11171""
""focus"",""6"",""23173""
","""event"",""trial"",""time""
""blur"",""4"",""11171""
","""event"",""trial"",""time""
""focus"",""6"",""23173""
","""event"",""trial"",""time""
""fullscreenenter"",""1"",""1367""
","
","","c","elianto","#3366ff99"," "," ","410.39999997615814","1","+10","[1260.5]","1","9","999","999","999","2","96","5","1","win","go","0",""
"pit-trial","99","401880","0.0-99.0","battery-v0.2","","""event"",""trial"",""time""
""fullscreenenter"",""1"",""1367""
""blur"",""4"",""11171""
""focus"",""6"",""23173""
","""event"",""trial"",""time""
""blur"",""4"",""11171""
","""event"",""trial"",""time""
""focus"",""6"",""23173""
","""event"",""trial"",""time""
""fullscreenenter"",""1"",""1367""
","
","","b","elianto","#f73b6a7A","-1"," ","947.1000000238419","0","-10","[1798.7999999523163]","1","9","999","999","999","2","97","6","4","lose","no-go","0",""
"pit-trial","100","405683","0.0-100.0","battery-v0.2","","""event"",""trial"",""time""
""fullscreenenter"",""1"",""1367""
""blur"",""4"",""11171""
""focus"",""6"",""23173""
","""event"",""trial"",""time""
""blur"",""4"",""11171""
","""event"",""trial"",""time""
""focus"",""6"",""23173""
","""event"",""trial"",""time""
""fullscreenenter"",""1"",""1367""
","
","","t","elianto","#f73b6a7A"," "," ","946.3000000715256","1","-10","[1798.3999999761581]","1","9","999","999","999","2","98","7","3","lose","go","1",""
"pit-trial","101","409891","0.0-101.0","battery-v0.2","","""event"",""trial"",""time""
""fullscreenenter"",""1"",""1367""
""blur"",""4"",""11171""
""focus"",""6"",""23173""
","""event"",""trial"",""time""
""blur"",""4"",""11171""
","""event"",""trial"",""time""
""focus"",""6"",""23173""
","""event"",""trial"",""time""
""fullscreenenter"",""1"",""1367""
","
","","f","elianto","#3366ff99","-1"," ","1350.6999999284744","0","0","[2202.7999999523163]","1","9","999","999","999","2","99","8","2","win","no-go","0",""
"pit-trial","102","414054","0.0-102.0","battery-v0.2","","""event"",""trial"",""time""
""fullscreenenter"",""1"",""1367""
""blur"",""4"",""11171""
""focus"",""6"",""23173""
","""event"",""trial"",""time""
""blur"",""4"",""11171""
","""event"",""trial"",""time""
""focus"",""6"",""23173""
","""event"",""trial"",""time""
""fullscreenenter"",""1"",""1367""
","
","","c","elianto","#3366ff99"," "," ","1307.7000000476837","1","+10","[2158.2000000476837]","1","9","999","999","999","2","100","5","1","win","go","0",""
"pit-trial","103","418328","0.0-103.0","battery-v0.2","","""event"",""trial"",""time""
""fullscreenenter"",""1"",""1367""
""blur"",""4"",""11171""
""focus"",""6"",""23173""
","""event"",""trial"",""time""
""blur"",""4"",""11171""
","""event"",""trial"",""time""
""focus"",""6"",""23173""
","""event"",""trial"",""time""
""fullscreenenter"",""1"",""1367""
","
","","f","elianto","#3366ff99","-1"," ","1418.1000000238419","0","0","[2268.7999999523163]","1","9","999","999","999","2","101","8","2","win","no-go","0",""
"pit-trial","104","421949","0.0-104.0","battery-v0.2","","""event"",""trial"",""time""
""fullscreenenter"",""1"",""1367""
""blur"",""4"",""11171""
""focus"",""6"",""23173""
","""event"",""trial"",""time""
""blur"",""4"",""11171""
","""event"",""trial"",""time""
""focus"",""6"",""23173""
","""event"",""trial"",""time""
""fullscreenenter"",""1"",""1367""
","
","","c","elianto","#3366ff99"," "," ","766.6999999284744","1","+10","[1618.1000000238419]","1","9","999","999","999","2","102","5","1","win","go","0",""
"pit-trial","105","425933","0.0-105.0","battery-v0.2","","""event"",""trial"",""time""
""fullscreenenter"",""1"",""1367""
""blur"",""4"",""11171""
""focus"",""6"",""23173""
","""event"",""trial"",""time""
""blur"",""4"",""11171""
","""event"",""trial"",""time""
""focus"",""6"",""23173""
","""event"",""trial"",""time""
""fullscreenenter"",""1"",""1367""
","
","","n","elianto","#3366ff99","-1"," ","1126.8999999761581","0","0","[1978.5]","1","9","999","999","999","2","103","9","2","win","no-go","0",""
"pit-trial","106","430029","0.0-106.0","battery-v0.2","","""event"",""trial"",""time""
""fullscreenenter"",""1"",""1367""
""blur"",""4"",""11171""
""focus"",""6"",""23173""
","""event"",""trial"",""time""
""blur"",""4"",""11171""
","""event"",""trial"",""time""
""focus"",""6"",""23173""
","""event"",""trial"",""time""
""fullscreenenter"",""1"",""1367""
","
","","b","elianto","#f73b6a7A","-1"," ","1238.2000000476837","0","0","[2090.2000000476837]","1","9","999","999","999","2","104","6","4","lose","no-go","1",""
"pit-trial","107","433538","0.0-107.0","battery-v0.2","","""event"",""trial"",""time""
""fullscreenenter"",""1"",""1367""
""blur"",""4"",""11171""
""focus"",""6"",""23173""
","""event"",""trial"",""time""
""blur"",""4"",""11171""
","""event"",""trial"",""time""
""focus"",""6"",""23173""
","""event"",""trial"",""time""
""fullscreenenter"",""1"",""1367""
","
","","c","elianto","#3366ff99"," "," ","652.2000000476837","1","+10","[1503.6000000238419]","1","9","999","999","999","2","105","5","1","win","go","0",""
"pit-trial","108","437271","0.0-108.0","battery-v0.2","","""event"",""trial"",""time""
""fullscreenenter"",""1"",""1367""
""blur"",""4"",""11171""
""focus"",""6"",""23173""
","""event"",""trial"",""time""
""blur"",""4"",""11171""
","""event"",""trial"",""time""
""focus"",""6"",""23173""
","""event"",""trial"",""time""
""fullscreenenter"",""1"",""1367""
","
","","n","elianto","#3366ff99","-1"," ","878","0","0","[1730.3000000715256]","1","9","999","999","999","2","106","9","2","win","no-go","0",""
"pit-trial","109","442125","0.0-109.0","battery-v0.2","","""event"",""trial"",""time""
""fullscreenenter"",""1"",""1367""
""blur"",""4"",""11171""
""focus"",""6"",""23173""
","""event"",""trial"",""time""
""blur"",""4"",""11171""
","""event"",""trial"",""time""
""focus"",""6"",""23173""
","""event"",""trial"",""time""
""fullscreenenter"",""1"",""1367""
","
","","f","elianto","#3366ff99","-1","-1","-1","1","+10","[]","0","9","999","999","999","2","107","8","2","win","no-go","0",""
"pit-trial","110","446498","0.0-110.0","battery-v0.2","","""event"",""trial"",""time""
""fullscreenenter"",""1"",""1367""
""blur"",""4"",""11171""
""focus"",""6"",""23173""
","""event"",""trial"",""time""
""blur"",""4"",""11171""
","""event"",""trial"",""time""
""focus"",""6"",""23173""
","""event"",""trial"",""time""
""fullscreenenter"",""1"",""1367""
","
","","b","elianto","#f73b6a7A","-1"," ","1516.3999999761581","0","-10","[2366.600000023842]","1","9","999","999","999","2","108","6","4","lose","no-go","0",""
"pit-trial","111","450679","0.0-111.0","battery-v0.2","","""event"",""trial"",""time""
""fullscreenenter"",""1"",""1367""
""blur"",""4"",""11171""
""focus"",""6"",""23173""
","""event"",""trial"",""time""
""blur"",""4"",""11171""
","""event"",""trial"",""time""
""focus"",""6"",""23173""
","""event"",""trial"",""time""
""fullscreenenter"",""1"",""1367""
","
","","n","elianto","#3366ff99","-1"," ","1327","0","+10","[2178.600000023842]","1","9","999","999","999","2","109","9","2","win","no-go","1",""
"pit-trial","112","455536","0.0-112.0","battery-v0.2","","""event"",""trial"",""time""
""fullscreenenter"",""1"",""1367""
""blur"",""4"",""11171""
""focus"",""6"",""23173""
","""event"",""trial"",""time""
""blur"",""4"",""11171""
","""event"",""trial"",""time""
""focus"",""6"",""23173""
","""event"",""trial"",""time""
""fullscreenenter"",""1"",""1367""
","
","","f","elianto","#3366ff99","-1","-1","-1","1","+10","[]","0","9","999","999","999","2","110","8","2","win","no-go","0",""
"pit-trial","113","459319","0.0-113.0","battery-v0.2","","""event"",""trial"",""time""
""fullscreenenter"",""1"",""1367""
""blur"",""4"",""11171""
""focus"",""6"",""23173""
","""event"",""trial"",""time""
""blur"",""4"",""11171""
","""event"",""trial"",""time""
""focus"",""6"",""23173""
","""event"",""trial"",""time""
""fullscreenenter"",""1"",""1367""
","
","","c","elianto","#3366ff99"," "," ","928","1","+10","[1780.7000000476837]","1","9","999","999","999","2","111","5","1","win","go","0",""
"pit-trial","114","464177","0.0-114.0","battery-v0.2","","""event"",""trial"",""time""
""fullscreenenter"",""1"",""1367""
""blur"",""4"",""11171""
""focus"",""6"",""23173""
","""event"",""trial"",""time""
""blur"",""4"",""11171""
","""event"",""trial"",""time""
""focus"",""6"",""23173""
","""event"",""trial"",""time""
""fullscreenenter"",""1"",""1367""
","
","","b","elianto","#f73b6a7A","-1","-1","-1","1","0","[]","0","9","999","999","999","2","112","6","4","lose","no-go","0",""
"pit-trial","115","468972","0.0-115.0","battery-v0.2","","""event"",""trial"",""time""
""fullscreenenter"",""1"",""1367""
""blur"",""4"",""11171""
""focus"",""6"",""23173""
","""event"",""trial"",""time""
""blur"",""4"",""11171""
","""event"",""trial"",""time""
""focus"",""6"",""23173""
","""event"",""trial"",""time""
""fullscreenenter"",""1"",""1367""
","
","","t","elianto","#f73b6a7A"," "," ","1940.7999999523163","1","0","[2790.6999999284744]","1","9","999","999","999","2","113","7","3","lose","go","0",""
"pit-trial","116","472796","0.0-116.0","battery-v0.2","","""event"",""trial"",""time""
""fullscreenenter"",""1"",""1367""
""blur"",""4"",""11171""
""focus"",""6"",""23173""
","""event"",""trial"",""time""
""blur"",""4"",""11171""
","""event"",""trial"",""time""
""focus"",""6"",""23173""
","""event"",""trial"",""time""
""fullscreenenter"",""1"",""1367""
","
","","f","elianto","#3366ff99","-1"," ","967.8999999761581","0","0","[1820.3999999761581]","1","9","999","999","999","2","114","8","2","win","no-go","0",""
"pit-trial","117","476441","0.0-117.0","battery-v0.2","","""event"",""trial"",""time""
""fullscreenenter"",""1"",""1367""
""blur"",""4"",""11171""
""focus"",""6"",""23173""
","""event"",""trial"",""time""
""blur"",""4"",""11171""
","""event"",""trial"",""time""
""focus"",""6"",""23173""
","""event"",""trial"",""time""
""fullscreenenter"",""1"",""1367""
","
","","c","elianto","#3366ff99"," "," ","791.7000000476837","1","+10","[1641.8999999761581]","1","9","999","999","999","2","115","5","1","win","go","0",""
"pit-trial","118","481302","0.0-118.0","battery-v0.2","","""event"",""trial"",""time""
""fullscreenenter"",""1"",""1367""
""blur"",""4"",""11171""
""focus"",""6"",""23173""
","""event"",""trial"",""time""
""blur"",""4"",""11171""
","""event"",""trial"",""time""
""focus"",""6"",""23173""
","""event"",""trial"",""time""
""fullscreenenter"",""1"",""1367""
","
","","n","elianto","#3366ff99","-1","-1","-1","1","0","[]","0","9","999","999","999","2","116","9","2","win","no-go","1",""
"pit-trial","119","486159","0.0-119.0","battery-v0.2","","""event"",""trial"",""time""
""fullscreenenter"",""1"",""1367""
""blur"",""4"",""11171""
""focus"",""6"",""23173""
","""event"",""trial"",""time""
""blur"",""4"",""11171""
","""event"",""trial"",""time""
""focus"",""6"",""23173""
","""event"",""trial"",""time""
""fullscreenenter"",""1"",""1367""
","
","","n","elianto","#3366ff99","-1","-1","-1","1","+10","[]","0","9","999","999","999","2","117","9","2","win","no-go","0",""
"pit-trial","120","489761","0.0-120.0","battery-v0.2","","""event"",""trial"",""time""
""fullscreenenter"",""1"",""1367""
""blur"",""4"",""11171""
""focus"",""6"",""23173""
","""event"",""trial"",""time""
""blur"",""4"",""11171""
","""event"",""trial"",""time""
""focus"",""6"",""23173""
","""event"",""trial"",""time""
""fullscreenenter"",""1"",""1367""
","
","","c","elianto","#3366ff99"," "," ","746.2000000476837","1","0","[1596.3999999761581]","1","9","999","999","999","2","118","5","1","win","go","1",""
"pit-trial","121","493482","0.0-121.0","battery-v0.2","","""event"",""trial"",""time""
""fullscreenenter"",""1"",""1367""
""blur"",""4"",""11171""
""focus"",""6"",""23173""
","""event"",""trial"",""time""
""blur"",""4"",""11171""
","""event"",""trial"",""time""
""focus"",""6"",""23173""
","""event"",""trial"",""time""
""fullscreenenter"",""1"",""1367""
","
","","f","elianto","#3366ff99","-1"," ","867.2000000476837","0","0","[1717.7000000476837]","1","9","999","999","999","2","119","8","2","win","no-go","0",""
"pit-trial","122","498341","0.0-122.0","battery-v0.2","","""event"",""trial"",""time""
""fullscreenenter"",""1"",""1367""
""blur"",""4"",""11171""
""focus"",""6"",""23173""
","""event"",""trial"",""time""
""blur"",""4"",""11171""
","""event"",""trial"",""time""
""focus"",""6"",""23173""
","""event"",""trial"",""time""
""fullscreenenter"",""1"",""1367""
","
","","b","elianto","#f73b6a7A","-1","-1","-1","1","0","[]","0","9","999","999","999","2","120","6","4","lose","no-go","0",""
"pit-trial","123","503195","0.0-123.0","battery-v0.2","","""event"",""trial"",""time""
""fullscreenenter"",""1"",""1367""
""blur"",""4"",""11171""
""focus"",""6"",""23173""
","""event"",""trial"",""time""
""blur"",""4"",""11171""
","""event"",""trial"",""time""
""focus"",""6"",""23173""
","""event"",""trial"",""time""
""fullscreenenter"",""1"",""1367""
","
","","n","elianto","#3366ff99","-1","-1","-1","1","+10","[]","0","9","999","999","999","2","121","9","2","win","no-go","0",""
"pit-trial","124","506832","0.0-124.0","battery-v0.2","","""event"",""trial"",""time""
""fullscreenenter"",""1"",""1367""
""blur"",""4"",""11171""
""focus"",""6"",""23173""
","""event"",""trial"",""time""
""blur"",""4"",""11171""
","""event"",""trial"",""time""
""focus"",""6"",""23173""
","""event"",""trial"",""time""
""fullscreenenter"",""1"",""1367""
","
","","f","elianto","#3366ff99","-1"," ","780.7000000476837","0","+10","[1631]","1","9","999","999","999","2","122","8","2","win","no-go","1",""
"pit-trial","125","511077","0.0-125.0","battery-v0.2","","""event"",""trial"",""time""
""fullscreenenter"",""1"",""1367""
""blur"",""4"",""11171""
""focus"",""6"",""23173""
","""event"",""trial"",""time""
""blur"",""4"",""11171""
","""event"",""trial"",""time""
""focus"",""6"",""23173""
","""event"",""trial"",""time""
""fullscreenenter"",""1"",""1367""
","
","","c","elianto","#3366ff99"," "," ","1391.5","1","+10","[2241.600000023842]","1","9","999","999","999","2","123","5","1","win","go","0",""
"pit-trial","126","515397","0.0-126.0","battery-v0.2","","""event"",""trial"",""time""
""fullscreenenter"",""1"",""1367""
""blur"",""4"",""11171""
""focus"",""6"",""23173""
","""event"",""trial"",""time""
""blur"",""4"",""11171""
","""event"",""trial"",""time""
""focus"",""6"",""23173""
","""event"",""trial"",""time""
""fullscreenenter"",""1"",""1367""
","
","","t","elianto","#f73b6a7A"," "," ","1463.3999999761581","1","-10","[2315.5]","1","9","999","999","999","2","124","7","3","lose","go","1",""
"pit-trial","127","520256","0.0-127.0","battery-v0.2","","""event"",""trial"",""time""
""fullscreenenter"",""1"",""1367""
""blur"",""4"",""11171""
""focus"",""6"",""23173""
","""event"",""trial"",""time""
""blur"",""4"",""11171""
","""event"",""trial"",""time""
""focus"",""6"",""23173""
","""event"",""trial"",""time""
""fullscreenenter"",""1"",""1367""
","
","","b","elianto","#f73b6a7A","-1","-1","-1","1","0","[]","0","9","999","999","999","2","125","6","4","lose","no-go","0",""
"pit-trial","128","525111","0.0-128.0","battery-v0.2","","""event"",""trial"",""time""
""fullscreenenter"",""1"",""1367""
""blur"",""4"",""11171""
""focus"",""6"",""23173""
","""event"",""trial"",""time""
""blur"",""4"",""11171""
","""event"",""trial"",""time""
""focus"",""6"",""23173""
","""event"",""trial"",""time""
""fullscreenenter"",""1"",""1367""
","
","","n","elianto","#3366ff99","-1","-1","-1","1","+10","[3012]","1","9","999","999","999","2","126","9","2","win","no-go","0",""
"pit-trial","129","529967","0.0-129.0","battery-v0.2","","""event"",""trial"",""time""
""fullscreenenter"",""1"",""1367""
""blur"",""4"",""11171""
""focus"",""6"",""23173""
","""event"",""trial"",""time""
""blur"",""4"",""11171""
","""event"",""trial"",""time""
""focus"",""6"",""23173""
","""event"",""trial"",""time""
""fullscreenenter"",""1"",""1367""
","
","","f","elianto","#3366ff99","-1","-1","-1","1","0","[]","0","9","999","999","999","2","127","8","2","win","no-go","1",""
"pit-trial","130","534826","0.0-130.0","battery-v0.2","","""event"",""trial"",""time""
""fullscreenenter"",""1"",""1367""
""blur"",""4"",""11171""
""focus"",""6"",""23173""
","""event"",""trial"",""time""
""blur"",""4"",""11171""
","""event"",""trial"",""time""
""focus"",""6"",""23173""
","""event"",""trial"",""time""
""fullscreenenter"",""1"",""1367""
","
","","t","elianto","#f73b6a7A"," ","-1","-1","0","-10","[]","0","9","999","999","999","2","128","7","3","lose","go","0",""
"pit-trial","131","539289","0.0-131.0","battery-v0.2","","""event"",""trial"",""time""
""fullscreenenter"",""1"",""1367""
""blur"",""4"",""11171""
""focus"",""6"",""23173""
","""event"",""trial"",""time""
""blur"",""4"",""11171""
","""event"",""trial"",""time""
""focus"",""6"",""23173""
","""event"",""trial"",""time""
""fullscreenenter"",""1"",""1367""
","
","","b","elianto","#f73b6a7A","-1"," ","1608.8999999761581","0","-10","[2461.399999976158]","1","9","999","999","999","2","129","6","4","lose","no-go","0",""
"pit-trial","132","543139","0.0-132.0","battery-v0.2","","""event"",""trial"",""time""
""fullscreenenter"",""1"",""1367""
""blur"",""4"",""11171""
""focus"",""6"",""23173""
","""event"",""trial"",""time""
""blur"",""4"",""11171""
","""event"",""trial"",""time""
""focus"",""6"",""23173""
","""event"",""trial"",""time""
""fullscreenenter"",""1"",""1367""
","
","","n","elianto","#3366ff99","-1"," ","995.1000000238419","0","0","[1845.1000000238419]","1","9","999","999","999","2","130","9","2","win","no-go","0",""
"pit-trial","133","547999","0.0-133.0","battery-v0.2","","""event"",""trial"",""time""
""fullscreenenter"",""1"",""1367""
""blur"",""4"",""11171""
""focus"",""6"",""23173""
","""event"",""trial"",""time""
""blur"",""4"",""11171""
","""event"",""trial"",""time""
""focus"",""6"",""23173""
","""event"",""trial"",""time""
""fullscreenenter"",""1"",""1367""
","
","","f","elianto","#3366ff99","-1","-1","-1","1","0","[]","0","9","999","999","999","2","131","8","2","win","no-go","1",""
"pit-trial","134","552857","0.0-134.0","battery-v0.2","","""event"",""trial"",""time""
""fullscreenenter"",""1"",""1367""
""blur"",""4"",""11171""
""focus"",""6"",""23173""
","""event"",""trial"",""time""
""blur"",""4"",""11171""
","""event"",""trial"",""time""
""focus"",""6"",""23173""
","""event"",""trial"",""time""
""fullscreenenter"",""1"",""1367""
","
","","t","elianto","#f73b6a7A"," ","-1","-1","0","0","[]","0","9","999","999","999","2","132","7","3","lose","go","1",""
"pit-trial","135","557716","0.0-135.0","battery-v0.2","","""event"",""trial"",""time""
""fullscreenenter"",""1"",""1367""
""blur"",""4"",""11171""
""focus"",""6"",""23173""
","""event"",""trial"",""time""
""blur"",""4"",""11171""
","""event"",""trial"",""time""
""focus"",""6"",""23173""
","""event"",""trial"",""time""
""fullscreenenter"",""1"",""1367""
","
","","f","elianto","#3366ff99","-1","-1","-1","1","+10","[]","0","9","999","999","999","2","133","8","2","win","no-go","0",""
"pit-trial","136","562570","0.0-136.0","battery-v0.2","","""event"",""trial"",""time""
""fullscreenenter"",""1"",""1367""
""blur"",""4"",""11171""
""focus"",""6"",""23173""
","""event"",""trial"",""time""
""blur"",""4"",""11171""
","""event"",""trial"",""time""
""focus"",""6"",""23173""
","""event"",""trial"",""time""
""fullscreenenter"",""1"",""1367""
","
","","t","elianto","#f73b6a7A"," ","-1","-1","0","-10","[]","0","9","999","999","999","2","134","7","3","lose","go","0",""
"pit-trial","137","567423","0.0-137.0","battery-v0.2","","""event"",""trial"",""time""
""fullscreenenter"",""1"",""1367""
""blur"",""4"",""11171""
""focus"",""6"",""23173""
","""event"",""trial"",""time""
""blur"",""4"",""11171""
","""event"",""trial"",""time""
""focus"",""6"",""23173""
","""event"",""trial"",""time""
""fullscreenenter"",""1"",""1367""
","
","","b","elianto","#f73b6a7A","-1","-1","-1","1","0","[]","0","9","999","999","999","2","135","6","4","lose","no-go","0",""
"pit-trial","138","572278","0.0-138.0","battery-v0.2","","""event"",""trial"",""time""
""fullscreenenter"",""1"",""1367""
""blur"",""4"",""11171""
""focus"",""6"",""23173""
","""event"",""trial"",""time""
""blur"",""4"",""11171""
","""event"",""trial"",""time""
""focus"",""6"",""23173""
","""event"",""trial"",""time""
""fullscreenenter"",""1"",""1367""
","
","","n","elianto","#3366ff99","-1","-1","-1","1","+10","[]","0","9","999","999","999","2","136","9","2","win","no-go","0",""
"pit-trial","139","577136","0.0-139.0","battery-v0.2","","""event"",""trial"",""time""
""fullscreenenter"",""1"",""1367""
""blur"",""4"",""11171""
""focus"",""6"",""23173""
","""event"",""trial"",""time""
""blur"",""4"",""11171""
","""event"",""trial"",""time""
""focus"",""6"",""23173""
","""event"",""trial"",""time""
""fullscreenenter"",""1"",""1367""
","
","","n","elianto","#3366ff99","-1","-1","-1","1","+10","[]","0","9","999","999","999","2","137","9","2","win","no-go","0",""
"pit-trial","140","581992","0.0-140.0","battery-v0.2","","""event"",""trial"",""time""
""fullscreenenter"",""1"",""1367""
""blur"",""4"",""11171""
""focus"",""6"",""23173""
","""event"",""trial"",""time""
""blur"",""4"",""11171""
","""event"",""trial"",""time""
""focus"",""6"",""23173""
","""event"",""trial"",""time""
""fullscreenenter"",""1"",""1367""
","
","","t","elianto","#f73b6a7A"," ","-1","-1","0","-10","[]","0","9","999","999","999","2","138","7","3","lose","go","0",""
"pit-trial","141","586851","0.0-141.0","battery-v0.2","","""event"",""trial"",""time""
""fullscreenenter"",""1"",""1367""
""blur"",""4"",""11171""
""focus"",""6"",""23173""
","""event"",""trial"",""time""
""blur"",""4"",""11171""
","""event"",""trial"",""time""
""focus"",""6"",""23173""
","""event"",""trial"",""time""
""fullscreenenter"",""1"",""1367""
","
","","b","elianto","#f73b6a7A","-1","-1","-1","1","0","[]","0","9","999","999","999","2","139","6","4","lose","no-go","0",""
"pit-trial","142","591128","0.0-142.0","battery-v0.2","","""event"",""trial"",""time""
""fullscreenenter"",""1"",""1367""
""blur"",""4"",""11171""
""focus"",""6"",""23173""
","""event"",""trial"",""time""
""blur"",""4"",""11171""
","""event"",""trial"",""time""
""focus"",""6"",""23173""
","""event"",""trial"",""time""
""fullscreenenter"",""1"",""1367""
","
","","f","elianto","#3366ff99","-1"," ","1420.3000000715256","0","0","[2272.7000000476837]","1","9","999","999","999","2","140","8","2","win","no-go","0",""
"pit-instructions","143","611306","0.0-143.0","battery-v0.2","","""event"",""trial"",""time""
""fullscreenenter"",""1"",""1367""
""blur"",""4"",""11171""
""focus"",""6"",""23173""
","""event"",""trial"",""time""
""blur"",""4"",""11171""
","""event"",""trial"",""time""
""focus"",""6"",""23173""
","""event"",""trial"",""time""
""fullscreenenter"",""1"",""1367""
","
","","","","","","","20178","","","","","","","","","","","","","","","","[{""page_index"":0,""viewing_time"":8807},{""page_index"":1,""viewing_time"":11370.600000023842}]"
"pit-trial","144","616167","0.0-144.0","battery-v0.2","","""event"",""trial"",""time""
""fullscreenenter"",""1"",""1367""
""blur"",""4"",""11171""
""focus"",""6"",""23173""
","""event"",""trial"",""time""
""blur"",""4"",""11171""
","""event"",""trial"",""time""
""focus"",""6"",""23173""
","""event"",""trial"",""time""
""fullscreenenter"",""1"",""1367""
","
","","a","elianto","#f73b6a7A"," ","-1","-1","0","0","[]","0","9","999","999","999","3","141","2","3","lose","go","1",""
"pit-trial","145","620061","0.0-145.0","battery-v0.2","","""event"",""trial"",""time""
""fullscreenenter"",""1"",""1367""
""blur"",""4"",""11171""
""focus"",""6"",""23173""
","""event"",""trial"",""time""
""blur"",""4"",""11171""
","""event"",""trial"",""time""
""focus"",""6"",""23173""
","""event"",""trial"",""time""
""fullscreenenter"",""1"",""1367""
","
","","l","elianto","#3366ff99","-1"," ","1038.1000000238419","0","+10","[1890.2000000476837]","1","9","999","999","999","3","142","1","2","win","no-go","1",""
"pit-trial","146","624914","0.0-146.0","battery-v0.2","","""event"",""trial"",""time""
""fullscreenenter"",""1"",""1367""
""blur"",""4"",""11171""
""focus"",""6"",""23173""
","""event"",""trial"",""time""
""blur"",""4"",""11171""
","""event"",""trial"",""time""
""focus"",""6"",""23173""
","""event"",""trial"",""time""
""fullscreenenter"",""1"",""1367""
","
","","u","elianto","#f73b6a7A"," ","-1","-1","0","-10","[4296.799999952316]","1","9","999","999","999","3","143","0","3","lose","go","0",""
"pit-trial","147","629772","0.0-147.0","battery-v0.2","","""event"",""trial"",""time""
""fullscreenenter"",""1"",""1367""
""blur"",""4"",""11171""
""focus"",""6"",""23173""
","""event"",""trial"",""time""
""blur"",""4"",""11171""
","""event"",""trial"",""time""
""focus"",""6"",""23173""
","""event"",""trial"",""time""
""fullscreenenter"",""1"",""1367""
","
","","g","elianto","#f73b6a7A","-1","-1","-1","1","0","[2997]","1","9","999","999","999","3","144","3","4","lose","no-go","0",""
"pit-trial","148","633335","0.0-148.0","battery-v0.2","","""event"",""trial"",""time""
""fullscreenenter"",""1"",""1367""
""blur"",""4"",""11171""
""focus"",""6"",""23173""
","""event"",""trial"",""time""
""blur"",""4"",""11171""
","""event"",""trial"",""time""
""focus"",""6"",""23173""
","""event"",""trial"",""time""
""fullscreenenter"",""1"",""1367""
","
","","g","elianto","#f73b6a7A","-1"," ","707.8999999761581","0","-10","[1558.7999999523163]","1","9","999","999","999","3","145","3","4","lose","no-go","0",""
"pit-trial","149","638194","0.0-149.0","battery-v0.2","","""event"",""trial"",""time""
""fullscreenenter"",""1"",""1367""
""blur"",""4"",""11171""
""focus"",""6"",""23173""
","""event"",""trial"",""time""
""blur"",""4"",""11171""
","""event"",""trial"",""time""
""focus"",""6"",""23173""
","""event"",""trial"",""time""
""fullscreenenter"",""1"",""1367""
","
","","l","elianto","#3366ff99","-1","-1","-1","1","+10","[3036]","1","9","999","999","999","3","146","1","2","win","no-go","0",""
"pit-trial","150","643052","0.0-150.0","battery-v0.2","","""event"",""trial"",""time""
""fullscreenenter"",""1"",""1367""
""blur"",""4"",""11171""
""focus"",""6"",""23173""
","""event"",""trial"",""time""
""blur"",""4"",""11171""
","""event"",""trial"",""time""
""focus"",""6"",""23173""
","""event"",""trial"",""time""
""fullscreenenter"",""1"",""1367""
","
","","a","elianto","#f73b6a7A"," ","-1","-1","0","-10","[]","0","9","999","999","999","3","147","2","3","lose","go","0",""
"pit-trial","151","647148","0.0-151.0","battery-v0.2","","""event"",""trial"",""time""
""fullscreenenter"",""1"",""1367""
""blur"",""4"",""11171""
""focus"",""6"",""23173""
","""event"",""trial"",""time""
""blur"",""4"",""11171""
","""event"",""trial"",""time""
""focus"",""6"",""23173""
","""event"",""trial"",""time""
""fullscreenenter"",""1"",""1367""
","
","","u","elianto","#f73b6a7A"," "," ","1243.0999999046326","1","0","[2093.100000023842]","1","9","999","999","999","3","148","0","3","lose","go","0",""
"pit-trial","152","650749","0.0-152.0","battery-v0.2","","""event"",""trial"",""time""
""fullscreenenter"",""1"",""1367""
""blur"",""4"",""11171""
""focus"",""6"",""23173""
","""event"",""trial"",""time""
""blur"",""4"",""11171""
","""event"",""trial"",""time""
""focus"",""6"",""23173""
","""event"",""trial"",""time""
""fullscreenenter"",""1"",""1367""
","
","","l","elianto","#3366ff99","-1"," ","745.7000000476837","0","0","[1597.1000000238419]","1","9","999","999","999","3","149","1","2","win","no-go","0",""
"pit-trial","153","654909","0.0-153.0","battery-v0.2","","""event"",""trial"",""time""
""fullscreenenter"",""1"",""1367""
""blur"",""4"",""11171""
""focus"",""6"",""23173""
","""event"",""trial"",""time""
""blur"",""4"",""11171""
","""event"",""trial"",""time""
""focus"",""6"",""23173""
","""event"",""trial"",""time""
""fullscreenenter"",""1"",""1367""
","
","","u","elianto","#f73b6a7A"," "," ","1308","1","0","[2158]","1","9","999","999","999","3","150","0","3","lose","go","0",""
"pit-trial","154","658465","0.0-154.0","battery-v0.2","","""event"",""trial"",""time""
""fullscreenenter"",""1"",""1367""
""blur"",""4"",""11171""
""focus"",""6"",""23173""
","""event"",""trial"",""time""
""blur"",""4"",""11171""
","""event"",""trial"",""time""
""focus"",""6"",""23173""
","""event"",""trial"",""time""
""fullscreenenter"",""1"",""1367""
","
","","g","elianto","#f73b6a7A","-1"," ","701.8999999761581","0","0","[1552.5]","1","9","999","999","999","3","151","3","4","lose","no-go","1",""
"pit-trial","155","662067","0.0-155.0","battery-v0.2","","""event"",""trial"",""time""
""fullscreenenter"",""1"",""1367""
""blur"",""4"",""11171""
""focus"",""6"",""23173""
","""event"",""trial"",""time""
""blur"",""4"",""11171""
","""event"",""trial"",""time""
""focus"",""6"",""23173""
","""event"",""trial"",""time""
""fullscreenenter"",""1"",""1367""
","
","","a","elianto","#f73b6a7A"," "," ","746.8000000715256","1","0","[1597.3000000715256]","1","9","999","999","999","3","152","2","3","lose","go","0",""
"pit-trial","156","665644","0.0-156.0","battery-v0.2","","""event"",""trial"",""time""
""fullscreenenter"",""1"",""1367""
""blur"",""4"",""11171""
""focus"",""6"",""23173""
","""event"",""trial"",""time""
""blur"",""4"",""11171""
","""event"",""trial"",""time""
""focus"",""6"",""23173""
","""event"",""trial"",""time""
""fullscreenenter"",""1"",""1367""
","
","","a","elianto","#f73b6a7A"," "," ","720.1999999284744","1","-10","[1572.0999999046326]","1","9","999","999","999","3","153","2","3","lose","go","1",""
"pit-trial","157","669533","0.0-157.0","battery-v0.2","","""event"",""trial"",""time""
""fullscreenenter"",""1"",""1367""
""blur"",""4"",""11171""
""focus"",""6"",""23173""
","""event"",""trial"",""time""
""blur"",""4"",""11171""
","""event"",""trial"",""time""
""focus"",""6"",""23173""
","""event"",""trial"",""time""
""fullscreenenter"",""1"",""1367""
","
","","l","elianto","#3366ff99","-1"," ","1036.3999999761581","0","0","[1886.7999999523163]","1","9","999","999","999","3","154","1","2","win","no-go","0",""
"pit-trial","158","673160","0.0-158.0","battery-v0.2","","""event"",""trial"",""time""
""fullscreenenter"",""1"",""1367""
""blur"",""4"",""11171""
""focus"",""6"",""23173""
","""event"",""trial"",""time""
""blur"",""4"",""11171""
","""event"",""trial"",""time""
""focus"",""6"",""23173""
","""event"",""trial"",""time""
""fullscreenenter"",""1"",""1367""
","
","","g","elianto","#f73b6a7A","-1"," ","772.5","0","0","[1622.6999999284744]","1","9","999","999","999","3","155","3","4","lose","no-go","1",""
"pit-trial","159","677160","0.0-159.0","battery-v0.2","","""event"",""trial"",""time""
""fullscreenenter"",""1"",""1367""
""blur"",""4"",""11171""
""focus"",""6"",""23173""
","""event"",""trial"",""time""
""blur"",""4"",""11171""
","""event"",""trial"",""time""
""focus"",""6"",""23173""
","""event"",""trial"",""time""
""fullscreenenter"",""1"",""1367""
","
","","u","elianto","#f73b6a7A"," "," ","1147","1","0","[1998]","1","9","999","999","999","3","156","0","3","lose","go","0",""
"pit-trial","160","680765","0.0-160.0","battery-v0.2","","""event"",""trial"",""time""
""fullscreenenter"",""1"",""1367""
""blur"",""4"",""11171""
""focus"",""6"",""23173""
","""event"",""trial"",""time""
""blur"",""4"",""11171""
","""event"",""trial"",""time""
""focus"",""6"",""23173""
","""event"",""trial"",""time""
""fullscreenenter"",""1"",""1367""
","
","","u","elianto","#f73b6a7A"," "," ","747.6000000238419","1","0","[1599.5]","1","9","999","999","999","3","157","0","3","lose","go","0",""
"pit-trial","161","685618","0.0-161.0","battery-v0.2","","""event"",""trial"",""time""
""fullscreenenter"",""1"",""1367""
""blur"",""4"",""11171""
""focus"",""6"",""23173""
","""event"",""trial"",""time""
""blur"",""4"",""11171""
","""event"",""trial"",""time""
""focus"",""6"",""23173""
","""event"",""trial"",""time""
""fullscreenenter"",""1"",""1367""
","
","","l","elianto","#3366ff99","-1","-1","-1","1","+10","[]","0","9","999","999","999","3","158","1","2","win","no-go","0",""
"pit-trial","162","689336","0.0-162.0","battery-v0.2","","""event"",""trial"",""time""
""fullscreenenter"",""1"",""1367""
""blur"",""4"",""11171""
""focus"",""6"",""23173""
","""event"",""trial"",""time""
""blur"",""4"",""11171""
","""event"",""trial"",""time""
""focus"",""6"",""23173""
","""event"",""trial"",""time""
""fullscreenenter"",""1"",""1367""
","
","","g","elianto","#f73b6a7A","-1"," ","863","0","-10","[1713.1000000238419]","1","9","999","999","999","3","159","3","4","lose","no-go","0",""
"pit-trial","163","692867","0.0-163.0","battery-v0.2","","""event"",""trial"",""time""
""fullscreenenter"",""1"",""1367""
""blur"",""4"",""11171""
""focus"",""6"",""23173""
","""event"",""trial"",""time""
""blur"",""4"",""11171""
","""event"",""trial"",""time""
""focus"",""6"",""23173""
","""event"",""trial"",""time""
""fullscreenenter"",""1"",""1367""
","
","","a","elianto","#f73b6a7A"," "," ","676","1","0","[1527.1000000238419]","1","9","999","999","999","3","160","2","3","lose","go","0",""
"pit-trial","164","697725","0.0-164.0","battery-v0.2","","""event"",""trial"",""time""
""fullscreenenter"",""1"",""1367""
""blur"",""4"",""11171""
""focus"",""6"",""23173""
","""event"",""trial"",""time""
""blur"",""4"",""11171""
","""event"",""trial"",""time""
""focus"",""6"",""23173""
","""event"",""trial"",""time""
""fullscreenenter"",""1"",""1367""
","
","","g","elianto","#f73b6a7A","-1","-1","-1","1","0","[]","0","9","999","999","999","3","161","3","4","lose","no-go","0",""
"pit-trial","165","702580","0.0-165.0","battery-v0.2","","""event"",""trial"",""time""
""fullscreenenter"",""1"",""1367""
""blur"",""4"",""11171""
""focus"",""6"",""23173""
","""event"",""trial"",""time""
""blur"",""4"",""11171""
","""event"",""trial"",""time""
""focus"",""6"",""23173""
","""event"",""trial"",""time""
""fullscreenenter"",""1"",""1367""
","
","","a","elianto","#f73b6a7A"," ","-1","-1","0","-10","[]","0","9","999","999","999","3","162","2","3","lose","go","0",""
"pit-trial","166","706301","0.0-166.0","battery-v0.2","","""event"",""trial"",""time""
""fullscreenenter"",""1"",""1367""
""blur"",""4"",""11171""
""focus"",""6"",""23173""
","""event"",""trial"",""time""
""blur"",""4"",""11171""
","""event"",""trial"",""time""
""focus"",""6"",""23173""
","""event"",""trial"",""time""
""fullscreenenter"",""1"",""1367""
","
","","l","elianto","#3366ff99","-1"," ","865.8999999761581","0","+10","[1716.2999999523163]","1","9","999","999","999","3","163","1","2","win","no-go","1",""
"pit-trial","167","709922","0.0-167.0","battery-v0.2","","""event"",""trial"",""time""
""fullscreenenter"",""1"",""1367""
""blur"",""4"",""11171""
""focus"",""6"",""23173""
","""event"",""trial"",""time""
""blur"",""4"",""11171""
","""event"",""trial"",""time""
""focus"",""6"",""23173""
","""event"",""trial"",""time""
""fullscreenenter"",""1"",""1367""
","
","","u","elianto","#f73b6a7A"," "," ","764.6000000238419","1","0","[1615.3999999761581]","1","9","999","999","999","3","164","0","3","lose","go","0",""
"pit-trial","168","713320","0.0-168.0","battery-v0.2","","""event"",""trial"",""time""
""fullscreenenter"",""1"",""1367""
""blur"",""4"",""11171""
""focus"",""6"",""23173""
","""event"",""trial"",""time""
""blur"",""4"",""11171""
","""event"",""trial"",""time""
""focus"",""6"",""23173""
","""event"",""trial"",""time""
""fullscreenenter"",""1"",""1367""
","
","","u","elianto","#f73b6a7A"," "," ","541.2000000476837","1","0","[1392.6000000238419]","1","9","999","999","999","3","165","0","3","lose","go","0",""
"pit-trial","169","716962","0.0-169.0","battery-v0.2","","""event"",""trial"",""time""
""fullscreenenter"",""1"",""1367""
""blur"",""4"",""11171""
""focus"",""6"",""23173""
","""event"",""trial"",""time""
""blur"",""4"",""11171""
","""event"",""trial"",""time""
""focus"",""6"",""23173""
","""event"",""trial"",""time""
""fullscreenenter"",""1"",""1367""
","
","","l","elianto","#3366ff99","-1"," ","788.2999999523163","0","0","[1639.5]","1","9","999","999","999","3","166","1","2","win","no-go","0",""
"pit-trial","170","720269","0.0-170.0","battery-v0.2","","""event"",""trial"",""time""
""fullscreenenter"",""1"",""1367""
""blur"",""4"",""11171""
""focus"",""6"",""23173""
","""event"",""trial"",""time""
""blur"",""4"",""11171""
","""event"",""trial"",""time""
""focus"",""6"",""23173""
","""event"",""trial"",""time""
""fullscreenenter"",""1"",""1367""
","
","","a","elianto","#f73b6a7A"," "," ","453","1","0","[1305.1000000238419]","1","9","999","999","999","3","167","2","3","lose","go","0",""
"pit-trial","171","725127","0.0-171.0","battery-v0.2","","""event"",""trial"",""time""
""fullscreenenter"",""1"",""1367""
""blur"",""4"",""11171""
""focus"",""6"",""23173""
","""event"",""trial"",""time""
""blur"",""4"",""11171""
","""event"",""trial"",""time""
""focus"",""6"",""23173""
","""event"",""trial"",""time""
""fullscreenenter"",""1"",""1367""
","
","","g","elianto","#f73b6a7A","-1","-1","-1","1","0","[]","0","9","999","999","999","3","168","3","4","lose","no-go","0",""
"pit-trial","172","728754","0.0-172.0","battery-v0.2","","""event"",""trial"",""time""
""fullscreenenter"",""1"",""1367""
""blur"",""4"",""11171""
""focus"",""6"",""23173""
","""event"",""trial"",""time""
""blur"",""4"",""11171""
","""event"",""trial"",""time""
""focus"",""6"",""23173""
","""event"",""trial"",""time""
""fullscreenenter"",""1"",""1367""
","
","","l","elianto","#3366ff99","-1"," ","769.6000000238419","0","0","[1621.2000000476837]","1","9","999","999","999","3","169","1","2","win","no-go","0",""
"pit-trial","173","733612","0.0-173.0","battery-v0.2","","""event"",""trial"",""time""
""fullscreenenter"",""1"",""1367""
""blur"",""4"",""11171""
""focus"",""6"",""23173""
","""event"",""trial"",""time""
""blur"",""4"",""11171""
","""event"",""trial"",""time""
""focus"",""6"",""23173""
","""event"",""trial"",""time""
""fullscreenenter"",""1"",""1367""
","
","","a","elianto","#f73b6a7A"," ","-1","-1","0","-10","[]","0","9","999","999","999","3","170","2","3","lose","go","0",""
"pit-trial","174","737164","0.0-174.0","battery-v0.2","","""event"",""trial"",""time""
""fullscreenenter"",""1"",""1367""
""blur"",""4"",""11171""
""focus"",""6"",""23173""
","""event"",""trial"",""time""
""blur"",""4"",""11171""
","""event"",""trial"",""time""
""focus"",""6"",""23173""
","""event"",""trial"",""time""
""fullscreenenter"",""1"",""1367""
","
","","u","elianto","#f73b6a7A"," "," ","698.8000000715256","1","0","[1550.5]","1","9","999","999","999","3","171","0","3","lose","go","0",""
"pit-trial","175","740812","0.0-175.0","battery-v0.2","","""event"",""trial"",""time""
""fullscreenenter"",""1"",""1367""
""blur"",""4"",""11171""
""focus"",""6"",""23173""
","""event"",""trial"",""time""
""blur"",""4"",""11171""
","""event"",""trial"",""time""
""focus"",""6"",""23173""
","""event"",""trial"",""time""
""fullscreenenter"",""1"",""1367""
","
","","g","elianto","#f73b6a7A","-1"," ","793.4000000953674","0","-10","[1645.9000000953674]","1","9","999","999","999","3","172","3","4","lose","no-go","0",""
"pit-trial","176","744524","0.0-176.0","battery-v0.2","","""event"",""trial"",""time""
""fullscreenenter"",""1"",""1367""
""blur"",""4"",""11171""
""focus"",""6"",""23173""
","""event"",""trial"",""time""
""blur"",""4"",""11171""
","""event"",""trial"",""time""
""focus"",""6"",""23173""
","""event"",""trial"",""time""
""fullscreenenter"",""1"",""1367""
","
","","u","elianto","#f73b6a7A"," "," ","857.1000000238419","1","0","[1709.3999999761581]","1","9","999","999","999","3","173","0","3","lose","go","0",""
"pit-trial","177","749116","0.0-177.0","battery-v0.2","","""event"",""trial"",""time""
""fullscreenenter"",""1"",""1367""
""blur"",""4"",""11171""
""focus"",""6"",""23173""
","""event"",""trial"",""time""
""blur"",""4"",""11171""
","""event"",""trial"",""time""
""focus"",""6"",""23173""
","""event"",""trial"",""time""
""fullscreenenter"",""1"",""1367""
","
","","a","elianto","#f73b6a7A"," "," ","1733.8999999761581","1","0","[2585.6999999284744]","1","9","999","999","999","3","174","2","3","lose","go","0",""
"pit-trial","178","753974","0.0-178.0","battery-v0.2","","""event"",""trial"",""time""
""fullscreenenter"",""1"",""1367""
""blur"",""4"",""11171""
""focus"",""6"",""23173""
","""event"",""trial"",""time""
""blur"",""4"",""11171""
","""event"",""trial"",""time""
""focus"",""6"",""23173""
","""event"",""trial"",""time""
""fullscreenenter"",""1"",""1367""
","
","","l","elianto","#3366ff99","-1","-1","-1","1","+10","[]","0","9","999","999","999","3","175","1","2","win","no-go","0",""
"pit-trial","179","758476","0.0-179.0","battery-v0.2","","""event"",""trial"",""time""
""fullscreenenter"",""1"",""1367""
""blur"",""4"",""11171""
""focus"",""6"",""23173""
","""event"",""trial"",""time""
""blur"",""4"",""11171""
","""event"",""trial"",""time""
""focus"",""6"",""23173""
","""event"",""trial"",""time""
""fullscreenenter"",""1"",""1367""
","
","","g","elianto","#f73b6a7A","-1"," ","1644.5","0","-10","[2495.7000000476837]","1","9","999","999","999","3","176","3","4","lose","no-go","0",""
"pit-trial","180","763333","0.0-180.0","battery-v0.2","","""event"",""trial"",""time""
""fullscreenenter"",""1"",""1367""
""blur"",""4"",""11171""
""focus"",""6"",""23173""
","""event"",""trial"",""time""
""blur"",""4"",""11171""
","""event"",""trial"",""time""
""focus"",""6"",""23173""
","""event"",""trial"",""time""
""fullscreenenter"",""1"",""1367""
","
","","g","elianto","#f73b6a7A","-1","-1","-1","1","0","[3257.6999999284744]","1","9","999","999","999","3","177","3","4","lose","no-go","0",""
"pit-trial","181","767046","0.0-181.0","battery-v0.2","","""event"",""trial"",""time""
""fullscreenenter"",""1"",""1367""
""blur"",""4"",""11171""
""focus"",""6"",""23173""
","""event"",""trial"",""time""
""blur"",""4"",""11171""
","""event"",""trial"",""time""
""focus"",""6"",""23173""
","""event"",""trial"",""time""
""fullscreenenter"",""1"",""1367""
","
","","p","elianto","#3366ff99"," "," ","854.8999999761581","1","+10","[1708.1000000238419]","1","9","999","999","999","3","178","4","1","win","go","0",""
"pit-trial","182","771028","0.0-182.0","battery-v0.2","","""event"",""trial"",""time""
""fullscreenenter"",""1"",""1367""
""blur"",""4"",""11171""
""focus"",""6"",""23173""
","""event"",""trial"",""time""
""blur"",""4"",""11171""
","""event"",""trial"",""time""
""focus"",""6"",""23173""
","""event"",""trial"",""time""
""fullscreenenter"",""1"",""1367""
","
","","u","elianto","#f73b6a7A"," "," ","1125.3999999761581","1","0","[1977.5]","1","9","999","999","999","3","179","0","3","lose","go","0",""
"pit-trial","183","775233","0.0-183.0","battery-v0.2","","""event"",""trial"",""time""
""fullscreenenter"",""1"",""1367""
""blur"",""4"",""11171""
""focus"",""6"",""23173""
","""event"",""trial"",""time""
""blur"",""4"",""11171""
","""event"",""trial"",""time""
""focus"",""6"",""23173""
","""event"",""trial"",""time""
""fullscreenenter"",""1"",""1367""
","
","","a","elianto","#f73b6a7A"," "," ","1351.7999999523163","1","-10","[2202.2999999523163]","1","9","999","999","999","3","180","2","3","lose","go","1",""
"pit-trial","184","778790","0.0-184.0","battery-v0.2","","""event"",""trial"",""time""
""fullscreenenter"",""1"",""1367""
""blur"",""4"",""11171""
""focus"",""6"",""23173""
","""event"",""trial"",""time""
""blur"",""4"",""11171""
","""event"",""trial"",""time""
""focus"",""6"",""23173""
","""event"",""trial"",""time""
""fullscreenenter"",""1"",""1367""
","
","","p","elianto","#3366ff99"," "," ","700.2999999523163","1","+10","[1552.7999999523163]","1","9","999","999","999","3","181","4","1","win","go","0",""
"pit-trial","185","782592","0.0-185.0","battery-v0.2","","""event"",""trial"",""time""
""fullscreenenter"",""1"",""1367""
""blur"",""4"",""11171""
""focus"",""6"",""23173""
","""event"",""trial"",""time""
""blur"",""4"",""11171""
","""event"",""trial"",""time""
""focus"",""6"",""23173""
","""event"",""trial"",""time""
""fullscreenenter"",""1"",""1367""
","
","","l","elianto","#3366ff99","-1"," ","947.3999999761581","0","+10","[1797.5]","1","9","999","999","999","3","182","1","2","win","no-go","1",""
"pit-trial","186","787447","0.0-186.0","battery-v0.2","","""event"",""trial"",""time""
""fullscreenenter"",""1"",""1367""
""blur"",""4"",""11171""
""focus"",""6"",""23173""
","""event"",""trial"",""time""
""blur"",""4"",""11171""
","""event"",""trial"",""time""
""focus"",""6"",""23173""
","""event"",""trial"",""time""
""fullscreenenter"",""1"",""1367""
","
","","a","elianto","#f73b6a7A"," ","-1","-1","0","-10","[]","0","9","999","999","999","3","183","2","3","lose","go","0",""
"pit-trial","187","792300","0.0-187.0","battery-v0.2","","""event"",""trial"",""time""
""fullscreenenter"",""1"",""1367""
""blur"",""4"",""11171""
""focus"",""6"",""23173""
","""event"",""trial"",""time""
""blur"",""4"",""11171""
","""event"",""trial"",""time""
""focus"",""6"",""23173""
","""event"",""trial"",""time""
""fullscreenenter"",""1"",""1367""
","
","","g","elianto","#f73b6a7A","-1","-1","-1","1","0","[]","0","9","999","999","999","3","184","3","4","lose","no-go","0",""
"pit-trial","188","796246","0.0-188.0","battery-v0.2","","""event"",""trial"",""time""
""fullscreenenter"",""1"",""1367""
""blur"",""4"",""11171""
""focus"",""6"",""23173""
","""event"",""trial"",""time""
""blur"",""4"",""11171""
","""event"",""trial"",""time""
""focus"",""6"",""23173""
","""event"",""trial"",""time""
""fullscreenenter"",""1"",""1367""
","
","","s","elianto","#3366ff99","-1"," ","1092.8000000715256","0","0","[1944.2000000476837]","1","9","999","999","999","3","185","5","2","win","no-go","0",""
"pit-trial","189","800432","0.0-189.0","battery-v0.2","","""event"",""trial"",""time""
""fullscreenenter"",""1"",""1367""
""blur"",""4"",""11171""
""focus"",""6"",""23173""
","""event"",""trial"",""time""
""blur"",""4"",""11171""
","""event"",""trial"",""time""
""focus"",""6"",""23173""
","""event"",""trial"",""time""
""fullscreenenter"",""1"",""1367""
","
","","p","elianto","#3366ff99"," "," ","1331.4000000953674","1","+10","[2182.7000000476837]","1","9","999","999","999","3","186","4","1","win","go","0",""
"pit-trial","190","804032","0.0-190.0","battery-v0.2","","""event"",""trial"",""time""
""fullscreenenter"",""1"",""1367""
""blur"",""4"",""11171""
""focus"",""6"",""23173""
","""event"",""trial"",""time""
""blur"",""4"",""11171""
","""event"",""trial"",""time""
""focus"",""6"",""23173""
","""event"",""trial"",""time""
""fullscreenenter"",""1"",""1367""
","
","","l","elianto","#3366ff99","-1"," ","745.6999999284744","0","0","[1596.8999999761581]","1","9","999","999","999","3","187","1","2","win","no-go","0",""
"pit-trial","191","807589","0.0-191.0","battery-v0.2","","""event"",""trial"",""time""
""fullscreenenter"",""1"",""1367""
""blur"",""4"",""11171""
""focus"",""6"",""23173""
","""event"",""trial"",""time""
""blur"",""4"",""11171""
","""event"",""trial"",""time""
""focus"",""6"",""23173""
","""event"",""trial"",""time""
""fullscreenenter"",""1"",""1367""
","
","","g","elianto","#f73b6a7A","-1"," ","701.6000000238419","0","0","[1551.6999999284744]","1","9","999","999","999","3","188","3","4","lose","no-go","1",""
"pit-trial","192","811098","0.0-192.0","battery-v0.2","","""event"",""trial"",""time""
""fullscreenenter"",""1"",""1367""
""blur"",""4"",""11171""
""focus"",""6"",""23173""
","""event"",""trial"",""time""
""blur"",""4"",""11171""
","""event"",""trial"",""time""
""focus"",""6"",""23173""
","""event"",""trial"",""time""
""fullscreenenter"",""1"",""1367""
","
","","p","elianto","#3366ff99"," "," ","653.3999999761581","1","+10","[1504.2999999523163]","1","9","999","999","999","3","189","4","1","win","go","0",""
"pit-trial","193","814538","0.0-193.0","battery-v0.2","","""event"",""trial"",""time""
""fullscreenenter"",""1"",""1367""
""blur"",""4"",""11171""
""focus"",""6"",""23173""
","""event"",""trial"",""time""
""blur"",""4"",""11171""
","""event"",""trial"",""time""
""focus"",""6"",""23173""
","""event"",""trial"",""time""
""fullscreenenter"",""1"",""1367""
","
","","l","elianto","#3366ff99","-1"," ","586.3000000715256","0","0","[1437.3000000715256]","1","9","999","999","999","3","190","1","2","win","no-go","0",""
"pit-trial","194","818091","0.0-194.0","battery-v0.2","","""event"",""trial"",""time""
""fullscreenenter"",""1"",""1367""
""blur"",""4"",""11171""
""focus"",""6"",""23173""
","""event"",""trial"",""time""
""blur"",""4"",""11171""
","""event"",""trial"",""time""
""focus"",""6"",""23173""
","""event"",""trial"",""time""
""fullscreenenter"",""1"",""1367""
","
","","a","elianto","#f73b6a7A"," "," ","699.8000000715256","1","0","[1552.3000000715256]","1","9","999","999","999","3","191","2","3","lose","go","0",""
"pit-trial","195","821402","0.0-195.0","battery-v0.2","","""event"",""trial"",""time""
""fullscreenenter"",""1"",""1367""
""blur"",""4"",""11171""
""focus"",""6"",""23173""
","""event"",""trial"",""time""
""blur"",""4"",""11171""
