"trial_type","trial_index","time_elapsed","internal_node_id","task_version","subject_id","interactions","blur_events","focus_events","fullscreenenter_events","fullscreenexit_events","success","view_history","rt","responses","num_errors","age","subject","participantId","rune","rune_set","hex","correct","choice","accuracy","outcome","keys","total_keys","block","practice","value","sub","trial","stimulus","robot","valence","action","sham"
"pavlovia","0","9","0.0-0.0","battery-v0.2","","""event"",""trial"",""time""
""fullscreenenter"",""1"",""1420""
","
","
","""event"",""trial"",""time""
""fullscreenenter"",""1"",""1420""
","
","","","","","","","","","","","","","","","","","","","","","","","","","","",""
"fullscreen","1","2414","0.0-1.0","battery-v0.2","","""event"",""trial"",""time""
""fullscreenenter"",""1"",""1420""
","
","
","""event"",""trial"",""time""
""fullscreenenter"",""1"",""1420""
","
","true","","","","","","","","","","","","","","","","","","","","","","","","","",""
"pit-instructions","2","8596","0.0-2.0-0.0","battery-v0.2","","""event"",""trial"",""time""
""fullscreenenter"",""1"",""1420""
","
","
","""event"",""trial"",""time""
""fullscreenenter"",""1"",""1420""
","
","","[{""page_index"":0,""viewing_time"":6176.299999998882}]","6177.199999999255","","","","","","","","","","","","","","","","","","","","","","","",""
"pit-comprehension","3","12380","0.0-2.0-1.0-0.0","battery-v0.2","","""event"",""trial"",""time""
""fullscreenenter"",""1"",""1420""
","
","
","""event"",""trial"",""time""
""fullscreenenter"",""1"",""1420""
","
","","","3778.699999999255","[""shark""]","0","14","13746","1854","","","","","","","","","","","","","","","","","","",""
"pit-instructions","4","13628","0.0-2.0-1.0-1.0","battery-v0.2","","""event"",""trial"",""time""
""fullscreenenter"",""1"",""1420""
","
","
","""event"",""trial"",""time""
""fullscreenenter"",""1"",""1420""
","
","","[{""page_index"":0,""viewing_time"":1240}]","1240.5","","","","","","","","","","","","","","","","","","","","","","","",""
"pit-comprehension","5","16563","0.0-2.0-2.0-0.0","battery-v0.2","","""event"",""trial"",""time""
""fullscreenenter"",""1"",""1420""
","
","
","""event"",""trial"",""time""
""fullscreenenter"",""1"",""1420""
","
","","","2929.300000000745","[""tiger""]","0","14","13746","1854","","","","","","","","","","","","","","","","","","",""
"pit-instructions","6","17295","0.0-2.0-2.0-1.0","battery-v0.2","","""event"",""trial"",""time""
""fullscreenenter"",""1"",""1420""
","
","
","""event"",""trial"",""time""
""fullscreenenter"",""1"",""1420""
","
","","[{""page_index"":0,""viewing_time"":726.9000000003725}]","727.4000000003725","","","","","","","","","","","","","","","","","","","","","","","",""
"pit-instructions","7","138913","0.0-2.0-3.0","battery-v0.2","","""event"",""trial"",""time""
""fullscreenenter"",""1"",""1420""
","
","
","""event"",""trial"",""time""
""fullscreenenter"",""1"",""1420""
","
","","[{""page_index"":0,""viewing_time"":10779.599999999627},{""page_index"":1,""viewing_time"":7116.699999999255},{""page_index"":2,""viewing_time"":11583.200000001118},{""page_index"":3,""viewing_time"":13099.699999999255},{""page_index"":4,""viewing_time"":16166.699999999255},{""page_index"":5,""viewing_time"":7683.700000001118},{""page_index"":6,""viewing_time"":8117},{""page_index"":7,""viewing_time"":6233.4000000003725},{""page_index"":8,""viewing_time"":9133.5},{""page_index"":9,""viewing_time"":6265.699999999255},{""page_index"":10,""viewing_time"":7517.5999999996275},{""page_index"":11,""viewing_time"":7116.300000000745},{""page_index"":12,""viewing_time"":6017},{""page_index"":13,""viewing_time"":4783.4000000003725}]","121614.29999999888","","","","","","","","","","","","","","","","","","","","","","","",""
"pit-trial","8","142463","0.0-2.0-4.0-0.0","battery-v0.2","","""event"",""trial"",""time""
""fullscreenenter"",""1"",""1420""
","
","
","""event"",""trial"",""time""
""fullscreenenter"",""1"",""1420""
","
","","","692","","","14","13746","1854","&#9784;","elianto","#FFFFF080"," "," ","1","&#10004","[1543.5999999996275]","1","0","0","","","","","","","",""
"pit-trial","9","145859","0.0-2.0-4.1-0.1","battery-v0.2","","""event"",""trial"",""time""
""fullscreenenter"",""1"",""1420""
","
","
","""event"",""trial"",""time""
""fullscreenenter"",""1"",""1420""
","
","","","538.9000000003725","","","14","13746","1854","&#9784;","elianto","#FFFFF080"," "," ","1","&#10004","[1389]","1","0","0","","","","","","","",""
"pit-trial","10","149605","0.0-2.0-4.2-0.2","battery-v0.2","","""event"",""trial"",""time""
""fullscreenenter"",""1"",""1420""
","
","
","""event"",""trial"",""time""
""fullscreenenter"",""1"",""1420""
","
","","","889.8999999985099","","","14","13746","1854","&#9784;","elianto","#FFFFF080"," "," ","1","&#10004","[1741.5999999996275]","1","0","0","","","","","","","",""
"pit-trial","11","152868","0.0-2.0-4.3-0.3","battery-v0.2","","""event"",""trial"",""time""
""fullscreenenter"",""1"",""1420""
","
","
","""event"",""trial"",""time""
""fullscreenenter"",""1"",""1420""
","
","","","407.40000000037253","","","14","13746","1854","&#9784;","elianto","#FFFFF080"," "," ","1","&#10004","[1258.7000000011176]","1","0","0","","","","","","","",""
"pit-trial","12","156137","0.0-2.0-4.4-0.4","battery-v0.2","","""event"",""trial"",""time""
""fullscreenenter"",""1"",""1420""
","
","
","""event"",""trial"",""time""
""fullscreenenter"",""1"",""1420""
","
","","","413.30000000074506","","","14","13746","1854","&#9784;","elianto","#FFFFF080"," "," ","1","&#10004","[1264.4000000003725]","1","0","0","","","","","","","",""
"pit-instructions","13","175946","0.0-2.0-5.0","battery-v0.2","","""event"",""trial"",""time""
""fullscreenenter"",""1"",""1420""
","
","
","""event"",""trial"",""time""
""fullscreenenter"",""1"",""1420""
","
","","[{""page_index"":0,""viewing_time"":4520.5},{""page_index"":1,""viewing_time"":5515.9000000003725},{""page_index"":2,""viewing_time"":4583.799999998882},{""page_index"":3,""viewing_time"":5183.4000000003725}]","19804.299999998882","","","","","","","","","","","","","","","","","","","","","","","",""
"pit-trial","14","180802","0.0-2.0-6.0-0.0","battery-v0.2","","""event"",""trial"",""time""
""fullscreenenter"",""1"",""1420""
","
","
","""event"",""trial"",""time""
""fullscreenenter"",""1"",""1420""
","
","","","-1","","","14","13746","1854","&#9854;","elianto","#FFFFF080","-1","-1","1","&#10004","[]","0","0","1","","","","","","","",""
"pit-trial","15","185659","0.0-2.0-6.1-0.1","battery-v0.2","","""event"",""trial"",""time""
""fullscreenenter"",""1"",""1420""
","
","
","""event"",""trial"",""time""
""fullscreenenter"",""1"",""1420""
","
","","","-1","","","14","13746","1854","&#9854;","elianto","#FFFFF080","-1","-1","1","&#10004","[]","0","0","1","","","","","","","",""
"pit-trial","16","190516","0.0-2.0-6.2-0.2","battery-v0.2","","""event"",""trial"",""time""
""fullscreenenter"",""1"",""1420""
","
","
","""event"",""trial"",""time""
""fullscreenenter"",""1"",""1420""
","
","","","-1","","","14","13746","1854","&#9854;","elianto","#FFFFF080","-1","-1","1","&#10004","[]","0","0","1","","","","","","","",""
"pit-trial","17","195374","0.0-2.0-6.3-0.3","battery-v0.2","","""event"",""trial"",""time""
""fullscreenenter"",""1"",""1420""
","
","
","""event"",""trial"",""time""
""fullscreenenter"",""1"",""1420""
","
","","","-1","","","14","13746","1854","&#9854;","elianto","#FFFFF080","-1","-1","1","&#10004","[]","0","0","1","","","","","","","",""
"pit-trial","18","200231","0.0-2.0-6.4-0.4","battery-v0.2","","""event"",""trial"",""time""
""fullscreenenter"",""1"",""1420""
","
","
","""event"",""trial"",""time""
""fullscreenenter"",""1"",""1420""
","
","","","-1","","","14","13746","1854","&#9854;","elianto","#FFFFF080","-1","-1","1","&#10004","[]","0","0","1","","","","","","","",""
"pit-instructions","19","315779","0.0-2.0-7.0","battery-v0.2","","""event"",""trial"",""time""
""fullscreenenter"",""1"",""1420""
","
","
","""event"",""trial"",""time""
""fullscreenenter"",""1"",""1420""
","
","","[{""page_index"":0,""viewing_time"":7193.0999999996275},{""page_index"":1,""viewing_time"":6433.799999998882},{""page_index"":2,""viewing_time"":5199.9000000003725},{""page_index"":3,""viewing_time"":5749.9000000003725},{""page_index"":4,""viewing_time"":5033.199999999255},{""page_index"":5,""viewing_time"":6500.9000000003725},{""page_index"":6,""viewing_time"":4049.2000000011176},{""page_index"":7,""viewing_time"":7300.39999999851},{""page_index"":8,""viewing_time"":6200},{""page_index"":9,""viewing_time"":6766.800000000745},{""page_index"":10,""viewing_time"":6349.699999999255},{""page_index"":11,""viewing_time"":4133.200000001118},{""page_index"":12,""viewing_time"":6050.4000000003725},{""page_index"":13,""viewing_time"":13817},{""page_index"":14,""viewing_time"":6016.199999999255},{""page_index"":15,""viewing_time"":6033.300000000745},{""page_index"":16,""viewing_time"":6166.699999999255},{""page_index"":17,""viewing_time"":6549.5999999996275}]","115543.79999999888","","","","","","","","","","","","","","","","","","","","","","","",""
"pit-trial","20","319605","0.0-2.0-8.0-0.0","battery-v0.2","","""event"",""trial"",""time""
""fullscreenenter"",""1"",""1420""
","
","
","""event"",""trial"",""time""
""fullscreenenter"",""1"",""1420""
","
","","","970.5","","","14","13746","1854","&#9776;","elianto","#3366ff99"," "," ","1","+10","[1821.2999999988824]","1","0","1","","","","","","","",""
"pit-trial","21","322961","0.0-2.0-8.0-1.0","battery-v0.2","","""event"",""trial"",""time""
""fullscreenenter"",""1"",""1420""
","
","
","""event"",""trial"",""time""
""fullscreenenter"",""1"",""1420""
","
","","","500.09999999962747","","","14","13746","1854","&#9776;","elianto","#3366ff99"," "," ","1","+10","[1351.699999999255]","1","0","1","","","","","","","",""
"pit-trial","22","326556","0.0-2.0-8.0-2.0","battery-v0.2","","""event"",""trial"",""time""
""fullscreenenter"",""1"",""1420""
","
","
","""event"",""trial"",""time""
""fullscreenenter"",""1"",""1420""
","
","","","739.3000000007451","","","14","13746","1854","&#9776;","elianto","#3366ff99"," "," ","1","+10","[1590.4000000003725]","1","0","1","","","","","","","",""
"pit-trial","23","329871","0.0-2.0-8.0-3.0","battery-v0.2","","""event"",""trial"",""time""
""fullscreenenter"",""1"",""1420""
","
","
","""event"",""trial"",""time""
""fullscreenenter"",""1"",""1420""
","
","","","458.69999999925494","","","14","13746","1854","&#9776;","elianto","#3366ff99"," "," ","1","0","[1309.699999999255]","1","0","1","","","","","","","",""
"pit-trial","24","333198","0.0-2.0-8.0-4.0","battery-v0.2","","""event"",""trial"",""time""
""fullscreenenter"",""1"",""1420""
","
","
","""event"",""trial"",""time""
""fullscreenenter"",""1"",""1420""
","
","","","471.5","","","14","13746","1854","&#9776;","elianto","#3366ff99"," "," ","1","+10","[1322.4000000003725]","1","0","1","","","","","","","",""
"pit-trial","25","336518","0.0-2.0-8.1-0.1","battery-v0.2","","""event"",""trial"",""time""
""fullscreenenter"",""1"",""1420""
","
","
","""event"",""trial"",""time""
""fullscreenenter"",""1"",""1420""
","
","","","464.59999999962747","","","14","13746","1854","&#9776;","elianto","#3366ff99"," "," ","1","+10","[1315.3999999985099]","1","0","1","","","","","","","",""
"pit-trial","26","340019","0.0-2.0-8.1-1.1","battery-v0.2","","""event"",""trial"",""time""
""fullscreenenter"",""1"",""1420""
","
","
","""event"",""trial"",""time""
""fullscreenenter"",""1"",""1420""
","
","","","645.5","","","14","13746","1854","&#9776;","elianto","#3366ff99"," "," ","1","+10","[1496.300000000745]","1","0","1","","","","","","","",""
"pit-trial","27","343288","0.0-2.0-8.1-2.1","battery-v0.2","","""event"",""trial"",""time""
""fullscreenenter"",""1"",""1420""
","
","
","""event"",""trial"",""time""
""fullscreenenter"",""1"",""1420""
","
","","","413.5","","","14","13746","1854","&#9776;","elianto","#3366ff99"," "," ","1","+10","[1264.300000000745]","1","0","1","","","","","","","",""
"pit-trial","28","346716","0.0-2.0-8.1-3.1","battery-v0.2","","""event"",""trial"",""time""
""fullscreenenter"",""1"",""1420""
","
","
","""event"",""trial"",""time""
""fullscreenenter"",""1"",""1420""
","
","","","572.7999999988824","","","14","13746","1854","&#9776;","elianto","#3366ff99"," "," ","1","0","[1424.300000000745]","1","0","1","","","","","","","",""
"pit-trial","29","350188","0.0-2.0-8.1-4.1","battery-v0.2","","""event"",""trial"",""time""
""fullscreenenter"",""1"",""1420""
","
","
","""event"",""trial"",""time""
""fullscreenenter"",""1"",""1420""
","
","","","616.5999999996275","","","14","13746","1854","&#9776;","elianto","#3366ff99"," "," ","1","+10","[1467.199999999255]","1","0","1","","","","","","","",""
"pit-trial","30","353401","0.0-2.0-8.2-0.2","battery-v0.2","","""event"",""trial"",""time""
""fullscreenenter"",""1"",""1420""
","
","
","""event"",""trial"",""time""
""fullscreenenter"",""1"",""1420""
","
","","","357.7999999988824","","","14","13746","1854","&#9776;","elianto","#3366ff99"," "," ","1","+10","[1208.5]","1","0","1","","","","","","","",""
"pit-trial","31","356520","0.0-2.0-8.2-1.2","battery-v0.2","","""event"",""trial"",""time""
""fullscreenenter"",""1"",""1420""
","
","
","""event"",""trial"",""time""
""fullscreenenter"",""1"",""1420""
","
","","","262.90000000037253","","","14","13746","1854","&#9776;","elianto","#3366ff99"," "," ","1","+10","[1113.5]","1","0","1","","","","","","","",""
"pit-trial","32","359587","0.0-2.0-8.2-2.2","battery-v0.2","","""event"",""trial"",""time""
""fullscreenenter"",""1"",""1420""
","
","
","""event"",""trial"",""time""
""fullscreenenter"",""1"",""1420""
","
","","","212.09999999962747","","","14","13746","1854","&#9776;","elianto","#3366ff99"," "," ","1","+10","[1063]","1","0","1","","","","","","","",""
"pit-trial","33","362634","0.0-2.0-8.2-3.2","battery-v0.2","","""event"",""trial"",""time""
""fullscreenenter"",""1"",""1420""
","
","
","""event"",""trial"",""time""
""fullscreenenter"",""1"",""1420""
","
","","","191.7000000011176","","","14","13746","1854","&#9776;","elianto","#3366ff99"," "," ","1","0","[1042.4000000003725]","1","0","1","","","","","","","",""
"pit-trial","34","365790","0.0-2.0-8.2-4.2","battery-v0.2","","""event"",""trial"",""time""
""fullscreenenter"",""1"",""1420""
","
","
","""event"",""trial"",""time""
""fullscreenenter"",""1"",""1420""
","
","","","301.90000000037253","","","14","13746","1854","&#9776;","elianto","#3366ff99"," "," ","1","+10","[1152.5]","1","0","1","","","","","","","",""
"call-function","35","365793","0.0-2.0-9.0","battery-v0.2","","""event"",""trial"",""time""
""fullscreenenter"",""1"",""1420""
","
","
","""event"",""trial"",""time""
""fullscreenenter"",""1"",""1420""
","
","","","","","","","","","","","","","","","","","","","","","","","","","","",""
"pit-instructions","36","402430","0.0-2.0-10.0","battery-v0.2","","""event"",""trial"",""time""
""fullscreenenter"",""1"",""1420""
","
","
","""event"",""trial"",""time""
""fullscreenenter"",""1"",""1420""
","
","","[{""page_index"":0,""viewing_time"":6084.700000001118},{""page_index"":1,""viewing_time"":6033.39999999851},{""page_index"":2,""viewing_time"":9100.60000000149},{""page_index"":3,""viewing_time"":8166.39999999851},{""page_index"":4,""viewing_time"":7250}]","36635.59999999963","","","","","","","","","","","","","","","","","","","","","","","",""
"pit-trial","37","406206","0.0-2.0-11.0-0.0","battery-v0.2","","""event"",""trial"",""time""
""fullscreenenter"",""1"",""1420""
","
","
","""event"",""trial"",""time""
""fullscreenenter"",""1"",""1420""
","
","","","922.6999999992549","","","14","13746","1854","&#9761;","elianto","#3366ff99","-1"," ","0","0","[1773.0999999996275]","1","0","2","","","","","","","",""
"pit-trial","38","409515","0.0-2.0-11.0-1.0","battery-v0.2","","""event"",""trial"",""time""
""fullscreenenter"",""1"",""1420""
","
","
","""event"",""trial"",""time""
""fullscreenenter"",""1"",""1420""
","
","","","453.40000000037253","","","14","13746","1854","&#9761;","elianto","#3366ff99","-1"," ","0","0","[1304]","1","0","2","","","","","","","",""
"pit-trial","39","412823","0.0-2.0-11.0-2.0","battery-v0.2","","""event"",""trial"",""time""
""fullscreenenter"",""1"",""1420""
","
","
","""event"",""trial"",""time""
""fullscreenenter"",""1"",""1420""
","
","","","452.2000000011176","","","14","13746","1854","&#9761;","elianto","#3366ff99","-1"," ","0","0","[1303.2999999988824]","1","0","2","","","","","","","",""
"pit-trial","40","416213","0.0-2.0-11.0-3.0","battery-v0.2","","""event"",""trial"",""time""
""fullscreenenter"",""1"",""1420""
","
","
","""event"",""trial"",""time""
""fullscreenenter"",""1"",""1420""
","
","","","533.3000000007451","","","14","13746","1854","&#9761;","elianto","#3366ff99","-1"," ","0","+10","[1385]","1","0","2","","","","","","","",""
"pit-trial","41","419461","0.0-2.0-11.0-4.0","battery-v0.2","","""event"",""trial"",""time""
""fullscreenenter"",""1"",""1420""
","
","
","""event"",""trial"",""time""
""fullscreenenter"",""1"",""1420""
","
","","","392.1000000014901","","","14","13746","1854","&#9761;","elianto","#3366ff99","-1"," ","0","0","[1243.300000000745]","1","0","2","","","","","","","",""
"pit-trial","42","422679","0.0-2.0-11.1-0.1","battery-v0.2","","""event"",""trial"",""time""
""fullscreenenter"",""1"",""1420""
","
","
","""event"",""trial"",""time""
""fullscreenenter"",""1"",""1420""
","
","","","361.90000000037253","","","14","13746","1854","&#9761;","elianto","#3366ff99","-1"," ","0","0","[1212.5]","1","0","2","","","","","","","",""
"pit-trial","43","425682","0.0-2.0-11.1-1.1","battery-v0.2","","""event"",""trial"",""time""
""fullscreenenter"",""1"",""1420""
","
","
","""event"",""trial"",""time""
""fullscreenenter"",""1"",""1420""
","
","","","148","","","14","13746","1854","&#9761;","elianto","#3366ff99","-1"," ","0","0","[998.5999999996275]","1","0","2","","","","","","","",""
"pit-trial","44","428855","0.0-2.0-11.1-2.1","battery-v0.2","","""event"",""trial"",""time""
""fullscreenenter"",""1"",""1420""
","
","
","""event"",""trial"",""time""
""fullscreenenter"",""1"",""1420""
","
","","","316.80000000074506","","","14","13746","1854","&#9761;","elianto","#3366ff99","-1"," ","0","0","[1168.4000000003725]","1","0","2","","","","","","","",""
"pit-trial","45","433711","0.0-2.0-11.1-3.1","battery-v0.2","","""event"",""trial"",""time""
""fullscreenenter"",""1"",""1420""
","
","
","""event"",""trial"",""time""
""fullscreenenter"",""1"",""1420""
","
","","","-1","","","14","13746","1854","&#9761;","elianto","#3366ff99","-1","-1","1","0","[]","0","0","2","","","","","","","",""
"pit-trial","46","438567","0.0-2.0-11.1-4.1","battery-v0.2","","""event"",""trial"",""time""
""fullscreenenter"",""1"",""1420""
","
","
","""event"",""trial"",""time""
""fullscreenenter"",""1"",""1420""
","
","","","-1","","","14","13746","1854","&#9761;","elianto","#3366ff99","-1","-1","1","+10","[]","0","0","2","","","","","","","",""
"pit-trial","47","443423","0.0-2.0-11.2-0.2","battery-v0.2","","""event"",""trial"",""time""
""fullscreenenter"",""1"",""1420""
","
","
","""event"",""trial"",""time""
""fullscreenenter"",""1"",""1420""
","
","","","-1","","","14","13746","1854","&#9761;","elianto","#3366ff99","-1","-1","1","+10","[]","0","0","2","","","","","","","",""
"pit-trial","48","448280","0.0-2.0-11.2-1.2","battery-v0.2","","""event"",""trial"",""time""
""fullscreenenter"",""1"",""1420""
","
","
","""event"",""trial"",""time""
""fullscreenenter"",""1"",""1420""
","
","","","-1","","","14","13746","1854","&#9761;","elianto","#3366ff99","-1","-1","1","+10","[]","0","0","2","","","","","","","",""
"pit-trial","49","453137","0.0-2.0-11.2-2.2","battery-v0.2","","""event"",""trial"",""time""
""fullscreenenter"",""1"",""1420""
","
","
","""event"",""trial"",""time""
""fullscreenenter"",""1"",""1420""
","
","","","-1","","","14","13746","1854","&#9761;","elianto","#3366ff99","-1","-1","1","+10","[]","0","0","2","","","","","","","",""
"pit-trial","50","457993","0.0-2.0-11.2-3.2","battery-v0.2","","""event"",""trial"",""time""
""fullscreenenter"",""1"",""1420""
","
","
","""event"",""trial"",""time""
""fullscreenenter"",""1"",""1420""
","
","","","-1","","","14","13746","1854","&#9761;","elianto","#3366ff99","-1","-1","1","0","[]","0","0","2","","","","","","","",""
"pit-trial","51","462850","0.0-2.0-11.2-4.2","battery-v0.2","","""event"",""trial"",""time""
""fullscreenenter"",""1"",""1420""
","
","
","""event"",""trial"",""time""
""fullscreenenter"",""1"",""1420""
","
","","","-1","","","14","13746","1854","&#9761;","elianto","#3366ff99","-1","-1","1","+10","[]","0","0","2","","","","","","","",""
"pit-trial","52","467707","0.0-2.0-11.3-0.3","battery-v0.2","","""event"",""trial"",""time""
""fullscreenenter"",""1"",""1420""
","
","
","""event"",""trial"",""time""
""fullscreenenter"",""1"",""1420""
","
","","","-1","","","14","13746","1854","&#9761;","elianto","#3366ff99","-1","-1","1","+10","[]","0","0","2","","","","","","","",""
"pit-trial","53","472563","0.0-2.0-11.3-1.3","battery-v0.2","","""event"",""trial"",""time""
""fullscreenenter"",""1"",""1420""
","
","
","""event"",""trial"",""time""
""fullscreenenter"",""1"",""1420""
","
","","","-1","","","14","13746","1854","&#9761;","elianto","#3366ff99","-1","-1","1","+10","[]","0","0","2","","","","","","","",""
"pit-trial","54","477420","0.0-2.0-11.3-2.3","battery-v0.2","","""event"",""trial"",""time""
""fullscreenenter"",""1"",""1420""
","
","
","""event"",""trial"",""time""
""fullscreenenter"",""1"",""1420""
","
","","","-1","","","14","13746","1854","&#9761;","elianto","#3366ff99","-1","-1","1","+10","[]","0","0","2","","","","","","","",""
"pit-trial","55","482275","0.0-2.0-11.3-3.3","battery-v0.2","","""event"",""trial"",""time""
""fullscreenenter"",""1"",""1420""
","
","
","""event"",""trial"",""time""
""fullscreenenter"",""1"",""1420""
","
","","","-1","","","14","13746","1854","&#9761;","elianto","#3366ff99","-1","-1","1","0","[]","0","0","2","","","","","","","",""
"pit-trial","56","487130","0.0-2.0-11.3-4.3","battery-v0.2","","""event"",""trial"",""time""
""fullscreenenter"",""1"",""1420""
","
","
","""event"",""trial"",""time""
""fullscreenenter"",""1"",""1420""
","
","","","-1","","","14","13746","1854","&#9761;","elianto","#3366ff99","-1","-1","1","+10","[]","0","0","2","","","","","","","",""
"call-function","57","487133","0.0-2.0-12.0","battery-v0.2","","""event"",""trial"",""time""
""fullscreenenter"",""1"",""1420""
","
","
","""event"",""trial"",""time""
""fullscreenenter"",""1"",""1420""
","
","","","","","","","","","","","","","","","","","","","","","","","","","","",""
"pit-instructions","58","538498","0.0-2.0-13.0","battery-v0.2","","""event"",""trial"",""time""
""fullscreenenter"",""1"",""1420""
","
","
","""event"",""trial"",""time""
""fullscreenenter"",""1"",""1420""
","
","","[{""page_index"":0,""viewing_time"":16629},{""page_index"":1,""viewing_time"":10634.300000000745},{""page_index"":2,""viewing_time"":5633.5},{""page_index"":3,""viewing_time"":12099.799999998882},{""page_index"":4,""viewing_time"":6366.800000000745}]","51364","","","","","","","","","","","","","","","","","","","","","","","",""
"pit-trial","59","543354","0.0-2.0-14.0-0.0","battery-v0.2","","""event"",""trial"",""time""
""fullscreenenter"",""1"",""1420""
","
","
","""event"",""trial"",""time""
""fullscreenenter"",""1"",""1420""
","
","","","-1","","","14","13746","1854","&#9826;","elianto","#f73b6a7A","-1","-1","1","0","[3600.199999999255]","1","0","3","","","","","","","",""
"pit-trial","60","546316","0.0-2.0-14.0-1.0","battery-v0.2","","""event"",""trial"",""time""
""fullscreenenter"",""1"",""1420""
","
","
","""event"",""trial"",""time""
""fullscreenenter"",""1"",""1420""
","
","","","106.59999999962747","","","14","13746","1854","&#9826;","elianto","#f73b6a7A","-1"," ","0","-10","[957.0999999996275]","1","0","3","","","","","","","",""
"pit-trial","61","549302","0.0-2.0-14.0-2.0","battery-v0.2","","""event"",""trial"",""time""
""fullscreenenter"",""1"",""1420""
","
","
","""event"",""trial"",""time""
""fullscreenenter"",""1"",""1420""
","
","","","131","","","14","13746","1854","&#9826;","elianto","#f73b6a7A","-1"," ","0","-10","[637.5,982.4000000003725]","2","0","3","","","","","","","",""
"pit-trial","62","554159","0.0-2.0-14.0-3.0","battery-v0.2","","""event"",""trial"",""time""
""fullscreenenter"",""1"",""1420""
","
","
","""event"",""trial"",""time""
""fullscreenenter"",""1"",""1420""
","
","","","-1","","","14","13746","1854","&#9826;","elianto","#f73b6a7A","-1","-1","1","-10","[]","0","0","3","","","","","","","",""
"pit-trial","63","559015","0.0-2.0-14.0-4.0","battery-v0.2","","""event"",""trial"",""time""
""fullscreenenter"",""1"",""1420""
","
","
","""event"",""trial"",""time""
""fullscreenenter"",""1"",""1420""
","
","","","-1","","","14","13746","1854","&#9826;","elianto","#f73b6a7A","-1","-1","1","0","[]","0","0","3","","","","","","","",""
"pit-trial","64","563871","0.0-2.0-14.1-0.1","battery-v0.2","","""event"",""trial"",""time""
""fullscreenenter"",""1"",""1420""
","
","
","""event"",""trial"",""time""
""fullscreenenter"",""1"",""1420""
","
","","","-1","","","14","13746","1854","&#9826;","elianto","#f73b6a7A","-1","-1","1","0","[]","0","0","3","","","","","","","",""
"pit-trial","65","568728","0.0-2.0-14.1-1.1","battery-v0.2","","""event"",""trial"",""time""
""fullscreenenter"",""1"",""1420""
","
","
","""event"",""trial"",""time""
""fullscreenenter"",""1"",""1420""
","
","","","-1","","","14","13746","1854","&#9826;","elianto","#f73b6a7A","-1","-1","1","0","[]","0","0","3","","","","","","","",""
"pit-trial","66","573584","0.0-2.0-14.1-2.1","battery-v0.2","","""event"",""trial"",""time""
""fullscreenenter"",""1"",""1420""
","
","
","""event"",""trial"",""time""
""fullscreenenter"",""1"",""1420""
","
","","","-1","","","14","13746","1854","&#9826;","elianto","#f73b6a7A","-1","-1","1","0","[]","0","0","3","","","","","","","",""
"pit-trial","67","578440","0.0-2.0-14.1-3.1","battery-v0.2","","""event"",""trial"",""time""
""fullscreenenter"",""1"",""1420""
","
","
","""event"",""trial"",""time""
""fullscreenenter"",""1"",""1420""
","
","","","-1","","","14","13746","1854","&#9826;","elianto","#f73b6a7A","-1","-1","1","-10","[]","0","0","3","","","","","","","",""
"pit-trial","68","583295","0.0-2.0-14.1-4.1","battery-v0.2","","""event"",""trial"",""time""
""fullscreenenter"",""1"",""1420""
","
","
","""event"",""trial"",""time""
""fullscreenenter"",""1"",""1420""
","
","","","-1","","","14","13746","1854","&#9826;","elianto","#f73b6a7A","-1","-1","1","0","[]","0","0","3","","","","","","","",""
"pit-trial","69","588153","0.0-2.0-14.2-0.2","battery-v0.2","","""event"",""trial"",""time""
""fullscreenenter"",""1"",""1420""
","
","
","""event"",""trial"",""time""
""fullscreenenter"",""1"",""1420""
","
","","","-1","","","14","13746","1854","&#9826;","elianto","#f73b6a7A","-1","-1","1","0","[]","0","0","3","","","","","","","",""
"pit-trial","70","593009","0.0-2.0-14.2-1.2","battery-v0.2","","""event"",""trial"",""time""
""fullscreenenter"",""1"",""1420""
","
","
","""event"",""trial"",""time""
""fullscreenenter"",""1"",""1420""
","
","","","-1","","","14","13746","1854","&#9826;","elianto","#f73b6a7A","-1","-1","1","0","[]","0","0","3","","","","","","","",""
"pit-trial","71","597863","0.0-2.0-14.2-2.2","battery-v0.2","","""event"",""trial"",""time""
""fullscreenenter"",""1"",""1420""
","
","
","""event"",""trial"",""time""
""fullscreenenter"",""1"",""1420""
","
","","","-1","","","14","13746","1854","&#9826;","elianto","#f73b6a7A","-1","-1","1","0","[]","0","0","3","","","","","","","",""
"pit-trial","72","602719","0.0-2.0-14.2-3.2","battery-v0.2","","""event"",""trial"",""time""
""fullscreenenter"",""1"",""1420""
","
","
","""event"",""trial"",""time""
""fullscreenenter"",""1"",""1420""
","
","","","-1","","","14","13746","1854","&#9826;","elianto","#f73b6a7A","-1","-1","1","-10","[]","0","0","3","","","","","","","",""
"pit-trial","73","607576","0.0-2.0-14.2-4.2","battery-v0.2","","""event"",""trial"",""time""
""fullscreenenter"",""1"",""1420""
","
","
","""event"",""trial"",""time""
""fullscreenenter"",""1"",""1420""
","
","","","-1","","","14","13746","1854","&#9826;","elianto","#f73b6a7A","-1","-1","1","0","[]","0","0","3","","","","","","","",""
"pit-trial","74","612432","0.0-2.0-14.3-0.3","battery-v0.2","","""event"",""trial"",""time""
""fullscreenenter"",""1"",""1420""
","
","
","""event"",""trial"",""time""
""fullscreenenter"",""1"",""1420""
","
","","","-1","","","14","13746","1854","&#9826;","elianto","#f73b6a7A","-1","-1","1","0","[]","0","0","3","","","","","","","",""
"pit-trial","75","617288","0.0-2.0-14.3-1.3","battery-v0.2","","""event"",""trial"",""time""
""fullscreenenter"",""1"",""1420""
","
","
","""event"",""trial"",""time""
""fullscreenenter"",""1"",""1420""
","
","","","-1","","","14","13746","1854","&#9826;","elianto","#f73b6a7A","-1","-1","1","0","[]","0","0","3","","","","","","","",""
"pit-trial","76","622144","0.0-2.0-14.3-2.3","battery-v0.2","","""event"",""trial"",""time""
""fullscreenenter"",""1"",""1420""
","
","
","""event"",""trial"",""time""
""fullscreenenter"",""1"",""1420""
","
","","","-1","","","14","13746","1854","&#9826;","elianto","#f73b6a7A","-1","-1","1","0","[]","0","0","3","","","","","","","",""
"pit-trial","77","627000","0.0-2.0-14.3-3.3","battery-v0.2","","""event"",""trial"",""time""
""fullscreenenter"",""1"",""1420""
","
","
","""event"",""trial"",""time""
""fullscreenenter"",""1"",""1420""
","
","","","-1","","","14","13746","1854","&#9826;","elianto","#f73b6a7A","-1","-1","1","-10","[]","0","0","3","","","","","","","",""
"pit-trial","78","631855","0.0-2.0-14.3-4.3","battery-v0.2","","""event"",""trial"",""time""
""fullscreenenter"",""1"",""1420""
","
","
","""event"",""trial"",""time""
""fullscreenenter"",""1"",""1420""
","
","","","-1","","","14","13746","1854","&#9826;","elianto","#f73b6a7A","-1","-1","1","0","[]","0","0","3","","","","","","","",""
"call-function","79","631859","0.0-2.0-15.0","battery-v0.2","","""event"",""trial"",""time""
""fullscreenenter"",""1"",""1420""
","
","
","""event"",""trial"",""time""
""fullscreenenter"",""1"",""1420""
","
","","","","","","","","","","","","","","","","","","","","","","","","","","",""
"pit-instructions","80","660915","0.0-2.0-16.0","battery-v0.2","","""event"",""trial"",""time""
""fullscreenenter"",""1"",""1420""
","
","
","""event"",""trial"",""time""
""fullscreenenter"",""1"",""1420""
","
","","[{""page_index"":0,""viewing_time"":8504.800000000745},{""page_index"":1,""viewing_time"":9833.300000000745},{""page_index"":2,""viewing_time"":5166.5},{""page_index"":3,""viewing_time"":5550.5}]","29055.700000001118","","","","","","","","","","","","","","","","","","","","","","","",""
"pit-trial","81","664212","0.0-2.0-17.0-0.0","battery-v0.2","","""event"",""trial"",""time""
""fullscreenenter"",""1"",""1420""
","
","
","""event"",""trial"",""time""
""fullscreenenter"",""1"",""1420""
","
","","","443.09999999962747","","","14","13746","1854","&#9789;","elianto","#f73b6a7A"," "," ","1","0","[1293.5]","1","0","4","","","","","","","",""
"pit-trial","82","667126","0.0-2.0-17.0-1.0","battery-v0.2","","""event"",""trial"",""time""
""fullscreenenter"",""1"",""1420""
","
","
","""event"",""trial"",""time""
""fullscreenenter"",""1"",""1420""
","
","","","56.80000000074506","","","14","13746","1854","&#9789;","elianto","#f73b6a7A"," "," ","1","0","[908.6999999992549]","1","0","4","","","","","","","",""
"pit-trial","83","670351","0.0-2.0-17.0-2.0","battery-v0.2","","""event"",""trial"",""time""
""fullscreenenter"",""1"",""1420""
","
","
","""event"",""trial"",""time""
""fullscreenenter"",""1"",""1420""
","
","","","371.2000000011176","","","14","13746","1854","&#9789;","elianto","#f73b6a7A"," "," ","1","0","[804.3000000007451,1221.6000000014901]","2","0","4","","","","","","","",""
"pit-trial","84","673433","0.0-2.0-17.0-3.0","battery-v0.2","","""event"",""trial"",""time""
""fullscreenenter"",""1"",""1420""
","
","
","""event"",""trial"",""time""
""fullscreenenter"",""1"",""1420""
","
","","","226","","","14","13746","1854","&#9789;","elianto","#f73b6a7A"," "," ","1","-10","[1076.7999999988824]","1","0","4","","","","","","","",""
"pit-trial","85","676502","0.0-2.0-17.0-4.0","battery-v0.2","","""event"",""trial"",""time""
""fullscreenenter"",""1"",""1420""
","
","
","""event"",""trial"",""time""
""fullscreenenter"",""1"",""1420""
","
","","","212.90000000037253","","","14","13746","1854","&#9789;","elianto","#f73b6a7A"," "," ","1","0","[1064.5]","1","0","4","","","","","","","",""
"pit-trial","86","679468","0.0-2.0-17.1-0.1","battery-v0.2","","""event"",""trial"",""time""
""fullscreenenter"",""1"",""1420""
","
","
","""event"",""trial"",""time""
""fullscreenenter"",""1"",""1420""
","
","","","109.59999999962747","","","14","13746","1854","&#9789;","elianto","#f73b6a7A"," "," ","1","0","[960.3000000007451]","1","0","4","","","","","","","",""
"pit-trial","87","682633","0.0-2.0-17.1-1.1","battery-v0.2","","""event"",""trial"",""time""
""fullscreenenter"",""1"",""1420""
","
","
","""event"",""trial"",""time""
""fullscreenenter"",""1"",""1420""
","
","","","308.19999999925494","","","14","13746","1854","&#9789;","elianto","#f73b6a7A"," "," ","1","0","[1159.5]","1","0","4","","","","","","","",""
"pit-trial","88","685840","0.0-2.0-17.1-2.1","battery-v0.2","","""event"",""trial"",""time""
""fullscreenenter"",""1"",""1420""
","
","
","""event"",""trial"",""time""
""fullscreenenter"",""1"",""1420""
","
","","","351.40000000037253","","","14","13746","1854","&#9789;","elianto","#f73b6a7A"," "," ","1","0","[803.7999999988824,1203.0999999996275,1452]","3","0","4","","","","","","","",""
"pit-trial","89","689196","0.0-2.0-17.1-3.1","battery-v0.2","","""event"",""trial"",""time""
""fullscreenenter"",""1"",""1420""
","
","
","""event"",""trial"",""time""
""fullscreenenter"",""1"",""1420""
","
","","","499.69999999925494","","","14","13746","1854","&#9789;","elianto","#f73b6a7A"," "," ","1","-10","[1351.5999999996275]","1","0","4","","","","","","","",""
"pit-trial","90","692620","0.0-2.0-17.1-4.1","battery-v0.2","","""event"",""trial"",""time""
""fullscreenenter"",""1"",""1420""
","
","
","""event"",""trial"",""time""
""fullscreenenter"",""1"",""1420""
","
","","","569","","","14","13746","1854","&#9789;","elianto","#f73b6a7A"," "," ","1","0","[1420.199999999255,2014]","2","0","4","","","","","","","",""
"pit-trial","91","696047","0.0-2.0-17.2-0.2","battery-v0.2","","""event"",""trial"",""time""
""fullscreenenter"",""1"",""1420""
","
","
","""event"",""trial"",""time""
""fullscreenenter"",""1"",""1420""
","
","","","570.6999999992549","","","14","13746","1854","&#9789;","elianto","#f73b6a7A"," "," ","1","0","[1421.4000000003725,1813.7000000011176]","2","0","4","","","","","","","",""
"pit-trial","92","699245","0.0-2.0-17.2-1.2","battery-v0.2","","""event"",""trial"",""time""
""fullscreenenter"",""1"",""1420""
","
","
","""event"",""trial"",""time""
""fullscreenenter"",""1"",""1420""
","
","","","341.09999999962747","","","14","13746","1854","&#9789;","elianto","#f73b6a7A"," "," ","1","0","[1192.9000000003725]","1","0","4","","","","","","","",""
"pit-trial","93","702405","0.0-2.0-17.2-2.2","battery-v0.2","","""event"",""trial"",""time""
""fullscreenenter"",""1"",""1420""
","
","
","""event"",""trial"",""time""
""fullscreenenter"",""1"",""1420""
","
","","","304.30000000074506","","","14","13746","1854","&#9789;","elianto","#f73b6a7A"," "," ","1","0","[1155.800000000745]","1","0","4","","","","","","","",""
"pit-trial","94","705954","0.0-2.0-17.2-3.2","battery-v0.2","","""event"",""trial"",""time""
""fullscreenenter"",""1"",""1420""
","
","
","""event"",""trial"",""time""
""fullscreenenter"",""1"",""1420""
","
","","","692.4000000003725","","","14","13746","1854","&#9789;","elianto","#f73b6a7A"," "," ","1","-10","[1543.800000000745]","1","0","4","","","","","","","",""
"pit-trial","95","709592","0.0-2.0-17.2-4.2","battery-v0.2","","""event"",""trial"",""time""
""fullscreenenter"",""1"",""1420""
","
","
","""event"",""trial"",""time""
""fullscreenenter"",""1"",""1420""
","
","","","783.5","","","14","13746","1854","&#9789;","elianto","#f73b6a7A"," "," ","1","0","[1634.300000000745,1931.4000000003725]","2","0","4","","","","","","","",""
"pit-trial","96","713395","0.0-2.0-17.3-0.3","battery-v0.2","","""event"",""trial"",""time""
""fullscreenenter"",""1"",""1420""
","
","
","""event"",""trial"",""time""
""fullscreenenter"",""1"",""1420""
","
","","","946.3999999985099","","","14","13746","1854","&#9789;","elianto","#f73b6a7A"," "," ","1","0","[1797.4000000003725]","1","0","4","","","","","","","",""
"pit-trial","97","716424","0.0-2.0-17.3-1.3","battery-v0.2","","""event"",""trial"",""time""
""fullscreenenter"",""1"",""1420""
","
","
","""event"",""trial"",""time""
""fullscreenenter"",""1"",""1420""
","
","","","173.5","","","14","13746","1854","&#9789;","elianto","#f73b6a7A"," "," ","1","0","[1024.5999999996275]","1","0","4","","","","","","","",""
"pit-trial","98","719687","0.0-2.0-17.3-2.3","battery-v0.2","","""event"",""trial"",""time""
""fullscreenenter"",""1"",""1420""
","
","
","""event"",""trial"",""time""
""fullscreenenter"",""1"",""1420""
","
","","","407.40000000037253","","","14","13746","1854","&#9789;","elianto","#f73b6a7A"," "," ","1","0","[1258.5]","1","0","4","","","","","","","",""
"pit-trial","99","723481","0.0-2.0-17.3-3.3","battery-v0.2","","""event"",""trial"",""time""
""fullscreenenter"",""1"",""1420""
","
","
","""event"",""trial"",""time""
""fullscreenenter"",""1"",""1420""
","
","","","940.5","","","14","13746","1854","&#9789;","elianto","#f73b6a7A"," "," ","1","-10","[1791.0999999996275]","1","0","4","","","","","","","",""
"pit-trial","100","728336","0.0-2.0-17.3-4.3","battery-v0.2","","""event"",""trial"",""time""
""fullscreenenter"",""1"",""1420""
","
","
","""event"",""trial"",""time""
""fullscreenenter"",""1"",""1420""
","
","","","-1","","","14","13746","1854","&#9789;","elianto","#f73b6a7A"," ","-1","0","-10","[4049.5]","1","0","4","","","","","","","",""
"call-function","101","728339","0.0-2.0-18.0","battery-v0.2","","""event"",""trial"",""time""
""fullscreenenter"",""1"",""1420""
","
","
","""event"",""trial"",""time""
""fullscreenenter"",""1"",""1420""
","
","","","","","","","","","","","","","","","","","","","","","","","","","","",""
"pit-instructions","102","810048","0.0-2.0-19.0","battery-v0.2","","""event"",""trial"",""time""
""fullscreenenter"",""1"",""1420""
","
","
","""event"",""trial"",""time""
""fullscreenenter"",""1"",""1420""
","
","","[{""page_index"":0,""viewing_time"":7990.60000000149},{""page_index"":1,""viewing_time"":15617.39999999851},{""page_index"":2,""viewing_time"":12465.200000001118},{""page_index"":3,""viewing_time"":8584.599999999627},{""page_index"":4,""viewing_time"":7116.4000000003725},{""page_index"":5,""viewing_time"":8683.400000000373},{""page_index"":6,""viewing_time"":10066.799999998882},{""page_index"":7,""viewing_time"":7750.0999999996275},{""page_index"":8,""viewing_time"":3432.7000000011176}]","81707.5","","","","","","","","","","","","","","","","","","","","","","","",""
"pit-comprehension","103","814433","0.0-2.0-20.0-0.0","battery-v0.2","","""event"",""trial"",""time""
""fullscreenenter"",""1"",""1420""
","
","
","""event"",""trial"",""time""
""fullscreenenter"",""1"",""1420""
","
","","","4381.199999999255","[""SPACE""]","0","14","13746","1854","","","","","","","","","","","","","","","","","","",""
"pit-instructions","104","817030","0.0-2.0-20.0-1.0","battery-v0.2","","""event"",""trial"",""time""
""fullscreenenter"",""1"",""1420""
","
","
","""event"",""trial"",""time""
""fullscreenenter"",""1"",""1420""
","
","","[{""page_index"":0,""viewing_time"":2569.39999999851}]","2569.5","","","","","","","","","","","","","","","","","","","","","","","",""
"pit-comprehension","105","821532","0.0-2.0-21.0-0.0","battery-v0.2","","""event"",""trial"",""time""
""fullscreenenter"",""1"",""1420""
","
","
","""event"",""trial"",""time""
""fullscreenenter"",""1"",""1420""
","
","","","4499.5999999996275","[""10""]","0","14","13746","1854","","","","","","","","","","","","","","","","","","",""
"pit-instructions","106","825497","0.0-2.0-21.0-1.0","battery-v0.2","","""event"",""trial"",""time""
""fullscreenenter"",""1"",""1420""
","
","
","""event"",""trial"",""time""
""fullscreenenter"",""1"",""1420""
","
","","[{""page_index"":0,""viewing_time"":3940.699999999255}]","3940.9000000003725","","","","","","","","","","","","","","","","","","","","","","","",""
"pit-comprehension","107","834600","0.0-2.0-22.0-0.0","battery-v0.2","","""event"",""trial"",""time""
""fullscreenenter"",""1"",""1420""
","
","
","""event"",""trial"",""time""
""fullscreenenter"",""1"",""1420""
","
","","","9099.299999998882","[""0""]","0","14","13746","1854","","","","","","","","","","","","","","","","","","",""
"pit-instructions","108","836449","0.0-2.0-22.0-1.0","battery-v0.2","","""event"",""trial"",""time""
""fullscreenenter"",""1"",""1420""
","
","
","""event"",""trial"",""time""
""fullscreenenter"",""1"",""1420""
","
","","[{""page_index"":0,""viewing_time"":1818.699999999255}]","1819.300000000745","","","","","","","","","","","","","","","","","","","","","","","",""
"pit-comprehension","109","845000","0.0-2.0-23.0-0.0","battery-v0.2","","""event"",""trial"",""time""
""fullscreenenter"",""1"",""1420""
","
","
","""event"",""trial"",""time""
""fullscreenenter"",""1"",""1420""
","
","","","8546","[""True""]","0","14","13746","1854","","","","","","","","","","","","","","","","","","",""
"pit-instructions","110","847382","0.0-2.0-23.0-1.0","battery-v0.2","","""event"",""trial"",""time""
""fullscreenenter"",""1"",""1420""
","
","
","""event"",""trial"",""time""
""fullscreenenter"",""1"",""1420""
","
","","[{""page_index"":0,""viewing_time"":2352}]","2352.5","","","","","","","","","","","","","","","","","","","","","","","",""
"pit-comprehension","111","856450","0.0-2.0-24.0-0.0","battery-v0.2","","""event"",""trial"",""time""
""fullscreenenter"",""1"",""1420""
","
","
","""event"",""trial"",""time""
""fullscreenenter"",""1"",""1420""
","
","","","9063.199999999255","[""True""]","0","14","13746","1854","","","","","","","","","","","","","","","","","","",""
"pit-instructions","112","867882","0.0-2.0-24.0-1.0","battery-v0.2","","""event"",""trial"",""time""
""fullscreenenter"",""1"",""1420""
","
","
","""event"",""trial"",""time""
""fullscreenenter"",""1"",""1420""
","
","","[{""page_index"":0,""viewing_time"":11401.099999999627}]","11401.699999999255","","","","","","","","","","","","","","","","","","","","","","","",""
"pit-comprehension","113","875850","0.0-2.0-25.0-0.0","battery-v0.2","","""event"",""trial"",""time""
""fullscreenenter"",""1"",""1420""
","
","
","""event"",""trial"",""time""
""fullscreenenter"",""1"",""1420""
","
","","","7962.699999999255","[""True""]","0","14","13746","1854","","","","","","","","","","","","","","","","","","",""
"pit-instructions","114","883266","0.0-2.0-25.0-1.0","battery-v0.2","","""event"",""trial"",""time""
""fullscreenenter"",""1"",""1420""
","
","
","""event"",""trial"",""time""
""fullscreenenter"",""1"",""1420""
","
","","[{""page_index"":0,""viewing_time"":7383}]","7383.5","","","","","","","","","","","","","","","","","","","","","","","",""
"pit-comprehension","115","889300","0.0-2.0-26.0-0.0","battery-v0.2","","""event"",""trial"",""time""
""fullscreenenter"",""1"",""1420""
","
","
","""event"",""trial"",""time""
""fullscreenenter"",""1"",""1420""
","
","","","6029.5","[""False""]","0","14","13746","1854","","","","","","","","","","","","","","","","","","",""
"pit-instructions","116","891649","0.0-2.0-26.0-1.0","battery-v0.2","","""event"",""trial"",""time""
""fullscreenenter"",""1"",""1420""
","
","
","""event"",""trial"",""time""
""fullscreenenter"",""1"",""1420""
","
","","[{""page_index"":0,""viewing_time"":2320.5999999996275}]","2321.0999999996275","","","","","","","","","","","","","","","","","","","","","","","",""
"pit-instructions","117","910949","0.0-3.0","battery-v0.2","","""event"",""trial"",""time""
""fullscreenenter"",""1"",""1420""
","
","
","""event"",""trial"",""time""
""fullscreenenter"",""1"",""1420""
","
","","[{""page_index"":0,""viewing_time"":7713.699999999255},{""page_index"":1,""viewing_time"":5483.300000000745},{""page_index"":2,""viewing_time"":6099.0999999996275}]","19296.5","","","","","","","","","","","","","","","","","","","","","","","",""
"pit-trial","118","914675","0.0-4.0","battery-v0.2","","""event"",""trial"",""time""
""fullscreenenter"",""1"",""1420""
","
","
","""event"",""trial"",""time""
""fullscreenenter"",""1"",""1420""
","
","","","866.9000000003725","","","14","13746","1854","&#9752;","elianto","#f73b6a7A"," "," ","1","0","[1717.7999999988824]","1","1","","","13746","1","3","3","lose","go","0"
"pit-trial","119","917831","0.0-5.0","battery-v0.2","","""event"",""trial"",""time""
""fullscreenenter"",""1"",""1420""
","
","
","""event"",""trial"",""time""
""fullscreenenter"",""1"",""1420""
","
","","","300.30000000074506","","","14","13746","1854","&#9730;","elianto","#3366ff99"," "," ","1","+10","[1151.1000000014901]","1","1","","","13746","2","1","1","win","go","0"
"pit-trial","120","921029","0.0-6.0","battery-v0.2","","""event"",""trial"",""time""
""fullscreenenter"",""1"",""1420""
","
","
","""event"",""trial"",""time""
""fullscreenenter"",""1"",""1420""
","
","","","340.80000000074506","","","14","13746","1854","&#9728;","elianto","#f73b6a7A","-1"," ","0","-10","[1192.5]","1","1","","","13746","3","0","4","lose","no-go","0"
"pit-trial","121","924239","0.0-7.0","battery-v0.2","","""event"",""trial"",""time""
""fullscreenenter"",""1"",""1420""
","
","
","""event"",""trial"",""time""
""fullscreenenter"",""1"",""1420""
","
","","","354.30000000074506","","","14","13746","1854","&#9733;","elianto","#3366ff99","-1"," ","0","0","[1205.800000000745]","1","1","","","13746","4","2","2","win","no-go","0"
"pit-trial","122","927428","0.0-8.0","battery-v0.2","","""event"",""trial"",""time""
""fullscreenenter"",""1"",""1420""
","
","
","""event"",""trial"",""time""
""fullscreenenter"",""1"",""1420""
","
","","","333.90000000037253","","","14","13746","1854","&#9752;","elianto","#f73b6a7A"," "," ","1","-10","[1185.199999999255]","1","1","","","13746","5","3","3","lose","go","1"
"pit-trial","123","930642","0.0-9.0","battery-v0.2","","""event"",""trial"",""time""
""fullscreenenter"",""1"",""1420""
","
","
","""event"",""trial"",""time""
""fullscreenenter"",""1"",""1420""
","
","","","357.7999999988824","","","14","13746","1854","&#9728;","elianto","#f73b6a7A","-1"," ","0","-10","[1209.199999999255]","1","1","","","13746","6","0","4","lose","no-go","0"
"pit-trial","124","933957","0.0-10.0","battery-v0.2","","""event"",""trial"",""time""
""fullscreenenter"",""1"",""1420""
","
","
","""event"",""trial"",""time""
""fullscreenenter"",""1"",""1420""
","
","","","459.5","","","14","13746","1854","&#9733;","elianto","#3366ff99","-1"," ","0","+10","[1310.0999999996275]","1","1","","","13746","7","2","2","win","no-go","1"
"pit-trial","125","937615","0.0-11.0","battery-v0.2","","""event"",""trial"",""time""
""fullscreenenter"",""1"",""1420""
","
","
","""event"",""trial"",""time""
""fullscreenenter"",""1"",""1420""
","
","","","803","","","14","13746","1854","&#9730;","elianto","#3366ff99"," "," ","1","+10","[1653.5999999996275]","1","1","","","13746","8","1","1","win","go","0"
"pit-trial","126","942472","0.0-12.0","battery-v0.2","","""event"",""trial"",""time""
""fullscreenenter"",""1"",""1420""
","
","
","""event"",""trial"",""time""
""fullscreenenter"",""1"",""1420""
","
","","","-1","","","14","13746","1854","&#9728;","elianto","#f73b6a7A","-1","-1","1","0","[]","0","1","","","13746","9","0","4","lose","no-go","0"
"pit-trial","127","945955","0.0-13.0","battery-v0.2","","""event"",""trial"",""time""
""fullscreenenter"",""1"",""1420""
","
","
","""event"",""trial"",""time""
""fullscreenenter"",""1"",""1420""
","
","","","627.7000000011176","","","14","13746","1854","&#9730;","elianto","#3366ff99"," "," ","1","+10","[1478]","1","1","","","13746","10","1","1","win","go","0"
"pit-trial","128","950813","0.0-14.0","battery-v0.2","","""event"",""trial"",""time""
""fullscreenenter"",""1"",""1420""
","
","
","""event"",""trial"",""time""
""fullscreenenter"",""1"",""1420""
","
","","","-1","","","14","13746","1854","&#9733;","elianto","#3366ff99","-1","-1","1","+10","[]","0","1","","","13746","11","2","2","win","no-go","0"
"pit-trial","129","955669","0.0-15.0","battery-v0.2","","""event"",""trial"",""time""
""fullscreenenter"",""1"",""1420""
","
","
","""event"",""trial"",""time""
""fullscreenenter"",""1"",""1420""
","
","","","-1","","","14","13746","1854","&#9752;","elianto","#f73b6a7A"," ","-1","0","-10","[]","0","1","","","13746","12","3","3","lose","go","0"
"pit-trial","130","959380","0.0-16.0","battery-v0.2","","""event"",""trial"",""time""
""fullscreenenter"",""1"",""1420""
","
","
","""event"",""trial"",""time""
""fullscreenenter"",""1"",""1420""
","
","","","855.6999999992549","","","14","13746","1854","&#9752;","elianto","#f73b6a7A"," "," ","1","-10","[1706]","1","1","","","13746","13","3","3","lose","go","1"
"pit-trial","131","964237","0.0-17.0","battery-v0.2","","""event"",""trial"",""time""
""fullscreenenter"",""1"",""1420""
","
","
","""event"",""trial"",""time""
""fullscreenenter"",""1"",""1420""
","
","","","-1","","","14","13746","1854","&#9728;","elianto","#f73b6a7A","-1","-1","1","0","[]","0","1","","","13746","14","0","4","lose","no-go","0"
"pit-trial","132","969092","0.0-18.0","battery-v0.2","","""event"",""trial"",""time""
""fullscreenenter"",""1"",""1420""
","
","
","""event"",""trial"",""time""
""fullscreenenter"",""1"",""1420""
","
","","","-1","","","14","13746","1854","&#9733;","elianto","#3366ff99","-1","-1","1","+10","[]","0","1","","","13746","15","2","2","win","no-go","0"
"pit-trial","133","972711","0.0-19.0","battery-v0.2","","""event"",""trial"",""time""
""fullscreenenter"",""1"",""1420""
","
","
","""event"",""trial"",""time""
""fullscreenenter"",""1"",""1420""
","
","","","761.6999999992549","","","14","13746","1854","&#9730;","elianto","#3366ff99"," "," ","1","+10","[1613.5999999996275]","1","1","","","13746","16","1","1","win","go","0"
"pit-trial","134","977565","0.0-20.0","battery-v0.2","","""event"",""trial"",""time""
""fullscreenenter"",""1"",""1420""
","
","
","""event"",""trial"",""time""
""fullscreenenter"",""1"",""1420""
","
","","","-1","","","14","13746","1854","&#9728;","elianto","#f73b6a7A","-1","-1","1","-10","[]","0","1","","","13746","17","0","4","lose","no-go","1"
"pit-trial","135","981022","0.0-21.0","battery-v0.2","","""event"",""trial"",""time""
""fullscreenenter"",""1"",""1420""
","
","
","""event"",""trial"",""time""
""fullscreenenter"",""1"",""1420""
","
","","","600.6999999992549","","","14","13746","1854","&#9752;","elianto","#f73b6a7A"," "," ","1","-10","[1451.800000000745]","1","1","","","13746","18","3","3","lose","go","1"
"pit-trial","136","984354","0.0-22.0","battery-v0.2","","""event"",""trial"",""time""
""fullscreenenter"",""1"",""1420""
","
","
","""event"",""trial"",""time""
""fullscreenenter"",""1"",""1420""
","
","","","476.6000000014901","","","14","13746","1854","&#9730;","elianto","#3366ff99"," "," ","1","+10","[1327.1000000014901]","1","1","","","13746","19","1","1","win","go","0"
"pit-trial","137","989209","0.0-23.0","battery-v0.2","","""event"",""trial"",""time""
""fullscreenenter"",""1"",""1420""
","
","
","""event"",""trial"",""time""
""fullscreenenter"",""1"",""1420""
","
","","","-1","","","14","13746","1854","&#9733;","elianto","#3366ff99","-1","-1","1","+10","[]","0","1","","","13746","20","2","2","win","no-go","0"
"pit-instructions","138","1000700","0.0-24.0","battery-v0.2","","""event"",""trial"",""time""
""fullscreenenter"",""1"",""1420""
","
","
","""event"",""trial"",""time""
""fullscreenenter"",""1"",""1420""
","
","","[{""page_index"":0,""viewing_time"":5405.800000000745},{""page_index"":1,""viewing_time"":6082.89999999851}]","11489.199999999255","","","","","","","","","","","","","","","","","","","","","","","",""
"pit-trial","139","1004246","0.0-25.0","battery-v0.2","","""event"",""trial"",""time""
""fullscreenenter"",""1"",""1420""
","
","
","""event"",""trial"",""time""
""fullscreenenter"",""1"",""1420""
","
","","","689.0999999996275","","","14","13746","1854","j","elianto","#f73b6a7A"," "," ","1","0","[1540.5]","1","2","","","13746","21","0","3","lose","go","0"
"pit-trial","140","1007628","0.0-26.0","battery-v0.2","","""event"",""trial"",""time""
""fullscreenenter"",""1"",""1420""
","
","
","""event"",""trial"",""time""
""fullscreenenter"",""1"",""1420""
","
","","","525.5","","","14","13746","1854","w","elianto","#f73b6a7A","-1"," ","0","-10","[1377.1000000014901]","1","2","","","13746","22","3","4","lose","no-go","0"
"pit-trial","141","1011146","0.0-27.0","battery-v0.2","","""event"",""trial"",""time""
""fullscreenenter"",""1"",""1420""
","
","
","""event"",""trial"",""time""
""fullscreenenter"",""1"",""1420""
","
","","","662.7999999988824","","","14","13746","1854","e","elianto","#f73b6a7A"," "," ","1","0","[1514.0999999996275]","1","2","","","13746","23","2","3","lose","go","0"
"pit-trial","142","1014461","0.0-28.0","battery-v0.2","","""event"",""trial"",""time""
""fullscreenenter"",""1"",""1420""
","
","
","""event"",""trial"",""time""
""fullscreenenter"",""1"",""1420""
","
","","","457.2000000011176","","","14","13746","1854","d","elianto","#3366ff99","-1"," ","0","0","[1309.1000000014901]","1","2","","","13746","24","1","2","win","no-go","0"
"pit-trial","143","1017829","0.0-29.0","battery-v0.2","","""event"",""trial"",""time""
""fullscreenenter"",""1"",""1420""
","
","
","""event"",""trial"",""time""
""fullscreenenter"",""1"",""1420""
","
","","","511.7999999988824","","","14","13746","1854","w","elianto","#f73b6a7A","-1"," ","0","-10","[1363.4000000003725]","1","2","","","13746","25","3","4","lose","no-go","0"
"pit-trial","144","1021186","0.0-30.0","battery-v0.2","","""event"",""trial"",""time""
""fullscreenenter"",""1"",""1420""
","
","
","""event"",""trial"",""time""
""fullscreenenter"",""1"",""1420""
","
","","","499.80000000074506","","","14","13746","1854","e","elianto","#f73b6a7A"," "," ","1","0","[1351.699999999255]","1","2","","","13746","26","2","3","lose","go","0"
"pit-trial","145","1026042","0.0-31.0","battery-v0.2","","""event"",""trial"",""time""
""fullscreenenter"",""1"",""1420""
","
","
","""event"",""trial"",""time""
""fullscreenenter"",""1"",""1420""
","
","","","-1","","","14","13746","1854","d","elianto","#3366ff99","-1","-1","1","+10","[]","0","2","","","13746","27","1","2","win","no-go","0"
"pit-trial","146","1029395","0.0-32.0","battery-v0.2","","""event"",""trial"",""time""
""fullscreenenter"",""1"",""1420""
","
","
","""event"",""trial"",""time""
""fullscreenenter"",""1"",""1420""
","
","","","497.5","","","14","13746","1854","j","elianto","#f73b6a7A"," "," ","1","0","[1348.7999999988824]","1","2","","","13746","28","0","3","lose","go","0"
"pit-trial","147","1032860","0.0-33.0","battery-v0.2","","""event"",""trial"",""time""
""fullscreenenter"",""1"",""1420""
","
","
","""event"",""trial"",""time""
""fullscreenenter"",""1"",""1420""
","
","","","608.6999999992549","","","14","13746","1854","j","elianto","#f73b6a7A"," "," ","1","0","[1460.699999999255]","1","2","","","13746","29","0","3","lose","go","0"
"pit-trial","148","1036311","0.0-34.0","battery-v0.2","","""event"",""trial"",""time""
""fullscreenenter"",""1"",""1420""
","
","
","""event"",""trial"",""time""
""fullscreenenter"",""1"",""1420""
","
","","","594.5999999996275","","","14","13746","1854","e","elianto","#f73b6a7A"," "," ","1","0","[1446.4000000003725]","1","2","","","13746","30","2","3","lose","go","0"
"pit-trial","149","1039745","0.0-35.0","battery-v0.2","","""event"",""trial"",""time""
""fullscreenenter"",""1"",""1420""
","
","
","""event"",""trial"",""time""
""fullscreenenter"",""1"",""1420""
","
","","","577.0999999996275","","","14","13746","1854","w","elianto","#f73b6a7A","-1"," ","0","-10","[1429.0999999996275]","1","2","","","13746","31","3","4","lose","no-go","0"
"pit-trial","150","1043117","0.0-36.0","battery-v0.2","","""event"",""trial"",""time""
""fullscreenenter"",""1"",""1420""
","
","
","""event"",""trial"",""time""
""fullscreenenter"",""1"",""1420""
","
","","","515.1999999992549","","","14","13746","1854","d","elianto","#3366ff99","-1"," ","0","0","[1366.0999999996275]","1","2","","","13746","32","1","2","win","no-go","0"
"pit-trial","151","1046529","0.0-37.0","battery-v0.2","","""event"",""trial"",""time""
""fullscreenenter"",""1"",""1420""
","
","
","""event"",""trial"",""time""
""fullscreenenter"",""1"",""1420""
","
","","","557","","","14","13746","1854","j","elianto","#f73b6a7A"," "," ","1","0","[1407.0999999996275]","1","2","","","13746","33","0","3","lose","go","0"
"pit-trial","152","1051385","0.0-38.0","battery-v0.2","","""event"",""trial"",""time""
""fullscreenenter"",""1"",""1420""
","
","
","""event"",""trial"",""time""
""fullscreenenter"",""1"",""1420""
","
","","","-1","","","14","13746","1854","w","elianto","#f73b6a7A","-1","-1","1","0","[]","0","2","","","13746","34","3","4","lose","no-go","0"
"pit-trial","153","1054834","0.0-39.0","battery-v0.2","","""event"",""trial"",""time""
""fullscreenenter"",""1"",""1420""
","
","
","""event"",""trial"",""time""
""fullscreenenter"",""1"",""1420""
","
","","","593.9000000003725","","","14","13746","1854","e","elianto","#f73b6a7A"," "," ","1","0","[1445.300000000745]","1","2","","","13746","35","2","3","lose","go","0"
"pit-trial","154","1058316","0.0-40.0","battery-v0.2","","""event"",""trial"",""time""
""fullscreenenter"",""1"",""1420""
","
","
","""event"",""trial"",""time""
""fullscreenenter"",""1"",""1420""
","
","","","627.6000000014901","","","14","13746","1854","d","elianto","#3366ff99","-1"," ","0","0","[1478.699999999255]","1","2","","","13746","36","1","2","win","no-go","0"
"pit-trial","155","1061713","0.0-41.0","battery-v0.2","","""event"",""trial"",""time""
""fullscreenenter"",""1"",""1420""
","
","
","""event"",""trial"",""time""
""fullscreenenter"",""1"",""1420""
","
","","","540.9000000003725","","","14","13746","1854","j","elianto","#f73b6a7A"," "," ","1","0","[1391.699999999255]","1","2","","","13746","37","0","3","lose","go","0"
"pit-trial","156","1065133","0.0-42.0","battery-v0.2","","""event"",""trial"",""time""
""fullscreenenter"",""1"",""1420""
","
","
","""event"",""trial"",""time""
""fullscreenenter"",""1"",""1420""
","
","","","563.5","","","14","13746","1854","w","elianto","#f73b6a7A","-1"," ","0","-10","[1414.5999999996275]","1","2","","","13746","38","3","4","lose","no-go","0"
"pit-trial","157","1068762","0.0-43.0","battery-v0.2","","""event"",""trial"",""time""
""fullscreenenter"",""1"",""1420""
","
","
","""event"",""trial"",""time""
""fullscreenenter"",""1"",""1420""
","
","","","772.6999999992549","","","14","13746","1854","e","elianto","#f73b6a7A"," "," ","1","-10","[1623.699999999255]","1","2","","","13746","39","2","3","lose","go","1"
"pit-trial","158","1073618","0.0-44.0","battery-v0.2","","""event"",""trial"",""time""
""fullscreenenter"",""1"",""1420""
","
","
","""event"",""trial"",""time""
""fullscreenenter"",""1"",""1420""
","
","","","-1","","","14","13746","1854","d","elianto","#3366ff99","-1","-1","1","0","[]","0","2","","","13746","40","1","2","win","no-go","1"
"pit-trial","159","1078474","0.0-45.0","battery-v0.2","","""event"",""trial"",""time""
""fullscreenenter"",""1"",""1420""
","
","
","""event"",""trial"",""time""
""fullscreenenter"",""1"",""1420""
","
","","","-1","","","14","13746","1854","d","elianto","#3366ff99","-1","-1","1","+10","[]","0","2","","","13746","41","1","2","win","no-go","0"
"pit-trial","160","1083330","0.0-46.0","battery-v0.2","","""event"",""trial"",""time""
""fullscreenenter"",""1"",""1420""
","
","
","""event"",""trial"",""time""
""fullscreenenter"",""1"",""1420""
","
","","","-1","","","14","13746","1854","w","elianto","#f73b6a7A","-1","-1","1","0","[]","0","2","","","13746","42","3","4","lose","no-go","0"
"pit-trial","161","1086722","0.0-47.0","battery-v0.2","","""event"",""trial"",""time""
""fullscreenenter"",""1"",""1420""
","
","
","""event"",""trial"",""time""
""fullscreenenter"",""1"",""1420""
","
","","","535.2999999988824","","","14","13746","1854","j","elianto","#f73b6a7A"," "," ","1","0","[1386.9000000003725]","1","2","","","13746","43","0","3","lose","go","0"
"pit-trial","162","1090319","0.0-48.0","battery-v0.2","","""event"",""trial"",""time""
""fullscreenenter"",""1"",""1420""
","
","
","""event"",""trial"",""time""
""fullscreenenter"",""1"",""1420""
","
","","","740.5","","","14","13746","1854","e","elianto","#f73b6a7A"," "," ","1","-10","[1591.4000000003725]","1","2","","","13746","44","2","3","lose","go","1"
"pit-trial","163","1095175","0.0-49.0","battery-v0.2","","""event"",""trial"",""time""
""fullscreenenter"",""1"",""1420""
","
","
","""event"",""trial"",""time""
""fullscreenenter"",""1"",""1420""
","
","","","-1","","","14","13746","1854","w","elianto","#f73b6a7A","-1","-1","1","0","[]","0","2","","","13746","45","3","4","lose","no-go","0"
"pit-trial","164","1100031","0.0-50.0","battery-v0.2","","""event"",""trial"",""time""
""fullscreenenter"",""1"",""1420""
","
","
","""event"",""trial"",""time""
""fullscreenenter"",""1"",""1420""
","
","","","-1","","","14","13746","1854","d","elianto","#3366ff99","-1","-1","1","+10","[]","0","2","","","13746","46","1","2","win","no-go","0"
"pit-trial","165","1104104","0.0-51.0","battery-v0.2","","""event"",""trial"",""time""
""fullscreenenter"",""1"",""1420""
","
","
","""event"",""trial"",""time""
""fullscreenenter"",""1"",""1420""
","
","","","1216.199999999255","","","14","13746","1854","j","elianto","#f73b6a7A"," "," ","1","0","[2067.4000000003725]","1","2","","","13746","47","0","3","lose","go","0"
"pit-trial","166","1107469","0.0-52.0","battery-v0.2","","""event"",""trial"",""time""
""fullscreenenter"",""1"",""1420""
","
","
","""event"",""trial"",""time""
""fullscreenenter"",""1"",""1420""
","
","","","509.8999999985099","","","14","13746","1854","e","elianto","#f73b6a7A"," "," ","1","0","[1360.5999999996275]","1","2","","","13746","48","2","3","lose","go","0"
"pit-trial","167","1112326","0.0-53.0","battery-v0.2","","""event"",""trial"",""time""
""fullscreenenter"",""1"",""1420""
","
","
","""event"",""trial"",""time""
""fullscreenenter"",""1"",""1420""
","
","","","-1","","","14","13746","1854","w","elianto","#f73b6a7A","-1","-1","1","0","[]","0","2","","","13746","49","3","4","lose","no-go","0"
"pit-trial","168","1115695","0.0-54.0","battery-v0.2","","""event"",""trial"",""time""
""fullscreenenter"",""1"",""1420""
","
","
","""event"",""trial"",""time""
""fullscreenenter"",""1"",""1420""
","
","","","513.5","","","14","13746","1854","e","elianto","#f73b6a7A"," "," ","1","0","[1364.3999999985099]","1","2","","","13746","50","2","3","lose","go","0"
"pit-trial","169","1119112","0.0-55.0","battery-v0.2","","""event"",""trial"",""time""
""fullscreenenter"",""1"",""1420""
","
","
","""event"",""trial"",""time""
""fullscreenenter"",""1"",""1420""
","
","","","561.1999999992549","","","14","13746","1854","j","elianto","#f73b6a7A"," "," ","1","-10","[1413]","1","2","","","13746","51","0","3","lose","go","1"
"pit-trial","170","1123969","0.0-56.0","battery-v0.2","","""event"",""trial"",""time""
""fullscreenenter"",""1"",""1420""
","
","
","""event"",""trial"",""time""
""fullscreenenter"",""1"",""1420""
","
","","","-1","","","14","13746","1854","d","elianto","#3366ff99","-1","-1","1","+10","[]","0","2","","","13746","52","1","2","win","no-go","0"
"pit-trial","171","1127438","0.0-57.0","battery-v0.2","","""event"",""trial"",""time""
""fullscreenenter"",""1"",""1420""
","
","
","""event"",""trial"",""time""
""fullscreenenter"",""1"",""1420""
","
","","","613.5999999996275","","","14","13746","1854","e","elianto","#f73b6a7A"," "," ","1","-10","[1464.5999999996275]","1","2","","","13746","53","2","3","lose","go","1"
"pit-trial","172","1132295","0.0-58.0","battery-v0.2","","""event"",""trial"",""time""
""fullscreenenter"",""1"",""1420""
","
","
","""event"",""trial"",""time""
""fullscreenenter"",""1"",""1420""
","
","","","-1","","","14","13746","1854","w","elianto","#f73b6a7A","-1","-1","1","0","[]","0","2","","","13746","54","3","4","lose","no-go","0"
"pit-trial","173","1135847","0.0-59.0","battery-v0.2","","""event"",""trial"",""time""
""fullscreenenter"",""1"",""1420""
","
","
","""event"",""trial"",""time""
""fullscreenenter"",""1"",""1420""
","
","","","695.3999999985099","","","14","13746","1854","j","elianto","#f73b6a7A"," "," ","1","0","[1547.2999999988824]","1","2","","","13746","55","0","3","lose","go","0"
"pit-trial","174","1140704","0.0-60.0","battery-v0.2","","""event"",""trial"",""time""
""fullscreenenter"",""1"",""1420""
","
","
","""event"",""trial"",""time""
""fullscreenenter"",""1"",""1420""
","
","","","-1","","","14","13746","1854","d","elianto","#3366ff99","-1","-1","1","+10","[]","0","2","","","13746","56","1","2","win","no-go","0"
"pit-trial","175","1145561","0.0-61.0","battery-v0.2","","""event"",""trial"",""time""
""fullscreenenter"",""1"",""1420""
","
","
","""event"",""trial"",""time""
""fullscreenenter"",""1"",""1420""
","
","","","-1","","","14","13746","1854","w","elianto","#f73b6a7A","-1","-1","1","-10","[]","0","2","","","13746","57","3","4","lose","no-go","1"
"pit-trial","176","1150218","0.0-62.0","battery-v0.2","","""event"",""trial"",""time""
""fullscreenenter"",""1"",""1420""
","
","
","""event"",""trial"",""time""
""fullscreenenter"",""1"",""1420""
","
","","","1801.7000000011176","","","14","13746","1854","s","elianto","#3366ff99"," "," ","1","+10","[2653.5999999996275]","1","2","","","13746","58","4","1","win","go","0"
"pit-trial","177","1153609","0.0-63.0","battery-v0.2","","""event"",""trial"",""time""
""fullscreenenter"",""1"",""1420""
","
","
","""event"",""trial"",""time""
""fullscreenenter"",""1"",""1420""
","
","","","534.8000000007451","","","14","13746","1854","e","elianto","#f73b6a7A"," "," ","1","0","[1385.5999999996275]","1","2","","","13746","59","2","3","lose","go","0"
"pit-trial","178","1157040","0.0-64.0","battery-v0.2","","""event"",""trial"",""time""
""fullscreenenter"",""1"",""1420""
","
","
","""event"",""trial"",""time""
""fullscreenenter"",""1"",""1420""
","
","","","574.6999999992549","","","14","13746","1854","j","elianto","#f73b6a7A"," "," ","1","0","[1426.5]","1","2","","","13746","60","0","3","lose","go","0"
"pit-trial","179","1161896","0.0-65.0","battery-v0.2","","""event"",""trial"",""time""
""fullscreenenter"",""1"",""1420""
","
","
","""event"",""trial"",""time""
""fullscreenenter"",""1"",""1420""
","
","","","-1","","","14","13746","1854","d","elianto","#3366ff99","-1","-1","1","+10","[]","0","2","","","13746","61","1","2","win","no-go","0"
"pit-trial","180","1165735","0.0-66.0","battery-v0.2","","""event"",""trial"",""time""
""fullscreenenter"",""1"",""1420""
","
","
","""event"",""trial"",""time""
""fullscreenenter"",""1"",""1420""
","
","","","983.5","","","14","13746","1854","e","elianto","#f73b6a7A"," "," ","1","0","[1835]","1","2","","","13746","62","2","3","lose","go","0"
"pit-trial","181","1170592","0.0-67.0","battery-v0.2","","""event"",""trial"",""time""
""fullscreenenter"",""1"",""1420""
","
","
","""event"",""trial"",""time""
""fullscreenenter"",""1"",""1420""
","
","","","-1","","","14","13746","1854","w","elianto","#f73b6a7A","-1","-1","1","0","[]","0","2","","","13746","63","3","4","lose","no-go","0"
"pit-trial","182","1174259","0.0-68.0","battery-v0.2","","""event"",""trial"",""time""
""fullscreenenter"",""1"",""1420""
","
","
","""event"",""trial"",""time""
""fullscreenenter"",""1"",""1420""
","
","","","811.7000000011176","","","14","13746","1854","s","elianto","#3366ff99"," "," ","1","+10","[1662.800000000745]","1","2","","","13746","64","4","1","win","go","0"
"pit-trial","183","1179115","0.0-69.0","battery-v0.2","","""event"",""trial"",""time""
""fullscreenenter"",""1"",""1420""
","
","
","""event"",""trial"",""time""
""fullscreenenter"",""1"",""1420""
","
","","","-1","","","14","13746","1854","d","elianto","#3366ff99","-1","-1","1","+10","[]","0","2","","","13746","65","1","2","win","no-go","0"
"pit-trial","184","1183972","0.0-70.0","battery-v0.2","","""event"",""trial"",""time""
""fullscreenenter"",""1"",""1420""
","
","
","""event"",""trial"",""time""
""fullscreenenter"",""1"",""1420""
","
","","","-1","","","14","13746","1854","w","elianto","#f73b6a7A","-1","-1","1","0","[]","0","2","","","13746","66","3","4","lose","no-go","0"
"pit-trial","185","1187474","0.0-71.0","battery-v0.2","","""event"",""trial"",""time""
""fullscreenenter"",""1"",""1420""
","
","
","""event"",""trial"",""time""
""fullscreenenter"",""1"",""1420""
","
","","","646.4000000003725","","","14","13746","1854","s","elianto","#3366ff99"," "," ","1","+10","[1496.9000000003725]","1","2","","","13746","67","4","1","win","go","0"
"pit-trial","186","1191661","0.0-72.0","battery-v0.2","","""event"",""trial"",""time""
""fullscreenenter"",""1"",""1420""
","
","
","""event"",""trial"",""time""
""fullscreenenter"",""1"",""1420""
","
","","","1332.0999999996275","","","14","13746","1854","p","elianto","#3366ff99","-1"," ","0","0","[2182.5]","1","2","","","13746","68","5","2","win","no-go","0"
"pit-trial","187","1195051","0.0-73.0","battery-v0.2","","""event"",""trial"",""time""
""fullscreenenter"",""1"",""1420""
","
","
","""event"",""trial"",""time""
""fullscreenenter"",""1"",""1420""
","
","","","534.9000000003725","","","14","13746","1854","e","elianto","#f73b6a7A"," "," ","1","0","[1386.7000000011176]","1","2","","","13746","69","2","3","lose","go","0"
"pit-trial","188","1199906","0.0-74.0","battery-v0.2","","""event"",""trial"",""time""
""fullscreenenter"",""1"",""1420""
","
","
","""event"",""trial"",""time""
""fullscreenenter"",""1"",""1420""
","
","","","-1","","","14","13746","1854","d","elianto","#3366ff99","-1","-1","1","+10","[]","0","2","","","13746","70","1","2","win","no-go","0"
"pit-trial","189","1204763","0.0-75.0","battery-v0.2","","""event"",""trial"",""time""
""fullscreenenter"",""1"",""1420""
","
","
","""event"",""trial"",""time""
""fullscreenenter"",""1"",""1420""
","
","","","-1","","","14","13746","1854","p","elianto","#3366ff99","-1","-1","1","0","[]","0","2","","","13746","71","5","2","win","no-go","1"
"pit-trial","190","1208304","0.0-76.0","battery-v0.2","","""event"",""trial"",""time""
""fullscreenenter"",""1"",""1420""
","
","
","""event"",""trial"",""time""
""fullscreenenter"",""1"",""1420""
","
","","","685","","","14","13746","1854","s","elianto","#3366ff99"," "," ","1","+10","[1537]","1","2","","","13746","72","4","1","win","go","0"
"pit-trial","191","1213160","0.0-77.0","battery-v0.2","","""event"",""trial"",""time""
""fullscreenenter"",""1"",""1420""
","
","
","""event"",""trial"",""time""
""fullscreenenter"",""1"",""1420""
","
","","","-1","","","14","13746","1854","w","elianto","#f73b6a7A","-1","-1","1","0","[]","0","2","","","13746","73","3","4","lose","no-go","0"
"pit-trial","192","1216864","0.0-78.0","battery-v0.2","","""event"",""trial"",""time""
""fullscreenenter"",""1"",""1420""
","
","
","""event"",""trial"",""time""
""fullscreenenter"",""1"",""1420""
","
","","","848.4000000003725","","","14","13746","1854","s","elianto","#3366ff99"," "," ","1","+10","[1700]","1","2","","","13746","74","4","1","win","go","0"
"pit-trial","193","1220983","0.0-79.0","battery-v0.2","","""event"",""trial"",""time""
""fullscreenenter"",""1"",""1420""
","
","
","""event"",""trial"",""time""
""fullscreenenter"",""1"",""1420""
","
","","","1261.9000000003725","","","14","13746","1854","p","elianto","#3366ff99","-1"," ","0","0","[2113.7000000011176]","1","2","","","13746","75","5","2","win","no-go","0"
"pit-trial","194","1225840","0.0-80.0","battery-v0.2","","""event"",""trial"",""time""
""fullscreenenter"",""1"",""1420""
","
","
","""event"",""trial"",""time""
""fullscreenenter"",""1"",""1420""
","
","","","-1","","","14","13746","1854","d","elianto","#3366ff99","-1","-1","1","+10","[]","0","2","","","13746","76","1","2","win","no-go","0"
"pit-trial","195","1229565","0.0-81.0","battery-v0.2","","""event"",""trial"",""time""
""fullscreenenter"",""1"",""1420""
","
","
","""event"",""trial"",""time""
""fullscreenenter"",""1"",""1420""
","
","","","869.9000000003725","","","14","13746","1854","s","elianto","#3366ff99"," "," ","1","+10","[1720.5999999996275]","1","2","","","13746","77","4","1","win","go","0"
"pit-trial","196","1234422","0.0-82.0","battery-v0.2","","""event"",""trial"",""time""
""fullscreenenter"",""1"",""1420""
","
","
","""event"",""trial"",""time""
""fullscreenenter"",""1"",""1420""
","
","","","-1","","","14","13746","1854","w","elianto","#f73b6a7A","-1","-1","1","0","[]","0","2","","","13746","78","3","4","lose","no-go","0"
"pit-trial","197","1237853","0.0-83.0","battery-v0.2","","""event"",""trial"",""time""
""fullscreenenter"",""1"",""1420""
","
","
","""event"",""trial"",""time""
""fullscreenenter"",""1"",""1420""
","
","","","575.6999999992549","","","14","13746","1854","s","elianto","#3366ff99"," "," ","1","+10","[1426.300000000745]","1","2","","","13746","79","4","1","win","go","0"
"pit-trial","198","1241744","0.0-84.0","battery-v0.2","","""event"",""trial"",""time""
""fullscreenenter"",""1"",""1420""
","
","
","""event"",""trial"",""time""
""fullscreenenter"",""1"",""1420""
","
","","","1036.5999999996275","","","14","13746","1854","p","elianto","#3366ff99","-1"," ","0","+10","[1886.9000000003725]","1","2","","","13746","80","5","2","win","no-go","1"
"pit-trial","199","1246601","0.0-85.0","battery-v0.2","","""event"",""trial"",""time""
""fullscreenenter"",""1"",""1420""
","
","
","""event"",""trial"",""time""
""fullscreenenter"",""1"",""1420""
","
","","","-1","","","14","13746","1854","p","elianto","#3366ff99","-1","-1","1","+10","[]","0","2","","","13746","81","5","2","win","no-go","0"
"pit-trial","200","1250070","0.0-86.0","battery-v0.2","","""event"",""trial"",""time""
""fullscreenenter"",""1"",""1420""
","
","
","""event"",""trial"",""time""
""fullscreenenter"",""1"",""1420""
","
","","","615.5","","","14","13746","1854","s","elianto","#3366ff99"," "," ","1","+10","[1466.5999999996275]","1","2","","","13746","82","4","1","win","go","0"
"pit-trial","201","1254211","0.0-87.0","battery-v0.2","","""event"",""trial"",""time""
""fullscreenenter"",""1"",""1420""
","
","
","""event"",""trial"",""time""
""fullscreenenter"",""1"",""1420""
","
","","","1284.5","","","14","13746","1854","a","elianto","#f73b6a7A","-1"," ","0","0","[2135.5]","1","2","","","13746","83","7","4","lose","no-go","1"
"pit-trial","202","1259068","0.0-88.0","battery-v0.2","","""event"",""trial"",""time""
""fullscreenenter"",""1"",""1420""
","
","
","""event"",""trial"",""time""
""fullscreenenter"",""1"",""1420""
","
","","","-1","","","14","13746","1854","w","elianto","#f73b6a7A","-1","-1","1","0","[]","0","2","","","13746","84","3","4","lose","no-go","0"
"pit-trial","203","1262799","0.0-89.0","battery-v0.2","","""event"",""trial"",""time""
""fullscreenenter"",""1"",""1420""
","
","
","""event"",""trial"",""time""
""fullscreenenter"",""1"",""1420""
","
","","","874.4000000003725","","","14","13746","1854","p","elianto","#3366ff99","-1"," ","0","0","[1724.9000000003725]","1","2","","","13746","85","5","2","win","no-go","0"
"pit-trial","204","1266699","0.0-90.0","battery-v0.2","","""event"",""trial"",""time""
""fullscreenenter"",""1"",""1420""
","
","
","""event"",""trial"",""time""
""fullscreenenter"",""1"",""1420""
","
","","","1044.9000000003725","","","14","13746","1854","g","elianto","#f73b6a7A"," "," ","1","0","[1896.2000000011176]","1","2","","","13746","86","6","3","lose","go","0"
"pit-trial","205","1270349","0.0-91.0","battery-v0.2","","""event"",""trial"",""time""
""fullscreenenter"",""1"",""1420""
","
","
","""event"",""trial"",""time""
""fullscreenenter"",""1"",""1420""
","
","","","794.1000000014901","","","14","13746","1854","s","elianto","#3366ff99"," "," ","1","+10","[1644.800000000745]","1","2","","","13746","87","4","1","win","go","0"
"pit-trial","206","1273910","0.0-92.0","battery-v0.2","","""event"",""trial"",""time""
""fullscreenenter"",""1"",""1420""
","
","
","""event"",""trial"",""time""
""fullscreenenter"",""1"",""1420""
","
","","","706","","","14","13746","1854","a","elianto","#f73b6a7A","-1"," ","0","-10","[1557.2999999988824]","1","2","","","13746","88","7","4","lose","no-go","0"
"pit-trial","207","1277384","0.0-93.0","battery-v0.2","","""event"",""trial"",""time""
""fullscreenenter"",""1"",""1420""
","
","
","""event"",""trial"",""time""
""fullscreenenter"",""1"",""1420""
","
","","","617.7000000011176","","","14","13746","1854","a","elianto","#f73b6a7A","-1"," ","0","-10","[1469.4000000003725]","1","2","","","13746","89","7","4","lose","no-go","0"
"pit-trial","208","1281455","0.0-94.0","battery-v0.2","","""event"",""trial"",""time""
""fullscreenenter"",""1"",""1420""
","
","
","""event"",""trial"",""time""
""fullscreenenter"",""1"",""1420""
","
","","","1215.9000000003725","","","14","13746","1854","s","elianto","#3366ff99"," "," ","1","+10","[2066.2999999988824]","1","2","","","13746","90","4","1","win","go","0"
"pit-trial","209","1286312","0.0-95.0","battery-v0.2","","""event"",""trial"",""time""
""fullscreenenter"",""1"",""1420""
","
","
","""event"",""trial"",""time""
""fullscreenenter"",""1"",""1420""
","
","","","-1","","","14","13746","1854","g","elianto","#f73b6a7A"," ","-1","0","-10","[2902.5999999996275]","1","2","","","13746","91","6","3","lose","go","0"
"pit-trial","210","1290044","0.0-96.0","battery-v0.2","","""event"",""trial"",""time""
""fullscreenenter"",""1"",""1420""
","
","
","""event"",""trial"",""time""
""fullscreenenter"",""1"",""1420""
","
","","","875.5999999996275","","","14","13746","1854","p","elianto","#3366ff99","-1"," ","0","+10","[1726.5]","1","2","","","13746","92","5","2","win","no-go","1"
"pit-trial","211","1294900","0.0-97.0","battery-v0.2","","""event"",""trial"",""time""
""fullscreenenter"",""1"",""1420""
","
","
","""event"",""trial"",""time""
""fullscreenenter"",""1"",""1420""
","
","","","-1","","","14","13746","1854","a","elianto","#f73b6a7A","-1","-1","1","0","[]","0","2","","","13746","93","7","4","lose","no-go","0"
"pit-trial","212","1299757","0.0-98.0","battery-v0.2","","""event"",""trial"",""time""
""fullscreenenter"",""1"",""1420""
","
","
","""event"",""trial"",""time""
""fullscreenenter"",""1"",""1420""
","
","","","-1","","","14","13746","1854","g","elianto","#f73b6a7A"," ","-1","0","-10","[]","0","2","","","13746","94","6","3","lose","go","0"
"pit-trial","213","1303368","0.0-99.0","battery-v0.2","","""event"",""trial"",""time""
""fullscreenenter"",""1"",""1420""
","
","
","""event"",""trial"",""time""
""fullscreenenter"",""1"",""1420""
","
","","","754.6999999992549","","","14","13746","1854","l","elianto","#3366ff99"," "," ","1","+10","[1605.4000000003725]","1","2","","","13746","95","8","1","win","go","0"
"pit-trial","214","1307020","0.0-100.0","battery-v0.2","","""event"",""trial"",""time""
""fullscreenenter"",""1"",""1420""
","
","
","""event"",""trial"",""time""
""fullscreenenter"",""1"",""1420""
","
","","","795","","","14","13746","1854","p","elianto","#3366ff99","-1"," ","0","0","[1646.699999999255]","1","2","","","13746","96","5","2","win","no-go","0"
"pit-trial","215","1310675","0.0-101.0","battery-v0.2","","""event"",""trial"",""time""
""fullscreenenter"",""1"",""1420""
","
","
","""event"",""trial"",""time""
""fullscreenenter"",""1"",""1420""
","
","","","799.5","","","14","13746","1854","l","elianto","#3366ff99"," "," ","1","+10","[1650.0999999996275]","1","2","","","13746","97","8","1","win","go","0"
"pit-trial","216","1315532","0.0-102.0","battery-v0.2","","""event"",""trial"",""time""
""fullscreenenter"",""1"",""1420""
","
","
","""event"",""trial"",""time""
""fullscreenenter"",""1"",""1420""
","
","","","-1","","","14","13746","1854","a","elianto","#f73b6a7A","-1","-1","1","-10","[]","0","2","","","13746","98","7","4","lose","no-go","1"
"pit-trial","217","1319296","0.0-103.0","battery-v0.2","","""event"",""trial"",""time""
""fullscreenenter"",""1"",""1420""
","
","
","""event"",""trial"",""time""
""fullscreenenter"",""1"",""1420""
","
","","","908.0999999996275","","","14","13746","1854","p","elianto","#3366ff99","-1"," ","0","0","[1759.0999999996275]","1","2","","","13746","99","5","2","win","no-go","0"
"pit-trial","218","1324153","0.0-104.0","battery-v0.2","","""event"",""trial"",""time""
""fullscreenenter"",""1"",""1420""
","
","
","""event"",""trial"",""time""
""fullscreenenter"",""1"",""1420""
","
","","","-1","","","14","13746","1854","g","elianto","#f73b6a7A"," ","-1","0","-10","[]","0","2","","","13746","100","6","3","lose","go","0"
"pit-trial","219","1327627","0.0-105.0","battery-v0.2","","""event"",""trial"",""time""
""fullscreenenter"",""1"",""1420""
","
","
","""event"",""trial"",""time""
""fullscreenenter"",""1"",""1420""
","
","","","618.6999999992549","","","14","13746","1854","p","elianto","#3366ff99","-1"," ","0","0","[1469]","1","2","","","13746","101","5","2","win","no-go","0"
"pit-trial","220","1331393","0.0-106.0","battery-v0.2","","""event"",""trial"",""time""
""fullscreenenter"",""1"",""1420""
","
","
","""event"",""trial"",""time""
""fullscreenenter"",""1"",""1420""
","
","","","908.4000000003725","","","14","13746","1854","a","elianto","#f73b6a7A","-1"," ","0","-10","[1760.199999999255]","1","2","","","13746","102","7","4","lose","no-go","0"
"pit-trial","221","1334908","0.0-107.0","battery-v0.2","","""event"",""trial"",""time""
""fullscreenenter"",""1"",""1420""
","
","
","""event"",""trial"",""time""
""fullscreenenter"",""1"",""1420""
","
","","","658.5","","","14","13746","1854","u","elianto","#3366ff99"," "," ","1","0","[1510.199999999255]","1","2","","","13746","103","9","1","win","go","1"
"pit-trial","222","1338183","0.0-108.0","battery-v0.2","","""event"",""trial"",""time""
""fullscreenenter"",""1"",""1420""
","
","
","""event"",""trial"",""time""
""fullscreenenter"",""1"",""1420""
","
","","","420.40000000037253","","","14","13746","1854","l","elianto","#3366ff99"," "," ","1","+10","[1270.9000000003725]","1","2","","","13746","104","8","1","win","go","0"
"pit-trial","223","1341662","0.0-109.0","battery-v0.2","","""event"",""trial"",""time""
""fullscreenenter"",""1"",""1420""
","
","
","""event"",""trial"",""time""
""fullscreenenter"",""1"",""1420""
","
","","","623.4000000003725","","","14","13746","1854","l","elianto","#3366ff99"," "," ","1","+10","[1474.5]","1","2","","","13746","105","8","1","win","go","0"
"pit-trial","224","1346517","0.0-110.0","battery-v0.2","","""event"",""trial"",""time""
""fullscreenenter"",""1"",""1420""
","
","
","""event"",""trial"",""time""
""fullscreenenter"",""1"",""1420""
","
","","","-1","","","14","13746","1854","u","elianto","#3366ff99"," ","-1","0","0","[]","0","2","","","13746","106","9","1","win","go","0"
"pit-trial","225","1350047","0.0-111.0","battery-v0.2","","""event"",""trial"",""time""
""fullscreenenter"",""1"",""1420""
","
","
","""event"",""trial"",""time""
""fullscreenenter"",""1"",""1420""
","
","","","673.9000000003725","","","14","13746","1854","g","elianto","#f73b6a7A"," "," ","1","-10","[1524.5999999996275]","1","2","","","13746","107","6","3","lose","go","1"
"pit-trial","226","1353531","0.0-112.0","battery-v0.2","","""event"",""trial"",""time""
""fullscreenenter"",""1"",""1420""
","
","
","""event"",""trial"",""time""
""fullscreenenter"",""1"",""1420""
","
","","","627.0999999996275","","","14","13746","1854","s","elianto","#3366ff99"," "," ","1","+10","[1478.7000000011176]","1","2","","","13746","108","4","1","win","go","0"
"pit-trial","227","1358387","0.0-113.0","battery-v0.2","","""event"",""trial"",""time""
""fullscreenenter"",""1"",""1420""
","
","
","""event"",""trial"",""time""
""fullscreenenter"",""1"",""1420""
","
","","","-1","","","14","13746","1854","g","elianto","#f73b6a7A"," ","-1","0","-10","[3106]","1","2","","","13746","109","6","3","lose","go","0"
"pit-trial","228","1361787","0.0-114.0","battery-v0.2","","""event"",""trial"",""time""
""fullscreenenter"",""1"",""1420""
","
","
","""event"",""trial"",""time""
""fullscreenenter"",""1"",""1420""
","
","","","544.8000000007451","","","14","13746","1854","u","elianto","#3366ff99"," "," ","1","+10","[1394.800000000745]","1","2","","","13746","110","9","1","win","go","0"
"pit-trial","229","1365380","0.0-115.0","battery-v0.2","","""event"",""trial"",""time""
""fullscreenenter"",""1"",""1420""
","
","
","""event"",""trial"",""time""
""fullscreenenter"",""1"",""1420""
","
","","","737.8000000007451","","","14","13746","1854","l","elianto","#3366ff99"," "," ","1","+10","[1588.2000000011176]","1","2","","","13746","111","8","1","win","go","0"
"pit-trial","230","1368659","0.0-116.0","battery-v0.2","","""event"",""trial"",""time""
""fullscreenenter"",""1"",""1420""
","
","
","""event"",""trial"",""time""
""fullscreenenter"",""1"",""1420""
","
","","","423","","","14","13746","1854","p","elianto","#3366ff99","-1"," ","0","+10","[1274.800000000745]","1","2","","","13746","112","5","2","win","no-go","1"
"pit-trial","231","1372049","0.0-117.0","battery-v0.2","","""event"",""trial"",""time""
""fullscreenenter"",""1"",""1420""
","
","
","""event"",""trial"",""time""
""fullscreenenter"",""1"",""1420""
","
","","","534.1999999992549","","","14","13746","1854","p","elianto","#3366ff99","-1"," ","0","0","[1385.5999999996275]","1","2","","","13746","113","5","2","win","no-go","0"
"pit-trial","232","1375609","0.0-118.0","battery-v0.2","","""event"",""trial"",""time""
""fullscreenenter"",""1"",""1420""
","
","
","""event"",""trial"",""time""
""fullscreenenter"",""1"",""1420""
","
","","","703.1999999992549","","","14","13746","1854","g","elianto","#f73b6a7A"," "," ","1","0","[1554.2999999988824]","1","2","","","13746","114","6","3","lose","go","0"
"pit-trial","233","1379209","0.0-119.0","battery-v0.2","","""event"",""trial"",""time""
""fullscreenenter"",""1"",""1420""
","
","
","""event"",""trial"",""time""
""fullscreenenter"",""1"",""1420""
","
","","","743.8000000007451","","","14","13746","1854","u","elianto","#3366ff99"," "," ","1","+10","[1595.4000000003725]","1","2","","","13746","115","9","1","win","go","0"
"pit-trial","234","1384052","0.0-120.0","battery-v0.2","","""event"",""trial"",""time""
""fullscreenenter"",""1"",""1420""
","
","
","""event"",""trial"",""time""
""fullscreenenter"",""1"",""1420""
","
","","","1986.9000000003725","","","14","13746","1854","l","elianto","#3366ff99"," "," ","1","+10","[2838]","1","2","","","13746","116","8","1","win","go","0"
"pit-trial","235","1387511","0.0-121.0","battery-v0.2","","""event"",""trial"",""time""
""fullscreenenter"",""1"",""1420""
","
","
","""event"",""trial"",""time""
""fullscreenenter"",""1"",""1420""
","
","","","602.9000000003725","","","14","13746","1854","u","elianto","#3366ff99"," "," ","1","+10","[1454.0999999996275]","1","2","","","13746","117","9","1","win","go","0"
"pit-trial","236","1390817","0.0-122.0","battery-v0.2","","""event"",""trial"",""time""
""fullscreenenter"",""1"",""1420""
","
","
","""event"",""trial"",""time""
""fullscreenenter"",""1"",""1420""
","
","","","450.5","","","14","13746","1854","l","elianto","#3366ff99"," "," ","1","0","[1301.3999999985099]","1","2","","","13746","118","8","1","win","go","1"
"pit-trial","237","1394545","0.0-123.0","battery-v0.2","","""event"",""trial"",""time""
""fullscreenenter"",""1"",""1420""
","
","
","""event"",""trial"",""time""
""fullscreenenter"",""1"",""1420""
","
","","","871.0999999996275","","","14","13746","1854","p","elianto","#3366ff99","-1"," ","0","0","[1722.699999999255]","1","2","","","13746","119","5","2","win","no-go","0"
"pit-trial","238","1398193","0.0-124.0","battery-v0.2","","""event"",""trial"",""time""
""fullscreenenter"",""1"",""1420""
","
","
","""event"",""trial"",""time""
""fullscreenenter"",""1"",""1420""
","
","","","792.1999999992549","","","14","13746","1854","g","elianto","#f73b6a7A"," "," ","1","0","[1643.0999999996275]","1","2","","","13746","120","6","3","lose","go","0"
"pit-trial","239","1401445","0.0-125.0","battery-v0.2","","""event"",""trial"",""time""
""fullscreenenter"",""1"",""1420""
","
","
","""event"",""trial"",""time""
""fullscreenenter"",""1"",""1420""
","
","","","395.40000000037253","","","14","13746","1854","u","elianto","#3366ff99"," "," ","1","+10","[1247]","1","2","","","13746","121","9","1","win","go","0"
"pit-trial","240","1404921","0.0-126.0","battery-v0.2","","""event"",""trial"",""time""
""fullscreenenter"",""1"",""1420""
","
","
","""event"",""trial"",""time""
""fullscreenenter"",""1"",""1420""
","
","","","619.8000000007451","","","14","13746","1854","l","elianto","#3366ff99"," "," ","1","+10","[1470.699999999255]","1","2","","","13746","122","8","1","win","go","0"
"pit-trial","241","1408766","0.0-127.0","battery-v0.2","","""event"",""trial"",""time""
""fullscreenenter"",""1"",""1420""
","
","
","""event"",""trial"",""time""
""fullscreenenter"",""1"",""1420""
","
","","","987.3000000007451","","","14","13746","1854","g","elianto","#f73b6a7A"," "," ","1","0","[1839.1000000014901]","1","2","","","13746","123","6","3","lose","go","0"
"pit-trial","242","1412441","0.0-128.0","battery-v0.2","","""event"",""trial"",""time""
""fullscreenenter"",""1"",""1420""
","
","
","""event"",""trial"",""time""
""fullscreenenter"",""1"",""1420""
","
","","","818.5","","","14","13746","1854","a","elianto","#f73b6a7A","-1"," ","0","-10","[1670.199999999255]","1","2","","","13746","124","7","4","lose","no-go","0"
"pit-trial","243","1415848","0.0-129.0","battery-v0.2","","""event"",""trial"",""time""
""fullscreenenter"",""1"",""1420""
","
","
","""event"",""trial"",""time""
""fullscreenenter"",""1"",""1420""
","
","","","552","","","14","13746","1854","u","elianto","#3366ff99"," "," ","1","+10","[1402.5999999996275]","1","2","","","13746","125","9","1","win","go","0"
"pit-trial","244","1419461","0.0-130.0","battery-v0.2","","""event"",""trial"",""time""
""fullscreenenter"",""1"",""1420""
","
","
","""event"",""trial"",""time""
""fullscreenenter"",""1"",""1420""
","
","","","756.7000000011176","","","14","13746","1854","g","elianto","#f73b6a7A"," "," ","1","0","[1607.9000000003725]","1","2","","","13746","126","6","3","lose","go","0"
"pit-trial","245","1424109","0.0-131.0","battery-v0.2","","""event"",""trial"",""time""
""fullscreenenter"",""1"",""1420""
","
","
","""event"",""trial"",""time""
""fullscreenenter"",""1"",""1420""
","
","","","1792.2999999988824","","","14","13746","1854","l","elianto","#3366ff99"," "," ","1","+10","[2643]","1","2","","","13746","127","8","1","win","go","0"
"pit-trial","246","1428965","0.0-132.0","battery-v0.2","","""event"",""trial"",""time""
""fullscreenenter"",""1"",""1420""
","
","
","""event"",""trial"",""time""
""fullscreenenter"",""1"",""1420""
","
","","","-1","","","14","13746","1854","a","elianto","#f73b6a7A","-1","-1","1","-10","[]","0","2","","","13746","128","7","4","lose","no-go","1"
"pit-trial","247","1432540","0.0-133.0","battery-v0.2","","""event"",""trial"",""time""
""fullscreenenter"",""1"",""1420""
","
","
","""event"",""trial"",""time""
""fullscreenenter"",""1"",""1420""
","
","","","718.0999999996275","","","14","13746","1854","g","elianto","#f73b6a7A"," "," ","1","0","[1569.5]","1","2","","","13746","129","6","3","lose","go","0"
"pit-trial","248","1437397","0.0-134.0","battery-v0.2","","""event"",""trial"",""time""
""fullscreenenter"",""1"",""1420""
","
","
","""event"",""trial"",""time""
""fullscreenenter"",""1"",""1420""
","
","","","-1","","","14","13746","1854","a","elianto","#f73b6a7A","-1","-1","1","0","[]","0","2","","","13746","130","7","4","lose","no-go","0"
"pit-trial","249","1440771","0.0-135.0","battery-v0.2","","""event"",""trial"",""time""
""fullscreenenter"",""1"",""1420""
","
","
","""event"",""trial"",""time""
""fullscreenenter"",""1"",""1420""
","
","","","518","","","14","13746","1854","l","elianto","#3366ff99"," "," ","1","+10","[1370]","1","2","","","13746","131","8","1","win","go","0"
"pit-trial","250","1445628","0.0-136.0","battery-v0.2","","""event"",""trial"",""time""
""fullscreenenter"",""1"",""1420""
","
","
","""event"",""trial"",""time""
""fullscreenenter"",""1"",""1420""
","
","","","-1","","","14","13746","1854","u","elianto","#3366ff99"," ","-1","0","0","[]","0","2","","","13746","132","9","1","win","go","0"
"pit-trial","251","1450484","0.0-137.0","battery-v0.2","","""event"",""trial"",""time""
""fullscreenenter"",""1"",""1420""
","
","
","""event"",""trial"",""time""
""fullscreenenter"",""1"",""1420""
","
","","","-1","","","14","13746","1854","a","elianto","#f73b6a7A","-1","-1","1","0","[]","0","2","","","13746","133","7","4","lose","no-go","0"
"pit-trial","252","1454904","0.0-138.0","battery-v0.2","","""event"",""trial"",""time""
""fullscreenenter"",""1"",""1420""
","
","
","""event"",""trial"",""time""
""fullscreenenter"",""1"",""1420""
","
","","","1564.2000000011176","","","14","13746","1854","g","elianto","#f73b6a7A"," "," ","1","0","[2415.7000000011176]","1","2","","","13746","134","6","3","lose","go","0"
"pit-trial","253","1459242","0.0-139.0","battery-v0.2","","""event"",""trial"",""time""
""fullscreenenter"",""1"",""1420""
","
","
","""event"",""trial"",""time""
""fullscreenenter"",""1"",""1420""
","
","","","1481.5999999996275","","","14","13746","1854","u","elianto","#3366ff99"," "," ","1","+10","[2333.199999999255]","1","2","","","13746","135","9","1","win","go","0"
"pit-trial","254","1462904","0.0-140.0","battery-v0.2","","""event"",""trial"",""time""
""fullscreenenter"",""1"",""1420""
","
","
","""event"",""trial"",""time""
""fullscreenenter"",""1"",""1420""
","
","","","806.5999999996275","","","14","13746","1854","l","elianto","#3366ff99"," "," ","1","+10","[1657.4000000003725]","1","2","","","13746","136","8","1","win","go","0"
"pit-trial","255","1467759","0.0-141.0","battery-v0.2","","""event"",""trial"",""time""
""fullscreenenter"",""1"",""1420""
","
","
","""event"",""trial"",""time""
""fullscreenenter"",""1"",""1420""
","
","","","-1","","","14","13746","1854","g","elianto","#f73b6a7A"," ","-1","0","-10","[]","0","2","","","13746","137","6","3","lose","go","0"
"pit-trial","256","1471193","0.0-142.0","battery-v0.2","","""event"",""trial"",""time""
""fullscreenenter"",""1"",""1420""
","
","
","""event"",""trial"",""time""
""fullscreenenter"",""1"",""1420""
","
","","","578.2000000011176","","","14","13746","1854","u","elianto","#3366ff99"," "," ","1","+10","[1428.800000000745]","1","2","","","13746","138","9","1","win","go","0"
"pit-trial","257","1474604","0.0-143.0","battery-v0.2","","""event"",""trial"",""time""
""fullscreenenter"",""1"",""1420""
","
","
","""event"",""trial"",""time""
""fullscreenenter"",""1"",""1420""
","
","","","554.0999999996275","","","14","13746","1854","l","elianto","#3366ff99"," "," ","1","0","[1405.5]","1","2","","","13746","139","8","1","win","go","1"
"pit-trial","258","1479460","0.0-144.0","battery-v0.2","","""event"",""trial"",""time""
""fullscreenenter"",""1"",""1420""
","
","
","""event"",""trial"",""time""
""fullscreenenter"",""1"",""1420""
","
","","","-1","","","14","13746","1854","a","elianto","#f73b6a7A","-1","-1","1","0","[]","0","2","","","13746","140","7","4","lose","no-go","0"
"pit-instructions","259","1492771","0.0-145.0","battery-v0.2","","""event"",""trial"",""time""
""fullscreenenter"",""1"",""1420""
","
","
","""event"",""trial"",""time""
""fullscreenenter"",""1"",""1420""
","
","","[{""page_index"":0,""viewing_time"":5125.5999999996275},{""page_index"":1,""viewing_time"":8183.200000001118}]","13309.199999999255","","","","","","","","","","","","","","","","","","","","","","","",""
"pit-trial","260","1496236","0.0-146.0","battery-v0.2","","""event"",""trial"",""time""
""fullscreenenter"",""1"",""1420""
","
","
","""event"",""trial"",""time""
""fullscreenenter"",""1"",""1420""
","
","","","606.0999999996275","","","14","13746","1854","r","elianto","#3366ff99"," "," ","1","+10","[1456.5]","1","3","","","13746","141","1","1","win","go","0"
"pit-trial","261","1499477","0.0-147.0","battery-v0.2","","""event"",""trial"",""time""
""fullscreenenter"",""1"",""1420""
","
","
","""event"",""trial"",""time""
""fullscreenenter"",""1"",""1420""
","
","","","384.2000000011176","","","14","13746","1854","m","elianto","#f73b6a7A","-1"," ","0","-10","[1235.699999999255]","1","3","","","13746","142","0","4","lose","no-go","0"
"pit-trial","262","1502457","0.0-148.0","battery-v0.2","","""event"",""trial"",""time""
""fullscreenenter"",""1"",""1420""
","
","
","""event"",""trial"",""time""
""fullscreenenter"",""1"",""1420""
","
","","","125.20000000111759","","","14","13746","1854","y","elianto","#f73b6a7A","-1"," ","0","-10","[975.5999999996275]","1","3","","","13746","143","2","4","lose","no-go","0"
"pit-trial","263","1505620","0.0-149.0","battery-v0.2","","""event"",""trial"",""time""
""fullscreenenter"",""1"",""1420""
","
","
","""event"",""trial"",""time""
""fullscreenenter"",""1"",""1420""
","
","","","308.5","","","14","13746","1854","h","elianto","#f73b6a7A"," "," ","1","0","[1158.800000000745]","1","3","","","13746","144","3","3","lose","go","0"
"pit-trial","264","1508987","0.0-150.0","battery-v0.2","","""event"",""trial"",""time""
""fullscreenenter"",""1"",""1420""
","
","
","""event"",""trial"",""time""
""fullscreenenter"",""1"",""1420""
","
","","","512.8000000007451","","","14","13746","1854","h","elianto","#f73b6a7A"," "," ","1","0","[1364]","1","3","","","13746","145","3","3","lose","go","0"
"pit-trial","265","1512349","0.0-151.0","battery-v0.2","","""event"",""trial"",""time""
