"trial_type","trial_index","time_elapsed","internal_node_id","task_version","subject_id","interactions","blur_events","focus_events","fullscreenenter_events","fullscreenexit_events","success","view_history","rt","responses","num_errors","age","subject","participantId","rune","rune_set","hex","correct","choice","accuracy","outcome","keys","total_keys","block","practice","value","sub","trial","stimulus","robot","valence","action","sham"
"pavlovia","0","9","0.0-0.0","battery-v0.2","","""event"",""trial"",""time""
""fullscreenenter"",""1"",""2091""
","
","
","""event"",""trial"",""time""
""fullscreenenter"",""1"",""2091""
","
","","","","","","","","","","","","","","","","","","","","","","","","","","",""
"fullscreen","1","3083","0.0-1.0","battery-v0.2","","""event"",""trial"",""time""
""fullscreenenter"",""1"",""2091""
","
","
","""event"",""trial"",""time""
""fullscreenenter"",""1"",""2091""
","
","true","","","","","","","","","","","","","","","","","","","","","","","","","",""
"pit-instructions","2","8467","0.0-2.0-0.0","battery-v0.2","","""event"",""trial"",""time""
""fullscreenenter"",""1"",""2091""
","
","
","""event"",""trial"",""time""
""fullscreenenter"",""1"",""2091""
","
","","[{""page_index"":0,""viewing_time"":5380.5}]","5382.200000047684","","","","","","","","","","","","","","","","","","","","","","","",""
"pit-comprehension","3","11834","0.0-2.0-1.0-0.0","battery-v0.2","","""event"",""trial"",""time""
""fullscreenenter"",""1"",""2091""
","
","
","""event"",""trial"",""time""
""fullscreenenter"",""1"",""2091""
","
","","","3359.5999999046326","[""shark""]","0","23","4536","1297","","","","","","","","","","","","","","","","","","",""
"pit-instructions","4","15408","0.0-2.0-1.0-1.0","battery-v0.2","","""event"",""trial"",""time""
""fullscreenenter"",""1"",""2091""
","
","
","""event"",""trial"",""time""
""fullscreenenter"",""1"",""2091""
","
","","[{""page_index"":0,""viewing_time"":3561.8000000715256}]","3562.100000023842","","","","","","","","","","","","","","","","","","","","","","","",""
"pit-comprehension","5","17766","0.0-2.0-2.0-0.0","battery-v0.2","","""event"",""trial"",""time""
""fullscreenenter"",""1"",""2091""
","
","
","""event"",""trial"",""time""
""fullscreenenter"",""1"",""2091""
","
","","","2352.1999999284744","[""tiger""]","0","23","4536","1297","","","","","","","","","","","","","","","","","","",""
"pit-instructions","6","19333","0.0-2.0-2.0-1.0","battery-v0.2","","""event"",""trial"",""time""
""fullscreenenter"",""1"",""2091""
","
","
","""event"",""trial"",""time""
""fullscreenenter"",""1"",""2091""
","
","","[{""page_index"":0,""viewing_time"":1558.5}]","1559.2000000476837","","","","","","","","","","","","","","","","","","","","","","","",""
"pit-instructions","7","118115","0.0-2.0-3.0","battery-v0.2","","""event"",""trial"",""time""
""fullscreenenter"",""1"",""2091""
","
","
","""event"",""trial"",""time""
""fullscreenenter"",""1"",""2091""
","
","","[{""page_index"":0,""viewing_time"":8841.200000047684},{""page_index"":1,""viewing_time"":6650.299999952316},{""page_index"":2,""viewing_time"":7265.400000095367},{""page_index"":3,""viewing_time"":5651.599999904633},{""page_index"":4,""viewing_time"":5900},{""page_index"":5,""viewing_time"":5933.5},{""page_index"":6,""viewing_time"":6834},{""page_index"":7,""viewing_time"":6383.300000071526},{""page_index"":8,""viewing_time"":8466.100000023842},{""page_index"":9,""viewing_time"":8184.199999928474},{""page_index"":10,""viewing_time"":7033.700000047684},{""page_index"":11,""viewing_time"":8580.100000023842},{""page_index"":12,""viewing_time"":7653.099999904633},{""page_index"":13,""viewing_time"":5400.200000047684}]","98777.5","","","","","","","","","","","","","","","","","","","","","","","",""
"pit-trial","8","121000","0.0-2.0-4.0-0.0","battery-v0.2","","""event"",""trial"",""time""
""fullscreenenter"",""1"",""2091""
","
","
","""event"",""trial"",""time""
""fullscreenenter"",""1"",""2091""
","
","","","28.299999952316284","","","23","4536","1297","&#9784;","elianto","#FFFFF080"," "," ","1","&#10004","[878.3000000715256]","1","0","0","","","","","","","",""
"pit-trial","9","125868","0.0-2.0-4.1-0.1","battery-v0.2","","""event"",""trial"",""time""
""fullscreenenter"",""1"",""2091""
","
","
","""event"",""trial"",""time""
""fullscreenenter"",""1"",""2091""
","
","","","-1","","","23","4536","1297","&#9784;","elianto","#FFFFF080"," ","-1","0","&#10060","[841.7999999523163]","1","0","0","","","","","","","",""
"pit-trial","10","129617","0.0-2.0-4.2-0.2","battery-v0.2","","""event"",""trial"",""time""
""fullscreenenter"",""1"",""2091""
","
","
","""event"",""trial"",""time""
""fullscreenenter"",""1"",""2091""
","
","","","887.3000000715256","","","23","4536","1297","&#9784;","elianto","#FFFFF080"," "," ","1","&#10004","[1737.3000000715256]","1","0","0","","","","","","","",""
"pit-trial","11","133068","0.0-2.0-4.3-0.3","battery-v0.2","","""event"",""trial"",""time""
""fullscreenenter"",""1"",""2091""
","
","
","""event"",""trial"",""time""
""fullscreenenter"",""1"",""2091""
","
","","","587.5","","","23","4536","1297","&#9784;","elianto","#FFFFF080"," "," ","1","&#10004","[1437.5]","1","0","0","","","","","","","",""
"pit-trial","12","136489","0.0-2.0-4.4-0.4","battery-v0.2","","""event"",""trial"",""time""
""fullscreenenter"",""1"",""2091""
","
","
","""event"",""trial"",""time""
""fullscreenenter"",""1"",""2091""
","
","","","559.2000000476837","","","23","4536","1297","&#9784;","elianto","#FFFFF080"," "," ","1","&#10004","[1409.5]","1","0","0","","","","","","","",""
"pit-instructions","13","159464","0.0-2.0-5.0","battery-v0.2","","""event"",""trial"",""time""
""fullscreenenter"",""1"",""2091""
","
","
","""event"",""trial"",""time""
""fullscreenenter"",""1"",""2091""
","
","","[{""page_index"":0,""viewing_time"":6699.600000023842},{""page_index"":1,""viewing_time"":5366.799999952316},{""page_index"":2,""viewing_time"":5516.800000071526},{""page_index"":3,""viewing_time"":5382.899999976158}]","22966.399999976158","","","","","","","","","","","","","","","","","","","","","","","",""
"pit-trial","14","164328","0.0-2.0-6.0-0.0","battery-v0.2","","""event"",""trial"",""time""
""fullscreenenter"",""1"",""2091""
","
","
","""event"",""trial"",""time""
""fullscreenenter"",""1"",""2091""
","
","","","-1","","","23","4536","1297","&#9854;","elianto","#FFFFF080","-1","-1","1","&#10004","[]","0","0","1","","","","","","","",""
"pit-trial","15","169194","0.0-2.0-6.1-0.1","battery-v0.2","","""event"",""trial"",""time""
""fullscreenenter"",""1"",""2091""
","
","
","""event"",""trial"",""time""
""fullscreenenter"",""1"",""2091""
","
","","","-1","","","23","4536","1297","&#9854;","elianto","#FFFFF080","-1","-1","1","&#10004","[]","0","0","1","","","","","","","",""
"pit-trial","16","174061","0.0-2.0-6.2-0.2","battery-v0.2","","""event"",""trial"",""time""
""fullscreenenter"",""1"",""2091""
","
","
","""event"",""trial"",""time""
""fullscreenenter"",""1"",""2091""
","
","","","-1","","","23","4536","1297","&#9854;","elianto","#FFFFF080","-1","-1","1","&#10004","[]","0","0","1","","","","","","","",""
"pit-trial","17","178926","0.0-2.0-6.3-0.3","battery-v0.2","","""event"",""trial"",""time""
""fullscreenenter"",""1"",""2091""
","
","
","""event"",""trial"",""time""
""fullscreenenter"",""1"",""2091""
","
","","","-1","","","23","4536","1297","&#9854;","elianto","#FFFFF080","-1","-1","1","&#10004","[]","0","0","1","","","","","","","",""
"pit-trial","18","183795","0.0-2.0-6.4-0.4","battery-v0.2","","""event"",""trial"",""time""
""fullscreenenter"",""1"",""2091""
","
","
","""event"",""trial"",""time""
""fullscreenenter"",""1"",""2091""
","
","","","-1","","","23","4536","1297","&#9854;","elianto","#FFFFF080","-1","-1","1","&#10004","[]","0","0","1","","","","","","","",""
"pit-instructions","19","316850","0.0-2.0-7.0","battery-v0.2","","""event"",""trial"",""time""
""fullscreenenter"",""1"",""2091""
","
","
","""event"",""trial"",""time""
""fullscreenenter"",""1"",""2091""
","
","","[{""page_index"":0,""viewing_time"":6010.899999976158},{""page_index"":1,""viewing_time"":6983.5},{""page_index"":2,""viewing_time"":6583.5},{""page_index"":3,""viewing_time"":6700.300000071526},{""page_index"":4,""viewing_time"":7583.299999952316},{""page_index"":5,""viewing_time"":5650},{""page_index"":6,""viewing_time"":6283.300000071526},{""page_index"":7,""viewing_time"":9250.5},{""page_index"":8,""viewing_time"":9550.299999952316},{""page_index"":9,""viewing_time"":8317.299999952316},{""page_index"":10,""viewing_time"":7582.800000071526},{""page_index"":11,""viewing_time"":6366.699999928474},{""page_index"":12,""viewing_time"":7083.900000095367},{""page_index"":13,""viewing_time"":7665.5},{""page_index"":14,""viewing_time"":7468.399999976158},{""page_index"":15,""viewing_time"":10066.799999952316},{""page_index"":16,""viewing_time"":6916.600000023842},{""page_index"":17,""viewing_time"":6984}]","133048.5","","","","","","","","","","","","","","","","","","","","","","","",""
"pit-trial","20","320263","0.0-2.0-8.0-0.0","battery-v0.2","","""event"",""trial"",""time""
""fullscreenenter"",""1"",""2091""
","
","
","""event"",""trial"",""time""
""fullscreenenter"",""1"",""2091""
","
","","","553.2000000476837","","","23","4536","1297","&#9776;","elianto","#3366ff99"," "," ","1","+10","[1403.8999999761581]","1","0","1","","","","","","","",""
"pit-trial","21","323752","0.0-2.0-8.0-1.0","battery-v0.2","","""event"",""trial"",""time""
""fullscreenenter"",""1"",""2091""
","
","
","""event"",""trial"",""time""
""fullscreenenter"",""1"",""2091""
","
","","","624.1000000238419","","","23","4536","1297","&#9776;","elianto","#3366ff99"," "," ","1","+10","[1476.3999999761581]","1","0","1","","","","","","","",""
"pit-trial","22","327159","0.0-2.0-8.0-2.0","battery-v0.2","","""event"",""trial"",""time""
""fullscreenenter"",""1"",""2091""
","
","
","""event"",""trial"",""time""
""fullscreenenter"",""1"",""2091""
","
","","","541.3999999761581","","","23","4536","1297","&#9776;","elianto","#3366ff99"," "," ","1","+10","[1391.6999999284744]","1","0","1","","","","","","","",""
"pit-trial","23","330563","0.0-2.0-8.0-3.0","battery-v0.2","","""event"",""trial"",""time""
""fullscreenenter"",""1"",""2091""
","
","
","""event"",""trial"",""time""
""fullscreenenter"",""1"",""2091""
","
","","","539.8999999761581","","","23","4536","1297","&#9776;","elianto","#3366ff99"," "," ","1","0","[1391.2000000476837]","1","0","1","","","","","","","",""
"pit-trial","24","334314","0.0-2.0-8.0-4.0","battery-v0.2","","""event"",""trial"",""time""
""fullscreenenter"",""1"",""2091""
","
","
","""event"",""trial"",""time""
""fullscreenenter"",""1"",""2091""
","
","","","886.1000000238419","","","23","4536","1297","&#9776;","elianto","#3366ff99"," "," ","1","+10","[1738.7999999523163]","1","0","1","","","","","","","",""
"pit-trial","25","337922","0.0-2.0-8.1-0.1","battery-v0.2","","""event"",""trial"",""time""
""fullscreenenter"",""1"",""2091""
","
","
","""event"",""trial"",""time""
""fullscreenenter"",""1"",""2091""
","
","","","741.6000000238419","","","23","4536","1297","&#9776;","elianto","#3366ff99"," "," ","1","+10","[1591.6000000238419]","1","0","1","","","","","","","",""
"pit-trial","26","341342","0.0-2.0-8.1-1.1","battery-v0.2","","""event"",""trial"",""time""
""fullscreenenter"",""1"",""2091""
","
","
","""event"",""trial"",""time""
""fullscreenenter"",""1"",""2091""
","
","","","556.2000000476837","","","23","4536","1297","&#9776;","elianto","#3366ff99"," "," ","1","+10","[1406.7999999523163]","1","0","1","","","","","","","",""
"pit-trial","27","344753","0.0-2.0-8.1-2.1","battery-v0.2","","""event"",""trial"",""time""
""fullscreenenter"",""1"",""2091""
","
","
","""event"",""trial"",""time""
""fullscreenenter"",""1"",""2091""
","
","","","548.7000000476837","","","23","4536","1297","&#9776;","elianto","#3366ff99"," "," ","1","+10","[1398.8000000715256]","1","0","1","","","","","","","",""
"pit-trial","28","348267","0.0-2.0-8.1-3.1","battery-v0.2","","""event"",""trial"",""time""
""fullscreenenter"",""1"",""2091""
","
","
","""event"",""trial"",""time""
""fullscreenenter"",""1"",""2091""
","
","","","651.5999999046326","","","23","4536","1297","&#9776;","elianto","#3366ff99"," "," ","1","0","[1502.5999999046326,2811.399999976158]","2","0","1","","","","","","","",""
"pit-trial","29","352624","0.0-2.0-8.1-4.1","battery-v0.2","","""event"",""trial"",""time""
""fullscreenenter"",""1"",""2091""
","
","
","""event"",""trial"",""time""
""fullscreenenter"",""1"",""2091""
","
","","","1494.3999999761581","","","23","4536","1297","&#9776;","elianto","#3366ff99"," "," ","1","+10","[2345.100000023842]","1","0","1","","","","","","","",""
"pit-trial","30","357003","0.0-2.0-8.2-0.2","battery-v0.2","","""event"",""trial"",""time""
""fullscreenenter"",""1"",""2091""
","
","
","""event"",""trial"",""time""
""fullscreenenter"",""1"",""2091""
","
","","","1515.3000000715256","","","23","4536","1297","&#9776;","elianto","#3366ff99"," "," ","1","+10","[2367.600000023842]","1","0","1","","","","","","","",""
"pit-trial","31","360653","0.0-2.0-8.2-1.2","battery-v0.2","","""event"",""trial"",""time""
""fullscreenenter"",""1"",""2091""
","
","
","""event"",""trial"",""time""
""fullscreenenter"",""1"",""2091""
","
","","","789.2999999523163","","","23","4536","1297","&#9776;","elianto","#3366ff99"," "," ","1","+10","[1639.7000000476837]","1","0","1","","","","","","","",""
"pit-trial","32","363966","0.0-2.0-8.2-2.2","battery-v0.2","","""event"",""trial"",""time""
""fullscreenenter"",""1"",""2091""
","
","
","""event"",""trial"",""time""
""fullscreenenter"",""1"",""2091""
","
","","","456.1999999284744","","","23","4536","1297","&#9776;","elianto","#3366ff99"," "," ","1","+10","[1306.2999999523163]","1","0","1","","","","","","","",""
"pit-trial","33","367253","0.0-2.0-8.2-3.2","battery-v0.2","","""event"",""trial"",""time""
""fullscreenenter"",""1"",""2091""
","
","
","""event"",""trial"",""time""
""fullscreenenter"",""1"",""2091""
","
","","","428.1999999284744","","","23","4536","1297","&#9776;","elianto","#3366ff99"," "," ","1","0","[1278.6999999284744]","1","0","1","","","","","","","",""
"pit-trial","34","370625","0.0-2.0-8.2-4.2","battery-v0.2","","""event"",""trial"",""time""
""fullscreenenter"",""1"",""2091""
","
","
","""event"",""trial"",""time""
""fullscreenenter"",""1"",""2091""
","
","","","511.5","","","23","4536","1297","&#9776;","elianto","#3366ff99"," "," ","1","+10","[1361.9000000953674]","1","0","1","","","","","","","",""
"call-function","35","370635","0.0-2.0-9.0","battery-v0.2","","""event"",""trial"",""time""
""fullscreenenter"",""1"",""2091""
","
","
","""event"",""trial"",""time""
""fullscreenenter"",""1"",""2091""
","
","","","","","","","","","","","","","","","","","","","","","","","","","","",""
"pit-instructions","36","420064","0.0-2.0-10.0","battery-v0.2","","""event"",""trial"",""time""
""fullscreenenter"",""1"",""2091""
","
","
","""event"",""trial"",""time""
""fullscreenenter"",""1"",""2091""
","
","","[{""page_index"":0,""viewing_time"":5810},{""page_index"":1,""viewing_time"":7483.399999976158},{""page_index"":2,""viewing_time"":18333.5},{""page_index"":3,""viewing_time"":9866.899999976158},{""page_index"":4,""viewing_time"":7933.800000071526}]","49428.699999928474","","","","","","","","","","","","","","","","","","","","","","","",""
"pit-trial","37","423558","0.0-2.0-11.0-0.0","battery-v0.2","","""event"",""trial"",""time""
""fullscreenenter"",""1"",""2091""
","
","
","""event"",""trial"",""time""
""fullscreenenter"",""1"",""2091""
","
","","","628.2999999523163","","","23","4536","1297","&#9761;","elianto","#3366ff99","-1"," ","0","0","[1480.9000000953674]","1","0","2","","","","","","","",""
"pit-trial","38","428426","0.0-2.0-11.0-1.0","battery-v0.2","","""event"",""trial"",""time""
""fullscreenenter"",""1"",""2091""
","
","
","""event"",""trial"",""time""
""fullscreenenter"",""1"",""2091""
","
","","","-1","","","23","4536","1297","&#9761;","elianto","#3366ff99","-1","-1","1","+10","[]","0","0","2","","","","","","","",""
"pit-trial","39","433292","0.0-2.0-11.0-2.0","battery-v0.2","","""event"",""trial"",""time""
""fullscreenenter"",""1"",""2091""
","
","
","""event"",""trial"",""time""
""fullscreenenter"",""1"",""2091""
","
","","","-1","","","23","4536","1297","&#9761;","elianto","#3366ff99","-1","-1","1","+10","[]","0","0","2","","","","","","","",""
"pit-trial","40","438159","0.0-2.0-11.0-3.0","battery-v0.2","","""event"",""trial"",""time""
""fullscreenenter"",""1"",""2091""
","
","
","""event"",""trial"",""time""
""fullscreenenter"",""1"",""2091""
","
","","","-1","","","23","4536","1297","&#9761;","elianto","#3366ff99","-1","-1","1","0","[]","0","0","2","","","","","","","",""
"pit-trial","41","443024","0.0-2.0-11.0-4.0","battery-v0.2","","""event"",""trial"",""time""
""fullscreenenter"",""1"",""2091""
","
","
","""event"",""trial"",""time""
""fullscreenenter"",""1"",""2091""
","
","","","-1","","","23","4536","1297","&#9761;","elianto","#3366ff99","-1","-1","1","+10","[]","0","0","2","","","","","","","",""
"pit-trial","42","447892","0.0-2.0-11.1-0.1","battery-v0.2","","""event"",""trial"",""time""
""fullscreenenter"",""1"",""2091""
","
","
","""event"",""trial"",""time""
""fullscreenenter"",""1"",""2091""
","
","","","-1","","","23","4536","1297","&#9761;","elianto","#3366ff99","-1","-1","1","+10","[]","0","0","2","","","","","","","",""
"pit-trial","43","452321","0.0-2.0-11.1-1.1","battery-v0.2","","""event"",""trial"",""time""
""fullscreenenter"",""1"",""2091""
","
","
","""event"",""trial"",""time""
""fullscreenenter"",""1"",""2091""
","
","","","1566.6000000238419","","","23","4536","1297","&#9761;","elianto","#3366ff99","-1"," ","0","0","[2417.7999999523163]","1","0","2","","","","","","","",""
"pit-trial","44","457184","0.0-2.0-11.1-2.1","battery-v0.2","","""event"",""trial"",""time""
""fullscreenenter"",""1"",""2091""
","
","
","""event"",""trial"",""time""
""fullscreenenter"",""1"",""2091""
","
","","","-1","","","23","4536","1297","&#9761;","elianto","#3366ff99","-1","-1","1","+10","[]","0","0","2","","","","","","","",""
"pit-trial","45","462047","0.0-2.0-11.1-3.1","battery-v0.2","","""event"",""trial"",""time""
""fullscreenenter"",""1"",""2091""
","
","
","""event"",""trial"",""time""
""fullscreenenter"",""1"",""2091""
","
","","","-1","","","23","4536","1297","&#9761;","elianto","#3366ff99","-1","-1","1","0","[]","0","0","2","","","","","","","",""
"pit-trial","46","466912","0.0-2.0-11.1-4.1","battery-v0.2","","""event"",""trial"",""time""
""fullscreenenter"",""1"",""2091""
","
","
","""event"",""trial"",""time""
""fullscreenenter"",""1"",""2091""
","
","","","-1","","","23","4536","1297","&#9761;","elianto","#3366ff99","-1","-1","1","+10","[]","0","0","2","","","","","","","",""
"pit-trial","47","471776","0.0-2.0-11.2-0.2","battery-v0.2","","""event"",""trial"",""time""
""fullscreenenter"",""1"",""2091""
","
","
","""event"",""trial"",""time""
""fullscreenenter"",""1"",""2091""
","
","","","-1","","","23","4536","1297","&#9761;","elianto","#3366ff99","-1","-1","1","+10","[]","0","0","2","","","","","","","",""
"pit-trial","48","476640","0.0-2.0-11.2-1.2","battery-v0.2","","""event"",""trial"",""time""
""fullscreenenter"",""1"",""2091""
","
","
","""event"",""trial"",""time""
""fullscreenenter"",""1"",""2091""
","
","","","-1","","","23","4536","1297","&#9761;","elianto","#3366ff99","-1","-1","1","+10","[]","0","0","2","","","","","","","",""
"pit-trial","49","481503","0.0-2.0-11.2-2.2","battery-v0.2","","""event"",""trial"",""time""
""fullscreenenter"",""1"",""2091""
","
","
","""event"",""trial"",""time""
""fullscreenenter"",""1"",""2091""
","
","","","-1","","","23","4536","1297","&#9761;","elianto","#3366ff99","-1","-1","1","+10","[]","0","0","2","","","","","","","",""
"pit-trial","50","486367","0.0-2.0-11.2-3.2","battery-v0.2","","""event"",""trial"",""time""
""fullscreenenter"",""1"",""2091""
","
","
","""event"",""trial"",""time""
""fullscreenenter"",""1"",""2091""
","
","","","-1","","","23","4536","1297","&#9761;","elianto","#3366ff99","-1","-1","1","0","[]","0","0","2","","","","","","","",""
"pit-trial","51","491231","0.0-2.0-11.2-4.2","battery-v0.2","","""event"",""trial"",""time""
""fullscreenenter"",""1"",""2091""
","
","
","""event"",""trial"",""time""
""fullscreenenter"",""1"",""2091""
","
","","","-1","","","23","4536","1297","&#9761;","elianto","#3366ff99","-1","-1","1","+10","[]","0","0","2","","","","","","","",""
"pit-trial","52","496100","0.0-2.0-11.3-0.3","battery-v0.2","","""event"",""trial"",""time""
""fullscreenenter"",""1"",""2091""
","
","
","""event"",""trial"",""time""
""fullscreenenter"",""1"",""2091""
","
","","","-1","","","23","4536","1297","&#9761;","elianto","#3366ff99","-1","-1","1","+10","[]","0","0","2","","","","","","","",""
"pit-trial","53","500960","0.0-2.0-11.3-1.3","battery-v0.2","","""event"",""trial"",""time""
""fullscreenenter"",""1"",""2091""
","
","
","""event"",""trial"",""time""
""fullscreenenter"",""1"",""2091""
","
","","","-1","","","23","4536","1297","&#9761;","elianto","#3366ff99","-1","-1","1","+10","[]","0","0","2","","","","","","","",""
"pit-trial","54","505823","0.0-2.0-11.3-2.3","battery-v0.2","","""event"",""trial"",""time""
""fullscreenenter"",""1"",""2091""
","
","
","""event"",""trial"",""time""
""fullscreenenter"",""1"",""2091""
","
","","","-1","","","23","4536","1297","&#9761;","elianto","#3366ff99","-1","-1","1","+10","[]","0","0","2","","","","","","","",""
"pit-trial","55","510687","0.0-2.0-11.3-3.3","battery-v0.2","","""event"",""trial"",""time""
""fullscreenenter"",""1"",""2091""
","
","
","""event"",""trial"",""time""
""fullscreenenter"",""1"",""2091""
","
","","","-1","","","23","4536","1297","&#9761;","elianto","#3366ff99","-1","-1","1","0","[]","0","0","2","","","","","","","",""
"pit-trial","56","515551","0.0-2.0-11.3-4.3","battery-v0.2","","""event"",""trial"",""time""
""fullscreenenter"",""1"",""2091""
","
","
","""event"",""trial"",""time""
""fullscreenenter"",""1"",""2091""
","
","","","-1","","","23","4536","1297","&#9761;","elianto","#3366ff99","-1","-1","1","+10","[]","0","0","2","","","","","","","",""
"call-function","57","515558","0.0-2.0-12.0","battery-v0.2","","""event"",""trial"",""time""
""fullscreenenter"",""1"",""2091""
","
","
","""event"",""trial"",""time""
""fullscreenenter"",""1"",""2091""
","
","","","","","","","","","","","","","","","","","","","","","","","","","","",""
"pit-instructions","58","554781","0.0-2.0-13.0","battery-v0.2","","""event"",""trial"",""time""
""fullscreenenter"",""1"",""2091""
","
","
","""event"",""trial"",""time""
""fullscreenenter"",""1"",""2091""
","
","","[{""page_index"":0,""viewing_time"":4704.100000023842},{""page_index"":1,""viewing_time"":10850.799999952316},{""page_index"":2,""viewing_time"":4099.600000023842},{""page_index"":3,""viewing_time"":12033.600000023842},{""page_index"":4,""viewing_time"":7533.399999976158}]","39222.700000047684","","","","","","","","","","","","","","","","","","","","","","","",""
"pit-trial","59","559643","0.0-2.0-14.0-0.0","battery-v0.2","","""event"",""trial"",""time""
""fullscreenenter"",""1"",""2091""
","
","
","""event"",""trial"",""time""
""fullscreenenter"",""1"",""2091""
","
","","","-1","","","23","4536","1297","&#9826;","elianto","#f73b6a7A","-1","-1","1","0","[]","0","0","3","","","","","","","",""
"pit-trial","60","564502","0.0-2.0-14.0-1.0","battery-v0.2","","""event"",""trial"",""time""
""fullscreenenter"",""1"",""2091""
","
","
","""event"",""trial"",""time""
""fullscreenenter"",""1"",""2091""
","
","","","-1","","","23","4536","1297","&#9826;","elianto","#f73b6a7A","-1","-1","1","0","[]","0","0","3","","","","","","","",""
"pit-trial","61","569369","0.0-2.0-14.0-2.0","battery-v0.2","","""event"",""trial"",""time""
""fullscreenenter"",""1"",""2091""
","
","
","""event"",""trial"",""time""
""fullscreenenter"",""1"",""2091""
","
","","","-1","","","23","4536","1297","&#9826;","elianto","#f73b6a7A","-1","-1","1","0","[]","0","0","3","","","","","","","",""
"pit-trial","62","574233","0.0-2.0-14.0-3.0","battery-v0.2","","""event"",""trial"",""time""
""fullscreenenter"",""1"",""2091""
","
","
","""event"",""trial"",""time""
""fullscreenenter"",""1"",""2091""
","
","","","-1","","","23","4536","1297","&#9826;","elianto","#f73b6a7A","-1","-1","1","-10","[]","0","0","3","","","","","","","",""
"pit-trial","63","579101","0.0-2.0-14.0-4.0","battery-v0.2","","""event"",""trial"",""time""
""fullscreenenter"",""1"",""2091""
","
","
","""event"",""trial"",""time""
""fullscreenenter"",""1"",""2091""
","
","","","-1","","","23","4536","1297","&#9826;","elianto","#f73b6a7A","-1","-1","1","0","[]","0","0","3","","","","","","","",""
"pit-trial","64","583961","0.0-2.0-14.1-0.1","battery-v0.2","","""event"",""trial"",""time""
""fullscreenenter"",""1"",""2091""
","
","
","""event"",""trial"",""time""
""fullscreenenter"",""1"",""2091""
","
","","","-1","","","23","4536","1297","&#9826;","elianto","#f73b6a7A","-1","-1","1","0","[]","0","0","3","","","","","","","",""
"pit-trial","65","588827","0.0-2.0-14.1-1.1","battery-v0.2","","""event"",""trial"",""time""
""fullscreenenter"",""1"",""2091""
","
","
","""event"",""trial"",""time""
""fullscreenenter"",""1"",""2091""
","
","","","-1","","","23","4536","1297","&#9826;","elianto","#f73b6a7A","-1","-1","1","0","[]","0","0","3","","","","","","","",""
"pit-trial","66","593691","0.0-2.0-14.1-2.1","battery-v0.2","","""event"",""trial"",""time""
""fullscreenenter"",""1"",""2091""
","
","
","""event"",""trial"",""time""
""fullscreenenter"",""1"",""2091""
","
","","","-1","","","23","4536","1297","&#9826;","elianto","#f73b6a7A","-1","-1","1","0","[]","0","0","3","","","","","","","",""
"pit-trial","67","598554","0.0-2.0-14.1-3.1","battery-v0.2","","""event"",""trial"",""time""
""fullscreenenter"",""1"",""2091""
","
","
","""event"",""trial"",""time""
""fullscreenenter"",""1"",""2091""
","
","","","-1","","","23","4536","1297","&#9826;","elianto","#f73b6a7A","-1","-1","1","-10","[]","0","0","3","","","","","","","",""
"pit-trial","68","603419","0.0-2.0-14.1-4.1","battery-v0.2","","""event"",""trial"",""time""
""fullscreenenter"",""1"",""2091""
","
","
","""event"",""trial"",""time""
""fullscreenenter"",""1"",""2091""
","
","","","-1","","","23","4536","1297","&#9826;","elianto","#f73b6a7A","-1","-1","1","0","[]","0","0","3","","","","","","","",""
"pit-trial","69","608285","0.0-2.0-14.2-0.2","battery-v0.2","","""event"",""trial"",""time""
""fullscreenenter"",""1"",""2091""
","
","
","""event"",""trial"",""time""
""fullscreenenter"",""1"",""2091""
","
","","","-1","","","23","4536","1297","&#9826;","elianto","#f73b6a7A","-1","-1","1","0","[]","0","0","3","","","","","","","",""
"pit-trial","70","613146","0.0-2.0-14.2-1.2","battery-v0.2","","""event"",""trial"",""time""
""fullscreenenter"",""1"",""2091""
","
","
","""event"",""trial"",""time""
""fullscreenenter"",""1"",""2091""
","
","","","-1","","","23","4536","1297","&#9826;","elianto","#f73b6a7A","-1","-1","1","0","[]","0","0","3","","","","","","","",""
"pit-trial","71","618010","0.0-2.0-14.2-2.2","battery-v0.2","","""event"",""trial"",""time""
""fullscreenenter"",""1"",""2091""
","
","
","""event"",""trial"",""time""
""fullscreenenter"",""1"",""2091""
","
","","","-1","","","23","4536","1297","&#9826;","elianto","#f73b6a7A","-1","-1","1","0","[]","0","0","3","","","","","","","",""
"pit-trial","72","622874","0.0-2.0-14.2-3.2","battery-v0.2","","""event"",""trial"",""time""
""fullscreenenter"",""1"",""2091""
","
","
","""event"",""trial"",""time""
""fullscreenenter"",""1"",""2091""
","
","","","-1","","","23","4536","1297","&#9826;","elianto","#f73b6a7A","-1","-1","1","-10","[]","0","0","3","","","","","","","",""
"pit-trial","73","627738","0.0-2.0-14.2-4.2","battery-v0.2","","""event"",""trial"",""time""
""fullscreenenter"",""1"",""2091""
","
","
","""event"",""trial"",""time""
""fullscreenenter"",""1"",""2091""
","
","","","-1","","","23","4536","1297","&#9826;","elianto","#f73b6a7A","-1","-1","1","0","[]","0","0","3","","","","","","","",""
"pit-trial","74","632607","0.0-2.0-14.3-0.3","battery-v0.2","","""event"",""trial"",""time""
""fullscreenenter"",""1"",""2091""
","
","
","""event"",""trial"",""time""
""fullscreenenter"",""1"",""2091""
","
","","","-1","","","23","4536","1297","&#9826;","elianto","#f73b6a7A","-1","-1","1","0","[]","0","0","3","","","","","","","",""
"pit-trial","75","637468","0.0-2.0-14.3-1.3","battery-v0.2","","""event"",""trial"",""time""
""fullscreenenter"",""1"",""2091""
","
","
","""event"",""trial"",""time""
""fullscreenenter"",""1"",""2091""
","
","","","-1","","","23","4536","1297","&#9826;","elianto","#f73b6a7A","-1","-1","1","0","[]","0","0","3","","","","","","","",""
"pit-trial","76","642334","0.0-2.0-14.3-2.3","battery-v0.2","","""event"",""trial"",""time""
""fullscreenenter"",""1"",""2091""
","
","
","""event"",""trial"",""time""
""fullscreenenter"",""1"",""2091""
","
","","","-1","","","23","4536","1297","&#9826;","elianto","#f73b6a7A","-1","-1","1","0","[]","0","0","3","","","","","","","",""
"pit-trial","77","647198","0.0-2.0-14.3-3.3","battery-v0.2","","""event"",""trial"",""time""
""fullscreenenter"",""1"",""2091""
","
","
","""event"",""trial"",""time""
""fullscreenenter"",""1"",""2091""
","
","","","-1","","","23","4536","1297","&#9826;","elianto","#f73b6a7A","-1","-1","1","-10","[]","0","0","3","","","","","","","",""
"pit-trial","78","652062","0.0-2.0-14.3-4.3","battery-v0.2","","""event"",""trial"",""time""
""fullscreenenter"",""1"",""2091""
","
","
","""event"",""trial"",""time""
""fullscreenenter"",""1"",""2091""
","
","","","-1","","","23","4536","1297","&#9826;","elianto","#f73b6a7A","-1","-1","1","0","[]","0","0","3","","","","","","","",""
"call-function","79","652069","0.0-2.0-15.0","battery-v0.2","","""event"",""trial"",""time""
""fullscreenenter"",""1"",""2091""
","
","
","""event"",""trial"",""time""
""fullscreenenter"",""1"",""2091""
","
","","","","","","","","","","","","","","","","","","","","","","","","","","",""
"pit-instructions","80","679130","0.0-2.0-16.0","battery-v0.2","","""event"",""trial"",""time""
""fullscreenenter"",""1"",""2091""
","
","
","""event"",""trial"",""time""
""fullscreenenter"",""1"",""2091""
","
","","[{""page_index"":0,""viewing_time"":6476},{""page_index"":1,""viewing_time"":8584.200000047684},{""page_index"":2,""viewing_time"":6283.699999928474},{""page_index"":3,""viewing_time"":5716.200000047684}]","27061","","","","","","","","","","","","","","","","","","","","","","","",""
"pit-trial","81","683988","0.0-2.0-17.0-0.0","battery-v0.2","","""event"",""trial"",""time""
""fullscreenenter"",""1"",""2091""
","
","
","""event"",""trial"",""time""
""fullscreenenter"",""1"",""2091""
","
","","","-1","","","23","4536","1297","&#9789;","elianto","#f73b6a7A"," ","-1","0","-10","[]","0","0","4","","","","","","","",""
"pit-trial","82","687555","0.0-2.0-17.0-1.0","battery-v0.2","","""event"",""trial"",""time""
""fullscreenenter"",""1"",""2091""
","
","
","""event"",""trial"",""time""
""fullscreenenter"",""1"",""2091""
","
","","","707.6999999284744","","","23","4536","1297","&#9789;","elianto","#f73b6a7A"," "," ","1","0","[1558.0999999046326]","1","0","4","","","","","","","",""
"pit-trial","83","692110","0.0-2.0-17.0-2.0","battery-v0.2","","""event"",""trial"",""time""
""fullscreenenter"",""1"",""2091""
","
","
","""event"",""trial"",""time""
""fullscreenenter"",""1"",""2091""
","
","","","1693","","","23","4536","1297","&#9789;","elianto","#f73b6a7A"," "," ","1","0","[2543.899999976158]","1","0","4","","","","","","","",""
"pit-trial","84","695334","0.0-2.0-17.0-3.0","battery-v0.2","","""event"",""trial"",""time""
""fullscreenenter"",""1"",""2091""
","
","
","""event"",""trial"",""time""
""fullscreenenter"",""1"",""2091""
","
","","","359.1999999284744","","","23","4536","1297","&#9789;","elianto","#f73b6a7A"," "," ","1","-10","[1210.6999999284744]","1","0","4","","","","","","","",""
"pit-trial","85","698741","0.0-2.0-17.0-4.0","battery-v0.2","","""event"",""trial"",""time""
""fullscreenenter"",""1"",""2091""
","
","
","""event"",""trial"",""time""
""fullscreenenter"",""1"",""2091""
","
","","","546.8999999761581","","","23","4536","1297","&#9789;","elianto","#f73b6a7A"," "," ","1","0","[1397.1000000238419]","1","0","4","","","","","","","",""
"pit-trial","86","702639","0.0-2.0-17.1-0.1","battery-v0.2","","""event"",""trial"",""time""
""fullscreenenter"",""1"",""2091""
","
","
","""event"",""trial"",""time""
""fullscreenenter"",""1"",""2091""
","
","","","1031.3999999761581","","","23","4536","1297","&#9789;","elianto","#f73b6a7A"," "," ","1","0","[1883.5]","1","0","4","","","","","","","",""
"pit-trial","87","705925","0.0-2.0-17.1-1.1","battery-v0.2","","""event"",""trial"",""time""
""fullscreenenter"",""1"",""2091""
","
","
","""event"",""trial"",""time""
""fullscreenenter"",""1"",""2091""
","
","","","425.10000002384186","","","23","4536","1297","&#9789;","elianto","#f73b6a7A"," "," ","1","0","[1276.4000000953674]","1","0","4","","","","","","","",""
"pit-trial","88","709312","0.0-2.0-17.1-2.1","battery-v0.2","","""event"",""trial"",""time""
""fullscreenenter"",""1"",""2091""
","
","
","""event"",""trial"",""time""
""fullscreenenter"",""1"",""2091""
","
","","","525.3000000715256","","","23","4536","1297","&#9789;","elianto","#f73b6a7A"," "," ","1","0","[1376.1000000238419]","1","0","4","","","","","","","",""
"pit-trial","89","712875","0.0-2.0-17.1-3.1","battery-v0.2","","""event"",""trial"",""time""
""fullscreenenter"",""1"",""2091""
","
","
","""event"",""trial"",""time""
""fullscreenenter"",""1"",""2091""
","
","","","700.8999999761581","","","23","4536","1297","&#9789;","elianto","#f73b6a7A"," "," ","1","-10","[1552.8999999761581]","1","0","4","","","","","","","",""
"pit-trial","90","716720","0.0-2.0-17.1-4.1","battery-v0.2","","""event"",""trial"",""time""
""fullscreenenter"",""1"",""2091""
","
","
","""event"",""trial"",""time""
""fullscreenenter"",""1"",""2091""
","
","","","981.6000000238419","","","23","4536","1297","&#9789;","elianto","#f73b6a7A"," "," ","1","0","[1832.6000000238419]","1","0","4","","","","","","","",""
"pit-trial","91","720709","0.0-2.0-17.2-0.2","battery-v0.2","","""event"",""trial"",""time""
""fullscreenenter"",""1"",""2091""
","
","
","""event"",""trial"",""time""
""fullscreenenter"",""1"",""2091""
","
","","","1129.2999999523163","","","23","4536","1297","&#9789;","elianto","#f73b6a7A"," "," ","1","0","[1979.6999999284744]","1","0","4","","","","","","","",""
"pit-trial","92","724106","0.0-2.0-17.2-1.2","battery-v0.2","","""event"",""trial"",""time""
""fullscreenenter"",""1"",""2091""
","
","
","""event"",""trial"",""time""
""fullscreenenter"",""1"",""2091""
","
","","","538.2999999523163","","","23","4536","1297","&#9789;","elianto","#f73b6a7A"," "," ","1","0","[1388.5]","1","0","4","","","","","","","",""
"pit-trial","93","727231","0.0-2.0-17.2-2.2","battery-v0.2","","""event"",""trial"",""time""
""fullscreenenter"",""1"",""2091""
","
","
","""event"",""trial"",""time""
""fullscreenenter"",""1"",""2091""
","
","","","263.5","","","23","4536","1297","&#9789;","elianto","#f73b6a7A"," "," ","1","0","[1114.8000000715256,2345.7000000476837]","2","0","4","","","","","","","",""
"pit-trial","94","730815","0.0-2.0-17.2-3.2","battery-v0.2","","""event"",""trial"",""time""
""fullscreenenter"",""1"",""2091""
","
","
","""event"",""trial"",""time""
""fullscreenenter"",""1"",""2091""
","
","","","719.2000000476837","","","23","4536","1297","&#9789;","elianto","#f73b6a7A"," "," ","1","-10","[1570.7000000476837]","1","0","4","","","","","","","",""
"pit-trial","95","734276","0.0-2.0-17.2-4.2","battery-v0.2","","""event"",""trial"",""time""
""fullscreenenter"",""1"",""2091""
","
","
","""event"",""trial"",""time""
""fullscreenenter"",""1"",""2091""
","
","","","597.7999999523163","","","23","4536","1297","&#9789;","elianto","#f73b6a7A"," "," ","1","0","[1448]","1","0","4","","","","","","","",""
"pit-trial","96","737780","0.0-2.0-17.3-0.3","battery-v0.2","","""event"",""trial"",""time""
""fullscreenenter"",""1"",""2091""
","
","
","""event"",""trial"",""time""
""fullscreenenter"",""1"",""2091""
","
","","","642.3999999761581","","","23","4536","1297","&#9789;","elianto","#f73b6a7A"," "," ","1","0","[464.8000000715256,1494.6000000238419]","2","0","4","","","","","","","",""
"pit-trial","97","741738","0.0-2.0-17.3-1.3","battery-v0.2","","""event"",""trial"",""time""
""fullscreenenter"",""1"",""2091""
","
","
","""event"",""trial"",""time""
""fullscreenenter"",""1"",""2091""
","
","","","1093.2000000476837","","","23","4536","1297","&#9789;","elianto","#f73b6a7A"," "," ","1","0","[1944.8000000715256]","1","0","4","","","","","","","",""
"pit-trial","98","745236","0.0-2.0-17.3-2.3","battery-v0.2","","""event"",""trial"",""time""
""fullscreenenter"",""1"",""2091""
","
","
","""event"",""trial"",""time""
""fullscreenenter"",""1"",""2091""
","
","","","638.6000000238419","","","23","4536","1297","&#9789;","elianto","#f73b6a7A"," "," ","1","0","[1489.2000000476837]","1","0","4","","","","","","","",""
"pit-trial","99","749183","0.0-2.0-17.3-3.3","battery-v0.2","","""event"",""trial"",""time""
""fullscreenenter"",""1"",""2091""
","
","
","""event"",""trial"",""time""
""fullscreenenter"",""1"",""2091""
","
","","","1086.9000000953674","","","23","4536","1297","&#9789;","elianto","#f73b6a7A"," "," ","1","-10","[655.5,1937.5]","2","0","4","","","","","","","",""
"pit-trial","100","752628","0.0-2.0-17.3-4.3","battery-v0.2","","""event"",""trial"",""time""
""fullscreenenter"",""1"",""2091""
","
","
","""event"",""trial"",""time""
""fullscreenenter"",""1"",""2091""
","
","","","585.0999999046326","","","23","4536","1297","&#9789;","elianto","#f73b6a7A"," "," ","1","0","[1435.5]","1","0","4","","","","","","","",""
"call-function","101","752636","0.0-2.0-18.0","battery-v0.2","","""event"",""trial"",""time""
""fullscreenenter"",""1"",""2091""
","
","
","""event"",""trial"",""time""
""fullscreenenter"",""1"",""2091""
","
","","","","","","","","","","","","","","","","","","","","","","","","","","",""
"pit-instructions","102","832298","0.0-2.0-19.0","battery-v0.2","","""event"",""trial"",""time""
""fullscreenenter"",""1"",""2091""
","
","
","""event"",""trial"",""time""
""fullscreenenter"",""1"",""2091""
","
","","[{""page_index"":0,""viewing_time"":9725.799999952316},{""page_index"":1,""viewing_time"":6833.399999976158},{""page_index"":2,""viewing_time"":17633.5},{""page_index"":3,""viewing_time"":8233.5},{""page_index"":4,""viewing_time"":8616.899999976158},{""page_index"":5,""viewing_time"":9866.900000095367},{""page_index"":6,""viewing_time"":8517},{""page_index"":7,""viewing_time"":5867},{""page_index"":8,""viewing_time"":4367.299999952316}]","79662.5","","","","","","","","","","","","","","","","","","","","","","","",""
"pit-comprehension","103","837748","0.0-2.0-20.0-0.0","battery-v0.2","","""event"",""trial"",""time""
""fullscreenenter"",""1"",""2091""
","
","
","""event"",""trial"",""time""
""fullscreenenter"",""1"",""2091""
","
","","","5442.299999952316","[""SPACE""]","0","23","4536","1297","","","","","","","","","","","","","","","","","","",""
"pit-instructions","104","841063","0.0-2.0-20.0-1.0","battery-v0.2","","""event"",""trial"",""time""
""fullscreenenter"",""1"",""2091""
","
","
","""event"",""trial"",""time""
""fullscreenenter"",""1"",""2091""
","
","","[{""page_index"":0,""viewing_time"":3285.399999976158}]","3286.1999999284744","","","","","","","","","","","","","","","","","","","","","","","",""
"pit-comprehension","105","848730","0.0-2.0-21.0-0.0","battery-v0.2","","""event"",""trial"",""time""
""fullscreenenter"",""1"",""2091""
","
","
","""event"",""trial"",""time""
""fullscreenenter"",""1"",""2091""
","
","","","7659.200000047684","[""10""]","0","23","4536","1297","","","","","","","","","","","","","","","","","","",""
"pit-instructions","106","851913","0.0-2.0-21.0-1.0","battery-v0.2","","""event"",""trial"",""time""
""fullscreenenter"",""1"",""2091""
","
","
","""event"",""trial"",""time""
""fullscreenenter"",""1"",""2091""
","
","","[{""page_index"":0,""viewing_time"":3152.7000000476837}]","3153.5","","","","","","","","","","","","","","","","","","","","","","","",""
"pit-comprehension","107","858364","0.0-2.0-22.0-0.0","battery-v0.2","","""event"",""trial"",""time""
""fullscreenenter"",""1"",""2091""
","
","
","""event"",""trial"",""time""
""fullscreenenter"",""1"",""2091""
","
","","","6443.299999952316","[""0""]","0","23","4536","1297","","","","","","","","","","","","","","","","","","",""
"pit-instructions","108","863079","0.0-2.0-22.0-1.0","battery-v0.2","","""event"",""trial"",""time""
""fullscreenenter"",""1"",""2091""
","
","
","""event"",""trial"",""time""
""fullscreenenter"",""1"",""2091""
","
","","[{""page_index"":0,""viewing_time"":4685.5}]","4686.199999928474","","","","","","","","","","","","","","","","","","","","","","","",""
"pit-comprehension","109","874731","0.0-2.0-23.0-0.0","battery-v0.2","","""event"",""trial"",""time""
""fullscreenenter"",""1"",""2091""
","
","
","""event"",""trial"",""time""
""fullscreenenter"",""1"",""2091""
","
","","","11644.099999904633","[""True""]","0","23","4536","1297","","","","","","","","","","","","","","","","","","",""
"pit-instructions","110","882713","0.0-2.0-23.0-1.0","battery-v0.2","","""event"",""trial"",""time""
""fullscreenenter"",""1"",""2091""
","
","
","""event"",""trial"",""time""
""fullscreenenter"",""1"",""2091""
","
","","[{""page_index"":0,""viewing_time"":7951}]","7951.799999952316","","","","","","","","","","","","","","","","","","","","","","","",""
"pit-comprehension","111","890097","0.0-2.0-24.0-0.0","battery-v0.2","","""event"",""trial"",""time""
""fullscreenenter"",""1"",""2091""
","
","
","""event"",""trial"",""time""
""fullscreenenter"",""1"",""2091""
","
","","","7375.899999976158","[""True""]","0","23","4536","1297","","","","","","","","","","","","","","","","","","",""
"pit-instructions","112","891963","0.0-2.0-24.0-1.0","battery-v0.2","","""event"",""trial"",""time""
""fullscreenenter"",""1"",""2091""
","
","
","""event"",""trial"",""time""
""fullscreenenter"",""1"",""2091""
","
","","[{""page_index"":0,""viewing_time"":1837.7999999523163}]","1838.6999999284744","","","","","","","","","","","","","","","","","","","","","","","",""
"pit-comprehension","113","898131","0.0-2.0-25.0-0.0","battery-v0.2","","""event"",""trial"",""time""
""fullscreenenter"",""1"",""2091""
","
","
","""event"",""trial"",""time""
""fullscreenenter"",""1"",""2091""
","
","","","6160.299999952316","[""True""]","0","23","4536","1297","","","","","","","","","","","","","","","","","","",""
"pit-instructions","114","900944","0.0-2.0-25.0-1.0","battery-v0.2","","""event"",""trial"",""time""
""fullscreenenter"",""1"",""2091""
","
","
","""event"",""trial"",""time""
""fullscreenenter"",""1"",""2091""
","
","","[{""page_index"":0,""viewing_time"":2783.399999976158}]","2784.2999999523163","","","","","","","","","","","","","","","","","","","","","","","",""
"pit-comprehension","115","907238","0.0-2.0-26.0-0.0","battery-v0.2","","""event"",""trial"",""time""
""fullscreenenter"",""1"",""2091""
","
","
","""event"",""trial"",""time""
""fullscreenenter"",""1"",""2091""
","
","","","6292.799999952316","[""False""]","0","23","4536","1297","","","","","","","","","","","","","","","","","","",""
"pit-instructions","116","910649","0.0-2.0-26.0-1.0","battery-v0.2","","""event"",""trial"",""time""
""fullscreenenter"",""1"",""2091""
","
","
","""event"",""trial"",""time""
""fullscreenenter"",""1"",""2091""
","
","","[{""page_index"":0,""viewing_time"":3382.899999976158}]","3383.2000000476837","","","","","","","","","","","","","","","","","","","","","","","",""
"pit-instructions","117","927094","0.0-3.0","battery-v0.2","","""event"",""trial"",""time""
""fullscreenenter"",""1"",""2091""
","
","
","""event"",""trial"",""time""
""fullscreenenter"",""1"",""2091""
","
","","[{""page_index"":0,""viewing_time"":3780.600000023842},{""page_index"":1,""viewing_time"":6467.199999928474},{""page_index"":2,""viewing_time"":6199.899999976158}]","16448.600000023842","","","","","","","","","","","","","","","","","","","","","","","",""
"pit-trial","118","930804","0.0-4.0","battery-v0.2","","""event"",""trial"",""time""
""fullscreenenter"",""1"",""2091""
","
","
","""event"",""trial"",""time""
""fullscreenenter"",""1"",""2091""
","
","","","849.5","","","23","4536","1297","&#9752;","elianto","#f73b6a7A"," "," ","1","0","[1700.3999999761581]","1","1","","","4536","1","3","3","lose","go","0"
"pit-trial","119","934752","0.0-5.0","battery-v0.2","","""event"",""trial"",""time""
""fullscreenenter"",""1"",""2091""
","
","
","""event"",""trial"",""time""
""fullscreenenter"",""1"",""2091""
","
","","","1085.3999999761581","","","23","4536","1297","&#9730;","elianto","#3366ff99"," "," ","1","+10","[1937.1000000238419]","1","1","","","4536","2","1","1","win","go","0"
"pit-trial","120","938564","0.0-6.0","battery-v0.2","","""event"",""trial"",""time""
""fullscreenenter"",""1"",""2091""
","
","
","""event"",""trial"",""time""
""fullscreenenter"",""1"",""2091""
","
","","","948.5","","","23","4536","1297","&#9733;","elianto","#3366ff99","-1"," ","0","0","[1799.6999999284744]","1","1","","","4536","3","2","2","win","no-go","0"
"pit-trial","121","943431","0.0-7.0","battery-v0.2","","""event"",""trial"",""time""
""fullscreenenter"",""1"",""2091""
","
","
","""event"",""trial"",""time""
""fullscreenenter"",""1"",""2091""
","
","","","-1","","","23","4536","1297","&#9728;","elianto","#f73b6a7A","-1","-1","1","-10","[]","0","1","","","4536","4","0","4","lose","no-go","1"
"pit-trial","122","948295","0.0-8.0","battery-v0.2","","""event"",""trial"",""time""
""fullscreenenter"",""1"",""2091""
","
","
","""event"",""trial"",""time""
""fullscreenenter"",""1"",""2091""
","
","","","-1","","","23","4536","1297","&#9733;","elianto","#3366ff99","-1","-1","1","0","[]","0","1","","","4536","5","2","2","win","no-go","1"
"pit-trial","123","952656","0.0-9.0","battery-v0.2","","""event"",""trial"",""time""
""fullscreenenter"",""1"",""2091""
","
","
","""event"",""trial"",""time""
""fullscreenenter"",""1"",""2091""
","
","","","1499.7000000476837","","","23","4536","1297","&#9728;","elianto","#f73b6a7A","-1"," ","0","0","[2350.4000000953674]","1","1","","","4536","6","0","4","lose","no-go","1"
"pit-trial","124","956632","0.0-10.0","battery-v0.2","","""event"",""trial"",""time""
""fullscreenenter"",""1"",""2091""
","
","
","""event"",""trial"",""time""
""fullscreenenter"",""1"",""2091""
","
","","","1111.7999999523163","","","23","4536","1297","&#9752;","elianto","#f73b6a7A"," "," ","1","0","[1964.3999999761581]","1","1","","","4536","7","3","3","lose","go","0"
"pit-trial","125","961075","0.0-11.0","battery-v0.2","","""event"",""trial"",""time""
""fullscreenenter"",""1"",""2091""
","
","
","""event"",""trial"",""time""
""fullscreenenter"",""1"",""2091""
","
","","","1579.2999999523163","","","23","4536","1297","&#9730;","elianto","#3366ff99"," "," ","1","+10","[2430.2999999523163]","1","1","","","4536","8","1","1","win","go","0"
"pit-trial","126","964797","0.0-12.0","battery-v0.2","","""event"",""trial"",""time""
""fullscreenenter"",""1"",""2091""
","
","
","""event"",""trial"",""time""
""fullscreenenter"",""1"",""2091""
","
","","","860.3999999761581","","","23","4536","1297","&#9730;","elianto","#3366ff99"," "," ","1","+10","[1711.8999999761581,3071]","2","1","","","4536","9","1","1","win","go","0"
"pit-trial","127","969661","0.0-13.0","battery-v0.2","","""event"",""trial"",""time""
""fullscreenenter"",""1"",""2091""
","
","
","""event"",""trial"",""time""
""fullscreenenter"",""1"",""2091""
","
","","","-1","","","23","4536","1297","&#9733;","elianto","#3366ff99","-1","-1","1","+10","[]","0","1","","","4536","10","2","2","win","no-go","0"
"pit-trial","128","974525","0.0-14.0","battery-v0.2","","""event"",""trial"",""time""
""fullscreenenter"",""1"",""2091""
","
","
","""event"",""trial"",""time""
""fullscreenenter"",""1"",""2091""
","
","","","-1","","","23","4536","1297","&#9752;","elianto","#f73b6a7A"," ","-1","0","0","[]","0","1","","","4536","11","3","3","lose","go","1"
"pit-trial","129","978123","0.0-15.0","battery-v0.2","","""event"",""trial"",""time""
""fullscreenenter"",""1"",""2091""
","
","
","""event"",""trial"",""time""
""fullscreenenter"",""1"",""2091""
","
","","","735.2000000476837","","","23","4536","1297","&#9728;","elianto","#f73b6a7A","-1"," ","0","-10","[1586.2999999523163]","1","1","","","4536","12","0","4","lose","no-go","0"
"pit-trial","130","982984","0.0-16.0","battery-v0.2","","""event"",""trial"",""time""
""fullscreenenter"",""1"",""2091""
","
","
","""event"",""trial"",""time""
""fullscreenenter"",""1"",""2091""
","
","","","-1","","","23","4536","1297","&#9752;","elianto","#f73b6a7A"," ","-1","0","0","[]","0","1","","","4536","13","3","3","lose","go","1"
"pit-trial","131","987463","0.0-17.0","battery-v0.2","","""event"",""trial"",""time""
""fullscreenenter"",""1"",""2091""
","
","
","""event"",""trial"",""time""
""fullscreenenter"",""1"",""2091""
","
","","","1613.1999999284744","","","23","4536","1297","&#9728;","elianto","#f73b6a7A","-1"," ","0","-10","[2465.6999999284744]","1","1","","","4536","14","0","4","lose","no-go","0"
"pit-trial","132","992326","0.0-18.0","battery-v0.2","","""event"",""trial"",""time""
""fullscreenenter"",""1"",""2091""
","
","
","""event"",""trial"",""time""
""fullscreenenter"",""1"",""2091""
","
","","","-1","","","23","4536","1297","&#9733;","elianto","#3366ff99","-1","-1","1","+10","[]","0","1","","","4536","15","2","2","win","no-go","0"
"pit-trial","133","997195","0.0-19.0","battery-v0.2","","""event"",""trial"",""time""
""fullscreenenter"",""1"",""2091""
","
","
","""event"",""trial"",""time""
""fullscreenenter"",""1"",""2091""
","
","","","-1","","","23","4536","1297","&#9730;","elianto","#3366ff99"," ","-1","0","0","[2898.899999976158]","1","1","","","4536","16","1","1","win","go","0"
"pit-trial","134","1002059","0.0-20.0","battery-v0.2","","""event"",""trial"",""time""
""fullscreenenter"",""1"",""2091""
","
","
","""event"",""trial"",""time""
""fullscreenenter"",""1"",""2091""
","
","","","-1","","","23","4536","1297","&#9728;","elianto","#f73b6a7A","-1","-1","1","0","[]","0","1","","","4536","17","0","4","lose","no-go","0"
"pit-trial","135","1005761","0.0-21.0","battery-v0.2","","""event"",""trial"",""time""
""fullscreenenter"",""1"",""2091""
","
","
","""event"",""trial"",""time""
""fullscreenenter"",""1"",""2091""
","
","","","843.2000000476837","","","23","4536","1297","&#9730;","elianto","#3366ff99"," "," ","1","+10","[1694.2999999523163]","1","1","","","4536","18","1","1","win","go","0"
"pit-trial","136","1010624","0.0-22.0","battery-v0.2","","""event"",""trial"",""time""
""fullscreenenter"",""1"",""2091""
","
","
","""event"",""trial"",""time""
""fullscreenenter"",""1"",""2091""
","
","","","-1","","","23","4536","1297","&#9733;","elianto","#3366ff99","-1","-1","1","+10","[]","0","1","","","4536","19","2","2","win","no-go","0"
"pit-trial","137","1015488","0.0-23.0","battery-v0.2","","""event"",""trial"",""time""
""fullscreenenter"",""1"",""2091""
","
","
","""event"",""trial"",""time""
""fullscreenenter"",""1"",""2091""
","
","","","-1","","","23","4536","1297","&#9752;","elianto","#f73b6a7A"," ","-1","0","-10","[]","0","1","","","4536","20","3","3","lose","go","0"
"pit-instructions","138","1028323","0.0-24.0","battery-v0.2","","""event"",""trial"",""time""
""fullscreenenter"",""1"",""2091""
","
","
","""event"",""trial"",""time""
""fullscreenenter"",""1"",""2091""
","
","","[{""page_index"":0,""viewing_time"":5808.700000047684},{""page_index"":1,""viewing_time"":7017}]","12826.899999976158","","","","","","","","","","","","","","","","","","","","","","","",""
"pit-trial","139","1033191","0.0-25.0","battery-v0.2","","""event"",""trial"",""time""
""fullscreenenter"",""1"",""2091""
","
","
","""event"",""trial"",""time""
""fullscreenenter"",""1"",""2091""
","
","","","-1","","","23","4536","1297","b","elianto","#f73b6a7A","-1","-1","1","0","[]","0","2","","","4536","21","3","4","lose","no-go","0"
"pit-trial","140","1038058","0.0-26.0","battery-v0.2","","""event"",""trial"",""time""
""fullscreenenter"",""1"",""2091""
","
","
","""event"",""trial"",""time""
""fullscreenenter"",""1"",""2091""
","
","","","-1","","","23","4536","1297","n","elianto","#f73b6a7A"," ","-1","0","0","[]","0","2","","","4536","22","0","3","lose","go","1"
"pit-trial","141","1042089","0.0-27.0","battery-v0.2","","""event"",""trial"",""time""
""fullscreenenter"",""1"",""2091""
","
","
","""event"",""trial"",""time""
""fullscreenenter"",""1"",""2091""
","
","","","1169.3999999761581","","","23","4536","1297","f","elianto","#3366ff99","-1"," ","0","0","[2019.8999999761581]","1","2","","","4536","23","1","2","win","no-go","0"
"pit-trial","142","1046953","0.0-28.0","battery-v0.2","","""event"",""trial"",""time""
""fullscreenenter"",""1"",""2091""
","
","
","""event"",""trial"",""time""
""fullscreenenter"",""1"",""2091""
","
","","","-1","","","23","4536","1297","t","elianto","#f73b6a7A"," ","-1","0","-10","[]","0","2","","","4536","24","2","3","lose","go","0"
"pit-trial","143","1051359","0.0-29.0","battery-v0.2","","""event"",""trial"",""time""
""fullscreenenter"",""1"",""2091""
","
","
","""event"",""trial"",""time""
""fullscreenenter"",""1"",""2091""
","
","","","1541.2000000476837","","","23","4536","1297","t","elianto","#f73b6a7A"," "," ","1","0","[2392.399999976158]","1","2","","","4536","25","2","3","lose","go","0"
"pit-trial","144","1056222","0.0-30.0","battery-v0.2","","""event"",""trial"",""time""
""fullscreenenter"",""1"",""2091""
","
","
","""event"",""trial"",""time""
""fullscreenenter"",""1"",""2091""
","
","","","-1","","","23","4536","1297","b","elianto","#f73b6a7A","-1","-1","1","0","[]","0","2","","","4536","26","3","4","lose","no-go","0"
"pit-trial","145","1060480","0.0-31.0","battery-v0.2","","""event"",""trial"",""time""
""fullscreenenter"",""1"",""2091""
","
","
","""event"",""trial"",""time""
""fullscreenenter"",""1"",""2091""
","
","","","1393.1000000238419","","","23","4536","1297","f","elianto","#3366ff99","-1"," ","0","0","[2245.3000000715256]","1","2","","","4536","27","1","2","win","no-go","0"
"pit-trial","146","1065343","0.0-32.0","battery-v0.2","","""event"",""trial"",""time""
""fullscreenenter"",""1"",""2091""
","
","
","""event"",""trial"",""time""
""fullscreenenter"",""1"",""2091""
","
","","","-1","","","23","4536","1297","n","elianto","#f73b6a7A"," ","-1","0","-10","[]","0","2","","","4536","28","0","3","lose","go","0"
"pit-trial","147","1070212","0.0-33.0","battery-v0.2","","""event"",""trial"",""time""
""fullscreenenter"",""1"",""2091""
","
","
","""event"",""trial"",""time""
""fullscreenenter"",""1"",""2091""
","
","","","-1","","","23","4536","1297","f","elianto","#3366ff99","-1","-1","1","0","[]","0","2","","","4536","29","1","2","win","no-go","1"
"pit-trial","148","1073953","0.0-34.0","battery-v0.2","","""event"",""trial"",""time""
""fullscreenenter"",""1"",""2091""
","
","
","""event"",""trial"",""time""
""fullscreenenter"",""1"",""2091""
","
","","","884.6000000238419","","","23","4536","1297","t","elianto","#f73b6a7A"," "," ","1","-10","[1734.7000000476837]","1","2","","","4536","30","2","3","lose","go","1"
"pit-trial","149","1078820","0.0-35.0","battery-v0.2","","""event"",""trial"",""time""
""fullscreenenter"",""1"",""2091""
","
","
","""event"",""trial"",""time""
""fullscreenenter"",""1"",""2091""
","
","","","-1","","","23","4536","1297","n","elianto","#f73b6a7A"," ","-1","0","-10","[]","0","2","","","4536","31","0","3","lose","go","0"
"pit-trial","150","1083690","0.0-36.0","battery-v0.2","","""event"",""trial"",""time""
""fullscreenenter"",""1"",""2091""
","
","
","""event"",""trial"",""time""
""fullscreenenter"",""1"",""2091""
","
","","","-1","","","23","4536","1297","b","elianto","#f73b6a7A","-1","-1","1","-10","[]","0","2","","","4536","32","3","4","lose","no-go","1"
"pit-trial","151","1088553","0.0-37.0","battery-v0.2","","""event"",""trial"",""time""
""fullscreenenter"",""1"",""2091""
","
","
","""event"",""trial"",""time""
""fullscreenenter"",""1"",""2091""
","
","","","-1","","","23","4536","1297","b","elianto","#f73b6a7A","-1","-1","1","0","[]","0","2","","","4536","33","3","4","lose","no-go","0"
"pit-trial","152","1092393","0.0-38.0","battery-v0.2","","""event"",""trial"",""time""
""fullscreenenter"",""1"",""2091""
","
","
","""event"",""trial"",""time""
""fullscreenenter"",""1"",""2091""
","
","","","979.6000000238419","","","23","4536","1297","t","elianto","#f73b6a7A"," "," ","1","0","[1831.1999999284744]","1","2","","","4536","34","2","3","lose","go","0"
"pit-trial","153","1097257","0.0-39.0","battery-v0.2","","""event"",""trial"",""time""
""fullscreenenter"",""1"",""2091""
","
","
","""event"",""trial"",""time""
""fullscreenenter"",""1"",""2091""
","
","","","-1","","","23","4536","1297","f","elianto","#3366ff99","-1","-1","1","+10","[]","0","2","","","4536","35","1","2","win","no-go","0"
"pit-trial","154","1102121","0.0-40.0","battery-v0.2","","""event"",""trial"",""time""
""fullscreenenter"",""1"",""2091""
","
","
","""event"",""trial"",""time""
""fullscreenenter"",""1"",""2091""
","
","","","-1","","","23","4536","1297","n","elianto","#f73b6a7A"," ","-1","0","0","[]","0","2","","","4536","36","0","3","lose","go","1"
"pit-trial","155","1105721","0.0-41.0","battery-v0.2","","""event"",""trial"",""time""
""fullscreenenter"",""1"",""2091""
","
","
","""event"",""trial"",""time""
""fullscreenenter"",""1"",""2091""
","
","","","736.5","","","23","4536","1297","t","elianto","#f73b6a7A"," "," ","1","0","[1588.8999999761581]","1","2","","","4536","37","2","3","lose","go","0"
"pit-trial","156","1110590","0.0-42.0","battery-v0.2","","""event"",""trial"",""time""
""fullscreenenter"",""1"",""2091""
","
","
","""event"",""trial"",""time""
""fullscreenenter"",""1"",""2091""
","
","","","-1","","","23","4536","1297","n","elianto","#f73b6a7A"," ","-1","0","-10","[]","0","2","","","4536","38","0","3","lose","go","0"
"pit-trial","157","1115454","0.0-43.0","battery-v0.2","","""event"",""trial"",""time""
""fullscreenenter"",""1"",""2091""
","
","
","""event"",""trial"",""time""
""fullscreenenter"",""1"",""2091""
","
","","","-1","","","23","4536","1297","f","elianto","#3366ff99","-1","-1","1","+10","[]","0","2","","","4536","39","1","2","win","no-go","0"
"pit-trial","158","1120318","0.0-44.0","battery-v0.2","","""event"",""trial"",""time""
""fullscreenenter"",""1"",""2091""
","
","
","""event"",""trial"",""time""
""fullscreenenter"",""1"",""2091""
","
","","","-1","","","23","4536","1297","b","elianto","#f73b6a7A","-1","-1","1","0","[]","0","2","","","4536","40","3","4","lose","no-go","0"
"pit-trial","159","1123976","0.0-45.0","battery-v0.2","","""event"",""trial"",""time""
""fullscreenenter"",""1"",""2091""
","
","
","""event"",""trial"",""time""
""fullscreenenter"",""1"",""2091""
","
","","","797.6999999284744","","","23","4536","1297","t","elianto","#f73b6a7A"," "," ","1","0","[1648.9000000953674]","1","2","","","4536","41","2","3","lose","go","0"
"pit-trial","160","1128846","0.0-46.0","battery-v0.2","","""event"",""trial"",""time""
""fullscreenenter"",""1"",""2091""
","
","
","""event"",""trial"",""time""
""fullscreenenter"",""1"",""2091""
","
","","","-1","","","23","4536","1297","f","elianto","#3366ff99","-1","-1","1","+10","[]","0","2","","","4536","42","1","2","win","no-go","0"
"pit-trial","161","1133064","0.0-47.0","battery-v0.2","","""event"",""trial"",""time""
""fullscreenenter"",""1"",""2091""
","
","
","""event"",""trial"",""time""
""fullscreenenter"",""1"",""2091""
","
","","","1355.6000000238419","","","23","4536","1297","n","elianto","#f73b6a7A"," "," ","1","0","[2206]","1","2","","","4536","43","0","3","lose","go","0"
"pit-trial","162","1137923","0.0-48.0","battery-v0.2","","""event"",""trial"",""time""
""fullscreenenter"",""1"",""2091""
","
","
","""event"",""trial"",""time""
""fullscreenenter"",""1"",""2091""
","
","","","-1","","","23","4536","1297","b","elianto","#f73b6a7A","-1","-1","1","0","[]","0","2","","","4536","44","3","4","lose","no-go","0"
"pit-trial","163","1142791","0.0-49.0","battery-v0.2","","""event"",""trial"",""time""
""fullscreenenter"",""1"",""2091""
","
","
","""event"",""trial"",""time""
""fullscreenenter"",""1"",""2091""
","
","","","-1","","","23","4536","1297","b","elianto","#f73b6a7A","-1","-1","1","0","[]","0","2","","","4536","45","3","4","lose","no-go","0"
"pit-trial","164","1146338","0.0-50.0","battery-v0.2","","""event"",""trial"",""time""
""fullscreenenter"",""1"",""2091""
","
","
","""event"",""trial"",""time""
""fullscreenenter"",""1"",""2091""
","
","","","689.0999999046326","","","23","4536","1297","t","elianto","#f73b6a7A"," "," ","1","-10","[1539.3000000715256]","1","2","","","4536","46","2","3","lose","go","1"
"pit-trial","165","1151202","0.0-51.0","battery-v0.2","","""event"",""trial"",""time""
""fullscreenenter"",""1"",""2091""
","
","
","""event"",""trial"",""time""
""fullscreenenter"",""1"",""2091""
","
","","","-1","","","23","4536","1297","f","elianto","#3366ff99","-1","-1","1","+10","[]","0","2","","","4536","47","1","2","win","no-go","0"
"pit-trial","166","1155143","0.0-52.0","battery-v0.2","","""event"",""trial"",""time""
""fullscreenenter"",""1"",""2091""
","
","
","""event"",""trial"",""time""
""fullscreenenter"",""1"",""2091""
","
","","","1079.8999999761581","","","23","4536","1297","n","elianto","#f73b6a7A"," "," ","1","0","[1930.5]","1","2","","","4536","48","0","3","lose","go","0"
"pit-trial","167","1160007","0.0-53.0","battery-v0.2","","""event"",""trial"",""time""
""fullscreenenter"",""1"",""2091""
","
","
","""event"",""trial"",""time""
""fullscreenenter"",""1"",""2091""
","
","","","-1","","","23","4536","1297","b","elianto","#f73b6a7A","-1","-1","1","0","[]","0","2","","","4536","49","3","4","lose","no-go","0"
"pit-trial","168","1164871","0.0-54.0","battery-v0.2","","""event"",""trial"",""time""
""fullscreenenter"",""1"",""2091""
","
","
","""event"",""trial"",""time""
""fullscreenenter"",""1"",""2091""
","
","","","-1","","","23","4536","1297","f","elianto","#3366ff99","-1","-1","1","+10","[]","0","2","","","4536","50","1","2","win","no-go","0"
"pit-trial","169","1169025","0.0-55.0","battery-v0.2","","""event"",""trial"",""time""
""fullscreenenter"",""1"",""2091""
","
","
","""event"",""trial"",""time""
""fullscreenenter"",""1"",""2091""
","
","","","1292.3000000715256","","","23","4536","1297","n","elianto","#f73b6a7A"," "," ","1","0","[2144.1999999284744]","1","2","","","4536","51","0","3","lose","go","0"
"pit-trial","170","1172593","0.0-56.0","battery-v0.2","","""event"",""trial"",""time""
""fullscreenenter"",""1"",""2091""
","
","
","""event"",""trial"",""time""
""fullscreenenter"",""1"",""2091""
","
","","","703.1000000238419","","","23","4536","1297","t","elianto","#f73b6a7A"," "," ","1","0","[1553.6999999284744]","1","2","","","4536","52","2","3","lose","go","0"
"pit-trial","171","1177457","0.0-57.0","battery-v0.2","","""event"",""trial"",""time""
""fullscreenenter"",""1"",""2091""
","
","
","""event"",""trial"",""time""
""fullscreenenter"",""1"",""2091""
","
","","","-1","","","23","4536","1297","f","elianto","#3366ff99","-1","-1","1","+10","[]","0","2","","","4536","53","1","2","win","no-go","0"
"pit-trial","172","1182327","0.0-58.0","battery-v0.2","","""event"",""trial"",""time""
""fullscreenenter"",""1"",""2091""
","
","
","""event"",""trial"",""time""
""fullscreenenter"",""1"",""2091""
","
","","","-1","","","23","4536","1297","b","elianto","#f73b6a7A","-1","-1","1","0","[]","0","2","","","4536","54","3","4","lose","no-go","0"
"pit-trial","173","1185957","0.0-59.0","battery-v0.2","","""event"",""trial"",""time""
""fullscreenenter"",""1"",""2091""
","
","
","""event"",""trial"",""time""
""fullscreenenter"",""1"",""2091""
","
","","","768.5","","","23","4536","1297","t","elianto","#f73b6a7A"," "," ","1","0","[1619.4000000953674]","1","2","","","4536","55","2","3","lose","go","0"
"pit-trial","174","1189617","0.0-60.0","battery-v0.2","","""event"",""trial"",""time""
""fullscreenenter"",""1"",""2091""
","
","
","""event"",""trial"",""time""
""fullscreenenter"",""1"",""2091""
","
","","","799.5","","","23","4536","1297","n","elianto","#f73b6a7A"," "," ","1","0","[1650.2000000476837,2701.100000023842]","2","2","","","4536","56","0","3","lose","go","0"
"pit-trial","175","1193361","0.0-61.0","battery-v0.2","","""event"",""trial"",""time""
""fullscreenenter"",""1"",""2091""
","
","
","""event"",""trial"",""time""
""fullscreenenter"",""1"",""2091""
","
","","","878.5","","","23","4536","1297","n","elianto","#f73b6a7A"," "," ","1","0","[1731]","1","2","","","4536","57","0","3","lose","go","0"
"pit-trial","176","1198224","0.0-62.0","battery-v0.2","","""event"",""trial"",""time""
""fullscreenenter"",""1"",""2091""
","
","
","""event"",""trial"",""time""
""fullscreenenter"",""1"",""2091""
","
","","","-1","","","23","4536","1297","c","elianto","#3366ff99"," ","-1","0","0","[]","0","2","","","4536","58","4","1","win","go","0"
"pit-trial","177","1201808","0.0-63.0","battery-v0.2","","""event"",""trial"",""time""
""fullscreenenter"",""1"",""2091""
","
","
","""event"",""trial"",""time""
""fullscreenenter"",""1"",""2091""
","
","","","722.7000000476837","","","23","4536","1297","t","elianto","#f73b6a7A"," "," ","1","-10","[1572.8000000715256]","1","2","","","4536","59","2","3","lose","go","1"
"pit-trial","178","1206672","0.0-64.0","battery-v0.2","","""event"",""trial"",""time""
""fullscreenenter"",""1"",""2091""
","
","
","""event"",""trial"",""time""
""fullscreenenter"",""1"",""2091""
","
","","","-1","","","23","4536","1297","b","elianto","#f73b6a7A","-1","-1","1","0","[]","0","2","","","4536","60","3","4","lose","no-go","0"
"pit-trial","179","1211536","0.0-65.0","battery-v0.2","","""event"",""trial"",""time""
""fullscreenenter"",""1"",""2091""
","
","
","""event"",""trial"",""time""
""fullscreenenter"",""1"",""2091""
","
","","","-1","","","23","4536","1297","b","elianto","#f73b6a7A","-1","-1","1","0","[]","0","2","","","4536","61","3","4","lose","no-go","0"
"pit-trial","180","1216400","0.0-66.0","battery-v0.2","","""event"",""trial"",""time""
""fullscreenenter"",""1"",""2091""
","
","
","""event"",""trial"",""time""
""fullscreenenter"",""1"",""2091""
","
","","","-1","","","23","4536","1297","f","elianto","#3366ff99","-1","-1","1","0","[]","0","2","","","4536","62","1","2","win","no-go","1"
"pit-trial","181","1220138","0.0-67.0","battery-v0.2","","""event"",""trial"",""time""
""fullscreenenter"",""1"",""2091""
","
","
","""event"",""trial"",""time""
""fullscreenenter"",""1"",""2091""
","
","","","876.7000000476837","","","23","4536","1297","t","elianto","#f73b6a7A"," "," ","1","0","[1727.5]","1","2","","","4536","63","2","3","lose","go","0"
"pit-trial","182","1223948","0.0-68.0","battery-v0.2","","""event"",""trial"",""time""
""fullscreenenter"",""1"",""2091""
","
","
","""event"",""trial"",""time""
""fullscreenenter"",""1"",""2091""
","
","","","950","","","23","4536","1297","c","elianto","#3366ff99"," "," ","1","+10","[1801.7999999523163]","1","2","","","4536","64","4","1","win","go","0"
"pit-trial","183","1227654","0.0-69.0","battery-v0.2","","""event"",""trial"",""time""
""fullscreenenter"",""1"",""2091""
","
","
","""event"",""trial"",""time""
""fullscreenenter"",""1"",""2091""
","
","","","843.3999999761581","","","23","4536","1297","c","elianto","#3366ff99"," "," ","1","+10","[1695.2000000476837]","1","2","","","4536","65","4","1","win","go","0"
"pit-trial","184","1232522","0.0-70.0","battery-v0.2","","""event"",""trial"",""time""
""fullscreenenter"",""1"",""2091""
","
","
","""event"",""trial"",""time""
""fullscreenenter"",""1"",""2091""
","
","","","-1","","","23","4536","1297","f","elianto","#3366ff99","-1","-1","1","+10","[]","0","2","","","4536","66","1","2","win","no-go","0"
"pit-trial","185","1237386","0.0-71.0","battery-v0.2","","""event"",""trial"",""time""
""fullscreenenter"",""1"",""2091""
","
","
","""event"",""trial"",""time""
""fullscreenenter"",""1"",""2091""
","
","","","-1","","","23","4536","1297","b","elianto","#f73b6a7A","-1","-1","1","0","[]","0","2","","","4536","67","3","4","lose","no-go","0"
"pit-trial","186","1241583","0.0-72.0","battery-v0.2","","""event"",""trial"",""time""
""fullscreenenter"",""1"",""2091""
","
","
","""event"",""trial"",""time""
""fullscreenenter"",""1"",""2091""
","
","","","1335.2999999523163","","","23","4536","1297","z","elianto","#3366ff99","-1"," ","0","0","[2186.399999976158]","1","2","","","4536","68","5","2","win","no-go","0"
"pit-trial","187","1245684","0.0-73.0","battery-v0.2","","""event"",""trial"",""time""
""fullscreenenter"",""1"",""2091""
","
","
","""event"",""trial"",""time""
""fullscreenenter"",""1"",""2091""
","
","","","1239.2000000476837","","","23","4536","1297","c","elianto","#3366ff99"," "," ","1","+10","[2089.3000000715256]","1","2","","","4536","69","4","1","win","go","0"
"pit-trial","188","1249935","0.0-74.0","battery-v0.2","","""event"",""trial"",""time""
""fullscreenenter"",""1"",""2091""
","
","
","""event"",""trial"",""time""
""fullscreenenter"",""1"",""2091""
","
","","","1388.7000000476837","","","23","4536","1297","z","elianto","#3366ff99","-1"," ","0","0","[2238.8000000715256]","1","2","","","4536","70","5","2","win","no-go","0"
"pit-trial","189","1254804","0.0-75.0","battery-v0.2","","""event"",""trial"",""time""
""fullscreenenter"",""1"",""2091""
","
","
","""event"",""trial"",""time""
""fullscreenenter"",""1"",""2091""
","
","","","-1","","","23","4536","1297","f","elianto","#3366ff99","-1","-1","1","+10","[]","0","2","","","4536","71","1","2","win","no-go","0"
"pit-trial","190","1259204","0.0-76.0","battery-v0.2","","""event"",""trial"",""time""
""fullscreenenter"",""1"",""2091""
","
","
","""event"",""trial"",""time""
""fullscreenenter"",""1"",""2091""
","
","","","1538.6000000238419","","","23","4536","1297","t","elianto","#f73b6a7A"," "," ","1","0","[2389.399999976158]","1","2","","","4536","72","2","3","lose","go","0"
"pit-trial","191","1264073","0.0-77.0","battery-v0.2","","""event"",""trial"",""time""
""fullscreenenter"",""1"",""2091""
","
","
","""event"",""trial"",""time""
""fullscreenenter"",""1"",""2091""
","
","","","-1","","","23","4536","1297","f","elianto","#3366ff99","-1","-1","1","+10","[]","0","2","","","4536","73","1","2","win","no-go","0"
"pit-trial","192","1268936","0.0-78.0","battery-v0.2","","""event"",""trial"",""time""
""fullscreenenter"",""1"",""2091""
","
","
","""event"",""trial"",""time""
""fullscreenenter"",""1"",""2091""
","
","","","-1","","","23","4536","1297","z","elianto","#3366ff99","-1","-1","1","+10","[]","0","2","","","4536","74","5","2","win","no-go","0"
"pit-trial","193","1273800","0.0-79.0","battery-v0.2","","""event"",""trial"",""time""
""fullscreenenter"",""1"",""2091""
","
","
","""event"",""trial"",""time""
""fullscreenenter"",""1"",""2091""
","
","","","-1","","","23","4536","1297","b","elianto","#f73b6a7A","-1","-1","1","0","[]","0","2","","","4536","75","3","4","lose","no-go","0"
"pit-trial","194","1278045","0.0-80.0","battery-v0.2","","""event"",""trial"",""time""
""fullscreenenter"",""1"",""2091""
","
","
","""event"",""trial"",""time""
""fullscreenenter"",""1"",""2091""
","
","","","1384.2999999523163","","","23","4536","1297","c","elianto","#3366ff99"," "," ","1","+10","[2236.100000023842]","1","2","","","4536","76","4","1","win","go","0"
"pit-trial","195","1282909","0.0-81.0","battery-v0.2","","""event"",""trial"",""time""
""fullscreenenter"",""1"",""2091""
","
","
","""event"",""trial"",""time""
""fullscreenenter"",""1"",""2091""
","
","","","-1","","","23","4536","1297","b","elianto","#f73b6a7A","-1","-1","1","0","[]","0","2","","","4536","77","3","4","lose","no-go","0"
"pit-trial","196","1286733","0.0-82.0","battery-v0.2","","""event"",""trial"",""time""
""fullscreenenter"",""1"",""2091""
","
","
","""event"",""trial"",""time""
""fullscreenenter"",""1"",""2091""
","
","","","962.1000000238419","","","23","4536","1297","c","elianto","#3366ff99"," "," ","1","+10","[1812.3999999761581]","1","2","","","4536","78","4","1","win","go","0"
"pit-trial","197","1290764","0.0-83.0","battery-v0.2","","""event"",""trial"",""time""
""fullscreenenter"",""1"",""2091""
","
","
","""event"",""trial"",""time""
""fullscreenenter"",""1"",""2091""
","
","","","1170.2000000476837","","","23","4536","1297","c","elianto","#3366ff99"," "," ","1","+10","[2021.2999999523163]","1","2","","","4536","79","4","1","win","go","0"
"pit-trial","198","1295629","0.0-84.0","battery-v0.2","","""event"",""trial"",""time""
""fullscreenenter"",""1"",""2091""
","
","
","""event"",""trial"",""time""
""fullscreenenter"",""1"",""2091""
","
","","","-1","","","23","4536","1297","z","elianto","#3366ff99","-1","-1","1","+10","[]","0","2","","","4536","80","5","2","win","no-go","0"
"pit-trial","199","1300493","0.0-85.0","battery-v0.2","","""event"",""trial"",""time""
""fullscreenenter"",""1"",""2091""
","
","
","""event"",""trial"",""time""
""fullscreenenter"",""1"",""2091""
","
","","","-1","","","23","4536","1297","b","elianto","#f73b6a7A","-1","-1","1","0","[]","0","2","","","4536","81","3","4","lose","no-go","0"
"pit-trial","200","1305357","0.0-86.0","battery-v0.2","","""event"",""trial"",""time""
""fullscreenenter"",""1"",""2091""
","
","
","""event"",""trial"",""time""
""fullscreenenter"",""1"",""2091""
","
","","","-1","","","23","4536","1297","z","elianto","#3366ff99","-1","-1","1","+10","[]","0","2","","","4536","82","5","2","win","no-go","0"
"pit-trial","201","1308999","0.0-87.0","battery-v0.2","","""event"",""trial"",""time""
""fullscreenenter"",""1"",""2091""
","
","
","""event"",""trial"",""time""
""fullscreenenter"",""1"",""2091""
","
","","","780.1000000238419","","","23","4536","1297","c","elianto","#3366ff99"," "," ","1","+10","[1630.0999999046326]","1","2","","","4536","83","4","1","win","go","0"
"pit-trial","202","1313863","0.0-88.0","battery-v0.2","","""event"",""trial"",""time""
""fullscreenenter"",""1"",""2091""
","
","
","""event"",""trial"",""time""
""fullscreenenter"",""1"",""2091""
","
","","","-1","","","23","4536","1297","y","elianto","#f73b6a7A","-1","-1","1","-10","[]","0","2","","","4536","84","7","4","lose","no-go","1"
"pit-trial","203","1318727","0.0-89.0","battery-v0.2","","""event"",""trial"",""time""
""fullscreenenter"",""1"",""2091""
","
","
","""event"",""trial"",""time""
""fullscreenenter"",""1"",""2091""
","
","","","-1","","","23","4536","1297","z","elianto","#3366ff99","-1","-1","1","0","[]","0","2","","","4536","85","5","2","win","no-go","1"
"pit-trial","204","1322807","0.0-90.0","battery-v0.2","","""event"",""trial"",""time""
""fullscreenenter"",""1"",""2091""
","
","
","""event"",""trial"",""time""
""fullscreenenter"",""1"",""2091""
","
","","","1217.6000000238419","","","23","4536","1297","y","elianto","#f73b6a7A","-1"," ","0","-10","[2068.3000000715256]","1","2","","","4536","86","7","4","lose","no-go","0"
"pit-trial","205","1326695","0.0-91.0","battery-v0.2","","""event"",""trial"",""time""
""fullscreenenter"",""1"",""2091""
","
","
","""event"",""trial"",""time""
""fullscreenenter"",""1"",""2091""
","
","","","1026.3999999761581","","","23","4536","1297","c","elianto","#3366ff99"," "," ","1","0","[1877]","1","2","","","4536","87","4","1","win","go","1"
"pit-trial","206","1331558","0.0-92.0","battery-v0.2","","""event"",""trial"",""time""
""fullscreenenter"",""1"",""2091""
","
","
","""event"",""trial"",""time""
""fullscreenenter"",""1"",""2091""
","
","","","-1","","","23","4536","1297","h","elianto","#f73b6a7A"," ","-1","0","-10","[]","0","2","","","4536","88","6","3","lose","go","0"
"pit-trial","207","1335254","0.0-93.0","battery-v0.2","","""event"",""trial"",""time""
""fullscreenenter"",""1"",""2091""
","
","
","""event"",""trial"",""time""
""fullscreenenter"",""1"",""2091""
","
","","","839.3999999761581","","","23","4536","1297","c","elianto","#3366ff99"," "," ","1","+10","[1689.5]","1","2","","","4536","89","4","1","win","go","0"
"pit-trial","208","1339569","0.0-94.0","battery-v0.2","","""event"",""trial"",""time""
""fullscreenenter"",""1"",""2091""
","
","
","""event"",""trial"",""time""
""fullscreenenter"",""1"",""2091""
","
","","","1454.1000000238419","","","23","4536","1297","y","elianto","#f73b6a7A","-1"," ","0","0","[2304.100000023842]","1","2","","","4536","90","7","4","lose","no-go","1"
"pit-trial","209","1344017","0.0-95.0","battery-v0.2","","""event"",""trial"",""time""
""fullscreenenter"",""1"",""2091""
","
","
","""event"",""trial"",""time""
""fullscreenenter"",""1"",""2091""
","
","","","1585.6000000238419","","","23","4536","1297","h","elianto","#f73b6a7A"," "," ","1","0","[2437.6999999284744]","1","2","","","4536","91","6","3","lose","go","0"
"pit-trial","210","1348881","0.0-96.0","battery-v0.2","","""event"",""trial"",""time""
""fullscreenenter"",""1"",""2091""
","
","
","""event"",""trial"",""time""
""fullscreenenter"",""1"",""2091""
","
","","","-1","","","23","4536","1297","z","elianto","#3366ff99","-1","-1","1","+10","[]","0","2","","","4536","92","5","2","win","no-go","0"
"pit-trial","211","1353010","0.0-97.0","battery-v0.2","","""event"",""trial"",""time""
""fullscreenenter"",""1"",""2091""
","
","
","""event"",""trial"",""time""
""fullscreenenter"",""1"",""2091""
","
","","","1265.3999999761581","","","23","4536","1297","h","elianto","#f73b6a7A"," "," ","1","0","[2117.2999999523163]","1","2","","","4536","93","6","3","lose","go","0"
"pit-trial","212","1357878","0.0-98.0","battery-v0.2","","""event"",""trial"",""time""
""fullscreenenter"",""1"",""2091""
","
","
","""event"",""trial"",""time""
""fullscreenenter"",""1"",""2091""
","
","","","-1","","","23","4536","1297","z","elianto","#3366ff99","-1","-1","1","+10","[]","0","2","","","4536","94","5","2","win","no-go","0"
"pit-trial","213","1362027","0.0-99.0","battery-v0.2","","""event"",""trial"",""time""
""fullscreenenter"",""1"",""2091""
","
","
","""event"",""trial"",""time""
""fullscreenenter"",""1"",""2091""
","
","","","1284.6000000238419","","","23","4536","1297","y","elianto","#f73b6a7A","-1"," ","0","-10","[2135.8000000715256]","1","2","","","4536","95","7","4","lose","no-go","0"
"pit-trial","214","1366530","0.0-100.0","battery-v0.2","","""event"",""trial"",""time""
""fullscreenenter"",""1"",""2091""
","
","
","""event"",""trial"",""time""
""fullscreenenter"",""1"",""2091""
","
","","","1642.3999999761581","","","23","4536","1297","r","elianto","#3366ff99"," "," ","1","+10","[2493.2999999523163]","1","2","","","4536","96","8","1","win","go","0"
"pit-trial","215","1371397","0.0-101.0","battery-v0.2","","""event"",""trial"",""time""
""fullscreenenter"",""1"",""2091""
","
","
","""event"",""trial"",""time""
""fullscreenenter"",""1"",""2091""
","
","","","-1","","","23","4536","1297","z","elianto","#3366ff99","-1","-1","1","+10","[]","0","2","","","4536","97","5","2","win","no-go","0"
"pit-trial","216","1375819","0.0-102.0","battery-v0.2","","""event"",""trial"",""time""
""fullscreenenter"",""1"",""2091""
","
","
","""event"",""trial"",""time""
""fullscreenenter"",""1"",""2091""
","
","","","1558.1000000238419","","","23","4536","1297","h","elianto","#f73b6a7A"," "," ","1","0","[2408.899999976158]","1","2","","","4536","98","6","3","lose","go","0"
"pit-trial","217","1380362","0.0-103.0","battery-v0.2","","""event"",""trial"",""time""
""fullscreenenter"",""1"",""2091""
","
","
","""event"",""trial"",""time""
""fullscreenenter"",""1"",""2091""
","
","","","1680","","","23","4536","1297","y","elianto","#f73b6a7A","-1"," ","0","-10","[2531.399999976158]","1","2","","","4536","99","7","4","lose","no-go","0"
"pit-trial","218","1384901","0.0-104.0","battery-v0.2","","""event"",""trial"",""time""
""fullscreenenter"",""1"",""2091""
","
","
","""event"",""trial"",""time""
""fullscreenenter"",""1"",""2091""
","
","","","1672.7000000476837","","","23","4536","1297","r","elianto","#3366ff99"," "," ","1","+10","[2524.600000023842]","1","2","","","4536","100","8","1","win","go","0"
"pit-trial","219","1388565","0.0-105.0","battery-v0.2","","""event"",""trial"",""time""
""fullscreenenter"",""1"",""2091""
","
","
","""event"",""trial"",""time""
""fullscreenenter"",""1"",""2091""
","
","","","798.2999999523163","","","23","4536","1297","r","elianto","#3366ff99"," "," ","1","+10","[1651.1999999284744]","1","2","","","4536","101","8","1","win","go","0"
"pit-trial","220","1393427","0.0-106.0","battery-v0.2","","""event"",""trial"",""time""
""fullscreenenter"",""1"",""2091""
","
","
","""event"",""trial"",""time""
""fullscreenenter"",""1"",""2091""
","
","","","-1","","","23","4536","1297","y","elianto","#f73b6a7A","-1","-1","1","0","[]","0","2","","","4536","102","7","4","lose","no-go","0"
"pit-trial","221","1397457","0.0-107.0","battery-v0.2","","""event"",""trial"",""time""
""fullscreenenter"",""1"",""2091""
","
","
","""event"",""trial"",""time""
""fullscreenenter"",""1"",""2091""
","
","","","1170.3999999761581","","","23","4536","1297","m","elianto","#3366ff99"," "," ","1","0","[2021.3999999761581]","1","2","","","4536","103","9","1","win","go","1"
"pit-trial","222","1402324","0.0-108.0","battery-v0.2","","""event"",""trial"",""time""
""fullscreenenter"",""1"",""2091""
","
","
","""event"",""trial"",""time""
""fullscreenenter"",""1"",""2091""
","
","","","-1","","","23","4536","1297","z","elianto","#3366ff99","-1","-1","1","+10","[]","0","2","","","4536","104","5","2","win","no-go","0"
"pit-trial","223","1407129","0.0-109.0","battery-v0.2","","""event"",""trial"",""time""
""fullscreenenter"",""1"",""2091""
","
","
","""event"",""trial"",""time""
""fullscreenenter"",""1"",""2091""
","
","","","1943.8999999761581","","","23","4536","1297","r","elianto","#3366ff99"," "," ","1","+10","[2794.7000000476837]","1","2","","","4536","105","8","1","win","go","0"
"pit-trial","224","1411188","0.0-110.0","battery-v0.2","","""event"",""trial"",""time""
""fullscreenenter"",""1"",""2091""
","
","
","""event"",""trial"",""time""
""fullscreenenter"",""1"",""2091""
","
","","","1200.1999999284744","","","23","4536","1297","h","elianto","#f73b6a7A"," "," ","1","0","[2050.6999999284744]","1","2","","","4536","106","6","3","lose","go","0"
"pit-trial","225","1416052","0.0-111.0","battery-v0.2","","""event"",""trial"",""time""
""fullscreenenter"",""1"",""2091""
","
","
","""event"",""trial"",""time""
""fullscreenenter"",""1"",""2091""
","
","","","-1","","","23","4536","1297","m","elianto","#3366ff99"," ","-1","0","0","[]","0","2","","","4536","107","9","1","win","go","0"
"pit-trial","226","1420108","0.0-112.0","battery-v0.2","","""event"",""trial"",""time""
""fullscreenenter"",""1"",""2091""
","
","
","""event"",""trial"",""time""
""fullscreenenter"",""1"",""2091""
","
","","","1193.1000000238419","","","23","4536","1297","c","elianto","#3366ff99"," "," ","1","+10","[2043.2999999523163]","1","2","","","4536","108","4","1","win","go","0"
"pit-trial","227","1424974","0.0-113.0","battery-v0.2","","""event"",""trial"",""time""
""fullscreenenter"",""1"",""2091""
","
","
","""event"",""trial"",""time""
""fullscreenenter"",""1"",""2091""
","
","","","-1","","","23","4536","1297","m","elianto","#3366ff99"," ","-1","0","0","[]","0","2","","","4536","109","9","1","win","go","0"
"pit-trial","228","1429672","0.0-114.0","battery-v0.2","","""event"",""trial"",""time""
""fullscreenenter"",""1"",""2091""
","
","
","""event"",""trial"",""time""
""fullscreenenter"",""1"",""2091""
","
","","","1835.7000000476837","","","23","4536","1297","h","elianto","#f73b6a7A"," "," ","1","0","[2686.100000023842]","1","2","","","4536","110","6","3","lose","go","0"
"pit-trial","229","1434536","0.0-115.0","battery-v0.2","","""event"",""trial"",""time""
""fullscreenenter"",""1"",""2091""
","
","
","""event"",""trial"",""time""
""fullscreenenter"",""1"",""2091""
","
","","","-1","","","23","4536","1297","z","elianto","#3366ff99","-1","-1","1","+10","[]","0","2","","","4536","111","5","2","win","no-go","0"
"pit-trial","230","1438623","0.0-116.0","battery-v0.2","","""event"",""trial"",""time""
""fullscreenenter"",""1"",""2091""
","
","
","""event"",""trial"",""time""
""fullscreenenter"",""1"",""2091""
","
","","","1222.4000000953674","","","23","4536","1297","r","elianto","#3366ff99"," "," ","1","+10","[2073.5]","1","2","","","4536","112","8","1","win","go","0"
"pit-trial","231","1442702","0.0-117.0","battery-v0.2","","""event"",""trial"",""time""
""fullscreenenter"",""1"",""2091""
","
","
","""event"",""trial"",""time""
""fullscreenenter"",""1"",""2091""
","
","","","1216.7999999523163","","","23","4536","1297","m","elianto","#3366ff99"," "," ","1","+10","[2066.899999976158,3337.399999976158]","2","2","","","4536","113","9","1","win","go","0"
"pit-trial","232","1447357","0.0-118.0","battery-v0.2","","""event"",""trial"",""time""
""fullscreenenter"",""1"",""2091""
","
","
","""event"",""trial"",""time""
""fullscreenenter"",""1"",""2091""
","
","","","1793","","","23","4536","1297","h","elianto","#f73b6a7A"," "," ","1","0","[2644.899999976158]","1","2","","","4536","114","6","3","lose","go","0"
"pit-trial","233","1452221","0.0-119.0","battery-v0.2","","""event"",""trial"",""time""
""fullscreenenter"",""1"",""2091""
","
","
","""event"",""trial"",""time""
""fullscreenenter"",""1"",""2091""
","
","","","-1","","","23","4536","1297","z","elianto","#3366ff99","-1","-1","1","+10","[]","0","2","","","4536","115","5","2","win","no-go","0"
"pit-trial","234","1456568","0.0-120.0","battery-v0.2","","""event"",""trial"",""time""
""fullscreenenter"",""1"",""2091""
","
","
","""event"",""trial"",""time""
""fullscreenenter"",""1"",""2091""
","
","","","1481.8999999761581","","","23","4536","1297","r","elianto","#3366ff99"," "," ","1","0","[2332.6999999284744]","1","2","","","4536","116","8","1","win","go","1"
"pit-trial","235","1460623","0.0-121.0","battery-v0.2","","""event"",""trial"",""time""
""fullscreenenter"",""1"",""2091""
","
","
","""event"",""trial"",""time""
""fullscreenenter"",""1"",""2091""
","
","","","1191.2999999523163","","","23","4536","1297","h","elianto","#f73b6a7A"," "," ","1","0","[2043.7000000476837]","1","2","","","4536","117","6","3","lose","go","0"
"pit-trial","236","1465490","0.0-122.0","battery-v0.2","","""event"",""trial"",""time""
""fullscreenenter"",""1"",""2091""
","
","
","""event"",""trial"",""time""
""fullscreenenter"",""1"",""2091""
","
","","","-1","","","23","4536","1297","z","elianto","#3366ff99","-1","-1","1","+10","[]","0","2","","","4536","118","5","2","win","no-go","0"
"pit-trial","237","1469714","0.0-123.0","battery-v0.2","","""event"",""trial"",""time""
""fullscreenenter"",""1"",""2091""
","
","
","""event"",""trial"",""time""
""fullscreenenter"",""1"",""2091""
","
","","","1365.7999999523163","","","23","4536","1297","m","elianto","#3366ff99"," "," ","1","0","[2216.100000023842]","1","2","","","4536","119","9","1","win","go","1"
"pit-trial","238","1474241","0.0-124.0","battery-v0.2","","""event"",""trial"",""time""
""fullscreenenter"",""1"",""2091""
","
","
","""event"",""trial"",""time""
""fullscreenenter"",""1"",""2091""
","
","","","1665.6000000238419","","","23","4536","1297","r","elianto","#3366ff99"," "," ","1","+10","[2516.100000023842]","1","2","","","4536","120","8","1","win","go","0"
"pit-trial","239","1478215","0.0-125.0","battery-v0.2","","""event"",""trial"",""time""
""fullscreenenter"",""1"",""2091""
","
","
","""event"",""trial"",""time""
""fullscreenenter"",""1"",""2091""
","
","","","1112.7999999523163","","","23","4536","1297","m","elianto","#3366ff99"," "," ","1","+10","[1963.5]","1","2","","","4536","121","9","1","win","go","0"
"pit-trial","240","1483079","0.0-126.0","battery-v0.2","","""event"",""trial"",""time""
""fullscreenenter"",""1"",""2091""
","
","
","""event"",""trial"",""time""
""fullscreenenter"",""1"",""2091""
","
","","","-1","","","23","4536","1297","r","elianto","#3366ff99"," ","-1","0","0","[2871.100000023842]","1","2","","","4536","122","8","1","win","go","0"
"pit-trial","241","1487938","0.0-127.0","battery-v0.2","","""event"",""trial"",""time""
""fullscreenenter"",""1"",""2091""
","
","
","""event"",""trial"",""time""
""fullscreenenter"",""1"",""2091""
","
","","","-1","","","23","4536","1297","y","elianto","#f73b6a7A","-1","-1","1","-10","[]","0","2","","","4536","123","7","4","lose","no-go","1"
"pit-trial","242","1491889","0.0-128.0","battery-v0.2","","""event"",""trial"",""time""
""fullscreenenter"",""1"",""2091""
","
","
","""event"",""trial"",""time""
""fullscreenenter"",""1"",""2091""
","
","","","1086.6000000238419","","","23","4536","1297","h","elianto","#f73b6a7A"," "," ","1","0","[1937]","1","2","","","4536","124","6","3","lose","go","0"
"pit-trial","243","1496348","0.0-129.0","battery-v0.2","","""event"",""trial"",""time""
""fullscreenenter"",""1"",""2091""
","
","
","""event"",""trial"",""time""
""fullscreenenter"",""1"",""2091""
","
","","","1595","","","23","4536","1297","r","elianto","#3366ff99"," "," ","1","0","[2445.399999976158]","1","2","","","4536","125","8","1","win","go","1"
"pit-trial","244","1501211","0.0-130.0","battery-v0.2","","""event"",""trial"",""time""
""fullscreenenter"",""1"",""2091""
","
","
","""event"",""trial"",""time""
""fullscreenenter"",""1"",""2091""
","
","","","-1","","","23","4536","1297","y","elianto","#f73b6a7A","-1","-1","1","-10","[]","0","2","","","4536","126","7","4","lose","no-go","1"
"pit-trial","245","1505238","0.0-131.0","battery-v0.2","","""event"",""trial"",""time""
""fullscreenenter"",""1"",""2091""
","
","
","""event"",""trial"",""time""
""fullscreenenter"",""1"",""2091""
","
","","","1165.5","","","23","4536","1297","m","elianto","#3366ff99"," "," ","1","+10","[2017.1999999284744]","1","2","","","4536","127","9","1","win","go","0"
"pit-trial","246","1510070","0.0-132.0","battery-v0.2","","""event"",""trial"",""time""
""fullscreenenter"",""1"",""2091""
","
","
","""event"",""trial"",""time""
""fullscreenenter"",""1"",""2091""
","
","","","1972","","","23","4536","1297","h","elianto","#f73b6a7A"," "," ","1","0","[2822.1999999284744]","1","2","","","4536","128","6","3","lose","go","0"
"pit-trial","247","1514689","0.0-133.0","battery-v0.2","","""event"",""trial"",""time""
""fullscreenenter"",""1"",""2091""
","
","
","""event"",""trial"",""time""
""fullscreenenter"",""1"",""2091""
","
","","","1758.2000000476837","","","23","4536","1297","y","elianto","#f73b6a7A","-1"," ","0","-10","[2608.7000000476837]","1","2","","","4536","129","7","4","lose","no-go","0"
"pit-trial","248","1519083","0.0-134.0","battery-v0.2","","""event"",""trial"",""time""
""fullscreenenter"",""1"",""2091""
","
","
","""event"",""trial"",""time""
""fullscreenenter"",""1"",""2091""
","
","","","1533.7999999523163","","","23","4536","1297","r","elianto","#3366ff99"," "," ","1","+10","[2384.2999999523163]","1","2","","","4536","130","8","1","win","go","0"
"pit-trial","249","1523734","0.0-135.0","battery-v0.2","","""event"",""trial"",""time""
""fullscreenenter"",""1"",""2091""
","
","
","""event"",""trial"",""time""
""fullscreenenter"",""1"",""2091""
","
","","","1789","","","23","4536","1297","m","elianto","#3366ff99"," "," ","1","+10","[2640]","1","2","","","4536","131","9","1","win","go","0"
"pit-trial","250","1527984","0.0-136.0","battery-v0.2","","""event"",""trial"",""time""
""fullscreenenter"",""1"",""2091""
","
","
","""event"",""trial"",""time""
""fullscreenenter"",""1"",""2091""
","
","","","1386.3999999761581","","","23","4536","1297","h","elianto","#f73b6a7A"," "," ","1","0","[2238.5]","1","2","","","4536","132","6","3","lose","go","0"
"pit-trial","251","1532850","0.0-137.0","battery-v0.2","","""event"",""trial"",""time""
""fullscreenenter"",""1"",""2091""
","
","
","""event"",""trial"",""time""
""fullscreenenter"",""1"",""2091""
","
","","","-1","","","23","4536","1297","y","elianto","#f73b6a7A","-1","-1","1","0","[]","0","2","","","4536","133","7","4","lose","no-go","0"
"pit-trial","252","1536943","0.0-138.0","battery-v0.2","","""event"",""trial"",""time""
""fullscreenenter"",""1"",""2091""
","
","
","""event"",""trial"",""time""
""fullscreenenter"",""1"",""2091""
","
","","","1232","","","23","4536","1297","m","elianto","#3366ff99"," "," ","1","0","[2083.7999999523163]","1","2","","","4536","134","9","1","win","go","1"
"pit-trial","253","1541253","0.0-139.0","battery-v0.2","","""event"",""trial"",""time""
""fullscreenenter"",""1"",""2091""
","
","
","""event"",""trial"",""time""
""fullscreenenter"",""1"",""2091""
","
","","","1446.6000000238419","","","23","4536","1297","r","elianto","#3366ff99"," "," ","1","+10","[2297]","1","2","","","4536","135","8","1","win","go","0"
"pit-trial","254","1545754","0.0-140.0","battery-v0.2","","""event"",""trial"",""time""
""fullscreenenter"",""1"",""2091""
","
","
","""event"",""trial"",""time""
""fullscreenenter"",""1"",""2091""
","
","","","1639.3000000715256","","","23","4536","1297","h","elianto","#f73b6a7A"," "," ","1","-10","[2489.5]","1","2","","","4536","136","6","3","lose","go","1"
"pit-trial","255","1550580","0.0-141.0","battery-v0.2","","""event"",""trial"",""time""
""fullscreenenter"",""1"",""2091""
","
","
","""event"",""trial"",""time""
""fullscreenenter"",""1"",""2091""
","
","","","1965.2999999523163","","","23","4536","1297","r","elianto","#3366ff99"," "," ","1","+10","[2815.600000023842]","1","2","","","4536","137","8","1","win","go","0"
"pit-trial","256","1554303","0.0-142.0","battery-v0.2","","""event"",""trial"",""time""
""fullscreenenter"",""1"",""2091""
","
","
","""event"",""trial"",""time""
""fullscreenenter"",""1"",""2091""
","
","","","861.7000000476837","","","23","4536","1297","m","elianto","#3366ff99"," "," ","1","+10","[1712.1000000238419]","1","2","","","4536","138","9","1","win","go","0"
"pit-trial","257","1558603","0.0-143.0","battery-v0.2","","""event"",""trial"",""time""
""fullscreenenter"",""1"",""2091""
","
","
","""event"",""trial"",""time""
""fullscreenenter"",""1"",""2091""
","
","","","1436.2999999523163","","","23","4536","1297","h","elianto","#f73b6a7A"," "," ","1","0","[2287]","1","2","","","4536","139","6","3","lose","go","0"
"pit-trial","258","1563465","0.0-144.0","battery-v0.2","","""event"",""trial"",""time""
""fullscreenenter"",""1"",""2091""
","
","
","""event"",""trial"",""time""
""fullscreenenter"",""1"",""2091""
","
","","","-1","","","23","4536","1297","y","elianto","#f73b6a7A","-1","-1","1","0","[]","0","2","","","4536","140","7","4","lose","no-go","0"
"pit-instructions","259","1580884","0.0-145.0","battery-v0.2","","""event"",""trial"",""time""
""fullscreenenter"",""1"",""2091""
","
","
","""event"",""trial"",""time""
""fullscreenenter"",""1"",""2091""
","
","","[{""page_index"":0,""viewing_time"":9024.800000071526},{""page_index"":1,""viewing_time"":8383.199999928474}]","17408.899999976158","","","","","","","","","","","","","","","","","","","","","","","",""
"pit-trial","260","1585752","0.0-146.0","battery-v0.2","","""event"",""trial"",""time""
""fullscreenenter"",""1"",""2091""
","
","
","""event"",""trial"",""time""
""fullscreenenter"",""1"",""2091""
","
","","","-1","","","23","4536","1297","u","elianto","#f73b6a7A","-1","-1","1","0","[]","0","3","","","4536","141","0","4","lose","no-go","0"
"pit-trial","261","1590617","0.0-147.0","battery-v0.2","","""event"",""trial"",""time""
""fullscreenenter"",""1"",""2091""
","
","
","""event"",""trial"",""time""
""fullscreenenter"",""1"",""2091""
","
","","","-1","","","23","4536","1297","a","elianto","#f73b6a7A","-1","-1","1","0","[]","0","3","","","4536","142","2","4","lose","no-go","0"
"pit-trial","262","1595485","0.0-148.0","battery-v0.2","","""event"",""trial"",""time""
""fullscreenenter"",""1"",""2091""
","
","
","""event"",""trial"",""time""
""fullscreenenter"",""1"",""2091""
","
","","","-1","","","23","4536","1297","g","elianto","#f73b6a7A"," ","-1","0","-10","[]","0","3","","","4536","143","3","3","lose","go","0"
"pit-trial","263","1599369","0.0-149.0","battery-v0.2","","""event"",""trial"",""time""
""fullscreenenter"",""1"",""2091""
","
","
","""event"",""trial"",""time""
""fullscreenenter"",""1"",""2091""
","
","","","1023.3000000715256","","","23","4536","1297","l","elianto","#3366ff99"," "," ","1","+10","[1874.1000000238419]","1","3","","","4536","144","1","1","win","go","0"
"pit-trial","264","1604237","0.0-150.0","battery-v0.2","","""event"",""trial"",""time""
""fullscreenenter"",""1"",""2091""
","
","
","""event"",""trial"",""time""
""fullscreenenter"",""1"",""2091""
","
","","","-1","","","23","4536","1297","a","elianto","#f73b6a7A","-1","-1","1","0","[]","0","3","","","4536","145","2","4","lose","no-go","0"
"pit-trial","265","1608397","0.0-151.0","battery-v0.2","","""event"",""trial"",""time""
""fullscreenenter"",""1"",""2091""
","
","
","""event"",""trial"",""time""
""fullscreenenter"",""1"",""2091""
","
","","","1295.7999999523163","","","23","4536","1297","l","elianto","#3366ff99"," "," ","1","0","[2146]","1","3","","","4536","146","1","1","win","go","1"
"pit-trial","266","1613138","0.0-152.0","battery-v0.2","","""event"",""trial"",""time""
""fullscreenenter"",""1"",""2091""
","
","
","""event"",""trial"",""time""
""fullscreenenter"",""1"",""2091""
","
","","","1879","","","23","4536","1297","g","elianto","#f73b6a7A"," "," ","1","0","[2729.399999976158]","1","3","","","4536","147","3","3","lose","go","0"
"pit-trial","267","1618001","0.0-153.0","battery-v0.2","","""event"",""trial"",""time""
""fullscreenenter"",""1"",""2091""
","
","
","""event"",""trial"",""time""
""fullscreenenter"",""1"",""2091""
","
","","","-1","","","23","4536","1297","u","elianto","#f73b6a7A","-1","-1","1","-10","[]","0","3","","","4536","148","0","4","lose","no-go","1"
"pit-trial","268","1622871","0.0-154.0","battery-v0.2","","""event"",""trial"",""time""