"trial_type","trial_index","time_elapsed","internal_node_id","task_version","subject_id","interactions","blur_events","focus_events","fullscreenenter_events","fullscreenexit_events","success","view_history","rt","responses","num_errors","age","subject","participantId","rune","rune_set","hex","correct","choice","accuracy","outcome","keys","total_keys","block","practice","value","sub","trial","stimulus","robot","valence","action","sham"
"pavlovia","0","8","0.0-0.0","battery-v0.2","","""event"",""trial"",""time""
""fullscreenenter"",""1"",""3337""
","
","
","""event"",""trial"",""time""
""fullscreenenter"",""1"",""3337""
","
","","","","","","","","","","","","","","","","","","","","","","","","","","",""
"fullscreen","1","4318","0.0-1.0","battery-v0.2","","""event"",""trial"",""time""
""fullscreenenter"",""1"",""3337""
","
","
","""event"",""trial"",""time""
""fullscreenenter"",""1"",""3337""
","
","true","","","","","","","","","","","","","","","","","","","","","","","","","",""
"pit-instructions","2","12927","0.0-2.0-0.0","battery-v0.2","","""event"",""trial"",""time""
""fullscreenenter"",""1"",""3337""
","
","
","""event"",""trial"",""time""
""fullscreenenter"",""1"",""3337""
","
","","[{""page_index"":0,""viewing_time"":8600.199999928474}]","8600.799999952316","","","","","","","","","","","","","","","","","","","","","","","",""
"pit-comprehension","3","19343","0.0-2.0-1.0-0.0","battery-v0.2","","""event"",""trial"",""time""
""fullscreenenter"",""1"",""3337""
","
","
","""event"",""trial"",""time""
""fullscreenenter"",""1"",""3337""
","
","","","6407.199999928474","[""shark""]","0","19","4446","3112","","","","","","","","","","","","","","","","","","",""
"pit-instructions","4","21095","0.0-2.0-1.0-1.0","battery-v0.2","","""event"",""trial"",""time""
""fullscreenenter"",""1"",""3337""
","
","
","""event"",""trial"",""time""
""fullscreenenter"",""1"",""3337""
","
","","[{""page_index"":0,""viewing_time"":1725.2999999523163}]","1725.8999999761581","","","","","","","","","","","","","","","","","","","","","","","",""
"pit-comprehension","5","29101","0.0-2.0-2.0-0.0","battery-v0.2","","""event"",""trial"",""time""
""fullscreenenter"",""1"",""3337""
","
","
","""event"",""trial"",""time""
""fullscreenenter"",""1"",""3337""
","
","","","7999","[""tiger""]","0","19","4446","3112","","","","","","","","","","","","","","","","","","",""
"pit-instructions","6","32173","0.0-2.0-2.0-1.0","battery-v0.2","","""event"",""trial"",""time""
""fullscreenenter"",""1"",""3337""
","
","
","""event"",""trial"",""time""
""fullscreenenter"",""1"",""3337""
","
","","[{""page_index"":0,""viewing_time"":3067.7999999523163}]","3068.399999976158","","","","","","","","","","","","","","","","","","","","","","","",""
"pit-instructions","7","143139","0.0-2.0-3.0","battery-v0.2","","""event"",""trial"",""time""
""fullscreenenter"",""1"",""3337""
","
","
","""event"",""trial"",""time""
""fullscreenenter"",""1"",""3337""
","
","","[{""page_index"":0,""viewing_time"":11189.200000047684},{""page_index"":1,""viewing_time"":7552.199999928474},{""page_index"":2,""viewing_time"":7629.400000095367},{""page_index"":3,""viewing_time"":5558.599999904633},{""page_index"":4,""viewing_time"":5582.100000023842},{""page_index"":5,""viewing_time"":5430.700000047684},{""page_index"":6,""viewing_time"":7033.299999952316},{""page_index"":7,""viewing_time"":6397.399999976158},{""page_index"":8,""viewing_time"":8046},{""page_index"":9,""viewing_time"":16267.600000023842},{""page_index"":10,""viewing_time"":8620.5},{""page_index"":11,""viewing_time"":8456.399999976158},{""page_index"":12,""viewing_time"":8339.900000095367},{""page_index"":13,""viewing_time"":4856.099999904633}]","110960.39999997616","","","","","","","","","","","","","","","","","","","","","","","",""
"pit-trial","8","146883","0.0-2.0-4.0-0.0","battery-v0.2","","""event"",""trial"",""time""
""fullscreenenter"",""1"",""3337""
","
","
","""event"",""trial"",""time""
""fullscreenenter"",""1"",""3337""
","
","","","877.2000000476837","","","19","4446","3112","&#9784;","elianto","#FFFFF080"," "," ","1","&#10004","[1728.2000000476837]","1","0","0","","","","","","","",""
"pit-trial","9","150837","0.0-2.0-4.1-0.1","battery-v0.2","","""event"",""trial"",""time""
""fullscreenenter"",""1"",""3337""
","
","
","""event"",""trial"",""time""
""fullscreenenter"",""1"",""3337""
","
","","","1079.1999999284744","","","19","4446","3112","&#9784;","elianto","#FFFFF080"," "," ","1","&#10004","[1935.6000000238419]","1","0","0","","","","","","","",""
"pit-trial","10","154533","0.0-2.0-4.2-0.2","battery-v0.2","","""event"",""trial"",""time""
""fullscreenenter"",""1"",""3337""
","
","
","""event"",""trial"",""time""
""fullscreenenter"",""1"",""3337""
","
","","","833","","","19","4446","3112","&#9784;","elianto","#FFFFF080"," "," ","1","&#10004","[1686.7000000476837]","1","0","0","","","","","","","",""
"pit-trial","11","158303","0.0-2.0-4.3-0.3","battery-v0.2","","""event"",""trial"",""time""
""fullscreenenter"",""1"",""3337""
","
","
","""event"",""trial"",""time""
""fullscreenenter"",""1"",""3337""
","
","","","892.5","","","19","4446","3112","&#9784;","elianto","#FFFFF080"," "," ","1","&#10004","[1747.8999999761581]","1","0","0","","","","","","","",""
"pit-trial","12","161803","0.0-2.0-4.4-0.4","battery-v0.2","","""event"",""trial"",""time""
""fullscreenenter"",""1"",""3337""
","
","
","""event"",""trial"",""time""
""fullscreenenter"",""1"",""3337""
","
","","","626.7999999523163","","","19","4446","3112","&#9784;","elianto","#FFFFF080"," "," ","1","&#10004","[1478.2000000476837]","1","0","0","","","","","","","",""
"pit-instructions","13","188137","0.0-2.0-5.0","battery-v0.2","","""event"",""trial"",""time""
""fullscreenenter"",""1"",""3337""
","
","
","""event"",""trial"",""time""
""fullscreenenter"",""1"",""3337""
","
","","[{""page_index"":0,""viewing_time"":10616.800000071526},{""page_index"":1,""viewing_time"":5526.299999952316},{""page_index"":2,""viewing_time"":5064.100000023842},{""page_index"":3,""viewing_time"":5119.699999928474}]","26327.600000023842","","","","","","","","","","","","","","","","","","","","","","","",""
"pit-trial","14","193033","0.0-2.0-6.0-0.0","battery-v0.2","","""event"",""trial"",""time""
""fullscreenenter"",""1"",""3337""
","
","
","""event"",""trial"",""time""
""fullscreenenter"",""1"",""3337""
","
","","","-1","","","19","4446","3112","&#9854;","elianto","#FFFFF080","-1","-1","1","&#10004","[]","0","0","1","","","","","","","",""
"pit-trial","15","197922","0.0-2.0-6.1-0.1","battery-v0.2","","""event"",""trial"",""time""
""fullscreenenter"",""1"",""3337""
","
","
","""event"",""trial"",""time""
""fullscreenenter"",""1"",""3337""
","
","","","-1","","","19","4446","3112","&#9854;","elianto","#FFFFF080","-1","-1","1","&#10004","[]","0","0","1","","","","","","","",""
"pit-trial","16","202802","0.0-2.0-6.2-0.2","battery-v0.2","","""event"",""trial"",""time""
""fullscreenenter"",""1"",""3337""
","
","
","""event"",""trial"",""time""
""fullscreenenter"",""1"",""3337""
","
","","","-1","","","19","4446","3112","&#9854;","elianto","#FFFFF080","-1","-1","1","&#10004","[]","0","0","1","","","","","","","",""
"pit-trial","17","207693","0.0-2.0-6.3-0.3","battery-v0.2","","""event"",""trial"",""time""
""fullscreenenter"",""1"",""3337""
","
","
","""event"",""trial"",""time""
""fullscreenenter"",""1"",""3337""
","
","","","-1","","","19","4446","3112","&#9854;","elianto","#FFFFF080","-1","-1","1","&#10004","[]","0","0","1","","","","","","","",""
"pit-trial","18","212564","0.0-2.0-6.4-0.4","battery-v0.2","","""event"",""trial"",""time""
""fullscreenenter"",""1"",""3337""
","
","
","""event"",""trial"",""time""
""fullscreenenter"",""1"",""3337""
","
","","","-1","","","19","4446","3112","&#9854;","elianto","#FFFFF080","-1","-1","1","&#10004","[]","0","0","1","","","","","","","",""
"pit-instructions","19","388578","0.0-2.0-7.0","battery-v0.2","","""event"",""trial"",""time""
""fullscreenenter"",""1"",""3337""
","
","
","""event"",""trial"",""time""
""fullscreenenter"",""1"",""3337""
","
","","[{""page_index"":0,""viewing_time"":6359.599999904633},{""page_index"":1,""viewing_time"":6901.600000023842},{""page_index"":2,""viewing_time"":5694.700000047684},{""page_index"":3,""viewing_time"":12013.5},{""page_index"":4,""viewing_time"":46608.60000002384},{""page_index"":5,""viewing_time"":5797.5},{""page_index"":6,""viewing_time"":4541.799999952316},{""page_index"":7,""viewing_time"":8392.299999952316},{""page_index"":8,""viewing_time"":8036.400000095367},{""page_index"":9,""viewing_time"":9975.5},{""page_index"":10,""viewing_time"":7441.899999976158},{""page_index"":11,""viewing_time"":5162.299999952316},{""page_index"":12,""viewing_time"":9959.5},{""page_index"":13,""viewing_time"":8450.5},{""page_index"":14,""viewing_time"":9061.600000023842},{""page_index"":15,""viewing_time"":7938.200000047684},{""page_index"":16,""viewing_time"":6288},{""page_index"":17,""viewing_time"":7385.699999928474}]","176010","","","","","","","","","","","","","","","","","","","","","","","",""
"pit-trial","20","393024","0.0-2.0-8.0-0.0","battery-v0.2","","""event"",""trial"",""time""
""fullscreenenter"",""1"",""3337""
","
","
","""event"",""trial"",""time""
""fullscreenenter"",""1"",""3337""
","
","","","1572.8999999761581","","","19","4446","3112","&#9776;","elianto","#3366ff99"," "," ","1","+10","[2431.899999976158]","1","0","1","","","","","","","",""
"pit-trial","21","397274","0.0-2.0-8.0-1.0","battery-v0.2","","""event"",""trial"",""time""
""fullscreenenter"",""1"",""3337""
","
","
","""event"",""trial"",""time""
""fullscreenenter"",""1"",""3337""
","
","","","1383.7999999523163","","","19","4446","3112","&#9776;","elianto","#3366ff99"," "," ","1","+10","[2234.3000000715256]","1","0","1","","","","","","","",""
"pit-trial","22","401234","0.0-2.0-8.0-2.0","battery-v0.2","","""event"",""trial"",""time""
""fullscreenenter"",""1"",""3337""
","
","
","""event"",""trial"",""time""
""fullscreenenter"",""1"",""3337""
","
","","","1082.5999999046326","","","19","4446","3112","&#9776;","elianto","#3366ff99"," "," ","1","+10","[1938.8999999761581]","1","0","1","","","","","","","",""
"pit-trial","23","404854","0.0-2.0-8.0-3.0","battery-v0.2","","""event"",""trial"",""time""
""fullscreenenter"",""1"",""3337""
","
","
","""event"",""trial"",""time""
""fullscreenenter"",""1"",""3337""
","
","","","764.5","","","19","4446","3112","&#9776;","elianto","#3366ff99"," "," ","1","0","[1614.7999999523163]","1","0","1","","","","","","","",""
"pit-trial","24","409744","0.0-2.0-8.0-4.0","battery-v0.2","","""event"",""trial"",""time""
""fullscreenenter"",""1"",""3337""
","
","
","""event"",""trial"",""time""
""fullscreenenter"",""1"",""3337""
","
","","","-1","","","19","4446","3112","&#9776;","elianto","#3366ff99"," ","-1","0","0","[]","0","0","1","","","","","","","",""
"pit-trial","25","413594","0.0-2.0-8.1-0.1","battery-v0.2","","""event"",""trial"",""time""
""fullscreenenter"",""1"",""3337""
","
","
","""event"",""trial"",""time""
""fullscreenenter"",""1"",""3337""
","
","","","977.7000000476837","","","19","4446","3112","&#9776;","elianto","#3366ff99"," "," ","1","+10","[1831.1000000238419]","1","0","1","","","","","","","",""
"pit-trial","26","417634","0.0-2.0-8.1-1.1","battery-v0.2","","""event"",""trial"",""time""
""fullscreenenter"",""1"",""3337""
","
","
","""event"",""trial"",""time""
""fullscreenenter"",""1"",""3337""
","
","","","1176","","","19","4446","3112","&#9776;","elianto","#3366ff99"," "," ","1","+10","[2029.3999999761581]","1","0","1","","","","","","","",""
"pit-trial","27","422505","0.0-2.0-8.1-2.1","battery-v0.2","","""event"",""trial"",""time""
""fullscreenenter"",""1"",""3337""
","
","
","""event"",""trial"",""time""
""fullscreenenter"",""1"",""3337""
","
","","","-1","","","19","4446","3112","&#9776;","elianto","#3366ff99"," ","-1","0","0","[]","0","0","1","","","","","","","",""
"pit-trial","28","427371","0.0-2.0-8.1-3.1","battery-v0.2","","""event"",""trial"",""time""
""fullscreenenter"",""1"",""3337""
","
","
","""event"",""trial"",""time""
""fullscreenenter"",""1"",""3337""
","
","","","-1","","","19","4446","3112","&#9776;","elianto","#3366ff99"," ","-1","0","+10","[]","0","0","1","","","","","","","",""
"pit-trial","29","431637","0.0-2.0-8.1-4.1","battery-v0.2","","""event"",""trial"",""time""
""fullscreenenter"",""1"",""3337""
","
","
","""event"",""trial"",""time""
""fullscreenenter"",""1"",""3337""
","
","","","1404.2999999523163","","","19","4446","3112","&#9776;","elianto","#3366ff99"," "," ","1","+10","[2258.100000023842]","1","0","1","","","","","","","",""
"pit-trial","30","436507","0.0-2.0-8.2-0.2","battery-v0.2","","""event"",""trial"",""time""
""fullscreenenter"",""1"",""3337""
","
","
","""event"",""trial"",""time""
""fullscreenenter"",""1"",""3337""
","
","","","-1","","","19","4446","3112","&#9776;","elianto","#3366ff99"," ","-1","0","0","[]","0","0","1","","","","","","","",""
"pit-trial","31","440261","0.0-2.0-8.2-1.2","battery-v0.2","","""event"",""trial"",""time""
""fullscreenenter"",""1"",""3337""
","
","
","""event"",""trial"",""time""
""fullscreenenter"",""1"",""3337""
","
","","","894.5","","","19","4446","3112","&#9776;","elianto","#3366ff99"," "," ","1","+10","[1746.2999999523163]","1","0","1","","","","","","","",""
"pit-trial","32","444399","0.0-2.0-8.2-2.2","battery-v0.2","","""event"",""trial"",""time""
""fullscreenenter"",""1"",""3337""
","
","
","""event"",""trial"",""time""
""fullscreenenter"",""1"",""3337""
","
","","","1267","","","19","4446","3112","&#9776;","elianto","#3366ff99"," "," ","1","+10","[2126.5]","1","0","1","","","","","","","",""
"pit-trial","33","448524","0.0-2.0-8.2-3.2","battery-v0.2","","""event"",""trial"",""time""
""fullscreenenter"",""1"",""3337""
","
","
","""event"",""trial"",""time""
""fullscreenenter"",""1"",""3337""
","
","","","1258.8000000715256","","","19","4446","3112","&#9776;","elianto","#3366ff99"," "," ","1","0","[2112.600000023842]","1","0","1","","","","","","","",""
"pit-trial","34","452580","0.0-2.0-8.2-4.2","battery-v0.2","","""event"",""trial"",""time""
""fullscreenenter"",""1"",""3337""
","
","
","""event"",""trial"",""time""
""fullscreenenter"",""1"",""3337""
","
","","","1187.1000000238419","","","19","4446","3112","&#9776;","elianto","#3366ff99"," "," ","1","+10","[2042.7000000476837]","1","0","1","","","","","","","",""
"call-function","35","452583","0.0-2.0-9.0","battery-v0.2","","""event"",""trial"",""time""
""fullscreenenter"",""1"",""3337""
","
","
","""event"",""trial"",""time""
""fullscreenenter"",""1"",""3337""
","
","","","","","","","","","","","","","","","","","","","","","","","","","","",""
"pit-instructions","36","501024","0.0-2.0-10.0","battery-v0.2","","""event"",""trial"",""time""
""fullscreenenter"",""1"",""3337""
","
","
","""event"",""trial"",""time""
""fullscreenenter"",""1"",""3337""
","
","","[{""page_index"":0,""viewing_time"":12776.899999976158},{""page_index"":1,""viewing_time"":6912.600000023842},{""page_index"":2,""viewing_time"":11235.600000023842},{""page_index"":3,""viewing_time"":9848.199999928474},{""page_index"":4,""viewing_time"":7663.300000071526}]","48437.299999952316","","","","","","","","","","","","","","","","","","","","","","","",""
"pit-trial","37","505168","0.0-2.0-11.0-0.0","battery-v0.2","","""event"",""trial"",""time""
""fullscreenenter"",""1"",""3337""
","
","
","""event"",""trial"",""time""
""fullscreenenter"",""1"",""3337""
","
","","","1268.3000000715256","","","19","4446","3112","&#9761;","elianto","#3366ff99","-1"," ","0","0","[2118.8000000715256]","1","0","2","","","","","","","",""
"pit-trial","38","508397","0.0-2.0-11.0-1.0","battery-v0.2","","""event"",""trial"",""time""
""fullscreenenter"",""1"",""3337""
","
","
","""event"",""trial"",""time""
""fullscreenenter"",""1"",""3337""
","
","","","357.39999997615814","","","19","4446","3112","&#9761;","elianto","#3366ff99","-1"," ","0","0","[1210.1999999284744]","1","0","2","","","","","","","",""
"pit-trial","39","511592","0.0-2.0-11.0-2.0","battery-v0.2","","""event"",""trial"",""time""
""fullscreenenter"",""1"",""3337""
","
","
","""event"",""trial"",""time""
""fullscreenenter"",""1"",""3337""
","
","","","323.39999997615814","","","19","4446","3112","&#9761;","elianto","#3366ff99","-1"," ","0","0","[1178.7999999523163]","1","0","2","","","","","","","",""
"pit-trial","40","516468","0.0-2.0-11.0-3.0","battery-v0.2","","""event"",""trial"",""time""
""fullscreenenter"",""1"",""3337""
","
","
","""event"",""trial"",""time""
""fullscreenenter"",""1"",""3337""
","
","","","-1","","","19","4446","3112","&#9761;","elianto","#3366ff99","-1","-1","1","0","[]","0","0","2","","","","","","","",""
"pit-trial","41","521347","0.0-2.0-11.0-4.0","battery-v0.2","","""event"",""trial"",""time""
""fullscreenenter"",""1"",""3337""
","
","
","""event"",""trial"",""time""
""fullscreenenter"",""1"",""3337""
","
","","","-1","","","19","4446","3112","&#9761;","elianto","#3366ff99","-1","-1","1","+10","[]","0","0","2","","","","","","","",""
"pit-trial","42","526237","0.0-2.0-11.1-0.1","battery-v0.2","","""event"",""trial"",""time""
""fullscreenenter"",""1"",""3337""
","
","
","""event"",""trial"",""time""
""fullscreenenter"",""1"",""3337""
","
","","","-1","","","19","4446","3112","&#9761;","elianto","#3366ff99","-1","-1","1","+10","[]","0","0","2","","","","","","","",""
"pit-trial","43","530467","0.0-2.0-11.1-1.1","battery-v0.2","","""event"",""trial"",""time""
""fullscreenenter"",""1"",""3337""
","
","
","""event"",""trial"",""time""
""fullscreenenter"",""1"",""3337""
","
","","","1349.1000000238419","","","19","4446","3112","&#9761;","elianto","#3366ff99","-1"," ","0","0","[2208.5]","1","0","2","","","","","","","",""
"pit-trial","44","533957","0.0-2.0-11.1-2.1","battery-v0.2","","""event"",""trial"",""time""
""fullscreenenter"",""1"",""3337""
","
","
","""event"",""trial"",""time""
""fullscreenenter"",""1"",""3337""
","
","","","630.6000000238419","","","19","4446","3112","&#9761;","elianto","#3366ff99","-1"," ","0","0","[1480.6999999284744]","1","0","2","","","","","","","",""
"pit-trial","45","537262","0.0-2.0-11.1-3.1","battery-v0.2","","""event"",""trial"",""time""
""fullscreenenter"",""1"",""3337""
","
","
","""event"",""trial"",""time""
""fullscreenenter"",""1"",""3337""
","
","","","442.5","","","19","4446","3112","&#9761;","elianto","#3366ff99","-1"," ","0","+10","[1296.8999999761581]","1","0","2","","","","","","","",""
"pit-trial","46","542135","0.0-2.0-11.1-4.1","battery-v0.2","","""event"",""trial"",""time""
""fullscreenenter"",""1"",""3337""
","
","
","""event"",""trial"",""time""
""fullscreenenter"",""1"",""3337""
","
","","","-1","","","19","4446","3112","&#9761;","elianto","#3366ff99","-1","-1","1","+10","[]","0","0","2","","","","","","","",""
"pit-trial","47","545892","0.0-2.0-11.2-0.2","battery-v0.2","","""event"",""trial"",""time""
""fullscreenenter"",""1"",""3337""
","
","
","""event"",""trial"",""time""
""fullscreenenter"",""1"",""3337""
","
","","","892.7999999523163","","","19","4446","3112","&#9761;","elianto","#3366ff99","-1"," ","0","0","[1748.3999999761581]","1","0","2","","","","","","","",""
"pit-trial","48","549459","0.0-2.0-11.2-1.2","battery-v0.2","","""event"",""trial"",""time""
""fullscreenenter"",""1"",""3337""
","
","
","""event"",""trial"",""time""
""fullscreenenter"",""1"",""3337""
","
","","","706","","","19","4446","3112","&#9761;","elianto","#3366ff99","-1"," ","0","0","[1558.3000000715256]","1","0","2","","","","","","","",""
"pit-trial","49","552957","0.0-2.0-11.2-2.2","battery-v0.2","","""event"",""trial"",""time""
""fullscreenenter"",""1"",""3337""
","
","
","""event"",""trial"",""time""
""fullscreenenter"",""1"",""3337""
","
","","","627.8999999761581","","","19","4446","3112","&#9761;","elianto","#3366ff99","-1"," ","0","0","[1484.2999999523163]","1","0","2","","","","","","","",""
"pit-trial","50","556555","0.0-2.0-11.2-3.2","battery-v0.2","","""event"",""trial"",""time""
""fullscreenenter"",""1"",""3337""
","
","
","""event"",""trial"",""time""
""fullscreenenter"",""1"",""3337""
","
","","","737.2000000476837","","","19","4446","3112","&#9761;","elianto","#3366ff99","-1"," ","0","+10","[1589.2999999523163]","1","0","2","","","","","","","",""
"pit-trial","51","560181","0.0-2.0-11.2-4.2","battery-v0.2","","""event"",""trial"",""time""
""fullscreenenter"",""1"",""3337""
","
","
","""event"",""trial"",""time""
""fullscreenenter"",""1"",""3337""
","
","","","760.1000000238419","","","19","4446","3112","&#9761;","elianto","#3366ff99","-1"," ","0","0","[1612.1000000238419]","1","0","2","","","","","","","",""
"pit-trial","52","563564","0.0-2.0-11.3-0.3","battery-v0.2","","""event"",""trial"",""time""
""fullscreenenter"",""1"",""3337""
","
","
","""event"",""trial"",""time""
""fullscreenenter"",""1"",""3337""
","
","","","516.2999999523163","","","19","4446","3112","&#9761;","elianto","#3366ff99","-1"," ","0","0","[1371.1999999284744]","1","0","2","","","","","","","",""
"pit-trial","53","568435","0.0-2.0-11.3-1.3","battery-v0.2","","""event"",""trial"",""time""
""fullscreenenter"",""1"",""3337""
","
","
","""event"",""trial"",""time""
""fullscreenenter"",""1"",""3337""
","
","","","-1","","","19","4446","3112","&#9761;","elianto","#3366ff99","-1","-1","1","+10","[]","0","0","2","","","","","","","",""
"pit-trial","54","573303","0.0-2.0-11.3-2.3","battery-v0.2","","""event"",""trial"",""time""
""fullscreenenter"",""1"",""3337""
","
","
","""event"",""trial"",""time""
""fullscreenenter"",""1"",""3337""
","
","","","-1","","","19","4446","3112","&#9761;","elianto","#3366ff99","-1","-1","1","+10","[3086.899999976158]","1","0","2","","","","","","","",""
"pit-trial","55","577550","0.0-2.0-11.3-3.3","battery-v0.2","","""event"",""trial"",""time""
""fullscreenenter"",""1"",""3337""
","
","
","""event"",""trial"",""time""
""fullscreenenter"",""1"",""3337""
","
","","","1386.3999999761581","","","19","4446","3112","&#9761;","elianto","#3366ff99","-1"," ","0","+10","[2236.7000000476837]","1","0","2","","","","","","","",""
"pit-trial","56","582414","0.0-2.0-11.3-4.3","battery-v0.2","","""event"",""trial"",""time""
""fullscreenenter"",""1"",""3337""
","
","
","""event"",""trial"",""time""
""fullscreenenter"",""1"",""3337""
","
","","","-1","","","19","4446","3112","&#9761;","elianto","#3366ff99","-1","-1","1","+10","[]","0","0","2","","","","","","","",""
"call-function","57","582417","0.0-2.0-12.0","battery-v0.2","","""event"",""trial"",""time""
""fullscreenenter"",""1"",""3337""
","
","
","""event"",""trial"",""time""
""fullscreenenter"",""1"",""3337""
","
","","","","","","","","","","","","","","","","","","","","","","","","","","",""
"pit-instructions","58","630944","0.0-2.0-13.0","battery-v0.2","","""event"",""trial"",""time""
""fullscreenenter"",""1"",""3337""
","
","
","""event"",""trial"",""time""
""fullscreenenter"",""1"",""3337""
","
","","[{""page_index"":0,""viewing_time"":6554.399999976158},{""page_index"":1,""viewing_time"":7239.700000047684},{""page_index"":2,""viewing_time"":3928},{""page_index"":3,""viewing_time"":24673.699999928474},{""page_index"":4,""viewing_time"":6128.100000023842}]","48524.799999952316","","","","","","","","","","","","","","","","","","","","","","","",""
"pit-trial","59","634952","0.0-2.0-14.0-0.0","battery-v0.2","","""event"",""trial"",""time""
""fullscreenenter"",""1"",""3337""
","
","
","""event"",""trial"",""time""
""fullscreenenter"",""1"",""3337""
","
","","","1132.7000000476837","","","19","4446","3112","&#9826;","elianto","#f73b6a7A","-1"," ","0","-10","[1988.6000000238419]","1","0","3","","","","","","","",""
"pit-trial","60","639842","0.0-2.0-14.0-1.0","battery-v0.2","","""event"",""trial"",""time""
""fullscreenenter"",""1"",""3337""
","
","
","""event"",""trial"",""time""
""fullscreenenter"",""1"",""3337""
","
","","","-1","","","19","4446","3112","&#9826;","elianto","#f73b6a7A","-1","-1","1","0","[]","0","0","3","","","","","","","",""
"pit-trial","61","644712","0.0-2.0-14.0-2.0","battery-v0.2","","""event"",""trial"",""time""
""fullscreenenter"",""1"",""3337""
","
","
","""event"",""trial"",""time""
""fullscreenenter"",""1"",""3337""
","
","","","-1","","","19","4446","3112","&#9826;","elianto","#f73b6a7A","-1","-1","1","0","[]","0","0","3","","","","","","","",""
"pit-trial","62","649612","0.0-2.0-14.0-3.0","battery-v0.2","","""event"",""trial"",""time""
""fullscreenenter"",""1"",""3337""
","
","
","""event"",""trial"",""time""
""fullscreenenter"",""1"",""3337""
","
","","","-1","","","19","4446","3112","&#9826;","elianto","#f73b6a7A","-1","-1","1","-10","[]","0","0","3","","","","","","","",""
"pit-trial","63","653541","0.0-2.0-14.0-4.0","battery-v0.2","","""event"",""trial"",""time""
""fullscreenenter"",""1"",""3337""
","
","
","""event"",""trial"",""time""
""fullscreenenter"",""1"",""3337""
","
","","","1048.6999999284744","","","19","4446","3112","&#9826;","elianto","#f73b6a7A","-1"," ","0","-10","[1900.6999999284744]","1","0","3","","","","","","","",""
"pit-trial","64","657881","0.0-2.0-14.1-0.1","battery-v0.2","","""event"",""trial"",""time""
""fullscreenenter"",""1"",""3337""
","
","
","""event"",""trial"",""time""
""fullscreenenter"",""1"",""3337""
","
","","","1472.2999999523163","","","19","4446","3112","&#9826;","elianto","#f73b6a7A","-1"," ","0","-10","[2326.7999999523163]","1","0","3","","","","","","","",""
"pit-trial","65","662487","0.0-2.0-14.1-1.1","battery-v0.2","","""event"",""trial"",""time""
""fullscreenenter"",""1"",""3337""
","
","
","""event"",""trial"",""time""
""fullscreenenter"",""1"",""3337""
","
","","","1734.5","","","19","4446","3112","&#9826;","elianto","#f73b6a7A","-1"," ","0","-10","[2591]","1","0","3","","","","","","","",""
"pit-trial","66","667359","0.0-2.0-14.1-2.1","battery-v0.2","","""event"",""trial"",""time""
""fullscreenenter"",""1"",""3337""
","
","
","""event"",""trial"",""time""
""fullscreenenter"",""1"",""3337""
","
","","","-1","","","19","4446","3112","&#9826;","elianto","#f73b6a7A","-1","-1","1","0","[]","0","0","3","","","","","","","",""
"pit-trial","67","672231","0.0-2.0-14.1-3.1","battery-v0.2","","""event"",""trial"",""time""
""fullscreenenter"",""1"",""3337""
","
","
","""event"",""trial"",""time""
""fullscreenenter"",""1"",""3337""
","
","","","-1","","","19","4446","3112","&#9826;","elianto","#f73b6a7A","-1","-1","1","-10","[]","0","0","3","","","","","","","",""
"pit-trial","68","676507","0.0-2.0-14.1-4.1","battery-v0.2","","""event"",""trial"",""time""
""fullscreenenter"",""1"",""3337""
","
","
","""event"",""trial"",""time""
""fullscreenenter"",""1"",""3337""
","
","","","1410.1999999284744","","","19","4446","3112","&#9826;","elianto","#f73b6a7A","-1"," ","0","-10","[2266]","1","0","3","","","","","","","",""
"pit-trial","69","680516","0.0-2.0-14.2-0.2","battery-v0.2","","""event"",""trial"",""time""
""fullscreenenter"",""1"",""3337""
","
","
","""event"",""trial"",""time""
""fullscreenenter"",""1"",""3337""
","
","","","1148.0999999046326","","","19","4446","3112","&#9826;","elianto","#f73b6a7A","-1"," ","0","-10","[2002.2999999523163]","1","0","3","","","","","","","",""
"pit-trial","70","684446","0.0-2.0-14.2-1.2","battery-v0.2","","""event"",""trial"",""time""
""fullscreenenter"",""1"",""3337""
","
","
","""event"",""trial"",""time""
""fullscreenenter"",""1"",""3337""
","
","","","1066.6000000238419","","","19","4446","3112","&#9826;","elianto","#f73b6a7A","-1"," ","0","-10","[1917.9000000953674]","1","0","3","","","","","","","",""
"pit-trial","71","689327","0.0-2.0-14.2-2.2","battery-v0.2","","""event"",""trial"",""time""
""fullscreenenter"",""1"",""3337""
","
","
","""event"",""trial"",""time""
""fullscreenenter"",""1"",""3337""
","
","","","-1","","","19","4446","3112","&#9826;","elianto","#f73b6a7A","-1","-1","1","0","[]","0","0","3","","","","","","","",""
"pit-trial","72","694208","0.0-2.0-14.2-3.2","battery-v0.2","","""event"",""trial"",""time""
""fullscreenenter"",""1"",""3337""
","
","
","""event"",""trial"",""time""
""fullscreenenter"",""1"",""3337""
","
","","","-1","","","19","4446","3112","&#9826;","elianto","#f73b6a7A","-1","-1","1","-10","[]","0","0","3","","","","","","","",""
"pit-trial","73","699080","0.0-2.0-14.2-4.2","battery-v0.2","","""event"",""trial"",""time""
""fullscreenenter"",""1"",""3337""
","
","
","""event"",""trial"",""time""
""fullscreenenter"",""1"",""3337""
","
","","","-1","","","19","4446","3112","&#9826;","elianto","#f73b6a7A","-1","-1","1","0","[]","0","0","3","","","","","","","",""
"pit-trial","74","702110","0.0-2.0-14.3-0.3","battery-v0.2","","""event"",""trial"",""time""
""fullscreenenter"",""1"",""3337""
","
","
","""event"",""trial"",""time""
""fullscreenenter"",""1"",""3337""
","
","","","169.30000007152557","","","19","4446","3112","&#9826;","elianto","#f73b6a7A","-1"," ","0","-10","[1021.6000000238419]","1","0","3","","","","","","","",""
"pit-trial","75","705988","0.0-2.0-14.3-1.3","battery-v0.2","","""event"",""trial"",""time""
""fullscreenenter"",""1"",""3337""
","
","
","""event"",""trial"",""time""
""fullscreenenter"",""1"",""3337""
","
","","","1018.7999999523163","","","19","4446","3112","&#9826;","elianto","#f73b6a7A","-1"," ","0","-10","[1870.6000000238419]","1","0","3","","","","","","","",""
"pit-trial","76","709949","0.0-2.0-14.3-2.3","battery-v0.2","","""event"",""trial"",""time""
""fullscreenenter"",""1"",""3337""
","
","
","""event"",""trial"",""time""
""fullscreenenter"",""1"",""3337""
","
","","","1085.3999999761581","","","19","4446","3112","&#9826;","elianto","#f73b6a7A","-1"," ","0","-10","[1939.2999999523163]","1","0","3","","","","","","","",""
"pit-trial","77","714828","0.0-2.0-14.3-3.3","battery-v0.2","","""event"",""trial"",""time""
""fullscreenenter"",""1"",""3337""
","
","
","""event"",""trial"",""time""
""fullscreenenter"",""1"",""3337""
","
","","","-1","","","19","4446","3112","&#9826;","elianto","#f73b6a7A","-1","-1","1","-10","[]","0","0","3","","","","","","","",""
"pit-trial","78","719698","0.0-2.0-14.3-4.3","battery-v0.2","","""event"",""trial"",""time""
""fullscreenenter"",""1"",""3337""
","
","
","""event"",""trial"",""time""
""fullscreenenter"",""1"",""3337""
","
","","","-1","","","19","4446","3112","&#9826;","elianto","#f73b6a7A","-1","-1","1","0","[]","0","0","3","","","","","","","",""
"call-function","79","719701","0.0-2.0-15.0","battery-v0.2","","""event"",""trial"",""time""
""fullscreenenter"",""1"",""3337""
","
","
","""event"",""trial"",""time""
""fullscreenenter"",""1"",""3337""
","
","","","","","","","","","","","","","","","","","","","","","","","","","","",""
"pit-instructions","80","747147","0.0-2.0-16.0","battery-v0.2","","""event"",""trial"",""time""
""fullscreenenter"",""1"",""3337""
","
","
","""event"",""trial"",""time""
""fullscreenenter"",""1"",""3337""
","
","","[{""page_index"":0,""viewing_time"":8839.200000047684},{""page_index"":1,""viewing_time"":8570.200000047684},{""page_index"":2,""viewing_time"":4886.199999928474},{""page_index"":3,""viewing_time"":5149.700000047684}]","27446.200000047684","","","","","","","","","","","","","","","","","","","","","","","",""
"pit-trial","81","752021","0.0-2.0-17.0-0.0","battery-v0.2","","""event"",""trial"",""time""
""fullscreenenter"",""1"",""3337""
","
","
","""event"",""trial"",""time""
""fullscreenenter"",""1"",""3337""
","
","","","-1","","","19","4446","3112","&#9789;","elianto","#f73b6a7A"," ","-1","0","-10","[]","0","0","4","","","","","","","",""
"pit-trial","82","756911","0.0-2.0-17.0-1.0","battery-v0.2","","""event"",""trial"",""time""
""fullscreenenter"",""1"",""3337""
","
","
","""event"",""trial"",""time""
""fullscreenenter"",""1"",""3337""
","
","","","-1","","","19","4446","3112","&#9789;","elianto","#f73b6a7A"," ","-1","0","-10","[]","0","0","4","","","","","","","",""
"pit-trial","83","761781","0.0-2.0-17.0-2.0","battery-v0.2","","""event"",""trial"",""time""
""fullscreenenter"",""1"",""3337""
","
","
","""event"",""trial"",""time""
""fullscreenenter"",""1"",""3337""
","
","","","-1","","","19","4446","3112","&#9789;","elianto","#f73b6a7A"," ","-1","0","-10","[]","0","0","4","","","","","","","",""
"pit-trial","84","766671","0.0-2.0-17.0-3.0","battery-v0.2","","""event"",""trial"",""time""
""fullscreenenter"",""1"",""3337""
","
","
","""event"",""trial"",""time""
""fullscreenenter"",""1"",""3337""
","
","","","-1","","","19","4446","3112","&#9789;","elianto","#f73b6a7A"," ","-1","0","0","[]","0","0","4","","","","","","","",""
"pit-trial","85","771541","0.0-2.0-17.0-4.0","battery-v0.2","","""event"",""trial"",""time""
""fullscreenenter"",""1"",""3337""
","
","
","""event"",""trial"",""time""
""fullscreenenter"",""1"",""3337""
","
","","","-1","","","19","4446","3112","&#9789;","elianto","#f73b6a7A"," ","-1","0","-10","[]","0","0","4","","","","","","","",""
"pit-trial","86","775361","0.0-2.0-17.1-0.1","battery-v0.2","","""event"",""trial"",""time""
""fullscreenenter"",""1"",""3337""
","
","
","""event"",""trial"",""time""
""fullscreenenter"",""1"",""3337""
","
","","","942.3999999761581","","","19","4446","3112","&#9789;","elianto","#f73b6a7A"," "," ","1","0","[1794]","1","0","4","","","","","","","",""
"pit-trial","87","779361","0.0-2.0-17.1-1.1","battery-v0.2","","""event"",""trial"",""time""
""fullscreenenter"",""1"",""3337""
","
","
","""event"",""trial"",""time""
""fullscreenenter"",""1"",""3337""
","
","","","1141.8000000715256","","","19","4446","3112","&#9789;","elianto","#f73b6a7A"," "," ","1","0","[1994.8999999761581]","1","0","4","","","","","","","",""
"pit-trial","88","784227","0.0-2.0-17.1-2.1","battery-v0.2","","""event"",""trial"",""time""
""fullscreenenter"",""1"",""3337""
","
","
","""event"",""trial"",""time""
""fullscreenenter"",""1"",""3337""
","
","","","-1","","","19","4446","3112","&#9789;","elianto","#f73b6a7A"," ","-1","0","-10","[]","0","0","4","","","","","","","",""
"pit-trial","89","787500","0.0-2.0-17.1-3.1","battery-v0.2","","""event"",""trial"",""time""
""fullscreenenter"",""1"",""3337""
","
","
","""event"",""trial"",""time""
""fullscreenenter"",""1"",""3337""
","
","","","410.2000000476837","","","19","4446","3112","&#9789;","elianto","#f73b6a7A"," "," ","1","-10","[1262.8000000715256]","1","0","4","","","","","","","",""
"pit-trial","90","791373","0.0-2.0-17.1-4.1","battery-v0.2","","""event"",""trial"",""time""
""fullscreenenter"",""1"",""3337""
","
","
","""event"",""trial"",""time""
""fullscreenenter"",""1"",""3337""
","
","","","1013.3999999761581","","","19","4446","3112","&#9789;","elianto","#f73b6a7A"," "," ","1","0","[1865.3999999761581]","1","0","4","","","","","","","",""
"pit-trial","91","795402","0.0-2.0-17.2-0.2","battery-v0.2","","""event"",""trial"",""time""
""fullscreenenter"",""1"",""3337""
","
","
","""event"",""trial"",""time""
""fullscreenenter"",""1"",""3337""
","
","","","1160.3999999761581","","","19","4446","3112","&#9789;","elianto","#f73b6a7A"," "," ","1","0","[2021.1999999284744]","1","0","4","","","","","","","",""
"pit-trial","92","799396","0.0-2.0-17.2-1.2","battery-v0.2","","""event"",""trial"",""time""
""fullscreenenter"",""1"",""3337""
","
","
","""event"",""trial"",""time""
""fullscreenenter"",""1"",""3337""
","
","","","1132.1000000238419","","","19","4446","3112","&#9789;","elianto","#f73b6a7A"," "," ","1","0","[1983.8000000715256]","1","0","4","","","","","","","",""
"pit-trial","93","803412","0.0-2.0-17.2-2.2","battery-v0.2","","""event"",""trial"",""time""
""fullscreenenter"",""1"",""3337""
","
","
","""event"",""trial"",""time""
""fullscreenenter"",""1"",""3337""
","
","","","1147.5","","","19","4446","3112","&#9789;","elianto","#f73b6a7A"," "," ","1","0","[1999.1000000238419]","1","0","4","","","","","","","",""
"pit-trial","94","807384","0.0-2.0-17.2-3.2","battery-v0.2","","""event"",""trial"",""time""
""fullscreenenter"",""1"",""3337""
","
","
","""event"",""trial"",""time""
""fullscreenenter"",""1"",""3337""
","
","","","1108.2000000476837","","","19","4446","3112","&#9789;","elianto","#f73b6a7A"," "," ","1","-10","[1959.5]","1","0","4","","","","","","","",""
"pit-trial","95","811358","0.0-2.0-17.2-4.2","battery-v0.2","","""event"",""trial"",""time""
""fullscreenenter"",""1"",""3337""
","
","
","""event"",""trial"",""time""
""fullscreenenter"",""1"",""3337""
","
","","","1113.2999999523163","","","19","4446","3112","&#9789;","elianto","#f73b6a7A"," "," ","1","0","[1963.3999999761581]","1","0","4","","","","","","","",""
"pit-trial","96","815380","0.0-2.0-17.3-0.3","battery-v0.2","","""event"",""trial"",""time""
""fullscreenenter"",""1"",""3337""
","
","
","""event"",""trial"",""time""
""fullscreenenter"",""1"",""3337""
","
","","","1158.5","","","19","4446","3112","&#9789;","elianto","#f73b6a7A"," "," ","1","0","[2012.1999999284744]","1","0","4","","","","","","","",""
"pit-trial","97","819442","0.0-2.0-17.3-1.3","battery-v0.2","","""event"",""trial"",""time""
""fullscreenenter"",""1"",""3337""
","
","
","""event"",""trial"",""time""
""fullscreenenter"",""1"",""3337""
","
","","","1204.8000000715256","","","19","4446","3112","&#9789;","elianto","#f73b6a7A"," "," ","1","0","[2056.5]","1","0","4","","","","","","","",""
"pit-trial","98","823029","0.0-2.0-17.3-2.3","battery-v0.2","","""event"",""trial"",""time""
""fullscreenenter"",""1"",""3337""
","
","
","""event"",""trial"",""time""
""fullscreenenter"",""1"",""3337""
","
","","","726.6999999284744","","","19","4446","3112","&#9789;","elianto","#f73b6a7A"," "," ","1","0","[1577.8999999761581]","1","0","4","","","","","","","",""
"pit-trial","99","826741","0.0-2.0-17.3-3.3","battery-v0.2","","""event"",""trial"",""time""
""fullscreenenter"",""1"",""3337""
","
","
","""event"",""trial"",""time""
""fullscreenenter"",""1"",""3337""
","
","","","835.5","","","19","4446","3112","&#9789;","elianto","#f73b6a7A"," "," ","1","-10","[1697.1000000238419]","1","0","4","","","","","","","",""
"pit-trial","100","830411","0.0-2.0-17.3-4.3","battery-v0.2","","""event"",""trial"",""time""
""fullscreenenter"",""1"",""3337""
","
","
","""event"",""trial"",""time""
""fullscreenenter"",""1"",""3337""
","
","","","808.6999999284744","","","19","4446","3112","&#9789;","elianto","#f73b6a7A"," "," ","1","0","[1659.1999999284744]","1","0","4","","","","","","","",""
"call-function","101","830414","0.0-2.0-18.0","battery-v0.2","","""event"",""trial"",""time""
""fullscreenenter"",""1"",""3337""
","
","
","""event"",""trial"",""time""
""fullscreenenter"",""1"",""3337""
","
","","","","","","","","","","","","","","","","","","","","","","","","","","",""
"pit-instructions","102","909107","0.0-2.0-19.0","battery-v0.2","","""event"",""trial"",""time""
""fullscreenenter"",""1"",""3337""
","
","
","""event"",""trial"",""time""
""fullscreenenter"",""1"",""3337""
","
","","[{""page_index"":0,""viewing_time"":8130.5},{""page_index"":1,""viewing_time"":6466.199999928474},{""page_index"":2,""viewing_time"":14859.400000095367},{""page_index"":3,""viewing_time"":10392.099999904633},{""page_index"":4,""viewing_time"":9063.900000095367},{""page_index"":5,""viewing_time"":8537.899999976158},{""page_index"":6,""viewing_time"":9805.699999928474},{""page_index"":7,""viewing_time"":6853.200000047684},{""page_index"":8,""viewing_time"":4579.200000047684}]","78688.69999992847","","","","","","","","","","","","","","","","","","","","","","","",""
"pit-comprehension","103","915381","0.0-2.0-20.0-0.0","battery-v0.2","","""event"",""trial"",""time""
""fullscreenenter"",""1"",""3337""
","
","
","""event"",""trial"",""time""
""fullscreenenter"",""1"",""3337""
","
","","","6266.600000023842","[""SPACE""]","0","19","4446","3112","","","","","","","","","","","","","","","","","","",""
"pit-instructions","104","918955","0.0-2.0-20.0-1.0","battery-v0.2","","""event"",""trial"",""time""
""fullscreenenter"",""1"",""3337""
","
","
","""event"",""trial"",""time""
""fullscreenenter"",""1"",""3337""
","
","","[{""page_index"":0,""viewing_time"":3505.899999976158}]","3506.600000023842","","","","","","","","","","","","","","","","","","","","","","","",""
"pit-comprehension","105","928928","0.0-2.0-21.0-0.0","battery-v0.2","","""event"",""trial"",""time""
""fullscreenenter"",""1"",""3337""
","
","
","""event"",""trial"",""time""
""fullscreenenter"",""1"",""3337""
","
","","","9967.100000023842","[""10""]","0","19","4446","3112","","","","","","","","","","","","","","","","","","",""
"pit-instructions","106","935914","0.0-2.0-21.0-1.0","battery-v0.2","","""event"",""trial"",""time""
""fullscreenenter"",""1"",""3337""
","
","
","""event"",""trial"",""time""
""fullscreenenter"",""1"",""3337""
","
","","[{""page_index"":0,""viewing_time"":6914.199999928474}]","6914.799999952316","","","","","","","","","","","","","","","","","","","","","","","",""
"pit-comprehension","107","950335","0.0-2.0-22.0-0.0","battery-v0.2","","""event"",""trial"",""time""
""fullscreenenter"",""1"",""3337""
","
","
","""event"",""trial"",""time""
""fullscreenenter"",""1"",""3337""
","
","","","14413.5","[""0""]","0","19","4446","3112","","","","","","","","","","","","","","","","","","",""
"pit-instructions","108","955687","0.0-2.0-22.0-1.0","battery-v0.2","","""event"",""trial"",""time""
""fullscreenenter"",""1"",""3337""
","
","
","""event"",""trial"",""time""
""fullscreenenter"",""1"",""3337""
","
","","[{""page_index"":0,""viewing_time"":5288}]","5288.800000071526","","","","","","","","","","","","","","","","","","","","","","","",""
"pit-comprehension","109","971844","0.0-2.0-23.0-0.0","battery-v0.2","","""event"",""trial"",""time""
""fullscreenenter"",""1"",""3337""
","
","
","""event"",""trial"",""time""
""fullscreenenter"",""1"",""3337""
","
","","","16152.200000047684","[""True""]","0","19","4446","3112","","","","","","","","","","","","","","","","","","",""
"pit-instructions","110","973775","0.0-2.0-23.0-1.0","battery-v0.2","","""event"",""trial"",""time""
""fullscreenenter"",""1"",""3337""
","
","
","""event"",""trial"",""time""
""fullscreenenter"",""1"",""3337""
","
","","[{""page_index"":0,""viewing_time"":1857.8999999761581}]","1858.6999999284744","","","","","","","","","","","","","","","","","","","","","","","",""
"pit-comprehension","111","981985","0.0-2.0-24.0-0.0","battery-v0.2","","""event"",""trial"",""time""
""fullscreenenter"",""1"",""3337""
","
","
","""event"",""trial"",""time""
""fullscreenenter"",""1"",""3337""
","
","","","8203","[""True""]","0","19","4446","3112","","","","","","","","","","","","","","","","","","",""
"pit-instructions","112","983978","0.0-2.0-24.0-1.0","battery-v0.2","","""event"",""trial"",""time""
""fullscreenenter"",""1"",""3337""
","
","
","""event"",""trial"",""time""
""fullscreenenter"",""1"",""3337""
","
","","[{""page_index"":0,""viewing_time"":1923.7999999523163}]","1924.3999999761581","","","","","","","","","","","","","","","","","","","","","","","",""
"pit-comprehension","113","991833","0.0-2.0-25.0-0.0","battery-v0.2","","""event"",""trial"",""time""
""fullscreenenter"",""1"",""3337""
","
","
","""event"",""trial"",""time""
""fullscreenenter"",""1"",""3337""
","
","","","7848.799999952316","[""True""]","0","19","4446","3112","","","","","","","","","","","","","","","","","","",""
"pit-instructions","114","994029","0.0-2.0-25.0-1.0","battery-v0.2","","""event"",""trial"",""time""
""fullscreenenter"",""1"",""3337""
","
","
","""event"",""trial"",""time""
""fullscreenenter"",""1"",""3337""
","
","","[{""page_index"":0,""viewing_time"":2124.6999999284744}]","2125.2999999523163","","","","","","","","","","","","","","","","","","","","","","","",""
"pit-comprehension","115","1000580","0.0-2.0-26.0-0.0","battery-v0.2","","""event"",""trial"",""time""
""fullscreenenter"",""1"",""3337""
","
","
","""event"",""trial"",""time""
""fullscreenenter"",""1"",""3337""
","
","","","6544.300000071526","[""False""]","0","19","4446","3112","","","","","","","","","","","","","","","","","","",""
"pit-instructions","116","1002542","0.0-2.0-26.0-1.0","battery-v0.2","","""event"",""trial"",""time""
""fullscreenenter"",""1"",""3337""
","
","
","""event"",""trial"",""time""
""fullscreenenter"",""1"",""3337""
","
","","[{""page_index"":0,""viewing_time"":1892.3999999761581}]","1893.1000000238419","","","","","","","","","","","","","","","","","","","","","","","",""
"pit-instructions","117","1021368","0.0-3.0","battery-v0.2","","""event"",""trial"",""time""
""fullscreenenter"",""1"",""3337""
","
","
","""event"",""trial"",""time""
""fullscreenenter"",""1"",""3337""
","
","","[{""page_index"":0,""viewing_time"":4310.300000071526},{""page_index"":1,""viewing_time"":6644.299999952316},{""page_index"":2,""viewing_time"":7867.700000047684}]","18823","","","","","","","","","","","","","","","","","","","","","","","",""
"pit-trial","118","1025776","0.0-4.0","battery-v0.2","","""event"",""trial"",""time""
""fullscreenenter"",""1"",""3337""
","
","
","""event"",""trial"",""time""
""fullscreenenter"",""1"",""3337""
","
","","","1521.2999999523163","","","19","4446","3112","&#9728;","elianto","#f73b6a7A","-1"," ","0","-10","[2380.899999976158]","1","1","","","4446","1","0","4","lose","no-go","0"
"pit-trial","119","1029807","0.0-5.0","battery-v0.2","","""event"",""trial"",""time""
""fullscreenenter"",""1"",""3337""
","
","
","""event"",""trial"",""time""
""fullscreenenter"",""1"",""3337""
","
","","","1161.7000000476837","","","19","4446","3112","&#9730;","elianto","#3366ff99"," "," ","1","+10","[2019.1000000238419]","1","1","","","4446","2","1","1","win","go","0"
"pit-trial","120","1033558","0.0-6.0","battery-v0.2","","""event"",""trial"",""time""
""fullscreenenter"",""1"",""3337""
","
","
","""event"",""trial"",""time""
""fullscreenenter"",""1"",""3337""
","
","","","884.7999999523163","","","19","4446","3112","&#9752;","elianto","#f73b6a7A"," "," ","1","-10","[1743.8000000715256]","1","1","","","4446","3","3","3","lose","go","1"
"pit-trial","121","1037187","0.0-7.0","battery-v0.2","","""event"",""trial"",""time""
""fullscreenenter"",""1"",""3337""
","
","
","""event"",""trial"",""time""
""fullscreenenter"",""1"",""3337""
","
","","","752.1000000238419","","","19","4446","3112","&#9733;","elianto","#3366ff99","-1"," ","0","+10","[1609.5]","1","1","","","4446","4","2","2","win","no-go","1"
"pit-trial","122","1042067","0.0-8.0","battery-v0.2","","""event"",""trial"",""time""
""fullscreenenter"",""1"",""3337""
","
","
","""event"",""trial"",""time""
""fullscreenenter"",""1"",""3337""
","
","","","-1","","","19","4446","3112","&#9728;","elianto","#f73b6a7A","-1","-1","1","0","[]","0","1","","","4446","5","0","4","lose","no-go","0"
"pit-trial","123","1046937","0.0-9.0","battery-v0.2","","""event"",""trial"",""time""
""fullscreenenter"",""1"",""3337""
","
","
","""event"",""trial"",""time""
""fullscreenenter"",""1"",""3337""
","
","","","-1","","","19","4446","3112","&#9752;","elianto","#f73b6a7A"," ","-1","0","-10","[]","0","1","","","4446","6","3","3","lose","go","0"
"pit-trial","124","1050767","0.0-10.0","battery-v0.2","","""event"",""trial"",""time""
""fullscreenenter"",""1"",""3337""
","
","
","""event"",""trial"",""time""
""fullscreenenter"",""1"",""3337""
","
","","","958.3999999761581","","","19","4446","3112","&#9730;","elianto","#3366ff99"," "," ","1","+10","[1814.7999999523163]","1","1","","","4446","7","1","1","win","go","0"
"pit-trial","125","1054931","0.0-11.0","battery-v0.2","","""event"",""trial"",""time""
""fullscreenenter"",""1"",""3337""
","
","
","""event"",""trial"",""time""
""fullscreenenter"",""1"",""3337""
","
","","","1299.0999999046326","","","19","4446","3112","&#9733;","elianto","#3366ff99","-1"," ","0","0","[2159.5]","1","1","","","4446","8","2","2","win","no-go","0"
"pit-trial","126","1058781","0.0-12.0","battery-v0.2","","""event"",""trial"",""time""
""fullscreenenter"",""1"",""3337""
","
","
","""event"",""trial"",""time""
""fullscreenenter"",""1"",""3337""
","
","","","991.7000000476837","","","19","4446","3112","&#9733;","elianto","#3366ff99","-1"," ","0","0","[1842.7999999523163]","1","1","","","4446","9","2","2","win","no-go","0"
"pit-trial","127","1063645","0.0-13.0","battery-v0.2","","""event"",""trial"",""time""
""fullscreenenter"",""1"",""3337""
","
","
","""event"",""trial"",""time""
""fullscreenenter"",""1"",""3337""
","
","","","-1","","","19","4446","3112","&#9752;","elianto","#f73b6a7A"," ","-1","0","0","[]","0","1","","","4446","10","3","3","lose","go","1"
"pit-trial","128","1067564","0.0-14.0","battery-v0.2","","""event"",""trial"",""time""
""fullscreenenter"",""1"",""3337""
","
","
","""event"",""trial"",""time""
""fullscreenenter"",""1"",""3337""
","
","","","1041.0999999046326","","","19","4446","3112","&#9728;","elianto","#f73b6a7A","-1"," ","0","-10","[1899.9000000953674]","1","1","","","4446","11","0","4","lose","no-go","0"
"pit-trial","129","1071582","0.0-15.0","battery-v0.2","","""event"",""trial"",""time""
""fullscreenenter"",""1"",""3337""
","
","
","""event"",""trial"",""time""
""fullscreenenter"",""1"",""3337""
","
","","","1146.5","","","19","4446","3112","&#9730;","elianto","#3366ff99"," "," ","1","+10","[1998.8999999761581]","1","1","","","4446","12","1","1","win","go","0"
"pit-trial","130","1075260","0.0-16.0","battery-v0.2","","""event"",""trial"",""time""
""fullscreenenter"",""1"",""3337""
","
","
","""event"",""trial"",""time""
""fullscreenenter"",""1"",""3337""
","
","","","820.7000000476837","","","19","4446","3112","&#9733;","elianto","#3366ff99","-1"," ","0","0","[1673.7999999523163]","1","1","","","4446","13","2","2","win","no-go","0"
"pit-trial","131","1080126","0.0-17.0","battery-v0.2","","""event"",""trial"",""time""
""fullscreenenter"",""1"",""3337""
","
","
","""event"",""trial"",""time""
""fullscreenenter"",""1"",""3337""
","
","","","-1","","","19","4446","3112","&#9752;","elianto","#f73b6a7A"," ","-1","0","-10","[]","0","1","","","4446","14","3","3","lose","go","0"
"pit-trial","132","1084853","0.0-18.0","battery-v0.2","","""event"",""trial"",""time""
""fullscreenenter"",""1"",""3337""
","
","
","""event"",""trial"",""time""
""fullscreenenter"",""1"",""3337""
","
","","","1860.0999999046326","","","19","4446","3112","&#9728;","elianto","#f73b6a7A","-1"," ","0","-10","[2718.2000000476837]","1","1","","","4446","15","0","4","lose","no-go","0"
"pit-trial","133","1088607","0.0-19.0","battery-v0.2","","""event"",""trial"",""time""
""fullscreenenter"",""1"",""3337""
","
","
","""event"",""trial"",""time""
""fullscreenenter"",""1"",""3337""
","
","","","892.0999999046326","","","19","4446","3112","&#9730;","elianto","#3366ff99"," "," ","1","+10","[1742.5]","1","1","","","4446","16","1","1","win","go","0"
"pit-trial","134","1092310","0.0-20.0","battery-v0.2","","""event"",""trial"",""time""
""fullscreenenter"",""1"",""3337""
","
","
","""event"",""trial"",""time""
""fullscreenenter"",""1"",""3337""
","
","","","829.3999999761581","","","19","4446","3112","&#9730;","elianto","#3366ff99"," "," ","1","+10","[1689.5999999046326]","1","1","","","4446","17","1","1","win","go","0"
"pit-trial","135","1095942","0.0-21.0","battery-v0.2","","""event"",""trial"",""time""
""fullscreenenter"",""1"",""3337""
","
","
","""event"",""trial"",""time""
""fullscreenenter"",""1"",""3337""
","
","","","773","","","19","4446","3112","&#9733;","elianto","#3366ff99","-1"," ","0","0","[1624.5999999046326]","1","1","","","4446","18","2","2","win","no-go","0"
"pit-trial","136","1100814","0.0-22.0","battery-v0.2","","""event"",""trial"",""time""
""fullscreenenter"",""1"",""3337""
","
","
","""event"",""trial"",""time""
""fullscreenenter"",""1"",""3337""
","
","","","-1","","","19","4446","3112","&#9752;","elianto","#f73b6a7A"," ","-1","0","-10","[]","0","1","","","4446","19","3","3","lose","go","0"
"pit-trial","137","1105391","0.0-23.0","battery-v0.2","","""event"",""trial"",""time""
""fullscreenenter"",""1"",""3337""
","
","
","""event"",""trial"",""time""
""fullscreenenter"",""1"",""3337""
","
","","","1712.0999999046326","","","19","4446","3112","&#9728;","elianto","#f73b6a7A","-1"," ","0","-10","[2565.600000023842]","1","1","","","4446","20","0","4","lose","no-go","0"
"pit-instructions","138","1171852","0.0-24.0","battery-v0.2","","""event"",""trial"",""time""
""fullscreenenter"",""1"",""3337""
","
","
","""event"",""trial"",""time""
""fullscreenenter"",""1"",""3337""
","
","","[{""page_index"":0,""viewing_time"":6902.800000071526},{""page_index"":1,""viewing_time"":59557.39999997616}]","66461","","","","","","","","","","","","","","","","","","","","","","","",""
"pit-trial","139","1175939","0.0-25.0","battery-v0.2","","""event"",""trial"",""time""
""fullscreenenter"",""1"",""3337""
","
","
","""event"",""trial"",""time""
""fullscreenenter"",""1"",""3337""
","
","","","1225.3999999761581","","","19","4446","3112","l","elianto","#3366ff99"," "," ","1","+10","[2076.899999976158]","1","2","","","4446","21","1","1","win","go","0"
"pit-trial","140","1179577","0.0-26.0","battery-v0.2","","""event"",""trial"",""time""
""fullscreenenter"",""1"",""3337""
","
","
","""event"",""trial"",""time""
""fullscreenenter"",""1"",""3337""
","
","","","771.8999999761581","","","19","4446","3112","g","elianto","#f73b6a7A"," "," ","1","0","[1626.1999999284744]","1","2","","","4446","22","3","3","lose","go","0"
"pit-trial","141","1183297","0.0-27.0","battery-v0.2","","""event"",""trial"",""time""
""fullscreenenter"",""1"",""3337""
","
","
","""event"",""trial"",""time""
""fullscreenenter"",""1"",""3337""
","
","","","853.7000000476837","","","19","4446","3112","u","elianto","#f73b6a7A","-1"," ","0","-10","[1712.7000000476837]","1","2","","","4446","23","0","4","lose","no-go","0"
"pit-trial","142","1186916","0.0-28.0","battery-v0.2","","""event"",""trial"",""time""
""fullscreenenter"",""1"",""3337""
","
","
","""event"",""trial"",""time""
""fullscreenenter"",""1"",""3337""
","
","","","750.1000000238419","","","19","4446","3112","a","elianto","#f73b6a7A","-1"," ","0","0","[1604.2999999523163]","1","2","","","4446","24","2","4","lose","no-go","1"
"pit-trial","143","1190811","0.0-29.0","battery-v0.2","","""event"",""trial"",""time""
""fullscreenenter"",""1"",""3337""
","
","
","""event"",""trial"",""time""
""fullscreenenter"",""1"",""3337""
","
","","","1029","","","19","4446","3112","g","elianto","#f73b6a7A"," "," ","1","-10","[1881.6000000238419]","1","2","","","4446","25","3","3","lose","go","1"
"pit-trial","144","1194428","0.0-30.0","battery-v0.2","","""event"",""trial"",""time""
""fullscreenenter"",""1"",""3337""
","
","
","""event"",""trial"",""time""
""fullscreenenter"",""1"",""3337""
","
","","","744.5","","","19","4446","3112","l","elianto","#3366ff99"," "," ","1","+10","[1600.5]","1","2","","","4446","26","1","1","win","go","0"
"pit-trial","145","1198097","0.0-31.0","battery-v0.2","","""event"",""trial"",""time""
""fullscreenenter"",""1"",""3337""
","
","
","""event"",""trial"",""time""
""fullscreenenter"",""1"",""3337""
","
","","","794.5","","","19","4446","3112","a","elianto","#f73b6a7A","-1"," ","0","-10","[1649.8999999761581]","1","2","","","4446","27","2","4","lose","no-go","0"
"pit-trial","146","1202245","0.0-32.0","battery-v0.2","","""event"",""trial"",""time""
""fullscreenenter"",""1"",""3337""
","
","
","""event"",""trial"",""time""
""fullscreenenter"",""1"",""3337""
","
","","","1285.2999999523163","","","19","4446","3112","u","elianto","#f73b6a7A","-1"," ","0","-10","[2137.100000023842]","1","2","","","4446","28","0","4","lose","no-go","0"
"pit-trial","147","1207122","0.0-33.0","battery-v0.2","","""event"",""trial"",""time""
""fullscreenenter"",""1"",""3337""
","
","
","""event"",""trial"",""time""
""fullscreenenter"",""1"",""3337""
","
","","","-1","","","19","4446","3112","a","elianto","#f73b6a7A","-1","-1","1","0","[]","0","2","","","4446","29","2","4","lose","no-go","0"
"pit-trial","148","1211398","0.0-34.0","battery-v0.2","","""event"",""trial"",""time""
""fullscreenenter"",""1"",""3337""
","
","
","""event"",""trial"",""time""
""fullscreenenter"",""1"",""3337""
","
","","","1403.8999999761581","","","19","4446","3112","g","elianto","#f73b6a7A"," "," ","1","0","[2261]","1","2","","","4446","30","3","3","lose","go","0"
"pit-trial","149","1216287","0.0-35.0","battery-v0.2","","""event"",""trial"",""time""
""fullscreenenter"",""1"",""3337""
","
","
","""event"",""trial"",""time""
""fullscreenenter"",""1"",""3337""
","
","","","-1","","","19","4446","3112","u","elianto","#f73b6a7A","-1","-1","1","0","[]","0","2","","","4446","31","0","4","lose","no-go","0"
"pit-trial","150","1219977","0.0-36.0","battery-v0.2","","""event"",""trial"",""time""
""fullscreenenter"",""1"",""3337""
","
","
","""event"",""trial"",""time""
""fullscreenenter"",""1"",""3337""
","
","","","823.2000000476837","","","19","4446","3112","l","elianto","#3366ff99"," "," ","1","+10","[1677.8000000715256]","1","2","","","4446","32","1","1","win","go","0"
"pit-trial","151","1224851","0.0-37.0","battery-v0.2","","""event"",""trial"",""time""
""fullscreenenter"",""1"",""3337""
","
","
","""event"",""trial"",""time""
""fullscreenenter"",""1"",""3337""
","
","","","-1","","","19","4446","3112","a","elianto","#f73b6a7A","-1","-1","1","0","[]","0","2","","","4446","33","2","4","lose","no-go","0"
"pit-trial","152","1228523","0.0-38.0","battery-v0.2","","""event"",""trial"",""time""
""fullscreenenter"",""1"",""3337""
","
","
","""event"",""trial"",""time""
""fullscreenenter"",""1"",""3337""
","
","","","802.7999999523163","","","19","4446","3112","l","elianto","#3366ff99"," "," ","1","+10","[1658.6999999284744]","1","2","","","4446","34","1","1","win","go","0"
"pit-trial","153","1232705","0.0-39.0","battery-v0.2","","""event"",""trial"",""time""
""fullscreenenter"",""1"",""3337""
","
","
","""event"",""trial"",""time""
""fullscreenenter"",""1"",""3337""
","
","","","1303.1000000238419","","","19","4446","3112","g","elianto","#f73b6a7A"," "," ","1","-10","[2156.0999999046326]","1","2","","","4446","35","3","3","lose","go","1"
"pit-trial","154","1236937","0.0-40.0","battery-v0.2","","""event"",""trial"",""time""
""fullscreenenter"",""1"",""3337""
","
","
","""event"",""trial"",""time""
""fullscreenenter"",""1"",""3337""
","
","","","1365.2999999523163","","","19","4446","3112","u","elianto","#f73b6a7A","-1"," ","0","-10","[2218.6999999284744]","1","2","","","4446","36","0","4","lose","no-go","0"
"pit-trial","155","1241810","0.0-41.0","battery-v0.2","","""event"",""trial"",""time""
""fullscreenenter"",""1"",""3337""
","
","
","""event"",""trial"",""time""
""fullscreenenter"",""1"",""3337""
","
","","","-1","","","19","4446","3112","g","elianto","#f73b6a7A"," ","-1","0","-10","[]","0","2","","","4446","37","3","3","lose","go","0"
"pit-trial","156","1246682","0.0-42.0","battery-v0.2","","""event"",""trial"",""time""
""fullscreenenter"",""1"",""3337""
","
","
","""event"",""trial"",""time""
""fullscreenenter"",""1"",""3337""
","
","","","-1","","","19","4446","3112","u","elianto","#f73b6a7A","-1","-1","1","0","[]","0","2","","","4446","38","0","4","lose","no-go","0"
"pit-trial","157","1250258","0.0-43.0","battery-v0.2","","""event"",""trial"",""time""
""fullscreenenter"",""1"",""3337""
","
","
","""event"",""trial"",""time""
""fullscreenenter"",""1"",""3337""
","
","","","713.7999999523163","","","19","4446","3112","l","elianto","#3366ff99"," "," ","1","+10","[1566.1000000238419]","1","2","","","4446","39","1","1","win","go","0"
"pit-trial","158","1255126","0.0-44.0","battery-v0.2","","""event"",""trial"",""time""
""fullscreenenter"",""1"",""3337""
","
","
","""event"",""trial"",""time""
""fullscreenenter"",""1"",""3337""
","
","","","-1","","","19","4446","3112","a","elianto","#f73b6a7A","-1","-1","1","0","[]","0","2","","","4446","40","2","4","lose","no-go","0"
"pit-trial","159","1259204","0.0-45.0","battery-v0.2","","""event"",""trial"",""time""
""fullscreenenter"",""1"",""3337""
","
","
","""event"",""trial"",""time""
""fullscreenenter"",""1"",""3337""
","
","","","1212.1000000238419","","","19","4446","3112","u","elianto","#f73b6a7A","-1"," ","0","-10","[2068.100000023842]","1","2","","","4446","41","0","4","lose","no-go","0"
"pit-trial","160","1262747","0.0-46.0","battery-v0.2","","""event"",""trial"",""time""
""fullscreenenter"",""1"",""3337""
","
","
","""event"",""trial"",""time""
""fullscreenenter"",""1"",""3337""
","
","","","676","","","19","4446","3112","l","elianto","#3366ff99"," "," ","1","+10","[1535.2000000476837]","1","2","","","4446","42","1","1","win","go","0"
"pit-trial","161","1267624","0.0-47.0","battery-v0.2","","""event"",""trial"",""time""
""fullscreenenter"",""1"",""3337""
","
","
","""event"",""trial"",""time""
""fullscreenenter"",""1"",""3337""
","
","","","-1","","","19","4446","3112","a","elianto","#f73b6a7A","-1","-1","1","0","[]","0","2","","","4446","43","2","4","lose","no-go","0"
"pit-trial","162","1272211","0.0-48.0","battery-v0.2","","""event"",""trial"",""time""
""fullscreenenter"",""1"",""3337""
","
","
","""event"",""trial"",""time""
""fullscreenenter"",""1"",""3337""
","
","","","1715.4000000953674","","","19","4446","3112","g","elianto","#f73b6a7A"," "," ","1","0","[2569.600000023842]","1","2","","","4446","44","3","3","lose","go","0"
"pit-trial","163","1276364","0.0-49.0","battery-v0.2","","""event"",""trial"",""time""
""fullscreenenter"",""1"",""3337""
","
","
","""event"",""trial"",""time""
""fullscreenenter"",""1"",""3337""
","
","","","1284.3999999761581","","","19","4446","3112","g","elianto","#f73b6a7A"," "," ","1","0","[2138.2999999523163]","1","2","","","4446","45","3","3","lose","go","0"
"pit-trial","164","1280399","0.0-50.0","battery-v0.2","","""event"",""trial"",""time""
""fullscreenenter"",""1"",""3337""
","
","
","""event"",""trial"",""time""
""fullscreenenter"",""1"",""3337""
","
","","","1157.9000000953674","","","19","4446","3112","p","elianto","#3366ff99","-1"," ","0","0","[2019.3000000715256]","1","2","","","4446","46","4","2","win","no-go","0"
"pit-trial","165","1284625","0.0-51.0","battery-v0.2","","""event"",""trial"",""time""
""fullscreenenter"",""1"",""3337""
","
","
","""event"",""trial"",""time""
""fullscreenenter"",""1"",""3337""
","
","","","1347.5","","","19","4446","3112","u","elianto","#f73b6a7A","-1"," ","0","0","[2205.899999976158]","1","2","","","4446","47","0","4","lose","no-go","1"
"pit-trial","166","1289490","0.0-52.0","battery-v0.2","","""event"",""trial"",""time""
""fullscreenenter"",""1"",""3337""
","
","
","""event"",""trial"",""time""
""fullscreenenter"",""1"",""3337""
","
","","","-1","","","19","4446","3112","a","elianto","#f73b6a7A","-1","-1","1","0","[]","0","2","","","4446","48","2","4","lose","no-go","0"
"pit-trial","167","1294355","0.0-53.0","battery-v0.2","","""event"",""trial"",""time""
""fullscreenenter"",""1"",""3337""
","
","
","""event"",""trial"",""time""
""fullscreenenter"",""1"",""3337""
","
","","","-1","","","19","4446","3112","g","elianto","#f73b6a7A"," ","-1","0","-10","[]","0","2","","","4446","49","3","3","lose","go","0"
"pit-trial","168","1299028","0.0-54.0","battery-v0.2","","""event"",""trial"",""time""
""fullscreenenter"",""1"",""3337""
","
","
","""event"",""trial"",""time""
""fullscreenenter"",""1"",""3337""
","
","","","1801.7999999523163","","","19","4446","3112","u","elianto","#f73b6a7A","-1"," ","0","-10","[2654.2000000476837]","1","2","","","4446","50","0","4","lose","no-go","0"
"pit-trial","169","1303893","0.0-55.0","battery-v0.2","","""event"",""trial"",""time""
""fullscreenenter"",""1"",""3337""
","
","
","""event"",""trial"",""time""
""fullscreenenter"",""1"",""3337""
","
","","","-1","","","19","4446","3112","p","elianto","#3366ff99","-1","-1","1","+10","[]","0","2","","","4446","51","4","2","win","no-go","0"
"pit-trial","170","1307523","0.0-56.0","battery-v0.2","","""event"",""trial"",""time""
""fullscreenenter"",""1"",""3337""
","
","
","""event"",""trial"",""time""
""fullscreenenter"",""1"",""3337""
","
","","","761","","","19","4446","3112","l","elianto","#3366ff99"," "," ","1","+10","[1619.1000000238419]","1","2","","","4446","52","1","1","win","go","0"
"pit-trial","171","1312388","0.0-57.0","battery-v0.2","","""event"",""trial"",""time""
""fullscreenenter"",""1"",""3337""
","
","
","""event"",""trial"",""time""
""fullscreenenter"",""1"",""3337""
","
","","","-1","","","19","4446","3112","a","elianto","#f73b6a7A","-1","-1","1","0","[]","0","2","","","4446","53","2","4","lose","no-go","0"
"pit-trial","172","1316991","0.0-58.0","battery-v0.2","","""event"",""trial"",""time""
""fullscreenenter"",""1"",""3337""
","
","
","""event"",""trial"",""time""
""fullscreenenter"",""1"",""3337""
","
","","","1730","","","19","4446","3112","p","elianto","#3366ff99","-1"," ","0","0","[2584.899999976158]","1","2","","","4446","54","4","2","win","no-go","0"
"pit-trial","173","1320629","0.0-59.0","battery-v0.2","","""event"",""trial"",""time""
""fullscreenenter"",""1"",""3337""
","
","
","""event"",""trial"",""time""
""fullscreenenter"",""1"",""3337""
","
","","","770.8999999761581","","","19","4446","3112","l","elianto","#3366ff99"," "," ","1","+10","[1628]","1","2","","","4446","55","1","1","win","go","0"
"pit-trial","174","1325507","0.0-60.0","battery-v0.2","","""event"",""trial"",""time""
""fullscreenenter"",""1"",""3337""
","
","
","""event"",""trial"",""time""
""fullscreenenter"",""1"",""3337""
","
","","","-1","","","19","4446","3112","u","elianto","#f73b6a7A","-1","-1","1","-10","[]","0","2","","","4446","56","0","4","lose","no-go","1"
"pit-trial","175","1329883","0.0-61.0","battery-v0.2","","""event"",""trial"",""time""
""fullscreenenter"",""1"",""3337""
","
","
","""event"",""trial"",""time""
""fullscreenenter"",""1"",""3337""
","
","","","1515.5","","","19","4446","3112","u","elianto","#f73b6a7A","-1"," ","0","-10","[2369.899999976158]","1","2","","","4446","57","0","4","lose","no-go","0"
"pit-trial","176","1333451","0.0-62.0","battery-v0.2","","""event"",""trial"",""time""
""fullscreenenter"",""1"",""3337""
","
","
","""event"",""trial"",""time""
""fullscreenenter"",""1"",""3337""
","
","","","698.3000000715256","","","19","4446","3112","l","elianto","#3366ff99"," "," ","1","+10","[1554.5]","1","2","","","4446","58","1","1","win","go","0"
"pit-trial","177","1336898","0.0-63.0","battery-v0.2","","""event"",""trial"",""time""
""fullscreenenter"",""1"",""3337""
","
","
","""event"",""trial"",""time""
""fullscreenenter"",""1"",""3337""
","
","","","578.2999999523163","","","19","4446","3112","p","elianto","#3366ff99","-1"," ","0","0","[1435.1999999284744]","1","2","","","4446","59","4","2","win","no-go","0"
"pit-trial","178","1341770","0.0-64.0","battery-v0.2","","""event"",""trial"",""time""
""fullscreenenter"",""1"",""3337""
","
","
","""event"",""trial"",""time""
""fullscreenenter"",""1"",""3337""
","
","","","-1","","","19","4446","3112","g","elianto","#f73b6a7A"," ","-1","0","0","[2893.100000023842]","1","2","","","4446","60","3","3","lose","go","1"
"pit-trial","179","1345692","0.0-65.0","battery-v0.2","","""event"",""trial"",""time""
""fullscreenenter"",""1"",""3337""
","
","
","""event"",""trial"",""time""
""fullscreenenter"",""1"",""3337""
","
","","","1054.1000000238419","","","19","4446","3112","l","elianto","#3366ff99"," "," ","1","+10","[1908]","1","2","","","4446","61","1","1","win","go","0"
"pit-trial","180","1350554","0.0-66.0","battery-v0.2","","""event"",""trial"",""time""
""fullscreenenter"",""1"",""3337""
","
","
","""event"",""trial"",""time""
""fullscreenenter"",""1"",""3337""
","
","","","-1","","","19","4446","3112","a","elianto","#f73b6a7A","-1","-1","1","0","[]","0","2","","","4446","62","2","4","lose","no-go","0"
"pit-trial","181","1354128","0.0-67.0","battery-v0.2","","""event"",""trial"",""time""
""fullscreenenter"",""1"",""3337""
","
","
","""event"",""trial"",""time""
""fullscreenenter"",""1"",""3337""
","
","","","707.3000000715256","","","19","4446","3112","p","elianto","#3366ff99","-1"," ","0","0","[1557.6000000238419]","1","2","","","4446","63","4","2","win","no-go","0"
"pit-trial","182","1358094","0.0-68.0","battery-v0.2","","""event"",""trial"",""time""
""fullscreenenter"",""1"",""3337""
","
","
","""event"",""trial"",""time""
""fullscreenenter"",""1"",""3337""
","
","","","1104.6000000238419","","","19","4446","3112","g","elianto","#f73b6a7A"," "," ","1","0","[1955]","1","2","","","4446","64","3","3","lose","go","0"
"pit-trial","183","1362967","0.0-69.0","battery-v0.2","","""event"",""trial"",""time""
""fullscreenenter"",""1"",""3337""
","
","
","""event"",""trial"",""time""
""fullscreenenter"",""1"",""3337""
","
","","","-1","","","19","4446","3112","a","elianto","#f73b6a7A","-1","-1","1","0","[]","0","2","","","4446","65","2","4","lose","no-go","0"
"pit-trial","184","1366459","0.0-70.0","battery-v0.2","","""event"",""trial"",""time""
""fullscreenenter"",""1"",""3337""
","
","
","""event"",""trial"",""time""
""fullscreenenter"",""1"",""3337""
","
","","","627.3999999761581","","","19","4446","3112","l","elianto","#3366ff99"," "," ","1","+10","[1480.7000000476837]","1","2","","","4446","66","1","1","win","go","0"
"pit-trial","185","1370534","0.0-71.0","battery-v0.2","","""event"",""trial"",""time""
""fullscreenenter"",""1"",""3337""
","
","
","""event"",""trial"",""time""
""fullscreenenter"",""1"",""3337""
","
","","","1211.5","","","19","4446","3112","g","elianto","#f73b6a7A"," "," ","1","0","[2067.100000023842]","1","2","","","4446","67","3","3","lose","go","0"
"pit-trial","186","1374005","0.0-72.0","battery-v0.2","","""event"",""trial"",""time""
""fullscreenenter"",""1"",""3337""
","
","
","""event"",""trial"",""time""
""fullscreenenter"",""1"",""3337""
","
","","","609.1999999284744","","","19","4446","3112","p","elianto","#3366ff99","-1"," ","0","0","[1459.5999999046326]","1","2","","","4446","68","4","2","win","no-go","0"
"pit-trial","187","1378550","0.0-73.0","battery-v0.2","","""event"",""trial"",""time""
""fullscreenenter"",""1"",""3337""
","
","
","""event"",""trial"",""time""
""fullscreenenter"",""1"",""3337""
","
","","","1686.2000000476837","","","19","4446","3112","g","elianto","#f73b6a7A"," "," ","1","0","[2537.5]","1","2","","","4446","69","3","3","lose","go","0"
"pit-trial","188","1382269","0.0-74.0","battery-v0.2","","""event"",""trial"",""time""
""fullscreenenter"",""1"",""3337""
","
","
","""event"",""trial"",""time""
""fullscreenenter"",""1"",""3337""
","
","","","851.8000000715256","","","19","4446","3112","s","elianto","#3366ff99"," "," ","1","+10","[1706.9000000953674]","1","2","","","4446","70","5","1","win","go","0"
"pit-trial","189","1385922","0.0-75.0","battery-v0.2","","""event"",""trial"",""time""
""fullscreenenter"",""1"",""3337""
","
","
","""event"",""trial"",""time""
""fullscreenenter"",""1"",""3337""
","
","","","786.1999999284744","","","19","4446","3112","p","elianto","#3366ff99","-1"," ","0","0","[1637.1999999284744]","1","2","","","4446","71","4","2","win","no-go","0"
"pit-trial","190","1389487","0.0-76.0","battery-v0.2","","""event"",""trial"",""time""
""fullscreenenter"",""1"",""3337""
","
","
","""event"",""trial"",""time""
""fullscreenenter"",""1"",""3337""
","
","","","692.8999999761581","","","19","4446","3112","l","elianto","#3366ff99"," "," ","1","+10","[1551.8999999761581]","1","2","","","4446","72","1","1","win","go","0"
"pit-trial","191","1393402","0.0-77.0","battery-v0.2","","""event"",""trial"",""time""
""fullscreenenter"",""1"",""3337""
","
","
","""event"",""trial"",""time""
""fullscreenenter"",""1"",""3337""
","
","","","1050.7000000476837","","","19","4446","3112","g","elianto","#f73b6a7A"," "," ","1","0","[1904.2999999523163]","1","2","","","4446","73","3","3","lose","go","0"
"pit-trial","192","1397101","0.0-78.0","battery-v0.2","","""event"",""trial"",""time""
""fullscreenenter"",""1"",""3337""
","
","
","""event"",""trial"",""time""
""fullscreenenter"",""1"",""3337""
","
","","","830.8999999761581","","","19","4446","3112","l","elianto","#3366ff99"," "," ","1","+10","[1690.6000000238419]","1","2","","","4446","74","1","1","win","go","0"
"pit-trial","193","1400695","0.0-79.0","battery-v0.2","","""event"",""trial"",""time""
""fullscreenenter"",""1"",""3337""
","
","
","""event"",""trial"",""time""
""fullscreenenter"",""1"",""3337""
","
","","","729","","","19","4446","3112","s","elianto","#3366ff99"," "," ","1","0","[1584.7999999523163]","1","2","","","4446","75","5","1","win","go","1"
"pit-trial","194","1404341","0.0-80.0","battery-v0.2","","""event"",""trial"",""time""
""fullscreenenter"",""1"",""3337""
","
","
","""event"",""trial"",""time""
""fullscreenenter"",""1"",""3337""
","
","","","780.7999999523163","","","19","4446","3112","p","elianto","#3366ff99","-1"," ","0","0","[1631.5999999046326]","1","2","","","4446","76","4","2","win","no-go","0"
"pit-trial","195","1408890","0.0-81.0","battery-v0.2","","""event"",""trial"",""time""
""fullscreenenter"",""1"",""3337""
","
","
","""event"",""trial"",""time""
""fullscreenenter"",""1"",""3337""
","
","","","1682.8000000715256","","","19","4446","3112","w","elianto","#f73b6a7A","-1"," ","0","-10","[2533.7000000476837]","1","2","","","4446","77","6","4","lose","no-go","0"
"pit-trial","196","1412423","0.0-82.0","battery-v0.2","","""event"",""trial"",""time""
""fullscreenenter"",""1"",""3337""
","
","
","""event"",""trial"",""time""
""fullscreenenter"",""1"",""3337""
","
","","","670.7999999523163","","","19","4446","3112","s","elianto","#3366ff99"," "," ","1","0","[1524.7000000476837]","1","2","","","4446","78","5","1","win","go","1"
"pit-trial","197","1415959","0.0-83.0","battery-v0.2","","""event"",""trial"",""time""
""fullscreenenter"",""1"",""3337""
","
","
","""event"",""trial"",""time""
""fullscreenenter"",""1"",""3337""
","
","","","667","","","19","4446","3112","p","elianto","#3366ff99","-1"," ","0","+10","[1521.6000000238419]","1","2","","","4446","79","4","2","win","no-go","1"
"pit-trial","198","1419804","0.0-84.0","battery-v0.2","","""event"",""trial"",""time""
""fullscreenenter"",""1"",""3337""
","
","
","""event"",""trial"",""time""
""fullscreenenter"",""1"",""3337""
","
","","","980.6999999284744","","","19","4446","3112","g","elianto","#f73b6a7A"," "," ","1","-10","[1831.8000000715256]","1","2","","","4446","80","3","3","lose","go","1"
"pit-trial","199","1423271","0.0-85.0","battery-v0.2","","""event"",""trial"",""time""
""fullscreenenter"",""1"",""3337""
","
","
","""event"",""trial"",""time""
""fullscreenenter"",""1"",""3337""
","
","","","593.7000000476837","","","19","4446","3112","s","elianto","#3366ff99"," "," ","1","+10","[1448]","1","2","","","4446","81","5","1","win","go","0"
"pit-trial","200","1427734","0.0-86.0","battery-v0.2","","""event"",""trial"",""time""
""fullscreenenter"",""1"",""3337""
","
","
","""event"",""trial"",""time""
""fullscreenenter"",""1"",""3337""
","
","","","1604.1000000238419","","","19","4446","3112","e","elianto","#f73b6a7A"," "," ","1","-10","[2455.899999976158]","1","2","","","4446","82","7","3","lose","go","1"
"pit-trial","201","1432606","0.0-87.0","battery-v0.2","","""event"",""trial"",""time""
""fullscreenenter"",""1"",""3337""
","
","
","""event"",""trial"",""time""
""fullscreenenter"",""1"",""3337""
","
","","","-1","","","19","4446","3112","w","elianto","#f73b6a7A","-1","-1","1","-10","[]","0","2","","","4446","83","6","4","lose","no-go","1"
"pit-trial","202","1437090","0.0-88.0","battery-v0.2","","""event"",""trial"",""time""
""fullscreenenter"",""1"",""3337""
","
","
","""event"",""trial"",""time""
""fullscreenenter"",""1"",""3337""
","
","","","1606","","","19","4446","3112","p","elianto","#3366ff99","-1"," ","0","0","[2463]","1","2","","","4446","84","4","2","win","no-go","0"
"pit-trial","203","1441964","0.0-89.0","battery-v0.2","","""event"",""trial"",""time""
""fullscreenenter"",""1"",""3337""
","
","
","""event"",""trial"",""time""
""fullscreenenter"",""1"",""3337""
","
","","","-1","","","19","4446","3112","w","elianto","#f73b6a7A","-1","-1","1","0","[]","0","2","","","4446","85","6","4","lose","no-go","0"
"pit-trial","204","1445542","0.0-90.0","battery-v0.2","","""event"",""trial"",""time""
""fullscreenenter"",""1"",""3337""
","
","
","""event"",""trial"",""time""
""fullscreenenter"",""1"",""3337""
","
","","","720.2000000476837","","","19","4446","3112","s","elianto","#3366ff99"," "," ","1","+10","[1570.2000000476837]","1","2","","","4446","86","5","1","win","go","0"
"pit-trial","205","1449248","0.0-91.0","battery-v0.2","","""event"",""trial"",""time""
""fullscreenenter"",""1"",""3337""
","
","
","""event"",""trial"",""time""
""fullscreenenter"",""1"",""3337""
","
","","","842.3999999761581","","","19","4446","3112","p","elianto","#3366ff99","-1"," ","0","0","[1697.1999999284744]","1","2","","","4446","87","4","2","win","no-go","0"
"pit-trial","206","1453724","0.0-92.0","battery-v0.2","","""event"",""trial"",""time""
""fullscreenenter"",""1"",""3337""
","
","
","""event"",""trial"",""time""
""fullscreenenter"",""1"",""3337""
","
","","","1613.8999999761581","","","19","4446","3112","e","elianto","#f73b6a7A"," "," ","1","0","[2464.3000000715256]","1","2","","","4446","88","7","3","lose","go","0"
"pit-trial","207","1457381","0.0-93.0","battery-v0.2","","""event"",""trial"",""time""
""fullscreenenter"",""1"",""3337""
","
","
","""event"",""trial"",""time""
""fullscreenenter"",""1"",""3337""
","
","","","794.9000000953674","","","19","4446","3112","p","elianto","#3366ff99","-1"," ","0","+10","[1648.5]","1","2","","","4446","89","4","2","win","no-go","1"
"pit-trial","208","1462247","0.0-94.0","battery-v0.2","","""event"",""trial"",""time""
""fullscreenenter"",""1"",""3337""
","
","
","""event"",""trial"",""time""
""fullscreenenter"",""1"",""3337""
","
","","","-1","","","19","4446","3112","e","elianto","#f73b6a7A"," ","-1","0","-10","[]","0","2","","","4446","90","7","3","lose","go","0"
"pit-trial","209","1466118","0.0-95.0","battery-v0.2","","""event"",""trial"",""time""
""fullscreenenter"",""1"",""3337""
","
","
","""event"",""trial"",""time""
""fullscreenenter"",""1"",""3337""
","
","","","998.0999999046326","","","19","4446","3112","s","elianto","#3366ff99"," "," ","1","0","[1859.5999999046326]","1","2","","","4446","91","5","1","win","go","1"
"pit-trial","210","1470994","0.0-96.0","battery-v0.2","","""event"",""trial"",""time""
""fullscreenenter"",""1"",""3337""
","
","
","""event"",""trial"",""time""
""fullscreenenter"",""1"",""3337""
","
","","","-1","","","19","4446","3112","w","elianto","#f73b6a7A","-1","-1","1","0","[]","0","2","","","4446","92","6","4","lose","no-go","0"
"pit-trial","211","1475866","0.0-97.0","battery-v0.2","","""event"",""trial"",""time""
""fullscreenenter"",""1"",""3337""
","
","
","""event"",""trial"",""time""
""fullscreenenter"",""1"",""3337""
","
","","","-1","","","19","4446","3112","w","elianto","#f73b6a7A","-1","-1","1","0","[]","0","2","","","4446","93","6","4","lose","no-go","0"
"pit-trial","212","1480062","0.0-98.0","battery-v0.2","","""event"",""trial"",""time""
""fullscreenenter"",""1"",""3337""
","
","
","""event"",""trial"",""time""
""fullscreenenter"",""1"",""3337""
","
","","","1325.1000000238419","","","19","4446","3112","e","elianto","#f73b6a7A"," "," ","1","0","[2180.5]","1","2","","","4446","94","7","3","lose","go","0"
"pit-trial","213","1484367","0.0-99.0","battery-v0.2","","""event"",""trial"",""time""
""fullscreenenter"",""1"",""3337""
","
","
","""event"",""trial"",""time""
""fullscreenenter"",""1"",""3337""
","
","","","1445.3999999761581","","","19","4446","3112","d","elianto","#3366ff99","-1"," ","0","0","[2297.1999999284744]","1","2","","","4446","95","8","2","win","no-go","0"
"pit-trial","214","1489240","0.0-100.0","battery-v0.2","","""event"",""trial"",""time""
""fullscreenenter"",""1"",""3337""
","
","
","""event"",""trial"",""time""
""fullscreenenter"",""1"",""3337""
","
","","","-1","","","19","4446","3112","s","elianto","#3366ff99"," ","-1","0","0","[]","0","2","","","4446","96","5","1","win","go","0"
"pit-trial","215","1493762","0.0-101.0","battery-v0.2","","""event"",""trial"",""time""
""fullscreenenter"",""1"",""3337""
","
","
","""event"",""trial"",""time""
""fullscreenenter"",""1"",""3337""
","
","","","1654.8999999761581","","","19","4446","3112","e","elianto","#f73b6a7A"," "," ","1","0","[2509.0999999046326]","1","2","","","4446","97","7","3","lose","go","0"
"pit-trial","216","1497552","0.0-102.0","battery-v0.2","","""event"",""trial"",""time""
""fullscreenenter"",""1"",""3337""
","
","
","""event"",""trial"",""time""
""fullscreenenter"",""1"",""3337""
","
","","","927.6000000238419","","","19","4446","3112","d","elianto","#3366ff99","-1"," ","0","0","[1778.3999999761581]","1","2","","","4446","98","8","2","win","no-go","0"
"pit-trial","217","1502351","0.0-103.0","battery-v0.2","","""event"",""trial"",""time""
""fullscreenenter"",""1"",""3337""
","
","
","""event"",""trial"",""time""
""fullscreenenter"",""1"",""3337""
","
","","","1928.1999999284744","","","19","4446","3112","s","elianto","#3366ff99"," "," ","1","+10","[2781]","1","2","","","4446","99","5","1","win","go","0"
"pit-trial","218","1507224","0.0-104.0","battery-v0.2","","""event"",""trial"",""time""
""fullscreenenter"",""1"",""3337""
","
","
","""event"",""trial"",""time""
""fullscreenenter"",""1"",""3337""
","
","","","-1","","","19","4446","3112","w","elianto","#f73b6a7A","-1","-1","1","0","[]","0","2","","","4446","100","6","4","lose","no-go","0"
"pit-trial","219","1511361","0.0-105.0","battery-v0.2","","""event"",""trial"",""time""
""fullscreenenter"",""1"",""3337""
","
","
","""event"",""trial"",""time""
""fullscreenenter"",""1"",""3337""
","
","","","1275.3000000715256","","","19","4446","3112","d","elianto","#3366ff99","-1"," ","0","0","[2127.399999976158]","1","2","","","4446","101","8","2","win","no-go","0"
"pit-trial","220","1515143","0.0-106.0","battery-v0.2","","""event"",""trial"",""time""
""fullscreenenter"",""1"",""3337""
","
","
","""event"",""trial"",""time""
""fullscreenenter"",""1"",""3337""
","
","","","915.7999999523163","","","19","4446","3112","j","elianto","#3366ff99","-1"," ","0","0","[1776.2000000476837]","1","2","","","4446","102","9","2","win","no-go","0"
"pit-trial","221","1520015","0.0-107.0","battery-v0.2","","""event"",""trial"",""time""
""fullscreenenter"",""1"",""3337""
","
","
","""event"",""trial"",""time""
""fullscreenenter"",""1"",""3337""
","
","","","-1","","","19","4446","3112","w","elianto","#f73b6a7A","-1","-1","1","-10","[]","0","2","","","4446","103","6","4","lose","no-go","1"
"pit-trial","222","1523517","0.0-108.0","battery-v0.2","","""event"",""trial"",""time""
""fullscreenenter"",""1"",""3337""
","
","
","""event"",""trial"",""time""
""fullscreenenter"",""1"",""3337""
","
","","","629.6000000238419","","","19","4446","3112","s","elianto","#3366ff99"," "," ","1","0","[1483.8999999761581]","1","2","","","4446","104","5","1","win","go","1"
"pit-trial","223","1527568","0.0-109.0","battery-v0.2","","""event"",""trial"",""time""
""fullscreenenter"",""1"",""3337""
","
","
","""event"",""trial"",""time""
""fullscreenenter"",""1"",""3337""
","
","","","1189","","","19","4446","3112","d","elianto","#3366ff99","-1"," ","0","0","[2039.6000000238419]","1","2","","","4446","105","8","2","win","no-go","0"
"pit-trial","224","1532443","0.0-110.0","battery-v0.2","","""event"",""trial"",""time""
""fullscreenenter"",""1"",""3337""
","
","
","""event"",""trial"",""time""
""fullscreenenter"",""1"",""3337""
","
","","","-1","","","19","4446","3112","w","elianto","#f73b6a7A","-1","-1","1","0","[]","0","2","","","4446","106","6","4","lose","no-go","0"
"pit-trial","225","1536413","0.0-111.0","battery-v0.2","","""event"",""trial"",""time""
""fullscreenenter"",""1"",""3337""
","
","
","""event"",""trial"",""time""
""fullscreenenter"",""1"",""3337""
","
","","","1096.1000000238419","","","19","4446","3112","j","elianto","#3366ff99","-1"," ","0","0","[1951.3999999761581]","1","2","","","4446","107","9","2","win","no-go","0"
"pit-trial","226","1540375","0.0-112.0","battery-v0.2","","""event"",""trial"",""time""
""fullscreenenter"",""1"",""3337""
","
","
","""event"",""trial"",""time""
""fullscreenenter"",""1"",""3337""
","
","","","1092.5","","","19","4446","3112","s","elianto","#3366ff99"," "," ","1","+10","[1949.3999999761581]","1","2","","","4446","108","5","1","win","go","0"
"pit-trial","227","1543836","0.0-113.0","battery-v0.2","","""event"",""trial"",""time""
""fullscreenenter"",""1"",""3337""
","
","
","""event"",""trial"",""time""
""fullscreenenter"",""1"",""3337""
","
","","","596.1000000238419","","","19","4446","3112","j","elianto","#3366ff99","-1"," ","0","0","[1453.3999999761581]","1","2","","","4446","109","9","2","win","no-go","0"
"pit-trial","228","1547454","0.0-114.0","battery-v0.2","","""event"",""trial"",""time""
""fullscreenenter"",""1"",""3337""
","
","
","""event"",""trial"",""time""
""fullscreenenter"",""1"",""3337""
","
","","","757.2999999523163","","","19","4446","3112","d","elianto","#3366ff99","-1"," ","0","+10","[1609.6000000238419]","1","2","","","4446","110","8","2","win","no-go","1"
"pit-trial","229","1552327","0.0-115.0","battery-v0.2","","""event"",""trial"",""time""
""fullscreenenter"",""1"",""3337""
","
","
","""event"",""trial"",""time""
""fullscreenenter"",""1"",""3337""
","
","","","-1","","","19","4446","3112","w","elianto","#f73b6a7A","-1","-1","1","-10","[]","0","2","","","4446","111","6","4","lose","no-go","1"
"pit-trial","230","1556051","0.0-116.0","battery-v0.2","","""event"",""trial"",""time""
""fullscreenenter"",""1"",""3337""
","
","
","""event"",""trial"",""time""
""fullscreenenter"",""1"",""3337""
","
","","","854.5999999046326","","","19","4446","3112","s","elianto","#3366ff99"," "," ","1","0","[1709.2999999523163]","1","2","","","4446","112","5","1","win","go","1"
"pit-trial","231","1560237","0.0-117.0","battery-v0.2","","""event"",""trial"",""time""
""fullscreenenter"",""1"",""3337""
","
","
","""event"",""trial"",""time""
""fullscreenenter"",""1"",""3337""
","
","","","1315.7999999523163","","","19","4446","3112","e","elianto","#f73b6a7A"," "," ","1","0","[2166.100000023842]","1","2","","","4446","113","7","3","lose","go","0"
"pit-trial","232","1563910","0.0-118.0","battery-v0.2","","""event"",""trial"",""time""
""fullscreenenter"",""1"",""3337""
","
","
","""event"",""trial"",""time""
""fullscreenenter"",""1"",""3337""
","
","","","810.6000000238419","","","19","4446","3112","d","elianto","#3366ff99","-1"," ","0","0","[1664.5]","1","2","","","4446","114","8","2","win","no-go","0"
"pit-trial","233","1568317","0.0-119.0","battery-v0.2","","""event"",""trial"",""time""
""fullscreenenter"",""1"",""3337""
","
","
","""event"",""trial"",""time""
""fullscreenenter"",""1"",""3337""
","
","","","1544.8999999761581","","","19","4446","3112","j","elianto","#3366ff99","-1"," ","0","0","[2396.5]","1","2","","","4446","115","9","2","win","no-go","0"
"pit-trial","234","1573150","0.0-120.0","battery-v0.2","","""event"",""trial"",""time""
""fullscreenenter"",""1"",""3337""
","
","
","""event"",""trial"",""time""
""fullscreenenter"",""1"",""3337""
","
","","","1958.0999999046326","","","19","4446","3112","s","elianto","#3366ff99"," "," ","1","+10","[2811.3000000715256]","1","2","","","4446","116","5","1","win","go","0"
"pit-trial","235","1577357","0.0-121.0","battery-v0.2","","""event"",""trial"",""time""
""fullscreenenter"",""1"",""3337""
","
","
","""event"",""trial"",""time""
""fullscreenenter"",""1"",""3337""
","
","","","1335.1000000238419","","","19","4446","3112","s","elianto","#3366ff99"," "," ","1","0","[2187.3000000715256]","1","2","","","4446","117","5","1","win","go","1"
"pit-trial","236","1582238","0.0-122.0","battery-v0.2","","""event"",""trial"",""time""
""fullscreenenter"",""1"",""3337""
","
","
","""event"",""trial"",""time""
""fullscreenenter"",""1"",""3337""
","
","","","-1","","","19","4446","3112","j","elianto","#3366ff99","-1","-1","1","+10","[]","0","2","","","4446","118","9","2","win","no-go","0"
"pit-trial","237","1587110","0.0-123.0","battery-v0.2","","""event"",""trial"",""time""
""fullscreenenter"",""1"",""3337""
","
","
","""event"",""trial"",""time""
""fullscreenenter"",""1"",""3337""
","
","","","-1","","","19","4446","3112","d","elianto","#3366ff99","-1","-1","1","+10","[]","0","2","","","4446","119","8","2","win","no-go","0"
"pit-trial","238","1591978","0.0-124.0","battery-v0.2","","""event"",""trial"",""time""
""fullscreenenter"",""1"",""3337""
","
","
","""event"",""trial"",""time""
""fullscreenenter"",""1"",""3337""
","
","","","-1","","","19","4446","3112","w","elianto","#f73b6a7A","-1","-1","1","0","[]","0","2","","","4446","120","6","4","lose","no-go","0"
"pit-trial","239","1596334","0.0-125.0","battery-v0.2","","""event"",""trial"",""time""
""fullscreenenter"",""1"",""3337""
","
","
","""event"",""trial"",""time""
""fullscreenenter"",""1"",""3337""
","
","","","1486.5","","","19","4446","3112","s","elianto","#3366ff99"," "," ","1","+10","[2344.2999999523163]","1","2","","","4446","121","5","1","win","go","0"
"pit-trial","240","1601202","0.0-126.0","battery-v0.2","","""event"",""trial"",""time""
""fullscreenenter"",""1"",""3337""
","
","
","""event"",""trial"",""time""
""fullscreenenter"",""1"",""3337""
","
","","","-1","","","19","4446","3112","j","elianto","#3366ff99","-1","-1","1","+10","[]","0","2","","","4446","122","9","2","win","no-go","0"
"pit-trial","241","1606076","0.0-127.0","battery-v0.2","","""event"",""trial"",""time""
""fullscreenenter"",""1"",""3337""
","
","
","""event"",""trial"",""time""
""fullscreenenter"",""1"",""3337""
","
","","","-1","","","19","4446","3112","d","elianto","#3366ff99","-1","-1","1","0","[]","0","2","","","4446","123","8","2","win","no-go","1"
"pit-trial","242","1610159","0.0-128.0","battery-v0.2","","""event"",""trial"",""time""
""fullscreenenter"",""1"",""3337""
","
","
","""event"",""trial"",""time""
""fullscreenenter"",""1"",""3337""
","
","","","1214.7000000476837","","","19","4446","3112","e","elianto","#f73b6a7A"," "," ","1","0","[2069.3000000715256]","1","2","","","4446","124","7","3","lose","go","0"
"pit-trial","243","1615047","0.0-129.0","battery-v0.2","","""event"",""trial"",""time""
""fullscreenenter"",""1"",""3337""
","
","
","""event"",""trial"",""time""
""fullscreenenter"",""1"",""3337""
","
","","","-1","","","19","4446","3112","w","elianto","#f73b6a7A","-1","-1","1","0","[]","0","2","","","4446","125","6","4","lose","no-go","0"
"pit-trial","244","1619918","0.0-130.0","battery-v0.2","","""event"",""trial"",""time""
""fullscreenenter"",""1"",""3337""
","
","
","""event"",""trial"",""time""
""fullscreenenter"",""1"",""3337""
","
","","","-1","","","19","4446","3112","d","elianto","#3366ff99","-1","-1","1","+10","[]","0","2","","","4446","126","8","2","win","no-go","0"
"pit-trial","245","1624426","0.0-131.0","battery-v0.2","","""event"",""trial"",""time""
""fullscreenenter"",""1"",""3337""
","
","
","""event"",""trial"",""time""
""fullscreenenter"",""1"",""3337""
","
","","","1629.7000000476837","","","19","4446","3112","e","elianto","#f73b6a7A"," "," ","1","0","[2487.600000023842]","1","2","","","4446","127","7","3","lose","go","0"
"pit-trial","246","1629297","0.0-132.0","battery-v0.2","","""event"",""trial"",""time""
""fullscreenenter"",""1"",""3337""
","
","
","""event"",""trial"",""time""
""fullscreenenter"",""1"",""3337""
","
","","","-1","","","19","4446","3112","j","elianto","#3366ff99","-1","-1","1","+10","[]","0","2","","","4446","128","9","2","win","no-go","0"
"pit-trial","247","1634163","0.0-133.0","battery-v0.2","","""event"",""trial"",""time""
""fullscreenenter"",""1"",""3337""
","
","
","""event"",""trial"",""time""
""fullscreenenter"",""1"",""3337""
","
","","","-1","","","19","4446","3112","j","elianto","#3366ff99","-1","-1","1","+10","[]","0","2","","","4446","129","9","2","win","no-go","0"
"pit-trial","248","1638426","0.0-134.0","battery-v0.2","","""event"",""trial"",""time""
""fullscreenenter"",""1"",""3337""
","
","
","""event"",""trial"",""time""
""fullscreenenter"",""1"",""3337""
","
","","","1402.1999999284744","","","19","4446","3112","e","elianto","#f73b6a7A"," "," ","1","-10","[2253.5]","1","2","","","4446","130","7","3","lose","go","1"
"pit-trial","249","1643291","0.0-135.0","battery-v0.2","","""event"",""trial"",""time""
""fullscreenenter"",""1"",""3337""
","
","
","""event"",""trial"",""time""
""fullscreenenter"",""1"",""3337""
","
","","","-1","","","19","4446","3112","w","elianto","#f73b6a7A","-1","-1","1","-10","[]","0","2","","","4446","131","6","4","lose","no-go","1"
"pit-trial","250","1648156","0.0-136.0","battery-v0.2","","""event"",""trial"",""time""
""fullscreenenter"",""1"",""3337""
","
","
","""event"",""trial"",""time""
""fullscreenenter"",""1"",""3337""
","
","","","-1","","","19","4446","3112","d","elianto","#3366ff99","-1","-1","1","+10","[]","0","2","","","4446","132","8","2","win","no-go","0"
"pit-trial","251","1652898","0.0-137.0","battery-v0.2","","""event"",""trial"",""time""
""fullscreenenter"",""1"",""3337""
","
","
","""event"",""trial"",""time""
""fullscreenenter"",""1"",""3337""
","
","","","1871.3000000715256","","","19","4446","3112","e","elianto","#f73b6a7A"," "," ","1","0","[2728.7000000476837]","1","2","","","4446","133","7","3","lose","go","0"
"pit-trial","252","1657775","0.0-138.0","battery-v0.2","","""event"",""trial"",""time""
""fullscreenenter"",""1"",""3337""
","
","
","""event"",""trial"",""time""
""fullscreenenter"",""1"",""3337""
","
","","","-1","","","19","4446","3112","j","elianto","#3366ff99","-1","-1","1","+10","[]","0","2","","","4446","134","9","2","win","no-go","0"
"pit-trial","253","1662647","0.0-139.0","battery-v0.2","","""event"",""trial"",""time""
""fullscreenenter"",""1"",""3337""
","
","
","""event"",""trial"",""time""
""fullscreenenter"",""1"",""3337""
","
","","","-1","","","19","4446","3112","w","elianto","#f73b6a7A","-1","-1","1","0","[]","0","2","","","4446","135","6","4","lose","no-go","0"
"pit-trial","254","1667526","0.0-140.0","battery-v0.2","","""event"",""trial"",""time""
""fullscreenenter"",""1"",""3337""
","
","
","""event"",""trial"",""time""
""fullscreenenter"",""1"",""3337""
","
","","","-1","","","19","4446","3112","d","elianto","#3366ff99","-1","-1","1","+10","[]","0","2","","","4446","136","8","2","win","no-go","0"
"pit-trial","255","1671949","0.0-141.0","battery-v0.2","","""event"",""trial"",""time""
""fullscreenenter"",""1"",""3337""
","
","
","""event"",""trial"",""time""
""fullscreenenter"",""1"",""3337""
","
","","","1549.8999999761581","","","19","4446","3112","e","elianto","#f73b6a7A"," "," ","1","-10","[2404.5]","1","2","","","4446","137","7","3","lose","go","1"
"pit-trial","256","1676814","0.0-142.0","battery-v0.2","","""event"",""trial"",""time""
""fullscreenenter"",""1"",""3337""
","
","
","""event"",""trial"",""time""
""fullscreenenter"",""1"",""3337""
","
","","","-1","","","19","4446","3112","w","elianto","#f73b6a7A","-1","-1","1","0","[]","0","2","","","4446","138","6","4","lose","no-go","0"
"pit-trial","257","1681699","0.0-143.0","battery-v0.2","","""event"",""trial"",""time""
""fullscreenenter"",""1"",""3337""
","
","
","""event"",""trial"",""time""
""fullscreenenter"",""1"",""3337""
","
","","","-1","","","19","4446","3112","d","elianto","#3366ff99","-1","-1","1","+10","[]","0","2","","","4446","139","8","2","win","no-go","0"
"pit-trial","258","1686580","0.0-144.0","battery-v0.2","","""event"",""trial"",""time""
""fullscreenenter"",""1"",""3337""
","
","
","""event"",""trial"",""time""
""fullscreenenter"",""1"",""3337""
","
","","","-1","","","19","4446","3112","j","elianto","#3366ff99","-1","-1","1","+10","[]","0","2","","","4446","140","9","2","win","no-go","0"
"pit-instructions","259","2359902","0.0-145.0","battery-v0.2","","""event"",""trial"",""time""
""fullscreenenter"",""1"",""3337""
","
","
","""event"",""trial"",""time""
""fullscreenenter"",""1"",""3337""
","
","","[{""page_index"":0,""viewing_time"":663581.1000000238},{""page_index"":1,""viewing_time"":9742.300000071526}]","673323.9000000954","","","","","","","","","","","","","","","","","","","","","","","",""
"pit-trial","260","2364593","0.0-146.0","battery-v0.2","","""event"",""trial"",""time""
""fullscreenenter"",""1"",""3337""
","
","
","""event"",""trial"",""time""
""fullscreenenter"",""1"",""3337""
","
","","","1813.7999999523163","","","19","4446","3112","y","elianto","#f73b6a7A"," "," ","1","0","[2664.4000000953674]","1","3","","","4446","141","2","3","lose","go","0"
"pit-trial","261","2368162","0.0-147.0","battery-v0.2","","""event"",""trial"",""time""
""fullscreenenter"",""1"",""3337""
","
","
","""event"",""trial"",""time""
""fullscreenenter"",""1"",""3337""
","
","","","710.5999999046326","","","19","4446","3112","m","elianto","#f73b6a7A"," "," ","1","0","[1561.0999999046326]","1","3","","","4446","142","0","3","lose","go","0"
"pit-trial","262","2373052","0.0-148.0","battery-v0.2","","""event"",""trial"",""time""
""fullscreenenter"",""1"",""3337""
","
","
","""event"",""trial"",""time""
""fullscreenenter"",""1"",""3337""
","
","","","-1","","","19","4446","3112","h","elianto","#f73b6a7A","-1","-1","1","0","[]","0","3","","","4446","143","3","4","lose","no-go","0"
"pit-trial","263","2376888","0.0-149.0","battery-v0.2","","""event"",""trial"",""time""
""fullscreenenter"",""1"",""3337""
","
","
","""event"",""trial"",""time""
""fullscreenenter"",""1"",""3337""
","
","","","942.2999999523163","","","19","4446","3112","r","elianto","#3366ff99","-1"," ","0","0","[1798.1999999284744]","1","3","","","4446","144","1","2","win","no-go","0"
"pit-trial","264","2381778","0.0-150.0","battery-v0.2","","""event"",""trial"",""time""
""fullscreenenter"",""1"",""3337""
","
","
","""event"",""trial"",""time""
""fullscreenenter"",""1"",""3337""
","
","","","-1","","","19","4446","3112","r","elianto","#3366ff99","-1","-1","1","+10","[]","0","3","","","4446","145","1","2","win","no-go","0"
"pit-trial","265","2385808","0.0-151.0","battery-v0.2","","""event"",""trial"",""time""
""fullscreenenter"",""1"",""3337""
","
","
","""event"",""trial"",""time""
""fullscreenenter"",""1"",""3337""
","
