"trial_type","trial_index","time_elapsed","internal_node_id","task_version","subject_id","interactions","blur_events","focus_events","fullscreenenter_events","fullscreenexit_events","success","view_history","rt","responses","num_errors","age","subject","participantId","rune","rune_set","hex","correct","choice","accuracy","outcome","keys","total_keys","block","practice","value","sub","trial","stimulus","robot","valence","action","sham"
"pavlovia","0","14","0.0-0.0","battery-v0.2","","""event"",""trial"",""time""
""fullscreenenter"",""1"",""2322""
","
","
","""event"",""trial"",""time""
""fullscreenenter"",""1"",""2322""
","
","","","","","","","","","","","","","","","","","","","","","","","","","","",""
"fullscreen","1","3263","0.0-1.0","battery-v0.2","","""event"",""trial"",""time""
""fullscreenenter"",""1"",""2322""
","
","
","""event"",""trial"",""time""
""fullscreenenter"",""1"",""2322""
","
","true","","","","","","","","","","","","","","","","","","","","","","","","","",""
"pit-instructions","2","10556","0.0-2.0-0.0","battery-v0.2","","""event"",""trial"",""time""
""fullscreenenter"",""1"",""2322""
","
","
","""event"",""trial"",""time""
""fullscreenenter"",""1"",""2322""
","
","","[{""page_index"":0,""viewing_time"":7288}]","7288","","","","","","","","","","","","","","","","","","","","","","","",""
"pit-comprehension","3","13818","0.0-2.0-1.0-0.0","battery-v0.2","","""event"",""trial"",""time""
""fullscreenenter"",""1"",""2322""
","
","
","""event"",""trial"",""time""
""fullscreenenter"",""1"",""2322""
","
","","","3131","[""shark""]","0","25","10862","2627","","","","","","","","","","","","","","","","","","",""
"pit-instructions","4","24419","0.0-2.0-1.0-1.0","battery-v0.2","","""event"",""trial"",""time""
""fullscreenenter"",""1"",""2322""
","
","
","""event"",""trial"",""time""
""fullscreenenter"",""1"",""2322""
","
","","[{""page_index"":0,""viewing_time"":10580}]","10581.000000000004","","","","","","","","","","","","","","","","","","","","","","","",""
"pit-comprehension","5","26932","0.0-2.0-2.0-0.0","battery-v0.2","","""event"",""trial"",""time""
""fullscreenenter"",""1"",""2322""
","
","
","""event"",""trial"",""time""
""fullscreenenter"",""1"",""2322""
","
","","","2508.9999999999964","[""tiger""]","0","25","10862","2627","","","","","","","","","","","","","","","","","","",""
"pit-instructions","6","31238","0.0-2.0-2.0-1.0","battery-v0.2","","""event"",""trial"",""time""
""fullscreenenter"",""1"",""2322""
","
","
","""event"",""trial"",""time""
""fullscreenenter"",""1"",""2322""
","
","","[{""page_index"":0,""viewing_time"":4301}]","4301","","","","","","","","","","","","","","","","","","","","","","","",""
"pit-instructions","7","242451","0.0-2.0-3.0","battery-v0.2","","""event"",""trial"",""time""
""fullscreenenter"",""1"",""2322""
","
","
","""event"",""trial"",""time""
""fullscreenenter"",""1"",""2322""
","
","","[{""page_index"":0,""viewing_time"":61005},{""page_index"":1,""viewing_time"":14818},{""page_index"":2,""viewing_time"":14011},{""page_index"":3,""viewing_time"":30876},{""page_index"":4,""viewing_time"":16978},{""page_index"":5,""viewing_time"":8474},{""page_index"":6,""viewing_time"":8805},{""page_index"":7,""viewing_time"":12673},{""page_index"":8,""viewing_time"":6588},{""page_index"":9,""viewing_time"":8521},{""page_index"":10,""viewing_time"":7498},{""page_index"":11,""viewing_time"":8213},{""page_index"":12,""viewing_time"":7647},{""page_index"":13,""viewing_time"":5094.000000000029}]","211201.00000000003","","","","","","","","","","","","","","","","","","","","","","","",""
"pit-trial","8","246285","0.0-2.0-4.0-0.0","battery-v0.2","","""event"",""trial"",""time""
""fullscreenenter"",""1"",""2322""
","
","
","""event"",""trial"",""time""
""fullscreenenter"",""1"",""2322""
","
","","","980.0000000000291","","","25","10862","2627","&#9784;","elianto","#FFFFF080"," "," ","1","&#10004","[1830.000000000029]","1","0","0","","","","","","","",""
"pit-trial","9","250206","0.0-2.0-4.1-0.1","battery-v0.2","","""event"",""trial"",""time""
""fullscreenenter"",""1"",""2322""
","
","
","""event"",""trial"",""time""
""fullscreenenter"",""1"",""2322""
","
","","","1066","","","25","10862","2627","&#9784;","elianto","#FFFFF080"," "," ","1","&#10004","[1916]","1","0","0","","","","","","","",""
"pit-trial","10","253925","0.0-2.0-4.2-0.2","battery-v0.2","","""event"",""trial"",""time""
""fullscreenenter"",""1"",""2322""
","
","
","""event"",""trial"",""time""
""fullscreenenter"",""1"",""2322""
","
","","","862","","","25","10862","2627","&#9784;","elianto","#FFFFF080"," "," ","1","&#10004","[1714]","1","0","0","","","","","","","",""
"pit-trial","11","257797","0.0-2.0-4.3-0.3","battery-v0.2","","""event"",""trial"",""time""
""fullscreenenter"",""1"",""2322""
","
","
","""event"",""trial"",""time""
""fullscreenenter"",""1"",""2322""
","
","","","1018.0000000000291","","","25","10862","2627","&#9784;","elianto","#FFFFF080"," "," ","1","&#10004","[1867.999999999971]","1","0","0","","","","","","","",""
"pit-trial","12","261904","0.0-2.0-4.4-0.4","battery-v0.2","","""event"",""trial"",""time""
""fullscreenenter"",""1"",""2322""
","
","
","""event"",""trial"",""time""
""fullscreenenter"",""1"",""2322""
","
","","","1252.999999999971","","","25","10862","2627","&#9784;","elianto","#FFFFF080"," "," ","1","&#10004","[2103.999999999971]","1","0","0","","","","","","","",""
"pit-instructions","13","288681","0.0-2.0-5.0","battery-v0.2","","""event"",""trial"",""time""
""fullscreenenter"",""1"",""2322""
","
","
","""event"",""trial"",""time""
""fullscreenenter"",""1"",""2322""
","
","","[{""page_index"":0,""viewing_time"":8339.000000000058},{""page_index"":1,""viewing_time"":5571.999999999942},{""page_index"":2,""viewing_time"":7541.000000000058},{""page_index"":3,""viewing_time"":5320.999999999942}]","26773","","","","","","","","","","","","","","","","","","","","","","","",""
"pit-trial","14","293534","0.0-2.0-6.0-0.0","battery-v0.2","","""event"",""trial"",""time""
""fullscreenenter"",""1"",""2322""
","
","
","""event"",""trial"",""time""
""fullscreenenter"",""1"",""2322""
","
","","","-1","","","25","10862","2627","&#9854;","elianto","#FFFFF080","-1","-1","1","&#10004","[]","0","0","1","","","","","","","",""
"pit-trial","15","298389","0.0-2.0-6.1-0.1","battery-v0.2","","""event"",""trial"",""time""
""fullscreenenter"",""1"",""2322""
","
","
","""event"",""trial"",""time""
""fullscreenenter"",""1"",""2322""
","
","","","-1","","","25","10862","2627","&#9854;","elianto","#FFFFF080","-1","-1","1","&#10004","[]","0","0","1","","","","","","","",""
"pit-trial","16","303244","0.0-2.0-6.2-0.2","battery-v0.2","","""event"",""trial"",""time""
""fullscreenenter"",""1"",""2322""
","
","
","""event"",""trial"",""time""
""fullscreenenter"",""1"",""2322""
","
","","","-1","","","25","10862","2627","&#9854;","elianto","#FFFFF080","-1","-1","1","&#10004","[]","0","0","1","","","","","","","",""
"pit-trial","17","308098","0.0-2.0-6.3-0.3","battery-v0.2","","""event"",""trial"",""time""
""fullscreenenter"",""1"",""2322""
","
","
","""event"",""trial"",""time""
""fullscreenenter"",""1"",""2322""
","
","","","-1","","","25","10862","2627","&#9854;","elianto","#FFFFF080","-1","-1","1","&#10004","[]","0","0","1","","","","","","","",""
"pit-trial","18","312954","0.0-2.0-6.4-0.4","battery-v0.2","","""event"",""trial"",""time""
""fullscreenenter"",""1"",""2322""
","
","
","""event"",""trial"",""time""
""fullscreenenter"",""1"",""2322""
","
","","","-1","","","25","10862","2627","&#9854;","elianto","#FFFFF080","-1","-1","1","&#10004","[]","0","0","1","","","","","","","",""
"pit-instructions","19","440855","0.0-2.0-7.0","battery-v0.2","","""event"",""trial"",""time""
""fullscreenenter"",""1"",""2322""
","
","
","""event"",""trial"",""time""
""fullscreenenter"",""1"",""2322""
","
","","[{""page_index"":0,""viewing_time"":7088.000000000058},{""page_index"":1,""viewing_time"":6953.999999999942},{""page_index"":2,""viewing_time"":6029},{""page_index"":3,""viewing_time"":6506},{""page_index"":4,""viewing_time"":6477},{""page_index"":5,""viewing_time"":7452},{""page_index"":6,""viewing_time"":6611.000000000058},{""page_index"":7,""viewing_time"":8917.999999999942},{""page_index"":8,""viewing_time"":7472},{""page_index"":9,""viewing_time"":6655},{""page_index"":10,""viewing_time"":6495},{""page_index"":11,""viewing_time"":5631},{""page_index"":12,""viewing_time"":7428},{""page_index"":13,""viewing_time"":8599},{""page_index"":14,""viewing_time"":8483},{""page_index"":15,""viewing_time"":7146.000000000058},{""page_index"":16,""viewing_time"":6866.999999999942},{""page_index"":17,""viewing_time"":7084}]","127895","","","","","","","","","","","","","","","","","","","","","","","",""
"pit-trial","20","444732","0.0-2.0-8.0-0.0","battery-v0.2","","""event"",""trial"",""time""
""fullscreenenter"",""1"",""2322""
","
","
","""event"",""trial"",""time""
""fullscreenenter"",""1"",""2322""
","
","","","1022","","","25","10862","2627","&#9776;","elianto","#3366ff99"," "," ","1","+10","[1871.9999999999418]","1","0","1","","","","","","","",""
"pit-trial","21","448291","0.0-2.0-8.0-1.0","battery-v0.2","","""event"",""trial"",""time""
""fullscreenenter"",""1"",""2322""
","
","
","""event"",""trial"",""time""
""fullscreenenter"",""1"",""2322""
","
","","","705","","","25","10862","2627","&#9776;","elianto","#3366ff99"," "," ","1","+10","[1556]","1","0","1","","","","","","","",""
"pit-trial","22","452011","0.0-2.0-8.0-2.0","battery-v0.2","","""event"",""trial"",""time""
""fullscreenenter"",""1"",""2322""
","
","
","""event"",""trial"",""time""
""fullscreenenter"",""1"",""2322""
","
","","","865","","","25","10862","2627","&#9776;","elianto","#3366ff99"," "," ","1","+10","[1716]","1","0","1","","","","","","","",""
"pit-trial","23","455639","0.0-2.0-8.0-3.0","battery-v0.2","","""event"",""trial"",""time""
""fullscreenenter"",""1"",""2322""
","
","
","""event"",""trial"",""time""
""fullscreenenter"",""1"",""2322""
","
","","","774","","","25","10862","2627","&#9776;","elianto","#3366ff99"," "," ","1","0","[1624.0000000000582]","1","0","1","","","","","","","",""
"pit-trial","24","459274","0.0-2.0-8.0-4.0","battery-v0.2","","""event"",""trial"",""time""
""fullscreenenter"",""1"",""2322""
","
","
","""event"",""trial"",""time""
""fullscreenenter"",""1"",""2322""
","
","","","781","","","25","10862","2627","&#9776;","elianto","#3366ff99"," "," ","1","+10","[1632]","1","0","1","","","","","","","",""
"pit-trial","25","462771","0.0-2.0-8.1-0.1","battery-v0.2","","""event"",""trial"",""time""
""fullscreenenter"",""1"",""2322""
","
","
","""event"",""trial"",""time""
""fullscreenenter"",""1"",""2322""
","
","","","642","","","25","10862","2627","&#9776;","elianto","#3366ff99"," "," ","1","+10","[1493]","1","0","1","","","","","","","",""
"pit-trial","26","466446","0.0-2.0-8.1-1.1","battery-v0.2","","""event"",""trial"",""time""
""fullscreenenter"",""1"",""2322""
","
","
","""event"",""trial"",""time""
""fullscreenenter"",""1"",""2322""
","
","","","821","","","25","10862","2627","&#9776;","elianto","#3366ff99"," "," ","1","+10","[1672]","1","0","1","","","","","","","",""
"pit-trial","27","469905","0.0-2.0-8.1-2.1","battery-v0.2","","""event"",""trial"",""time""
""fullscreenenter"",""1"",""2322""
","
","
","""event"",""trial"",""time""
""fullscreenenter"",""1"",""2322""
","
","","","604","","","25","10862","2627","&#9776;","elianto","#3366ff99"," "," ","1","+10","[1455.9999999999418]","1","0","1","","","","","","","",""
"pit-trial","28","473468","0.0-2.0-8.1-3.1","battery-v0.2","","""event"",""trial"",""time""
""fullscreenenter"",""1"",""2322""
","
","
","""event"",""trial"",""time""
""fullscreenenter"",""1"",""2322""
","
","","","710","","","25","10862","2627","&#9776;","elianto","#3366ff99"," "," ","1","0","[1560]","1","0","1","","","","","","","",""
"pit-trial","29","477237","0.0-2.0-8.1-4.1","battery-v0.2","","""event"",""trial"",""time""
""fullscreenenter"",""1"",""2322""
","
","
","""event"",""trial"",""time""
""fullscreenenter"",""1"",""2322""
","
","","","916","","","25","10862","2627","&#9776;","elianto","#3366ff99"," "," ","1","+10","[1766]","1","0","1","","","","","","","",""
"pit-trial","30","480858","0.0-2.0-8.2-0.2","battery-v0.2","","""event"",""trial"",""time""
""fullscreenenter"",""1"",""2322""
","
","
","""event"",""trial"",""time""
""fullscreenenter"",""1"",""2322""
","
","","","765","","","25","10862","2627","&#9776;","elianto","#3366ff99"," "," ","1","+10","[1616.9999999999418]","1","0","1","","","","","","","",""
"pit-trial","31","484242","0.0-2.0-8.2-1.2","battery-v0.2","","""event"",""trial"",""time""
""fullscreenenter"",""1"",""2322""
","
","
","""event"",""trial"",""time""
""fullscreenenter"",""1"",""2322""
","
","","","530","","","25","10862","2627","&#9776;","elianto","#3366ff99"," "," ","1","+10","[1380]","1","0","1","","","","","","","",""
"pit-trial","32","487714","0.0-2.0-8.2-2.2","battery-v0.2","","""event"",""trial"",""time""
""fullscreenenter"",""1"",""2322""
","
","
","""event"",""trial"",""time""
""fullscreenenter"",""1"",""2322""
","
","","","617","","","25","10862","2627","&#9776;","elianto","#3366ff99"," "," ","1","+10","[1468]","1","0","1","","","","","","","",""
"pit-trial","33","491340","0.0-2.0-8.2-3.2","battery-v0.2","","""event"",""trial"",""time""
""fullscreenenter"",""1"",""2322""
","
","
","""event"",""trial"",""time""
""fullscreenenter"",""1"",""2322""
","
","","","772.9999999999418","","","25","10862","2627","&#9776;","elianto","#3366ff99"," "," ","1","0","[1623]","1","0","1","","","","","","","",""
"pit-trial","34","494918","0.0-2.0-8.2-4.2","battery-v0.2","","""event"",""trial"",""time""
""fullscreenenter"",""1"",""2322""
","
","
","""event"",""trial"",""time""
""fullscreenenter"",""1"",""2322""
","
","","","724.0000000000582","","","25","10862","2627","&#9776;","elianto","#3366ff99"," "," ","1","+10","[1575.0000000000582]","1","0","1","","","","","","","",""
"call-function","35","494920","0.0-2.0-9.0","battery-v0.2","","""event"",""trial"",""time""
""fullscreenenter"",""1"",""2322""
","
","
","""event"",""trial"",""time""
""fullscreenenter"",""1"",""2322""
","
","","","","","","","","","","","","","","","","","","","","","","","","","","",""
"pit-instructions","36","535560","0.0-2.0-10.0","battery-v0.2","","""event"",""trial"",""time""
""fullscreenenter"",""1"",""2322""
","
","
","""event"",""trial"",""time""
""fullscreenenter"",""1"",""2322""
","
","","[{""page_index"":0,""viewing_time"":6098},{""page_index"":1,""viewing_time"":7247},{""page_index"":2,""viewing_time"":9701},{""page_index"":3,""viewing_time"":9104},{""page_index"":4,""viewing_time"":8487}]","40637","","","","","","","","","","","","","","","","","","","","","","","",""
"pit-trial","37","539613","0.0-2.0-11.0-0.0","battery-v0.2","","""event"",""trial"",""time""
""fullscreenenter"",""1"",""2322""
","
","
","""event"",""trial"",""time""
""fullscreenenter"",""1"",""2322""
","
","","","1198.0000000001164","","","25","10862","2627","&#9761;","elianto","#3366ff99","-1"," ","0","0","[2048]","1","0","2","","","","","","","",""
"pit-trial","38","543363","0.0-2.0-11.0-1.0","battery-v0.2","","""event"",""trial"",""time""
""fullscreenenter"",""1"",""2322""
","
","
","""event"",""trial"",""time""
""fullscreenenter"",""1"",""2322""
","
","","","895","","","25","10862","2627","&#9761;","elianto","#3366ff99","-1"," ","0","0","[1745]","1","0","2","","","","","","","",""
"pit-trial","39","547063","0.0-2.0-11.0-2.0","battery-v0.2","","""event"",""trial"",""time""
""fullscreenenter"",""1"",""2322""
","
","
","""event"",""trial"",""time""
""fullscreenenter"",""1"",""2322""
","
","","","846","","","25","10862","2627","&#9761;","elianto","#3366ff99","-1"," ","0","0","[1697]","1","0","2","","","","","","","",""
"pit-trial","40","551917","0.0-2.0-11.0-3.0","battery-v0.2","","""event"",""trial"",""time""
""fullscreenenter"",""1"",""2322""
","
","
","""event"",""trial"",""time""
""fullscreenenter"",""1"",""2322""
","
","","","-1","","","25","10862","2627","&#9761;","elianto","#3366ff99","-1","-1","1","0","[]","0","0","2","","","","","","","",""
"pit-trial","41","556771","0.0-2.0-11.0-4.0","battery-v0.2","","""event"",""trial"",""time""
""fullscreenenter"",""1"",""2322""
","
","
","""event"",""trial"",""time""
""fullscreenenter"",""1"",""2322""
","
","","","-1","","","25","10862","2627","&#9761;","elianto","#3366ff99","-1","-1","1","+10","[]","0","0","2","","","","","","","",""
"pit-trial","42","561626","0.0-2.0-11.1-0.1","battery-v0.2","","""event"",""trial"",""time""
""fullscreenenter"",""1"",""2322""
","
","
","""event"",""trial"",""time""
""fullscreenenter"",""1"",""2322""
","
","","","-1","","","25","10862","2627","&#9761;","elianto","#3366ff99","-1","-1","1","+10","[]","0","0","2","","","","","","","",""
"pit-trial","43","566481","0.0-2.0-11.1-1.1","battery-v0.2","","""event"",""trial"",""time""
""fullscreenenter"",""1"",""2322""
","
","
","""event"",""trial"",""time""
""fullscreenenter"",""1"",""2322""
","
","","","-1","","","25","10862","2627","&#9761;","elianto","#3366ff99","-1","-1","1","+10","[]","0","0","2","","","","","","","",""
"pit-trial","44","570223","0.0-2.0-11.1-2.1","battery-v0.2","","""event"",""trial"",""time""
""fullscreenenter"",""1"",""2322""
","
","
","""event"",""trial"",""time""
""fullscreenenter"",""1"",""2322""
","
","","","889","","","25","10862","2627","&#9761;","elianto","#3366ff99","-1"," ","0","0","[1740]","1","0","2","","","","","","","",""
"pit-trial","45","575078","0.0-2.0-11.1-3.1","battery-v0.2","","""event"",""trial"",""time""
""fullscreenenter"",""1"",""2322""
","
","
","""event"",""trial"",""time""
""fullscreenenter"",""1"",""2322""
","
","","","-1","","","25","10862","2627","&#9761;","elianto","#3366ff99","-1","-1","1","0","[]","0","0","2","","","","","","","",""
"pit-trial","46","579933","0.0-2.0-11.1-4.1","battery-v0.2","","""event"",""trial"",""time""
""fullscreenenter"",""1"",""2322""
","
","
","""event"",""trial"",""time""
""fullscreenenter"",""1"",""2322""
","
","","","-1","","","25","10862","2627","&#9761;","elianto","#3366ff99","-1","-1","1","+10","[]","0","0","2","","","","","","","",""
"pit-trial","47","583593","0.0-2.0-11.2-0.2","battery-v0.2","","""event"",""trial"",""time""
""fullscreenenter"",""1"",""2322""
","
","
","""event"",""trial"",""time""
""fullscreenenter"",""1"",""2322""
","
","","","806","","","25","10862","2627","&#9761;","elianto","#3366ff99","-1"," ","0","0","[1657]","1","0","2","","","","","","","",""
"pit-trial","48","588447","0.0-2.0-11.2-1.2","battery-v0.2","","""event"",""trial"",""time""
""fullscreenenter"",""1"",""2322""
","
","
","""event"",""trial"",""time""
""fullscreenenter"",""1"",""2322""
","
","","","-1","","","25","10862","2627","&#9761;","elianto","#3366ff99","-1","-1","1","+10","[]","0","0","2","","","","","","","",""
"pit-trial","49","593302","0.0-2.0-11.2-2.2","battery-v0.2","","""event"",""trial"",""time""
""fullscreenenter"",""1"",""2322""
","
","
","""event"",""trial"",""time""
""fullscreenenter"",""1"",""2322""
","
","","","-1","","","25","10862","2627","&#9761;","elianto","#3366ff99","-1","-1","1","+10","[]","0","0","2","","","","","","","",""
"pit-trial","50","598156","0.0-2.0-11.2-3.2","battery-v0.2","","""event"",""trial"",""time""
""fullscreenenter"",""1"",""2322""
","
","
","""event"",""trial"",""time""
""fullscreenenter"",""1"",""2322""
","
","","","-1","","","25","10862","2627","&#9761;","elianto","#3366ff99","-1","-1","1","0","[]","0","0","2","","","","","","","",""
"pit-trial","51","601713","0.0-2.0-11.2-4.2","battery-v0.2","","""event"",""trial"",""time""
""fullscreenenter"",""1"",""2322""
","
","
","""event"",""trial"",""time""
""fullscreenenter"",""1"",""2322""
","
","","","703","","","25","10862","2627","&#9761;","elianto","#3366ff99","-1"," ","0","0","[1554]","1","0","2","","","","","","","",""
"pit-trial","52","606568","0.0-2.0-11.3-0.3","battery-v0.2","","""event"",""trial"",""time""
""fullscreenenter"",""1"",""2322""
","
","
","""event"",""trial"",""time""
""fullscreenenter"",""1"",""2322""
","
","","","-1","","","25","10862","2627","&#9761;","elianto","#3366ff99","-1","-1","1","+10","[]","0","0","2","","","","","","","",""
"pit-trial","53","611422","0.0-2.0-11.3-1.3","battery-v0.2","","""event"",""trial"",""time""
""fullscreenenter"",""1"",""2322""
","
","
","""event"",""trial"",""time""
""fullscreenenter"",""1"",""2322""
","
","","","-1","","","25","10862","2627","&#9761;","elianto","#3366ff99","-1","-1","1","+10","[]","0","0","2","","","","","","","",""
"pit-trial","54","616277","0.0-2.0-11.3-2.3","battery-v0.2","","""event"",""trial"",""time""
""fullscreenenter"",""1"",""2322""
","
","
","""event"",""trial"",""time""
""fullscreenenter"",""1"",""2322""
","
","","","-1","","","25","10862","2627","&#9761;","elianto","#3366ff99","-1","-1","1","+10","[]","0","0","2","","","","","","","",""
"pit-trial","55","621131","0.0-2.0-11.3-3.3","battery-v0.2","","""event"",""trial"",""time""
""fullscreenenter"",""1"",""2322""
","
","
","""event"",""trial"",""time""
""fullscreenenter"",""1"",""2322""
","
","","","-1","","","25","10862","2627","&#9761;","elianto","#3366ff99","-1","-1","1","0","[]","0","0","2","","","","","","","",""
"pit-trial","56","625986","0.0-2.0-11.3-4.3","battery-v0.2","","""event"",""trial"",""time""
""fullscreenenter"",""1"",""2322""
","
","
","""event"",""trial"",""time""
""fullscreenenter"",""1"",""2322""
","
","","","-1","","","25","10862","2627","&#9761;","elianto","#3366ff99","-1","-1","1","+10","[]","0","0","2","","","","","","","",""
"call-function","57","625988","0.0-2.0-12.0","battery-v0.2","","""event"",""trial"",""time""
""fullscreenenter"",""1"",""2322""
","
","
","""event"",""trial"",""time""
""fullscreenenter"",""1"",""2322""
","
","","","","","","","","","","","","","","","","","","","","","","","","","","",""
"pit-instructions","58","659647","0.0-2.0-13.0","battery-v0.2","","""event"",""trial"",""time""
""fullscreenenter"",""1"",""2322""
","
","
","""event"",""trial"",""time""
""fullscreenenter"",""1"",""2322""
","
","","[{""page_index"":0,""viewing_time"":5036},{""page_index"":1,""viewing_time"":7945},{""page_index"":2,""viewing_time"":4586},{""page_index"":3,""viewing_time"":10438},{""page_index"":4,""viewing_time"":5652}]","33658","","","","","","","","","","","","","","","","","","","","","","","",""
"pit-trial","59","663375","0.0-2.0-14.0-0.0","battery-v0.2","","""event"",""trial"",""time""
""fullscreenenter"",""1"",""2322""
","
","
","""event"",""trial"",""time""
""fullscreenenter"",""1"",""2322""
","
","","","872","","","25","10862","2627","&#9826;","elianto","#f73b6a7A","-1"," ","0","-10","[1723]","1","0","3","","","","","","","",""
"pit-trial","60","668230","0.0-2.0-14.0-1.0","battery-v0.2","","""event"",""trial"",""time""
""fullscreenenter"",""1"",""2322""
","
","
","""event"",""trial"",""time""
""fullscreenenter"",""1"",""2322""
","
","","","-1","","","25","10862","2627","&#9826;","elianto","#f73b6a7A","-1","-1","1","0","[]","0","0","3","","","","","","","",""
"pit-trial","61","673085","0.0-2.0-14.0-2.0","battery-v0.2","","""event"",""trial"",""time""
""fullscreenenter"",""1"",""2322""
","
","
","""event"",""trial"",""time""
""fullscreenenter"",""1"",""2322""
","
","","","-1","","","25","10862","2627","&#9826;","elianto","#f73b6a7A","-1","-1","1","0","[]","0","0","3","","","","","","","",""
"pit-trial","62","677942","0.0-2.0-14.0-3.0","battery-v0.2","","""event"",""trial"",""time""
""fullscreenenter"",""1"",""2322""
","
","
","""event"",""trial"",""time""
""fullscreenenter"",""1"",""2322""
","
","","","-1","","","25","10862","2627","&#9826;","elianto","#f73b6a7A","-1","-1","1","-10","[]","0","0","3","","","","","","","",""
"pit-trial","63","682796","0.0-2.0-14.0-4.0","battery-v0.2","","""event"",""trial"",""time""
""fullscreenenter"",""1"",""2322""
","
","
","""event"",""trial"",""time""
""fullscreenenter"",""1"",""2322""
","
","","","-1","","","25","10862","2627","&#9826;","elianto","#f73b6a7A","-1","-1","1","0","[]","0","0","3","","","","","","","",""
"pit-trial","64","687651","0.0-2.0-14.1-0.1","battery-v0.2","","""event"",""trial"",""time""
""fullscreenenter"",""1"",""2322""
","
","
","""event"",""trial"",""time""
""fullscreenenter"",""1"",""2322""
","
","","","-1","","","25","10862","2627","&#9826;","elianto","#f73b6a7A","-1","-1","1","0","[]","0","0","3","","","","","","","",""
"pit-trial","65","692505","0.0-2.0-14.1-1.1","battery-v0.2","","""event"",""trial"",""time""
""fullscreenenter"",""1"",""2322""
","
","
","""event"",""trial"",""time""
""fullscreenenter"",""1"",""2322""
","
","","","-1","","","25","10862","2627","&#9826;","elianto","#f73b6a7A","-1","-1","1","0","[]","0","0","3","","","","","","","",""
"pit-trial","66","697360","0.0-2.0-14.1-2.1","battery-v0.2","","""event"",""trial"",""time""
""fullscreenenter"",""1"",""2322""
","
","
","""event"",""trial"",""time""
""fullscreenenter"",""1"",""2322""
","
","","","-1","","","25","10862","2627","&#9826;","elianto","#f73b6a7A","-1","-1","1","0","[]","0","0","3","","","","","","","",""
"pit-trial","67","702214","0.0-2.0-14.1-3.1","battery-v0.2","","""event"",""trial"",""time""
""fullscreenenter"",""1"",""2322""
","
","
","""event"",""trial"",""time""
""fullscreenenter"",""1"",""2322""
","
","","","-1","","","25","10862","2627","&#9826;","elianto","#f73b6a7A","-1","-1","1","-10","[]","0","0","3","","","","","","","",""
"pit-trial","68","707069","0.0-2.0-14.1-4.1","battery-v0.2","","""event"",""trial"",""time""
""fullscreenenter"",""1"",""2322""
","
","
","""event"",""trial"",""time""
""fullscreenenter"",""1"",""2322""
","
","","","-1","","","25","10862","2627","&#9826;","elianto","#f73b6a7A","-1","-1","1","0","[]","0","0","3","","","","","","","",""
"pit-trial","69","711923","0.0-2.0-14.2-0.2","battery-v0.2","","""event"",""trial"",""time""
""fullscreenenter"",""1"",""2322""
","
","
","""event"",""trial"",""time""
""fullscreenenter"",""1"",""2322""
","
","","","-1","","","25","10862","2627","&#9826;","elianto","#f73b6a7A","-1","-1","1","0","[]","0","0","3","","","","","","","",""
"pit-trial","70","716778","0.0-2.0-14.2-1.2","battery-v0.2","","""event"",""trial"",""time""
""fullscreenenter"",""1"",""2322""
","
","
","""event"",""trial"",""time""
""fullscreenenter"",""1"",""2322""
","
","","","-1","","","25","10862","2627","&#9826;","elianto","#f73b6a7A","-1","-1","1","0","[]","0","0","3","","","","","","","",""
"pit-trial","71","721632","0.0-2.0-14.2-2.2","battery-v0.2","","""event"",""trial"",""time""
""fullscreenenter"",""1"",""2322""
","
","
","""event"",""trial"",""time""
""fullscreenenter"",""1"",""2322""
","
","","","-1","","","25","10862","2627","&#9826;","elianto","#f73b6a7A","-1","-1","1","0","[]","0","0","3","","","","","","","",""
"pit-trial","72","726487","0.0-2.0-14.2-3.2","battery-v0.2","","""event"",""trial"",""time""
""fullscreenenter"",""1"",""2322""
","
","
","""event"",""trial"",""time""
""fullscreenenter"",""1"",""2322""
","
","","","-1","","","25","10862","2627","&#9826;","elianto","#f73b6a7A","-1","-1","1","-10","[]","0","0","3","","","","","","","",""
"pit-trial","73","731341","0.0-2.0-14.2-4.2","battery-v0.2","","""event"",""trial"",""time""
""fullscreenenter"",""1"",""2322""
","
","
","""event"",""trial"",""time""
""fullscreenenter"",""1"",""2322""
","
","","","-1","","","25","10862","2627","&#9826;","elianto","#f73b6a7A","-1","-1","1","0","[]","0","0","3","","","","","","","",""
"pit-trial","74","736196","0.0-2.0-14.3-0.3","battery-v0.2","","""event"",""trial"",""time""
""fullscreenenter"",""1"",""2322""
","
","
","""event"",""trial"",""time""
""fullscreenenter"",""1"",""2322""
","
","","","-1","","","25","10862","2627","&#9826;","elianto","#f73b6a7A","-1","-1","1","0","[]","0","0","3","","","","","","","",""
"pit-trial","75","741050","0.0-2.0-14.3-1.3","battery-v0.2","","""event"",""trial"",""time""
""fullscreenenter"",""1"",""2322""
","
","
","""event"",""trial"",""time""
""fullscreenenter"",""1"",""2322""
","
","","","-1","","","25","10862","2627","&#9826;","elianto","#f73b6a7A","-1","-1","1","0","[]","0","0","3","","","","","","","",""
"pit-trial","76","745905","0.0-2.0-14.3-2.3","battery-v0.2","","""event"",""trial"",""time""
""fullscreenenter"",""1"",""2322""
","
","
","""event"",""trial"",""time""
""fullscreenenter"",""1"",""2322""
","
","","","-1","","","25","10862","2627","&#9826;","elianto","#f73b6a7A","-1","-1","1","0","[]","0","0","3","","","","","","","",""
"pit-trial","77","750760","0.0-2.0-14.3-3.3","battery-v0.2","","""event"",""trial"",""time""
""fullscreenenter"",""1"",""2322""
","
","
","""event"",""trial"",""time""
""fullscreenenter"",""1"",""2322""
","
","","","-1","","","25","10862","2627","&#9826;","elianto","#f73b6a7A","-1","-1","1","-10","[]","0","0","3","","","","","","","",""
"pit-trial","78","755614","0.0-2.0-14.3-4.3","battery-v0.2","","""event"",""trial"",""time""
""fullscreenenter"",""1"",""2322""
","
","
","""event"",""trial"",""time""
""fullscreenenter"",""1"",""2322""
","
","","","-1","","","25","10862","2627","&#9826;","elianto","#f73b6a7A","-1","-1","1","0","[]","0","0","3","","","","","","","",""
"call-function","79","755616","0.0-2.0-15.0","battery-v0.2","","""event"",""trial"",""time""
""fullscreenenter"",""1"",""2322""
","
","
","""event"",""trial"",""time""
""fullscreenenter"",""1"",""2322""
","
","","","","","","","","","","","","","","","","","","","","","","","","","","",""
"pit-instructions","80","781493","0.0-2.0-16.0","battery-v0.2","","""event"",""trial"",""time""
""fullscreenenter"",""1"",""2322""
","
","
","""event"",""trial"",""time""
""fullscreenenter"",""1"",""2322""
","
","","[{""page_index"":0,""viewing_time"":7080},{""page_index"":1,""viewing_time"":8711},{""page_index"":2,""viewing_time"":5743},{""page_index"":3,""viewing_time"":4342}]","25876","","","","","","","","","","","","","","","","","","","","","","","",""
"pit-trial","81","786347","0.0-2.0-17.0-0.0","battery-v0.2","","""event"",""trial"",""time""
""fullscreenenter"",""1"",""2322""
","
","
","""event"",""trial"",""time""
""fullscreenenter"",""1"",""2322""
","
","","","-1","","","25","10862","2627","&#9789;","elianto","#f73b6a7A"," ","-1","0","-10","[3674]","1","0","4","","","","","","","",""
"pit-trial","82","789787","0.0-2.0-17.0-1.0","battery-v0.2","","""event"",""trial"",""time""
""fullscreenenter"",""1"",""2322""
","
","
","""event"",""trial"",""time""
""fullscreenenter"",""1"",""2322""
","
","","","586","","","25","10862","2627","&#9789;","elianto","#f73b6a7A"," "," ","1","0","[1436]","1","0","4","","","","","","","",""
"pit-trial","83","793302","0.0-2.0-17.0-2.0","battery-v0.2","","""event"",""trial"",""time""
""fullscreenenter"",""1"",""2322""
","
","
","""event"",""trial"",""time""
""fullscreenenter"",""1"",""2322""
","
","","","659.9999999998836","","","25","10862","2627","&#9789;","elianto","#f73b6a7A"," "," ","1","0","[1510.9999999998836]","1","0","4","","","","","","","",""
"pit-trial","84","796725","0.0-2.0-17.0-3.0","battery-v0.2","","""event"",""trial"",""time""
""fullscreenenter"",""1"",""2322""
","
","
","""event"",""trial"",""time""
""fullscreenenter"",""1"",""2322""
","
","","","569","","","25","10862","2627","&#9789;","elianto","#f73b6a7A"," "," ","1","-10","[1419]","1","0","4","","","","","","","",""
"pit-trial","85","800142","0.0-2.0-17.0-4.0","battery-v0.2","","""event"",""trial"",""time""
""fullscreenenter"",""1"",""2322""
","
","
","""event"",""trial"",""time""
""fullscreenenter"",""1"",""2322""
","
","","","563.0000000001164","","","25","10862","2627","&#9789;","elianto","#f73b6a7A"," "," ","1","0","[1413.0000000001164]","1","0","4","","","","","","","",""
"pit-trial","86","803502","0.0-2.0-17.1-0.1","battery-v0.2","","""event"",""trial"",""time""
""fullscreenenter"",""1"",""2322""
","
","
","""event"",""trial"",""time""
""fullscreenenter"",""1"",""2322""
","
","","","505","","","25","10862","2627","&#9789;","elianto","#f73b6a7A"," "," ","1","0","[1356]","1","0","4","","","","","","","",""
"pit-trial","87","806966","0.0-2.0-17.1-1.1","battery-v0.2","","""event"",""trial"",""time""
""fullscreenenter"",""1"",""2322""
","
","
","""event"",""trial"",""time""
""fullscreenenter"",""1"",""2322""
","
","","","609","","","25","10862","2627","&#9789;","elianto","#f73b6a7A"," "," ","1","0","[1461]","1","0","4","","","","","","","",""
"pit-trial","88","810310","0.0-2.0-17.1-2.1","battery-v0.2","","""event"",""trial"",""time""
""fullscreenenter"",""1"",""2322""
","
","
","""event"",""trial"",""time""
""fullscreenenter"",""1"",""2322""
","
","","","489.0000000001164","","","25","10862","2627","&#9789;","elianto","#f73b6a7A"," "," ","1","0","[1340.0000000001164]","1","0","4","","","","","","","",""
"pit-trial","89","813574","0.0-2.0-17.1-3.1","battery-v0.2","","""event"",""trial"",""time""
""fullscreenenter"",""1"",""2322""
","
","
","""event"",""trial"",""time""
""fullscreenenter"",""1"",""2322""
","
","","","410","","","25","10862","2627","&#9789;","elianto","#f73b6a7A"," "," ","1","-10","[1260]","1","0","4","","","","","","","",""
"pit-trial","90","816854","0.0-2.0-17.1-4.1","battery-v0.2","","""event"",""trial"",""time""
""fullscreenenter"",""1"",""2322""
","
","
","""event"",""trial"",""time""
""fullscreenenter"",""1"",""2322""
","
","","","427","","","25","10862","2627","&#9789;","elianto","#f73b6a7A"," "," ","1","0","[1277]","1","0","4","","","","","","","",""
"pit-trial","91","820166","0.0-2.0-17.2-0.2","battery-v0.2","","""event"",""trial"",""time""
""fullscreenenter"",""1"",""2322""
","
","
","""event"",""trial"",""time""
""fullscreenenter"",""1"",""2322""
","
","","","459.0000000001164","","","25","10862","2627","&#9789;","elianto","#f73b6a7A"," "," ","1","0","[1309.0000000001164]","1","0","4","","","","","","","",""
"pit-trial","92","823540","0.0-2.0-17.2-1.2","battery-v0.2","","""event"",""trial"",""time""
""fullscreenenter"",""1"",""2322""
","
","
","""event"",""trial"",""time""
""fullscreenenter"",""1"",""2322""
","
","","","520","","","25","10862","2627","&#9789;","elianto","#f73b6a7A"," "," ","1","0","[1371]","1","0","4","","","","","","","",""
"pit-trial","93","826951","0.0-2.0-17.2-2.2","battery-v0.2","","""event"",""trial"",""time""
""fullscreenenter"",""1"",""2322""
","
","
","""event"",""trial"",""time""
""fullscreenenter"",""1"",""2322""
","
","","","557","","","25","10862","2627","&#9789;","elianto","#f73b6a7A"," "," ","1","0","[1408]","1","0","4","","","","","","","",""
"pit-trial","94","830383","0.0-2.0-17.2-3.2","battery-v0.2","","""event"",""trial"",""time""
""fullscreenenter"",""1"",""2322""
","
","
","""event"",""trial"",""time""
""fullscreenenter"",""1"",""2322""
","
","","","577.9999999998836","","","25","10862","2627","&#9789;","elianto","#f73b6a7A"," "," ","1","-10","[1428.9999999998836]","1","0","4","","","","","","","",""
"pit-trial","95","833775","0.0-2.0-17.2-4.2","battery-v0.2","","""event"",""trial"",""time""
""fullscreenenter"",""1"",""2322""
","
","
","""event"",""trial"",""time""
""fullscreenenter"",""1"",""2322""
","
","","","538","","","25","10862","2627","&#9789;","elianto","#f73b6a7A"," "," ","1","0","[1390]","1","0","4","","","","","","","",""
"pit-trial","96","837183","0.0-2.0-17.3-0.3","battery-v0.2","","""event"",""trial"",""time""
""fullscreenenter"",""1"",""2322""
","
","
","""event"",""trial"",""time""
""fullscreenenter"",""1"",""2322""
","
","","","554","","","25","10862","2627","&#9789;","elianto","#f73b6a7A"," "," ","1","0","[1405]","1","0","4","","","","","","","",""
"pit-trial","97","840527","0.0-2.0-17.3-1.3","battery-v0.2","","""event"",""trial"",""time""
""fullscreenenter"",""1"",""2322""
","
","
","""event"",""trial"",""time""
""fullscreenenter"",""1"",""2322""
","
","","","489","","","25","10862","2627","&#9789;","elianto","#f73b6a7A"," "," ","1","0","[1340]","1","0","4","","","","","","","",""
"pit-trial","98","843847","0.0-2.0-17.3-2.3","battery-v0.2","","""event"",""trial"",""time""
""fullscreenenter"",""1"",""2322""
","
","
","""event"",""trial"",""time""
""fullscreenenter"",""1"",""2322""
","
","","","466","","","25","10862","2627","&#9789;","elianto","#f73b6a7A"," "," ","1","0","[1318]","1","0","4","","","","","","","",""
"pit-trial","99","847239","0.0-2.0-17.3-3.3","battery-v0.2","","""event"",""trial"",""time""
""fullscreenenter"",""1"",""2322""
","
","
","""event"",""trial"",""time""
""fullscreenenter"",""1"",""2322""
","
","","","539","","","25","10862","2627","&#9789;","elianto","#f73b6a7A"," "," ","1","-10","[1389]","1","0","4","","","","","","","",""
"pit-trial","100","850494","0.0-2.0-17.3-4.3","battery-v0.2","","""event"",""trial"",""time""
""fullscreenenter"",""1"",""2322""
","
","
","""event"",""trial"",""time""
""fullscreenenter"",""1"",""2322""
","
","","","403","","","25","10862","2627","&#9789;","elianto","#f73b6a7A"," "," ","1","0","[1252]","1","0","4","","","","","","","",""
"call-function","101","850497","0.0-2.0-18.0","battery-v0.2","","""event"",""trial"",""time""
""fullscreenenter"",""1"",""2322""
","
","
","""event"",""trial"",""time""
""fullscreenenter"",""1"",""2322""
","
","","","","","","","","","","","","","","","","","","","","","","","","","","",""
"pit-instructions","102","929538","0.0-2.0-19.0","battery-v0.2","","""event"",""trial"",""time""
""fullscreenenter"",""1"",""2322""
","
","
","""event"",""trial"",""time""
""fullscreenenter"",""1"",""2322""
","
","","[{""page_index"":0,""viewing_time"":7493.000000000116},{""page_index"":1,""viewing_time"":6875.999999999884},{""page_index"":2,""viewing_time"":15078},{""page_index"":3,""viewing_time"":11819},{""page_index"":4,""viewing_time"":9518},{""page_index"":5,""viewing_time"":9444.000000000116},{""page_index"":6,""viewing_time"":8309.999999999884},{""page_index"":7,""viewing_time"":6459},{""page_index"":8,""viewing_time"":4040}]","79037","","","","","","","","","","","","","","","","","","","","","","","",""
"pit-comprehension","103","933971","0.0-2.0-20.0-0.0","battery-v0.2","","""event"",""trial"",""time""
""fullscreenenter"",""1"",""2322""
","
","
","""event"",""trial"",""time""
""fullscreenenter"",""1"",""2322""
","
","","","4429.000000000116","[""SPACE""]","0","25","10862","2627","","","","","","","","","","","","","","","","","","",""
"pit-instructions","104","937163","0.0-2.0-20.0-1.0","battery-v0.2","","""event"",""trial"",""time""
""fullscreenenter"",""1"",""2322""
","
","
","""event"",""trial"",""time""
""fullscreenenter"",""1"",""2322""
","
","","[{""page_index"":0,""viewing_time"":3144}]","3144","","","","","","","","","","","","","","","","","","","","","","","",""
"pit-comprehension","105","943080","0.0-2.0-21.0-0.0","battery-v0.2","","""event"",""trial"",""time""
""fullscreenenter"",""1"",""2322""
","
","
","""event"",""trial"",""time""
""fullscreenenter"",""1"",""2322""
","
","","","5914","[""10""]","0","25","10862","2627","","","","","","","","","","","","","","","","","","",""
"pit-instructions","106","945284","0.0-2.0-21.0-1.0","battery-v0.2","","""event"",""trial"",""time""
""fullscreenenter"",""1"",""2322""
","
","
","""event"",""trial"",""time""
""fullscreenenter"",""1"",""2322""
","
","","[{""page_index"":0,""viewing_time"":2161}]","2161","","","","","","","","","","","","","","","","","","","","","","","",""
"pit-comprehension","107","952167","0.0-2.0-22.0-0.0","battery-v0.2","","""event"",""trial"",""time""
""fullscreenenter"",""1"",""2322""
","
","
","""event"",""trial"",""time""
""fullscreenenter"",""1"",""2322""
","
","","","6878.999999999884","[""-10""]","1","25","10862","2627","","","","","","","","","","","","","","","","","","",""
"pit-instructions","108","956233","0.0-2.0-22.0-1.0","battery-v0.2","","""event"",""trial"",""time""
""fullscreenenter"",""1"",""2322""
","
","
","""event"",""trial"",""time""
""fullscreenenter"",""1"",""2322""
","
","","[{""page_index"":0,""viewing_time"":4021.9999999998836}]","4021.9999999998836","","","","","","","","","","","","","","","","","","","","","","","",""
"pit-instructions","109","958995","0.0-2.0-22.0-2.0-0.0","battery-v0.2","","""event"",""trial"",""time""
""fullscreenenter"",""1"",""2322""
","
","
","""event"",""trial"",""time""
""fullscreenenter"",""1"",""2322""
","
","","[{""page_index"":0,""viewing_time"":2759.0000000001164}]","2759.0000000001164","","","","","","","","","","","","","","","","","","","","","","","",""
"pit-comprehension","110","965355","0.0-2.0-22.1-0.1","battery-v0.2","","""event"",""trial"",""time""
""fullscreenenter"",""1"",""2322""
","
","
","""event"",""trial"",""time""
""fullscreenenter"",""1"",""2322""
","
","","","6356","[""0""]","0","25","10862","2627","","","","","","","","","","","","","","","","","","",""
"pit-instructions","111","967373","0.0-2.0-22.1-1.1","battery-v0.2","","""event"",""trial"",""time""
""fullscreenenter"",""1"",""2322""
","
","
","""event"",""trial"",""time""
""fullscreenenter"",""1"",""2322""
","
","","[{""page_index"":0,""viewing_time"":1973}]","1973","","","","","","","","","","","","","","","","","","","","","","","",""
"pit-comprehension","112","975828","0.0-2.0-23.0-0.0","battery-v0.2","","""event"",""trial"",""time""
""fullscreenenter"",""1"",""2322""
","
","
","""event"",""trial"",""time""
""fullscreenenter"",""1"",""2322""
","
","","","8451","[""True""]","0","25","10862","2627","","","","","","","","","","","","","","","","","","",""
"pit-instructions","113","978681","0.0-2.0-23.0-1.0","battery-v0.2","","""event"",""trial"",""time""
""fullscreenenter"",""1"",""2322""
","
","
","""event"",""trial"",""time""
""fullscreenenter"",""1"",""2322""
","
","","[{""page_index"":0,""viewing_time"":2803}]","2803","","","","","","","","","","","","","","","","","","","","","","","",""
"pit-comprehension","114","987157","0.0-2.0-24.0-0.0","battery-v0.2","","""event"",""trial"",""time""
""fullscreenenter"",""1"",""2322""
","
","
","""event"",""trial"",""time""
""fullscreenenter"",""1"",""2322""
","
","","","8472","[""False""]","1","25","10862","2627","","","","","","","","","","","","","","","","","","",""
"pit-instructions","115","989406","0.0-2.0-24.0-1.0","battery-v0.2","","""event"",""trial"",""time""
""fullscreenenter"",""1"",""2322""
","
","
","""event"",""trial"",""time""
""fullscreenenter"",""1"",""2322""
","
","","[{""page_index"":0,""viewing_time"":2203}]","2204","","","","","","","","","","","","","","","","","","","","","","","",""
"pit-instructions","116","990334","0.0-2.0-24.0-2.0-0.0","battery-v0.2","","""event"",""trial"",""time""
""fullscreenenter"",""1"",""2322""
","
","
","""event"",""trial"",""time""
""fullscreenenter"",""1"",""2322""
","
","","[{""page_index"":0,""viewing_time"":924.9999999998836}]","925.9999999998836","","","","","","","","","","","","","","","","","","","","","","","",""
"pit-comprehension","117","997348","0.0-2.0-24.1-0.1","battery-v0.2","","""event"",""trial"",""time""
""fullscreenenter"",""1"",""2322""
","
","
","""event"",""trial"",""time""
""fullscreenenter"",""1"",""2322""
","
","","","7009","[""True""]","0","25","10862","2627","","","","","","","","","","","","","","","","","","",""
"pit-instructions","118","999686","0.0-2.0-24.1-1.1","battery-v0.2","","""event"",""trial"",""time""
""fullscreenenter"",""1"",""2322""
","
","
","""event"",""trial"",""time""
""fullscreenenter"",""1"",""2322""
","
","","[{""page_index"":0,""viewing_time"":2286}]","2286","","","","","","","","","","","","","","","","","","","","","","","",""
"pit-comprehension","119","1006507","0.0-2.0-25.0-0.0","battery-v0.2","","""event"",""trial"",""time""
""fullscreenenter"",""1"",""2322""
","
","
","""event"",""trial"",""time""
""fullscreenenter"",""1"",""2322""
","
","","","6818","[""True""]","0","25","10862","2627","","","","","","","","","","","","","","","","","","",""
"pit-instructions","120","1008374","0.0-2.0-25.0-1.0","battery-v0.2","","""event"",""trial"",""time""
""fullscreenenter"",""1"",""2322""
","
","
","""event"",""trial"",""time""
""fullscreenenter"",""1"",""2322""
","
","","[{""page_index"":0,""viewing_time"":1820}]","1821","","","","","","","","","","","","","","","","","","","","","","","",""
"pit-comprehension","121","1013160","0.0-2.0-26.0-0.0","battery-v0.2","","""event"",""trial"",""time""
""fullscreenenter"",""1"",""2322""
","
","
","""event"",""trial"",""time""
""fullscreenenter"",""1"",""2322""
","
","","","4782","[""False""]","0","25","10862","2627","","","","","","","","","","","","","","","","","","",""
"pit-instructions","122","1014908","0.0-2.0-26.0-1.0","battery-v0.2","","""event"",""trial"",""time""
""fullscreenenter"",""1"",""2322""
","
","
","""event"",""trial"",""time""
""fullscreenenter"",""1"",""2322""
","
","","[{""page_index"":0,""viewing_time"":1700.9999999998836}]","1700.9999999998836","","","","","","","","","","","","","","","","","","","","","","","",""
"pit-instructions","123","1031789","0.0-3.0","battery-v0.2","","""event"",""trial"",""time""
""fullscreenenter"",""1"",""2322""
","
","
","""event"",""trial"",""time""
""fullscreenenter"",""1"",""2322""
","
","","[{""page_index"":0,""viewing_time"":4113},{""page_index"":1,""viewing_time"":6198.000000000116},{""page_index"":2,""viewing_time"":6567}]","16878.000000000116","","","","","","","","","","","","","","","","","","","","","","","",""
"pit-trial","124","1036647","0.0-4.0","battery-v0.2","","""event"",""trial"",""time""
""fullscreenenter"",""1"",""2322""
","
","
","""event"",""trial"",""time""
""fullscreenenter"",""1"",""2322""
","
","","","-1","","","25","10862","2627","&#9728;","elianto","#f73b6a7A","-1","-1","1","0","[]","0","1","","","10862","1","0","4","lose","no-go","0"
"pit-trial","125","1040595","0.0-5.0","battery-v0.2","","""event"",""trial"",""time""
""fullscreenenter"",""1"",""2322""
","
","
","""event"",""trial"",""time""
""fullscreenenter"",""1"",""2322""
","
","","","1095","","","25","10862","2627","&#9752;","elianto","#f73b6a7A"," "," ","1","0","[1946.0000000001164]","1","1","","","10862","2","3","3","lose","go","0"
"pit-trial","126","1044488","0.0-6.0","battery-v0.2","","""event"",""trial"",""time""
""fullscreenenter"",""1"",""2322""
","
","
","""event"",""trial"",""time""
""fullscreenenter"",""1"",""2322""
","
","","","1039","","","25","10862","2627","&#9730;","elianto","#3366ff99"," "," ","1","+10","[1888.9999999998836]","1","1","","","10862","3","1","1","win","go","0"
"pit-trial","127","1049343","0.0-7.0","battery-v0.2","","""event"",""trial"",""time""
""fullscreenenter"",""1"",""2322""
","
","
","""event"",""trial"",""time""
""fullscreenenter"",""1"",""2322""
","
","","","-1","","","25","10862","2627","&#9733;","elianto","#3366ff99","-1","-1","1","+10","[]","0","1","","","10862","4","2","2","win","no-go","0"
"pit-trial","128","1053049","0.0-8.0","battery-v0.2","","""event"",""trial"",""time""
""fullscreenenter"",""1"",""2322""
","
","
","""event"",""trial"",""time""
""fullscreenenter"",""1"",""2322""
","
","","","851","","","25","10862","2627","&#9730;","elianto","#3366ff99"," "," ","1","+10","[1702]","1","1","","","10862","5","1","1","win","go","0"
"pit-trial","129","1057905","0.0-9.0","battery-v0.2","","""event"",""trial"",""time""
""fullscreenenter"",""1"",""2322""
","
","
","""event"",""trial"",""time""
""fullscreenenter"",""1"",""2322""
","
","","","-1","","","25","10862","2627","&#9728;","elianto","#f73b6a7A","-1","-1","1","0","[]","0","1","","","10862","6","0","4","lose","no-go","0"
"pit-trial","130","1061522","0.0-10.0","battery-v0.2","","""event"",""trial"",""time""
""fullscreenenter"",""1"",""2322""
","
","
","""event"",""trial"",""time""
""fullscreenenter"",""1"",""2322""
","
","","","760.9999999997672","","","25","10862","2627","&#9752;","elianto","#f73b6a7A"," "," ","1","0","[1612]","1","1","","","10862","7","3","3","lose","go","0"
"pit-trial","131","1066377","0.0-11.0","battery-v0.2","","""event"",""trial"",""time""
""fullscreenenter"",""1"",""2322""
","
","
","""event"",""trial"",""time""
""fullscreenenter"",""1"",""2322""
","
","","","-1","","","25","10862","2627","&#9733;","elianto","#3366ff99","-1","-1","1","+10","[]","0","1","","","10862","8","2","2","win","no-go","0"
"pit-trial","132","1071234","0.0-12.0","battery-v0.2","","""event"",""trial"",""time""
""fullscreenenter"",""1"",""2322""
","
","
","""event"",""trial"",""time""
""fullscreenenter"",""1"",""2322""
","
","","","-1","","","25","10862","2627","&#9728;","elianto","#f73b6a7A","-1","-1","1","0","[]","0","1","","","10862","9","0","4","lose","no-go","0"
"pit-trial","133","1076090","0.0-13.0","battery-v0.2","","""event"",""trial"",""time""
""fullscreenenter"",""1"",""2322""
","
","
","""event"",""trial"",""time""
""fullscreenenter"",""1"",""2322""
","
","","","-1","","","25","10862","2627","&#9733;","elianto","#3366ff99","-1","-1","1","+10","[]","0","1","","","10862","10","2","2","win","no-go","0"
"pit-trial","134","1079791","0.0-14.0","battery-v0.2","","""event"",""trial"",""time""
""fullscreenenter"",""1"",""2322""
","
","
","""event"",""trial"",""time""
""fullscreenenter"",""1"",""2322""
","
","","","846","","","25","10862","2627","&#9752;","elianto","#f73b6a7A"," "," ","1","0","[1696]","1","1","","","10862","11","3","3","lose","go","0"
"pit-trial","135","1083543","0.0-15.0","battery-v0.2","","""event"",""trial"",""time""
""fullscreenenter"",""1"",""2322""
","
","
","""event"",""trial"",""time""
""fullscreenenter"",""1"",""2322""
","
","","","897.9999999997672","","","25","10862","2627","&#9730;","elianto","#3366ff99"," "," ","1","+10","[1748]","1","1","","","10862","12","1","1","win","go","0"
"pit-trial","136","1088398","0.0-16.0","battery-v0.2","","""event"",""trial"",""time""
""fullscreenenter"",""1"",""2322""
","
","
","""event"",""trial"",""time""
""fullscreenenter"",""1"",""2322""
","
","","","-1","","","25","10862","2627","&#9728;","elianto","#f73b6a7A","-1","-1","1","0","[]","0","1","","","10862","13","0","4","lose","no-go","0"
"pit-trial","137","1092048","0.0-17.0","battery-v0.2","","""event"",""trial"",""time""
""fullscreenenter"",""1"",""2322""
","
","
","""event"",""trial"",""time""
""fullscreenenter"",""1"",""2322""
","
","","","795.0000000002328","","","25","10862","2627","&#9752;","elianto","#f73b6a7A"," "," ","1","0","[1646.0000000002328]","1","1","","","10862","14","3","3","lose","go","0"
"pit-trial","138","1095713","0.0-18.0","battery-v0.2","","""event"",""trial"",""time""
""fullscreenenter"",""1"",""2322""
","
","
","""event"",""trial"",""time""
""fullscreenenter"",""1"",""2322""
","
","","","810","","","25","10862","2627","&#9730;","elianto","#3366ff99"," "," ","1","+10","[1661]","1","1","","","10862","15","1","1","win","go","0"
"pit-trial","139","1100568","0.0-19.0","battery-v0.2","","""event"",""trial"",""time""
""fullscreenenter"",""1"",""2322""
","
","
","""event"",""trial"",""time""
""fullscreenenter"",""1"",""2322""
","
","","","-1","","","25","10862","2627","&#9733;","elianto","#3366ff99","-1","-1","1","+10","[]","0","1","","","10862","16","2","2","win","no-go","0"
"pit-trial","140","1104233","0.0-20.0","battery-v0.2","","""event"",""trial"",""time""
""fullscreenenter"",""1"",""2322""
","
","
","""event"",""trial"",""time""
""fullscreenenter"",""1"",""2322""
","
","","","809.9999999997672","","","25","10862","2627","&#9730;","elianto","#3366ff99"," "," ","1","+10","[1661]","1","1","","","10862","17","1","1","win","go","0"
"pit-trial","141","1109089","0.0-21.0","battery-v0.2","","""event"",""trial"",""time""
""fullscreenenter"",""1"",""2322""
","
","
","""event"",""trial"",""time""
""fullscreenenter"",""1"",""2322""
","
","","","-1","","","25","10862","2627","&#9733;","elianto","#3366ff99","-1","-1","1","0","[]","0","1","","","10862","18","2","2","win","no-go","1"
"pit-trial","142","1113945","0.0-22.0","battery-v0.2","","""event"",""trial"",""time""
""fullscreenenter"",""1"",""2322""
","
","
","""event"",""trial"",""time""
""fullscreenenter"",""1"",""2322""
","
","","","-1","","","25","10862","2627","&#9728;","elianto","#f73b6a7A","-1","-1","1","0","[]","0","1","","","10862","19","0","4","lose","no-go","0"
"pit-trial","143","1117610","0.0-23.0","battery-v0.2","","""event"",""trial"",""time""
""fullscreenenter"",""1"",""2322""
","
","
","""event"",""trial"",""time""
""fullscreenenter"",""1"",""2322""
","
","","","809.9999999997672","","","25","10862","2627","&#9752;","elianto","#f73b6a7A"," "," ","1","0","[1660]","1","1","","","10862","20","3","3","lose","go","0"
"pit-instructions","144","1130531","0.0-24.0","battery-v0.2","","""event"",""trial"",""time""
""fullscreenenter"",""1"",""2322""
","
","
","""event"",""trial"",""time""
""fullscreenenter"",""1"",""2322""
","
","","[{""page_index"":0,""viewing_time"":6140},{""page_index"":1,""viewing_time"":6775}]","12916.000000000233","","","","","","","","","","","","","","","","","","","","","","","",""
"pit-trial","145","1134296","0.0-25.0","battery-v0.2","","""event"",""trial"",""time""
""fullscreenenter"",""1"",""2322""
","
","
","""event"",""trial"",""time""
""fullscreenenter"",""1"",""2322""
","
","","","902","","","25","10862","2627","l","elianto","#3366ff99"," "," ","1","+10","[1753]","1","2","","","10862","21","1","1","win","go","0"
"pit-trial","146","1139152","0.0-26.0","battery-v0.2","","""event"",""trial"",""time""
""fullscreenenter"",""1"",""2322""
","
","
","""event"",""trial"",""time""
""fullscreenenter"",""1"",""2322""
","
","","","-1","","","25","10862","2627","a","elianto","#f73b6a7A","-1","-1","1","0","[]","0","2","","","10862","22","2","4","lose","no-go","0"
"pit-trial","147","1143040","0.0-27.0","battery-v0.2","","""event"",""trial"",""time""
""fullscreenenter"",""1"",""2322""
","
","
","""event"",""trial"",""time""
""fullscreenenter"",""1"",""2322""
","
","","","1034","","","25","10862","2627","u","elianto","#f73b6a7A","-1"," ","0","-10","[1884]","1","2","","","10862","23","0","4","lose","no-go","0"
"pit-trial","148","1147124","0.0-28.0","battery-v0.2","","""event"",""trial"",""time""
""fullscreenenter"",""1"",""2322""
","
","
","""event"",""trial"",""time""
""fullscreenenter"",""1"",""2322""
","
","","","1226.9999999997672","","","25","10862","2627","g","elianto","#f73b6a7A"," "," ","1","0","[2078]","1","2","","","10862","24","3","3","lose","go","0"
"pit-trial","149","1150868","0.0-29.0","battery-v0.2","","""event"",""trial"",""time""
""fullscreenenter"",""1"",""2322""
","
","
","""event"",""trial"",""time""
""fullscreenenter"",""1"",""2322""
","
","","","888","","","25","10862","2627","l","elianto","#3366ff99"," "," ","1","0","[1740]","1","2","","","10862","25","1","1","win","go","1"
"pit-trial","150","1155723","0.0-30.0","battery-v0.2","","""event"",""trial"",""time""
""fullscreenenter"",""1"",""2322""
","
","
","""event"",""trial"",""time""
""fullscreenenter"",""1"",""2322""
","
","","","-1","","","25","10862","2627","a","elianto","#f73b6a7A","-1","-1","1","0","[]","0","2","","","10862","26","2","4","lose","no-go","0"
"pit-trial","151","1160190","0.0-31.0","battery-v0.2","","""event"",""trial"",""time""
""fullscreenenter"",""1"",""2322""
","
","
","""event"",""trial"",""time""
""fullscreenenter"",""1"",""2322""
","
","","","1611","","","25","10862","2627","g","elianto","#f73b6a7A"," "," ","1","-10","[2462]","1","2","","","10862","27","3","3","lose","go","1"
"pit-trial","152","1165046","0.0-32.0","battery-v0.2","","""event"",""trial"",""time""
""fullscreenenter"",""1"",""2322""
","
","
","""event"",""trial"",""time""
""fullscreenenter"",""1"",""2322""
","
","","","-1","","","25","10862","2627","u","elianto","#f73b6a7A","-1","-1","1","0","[]","0","2","","","10862","28","0","4","lose","no-go","0"
"pit-trial","153","1168666","0.0-33.0","battery-v0.2","","""event"",""trial"",""time""
""fullscreenenter"",""1"",""2322""
","
","
","""event"",""trial"",""time""
""fullscreenenter"",""1"",""2322""
","
","","","764","","","25","10862","2627","l","elianto","#3366ff99"," "," ","1","+10","[1614.9999999997672]","1","2","","","10862","29","1","1","win","go","0"
"pit-trial","154","1173521","0.0-34.0","battery-v0.2","","""event"",""trial"",""time""
""fullscreenenter"",""1"",""2322""
","
","
","""event"",""trial"",""time""
""fullscreenenter"",""1"",""2322""
","
","","","-1","","","25","10862","2627","u","elianto","#f73b6a7A","-1","-1","1","0","[]","0","2","","","10862","30","0","4","lose","no-go","0"
"pit-trial","155","1178377","0.0-35.0","battery-v0.2","","""event"",""trial"",""time""
""fullscreenenter"",""1"",""2322""
","
","
","""event"",""trial"",""time""
""fullscreenenter"",""1"",""2322""
","
","","","-1","","","25","10862","2627","g","elianto","#f73b6a7A"," ","-1","0","-10","[]","0","2","","","10862","31","3","3","lose","go","0"
"pit-trial","156","1183233","0.0-36.0","battery-v0.2","","""event"",""trial"",""time""
""fullscreenenter"",""1"",""2322""
","
","
","""event"",""trial"",""time""
""fullscreenenter"",""1"",""2322""
","
","","","-1","","","25","10862","2627","a","elianto","#f73b6a7A","-1","-1","1","0","[]","0","2","","","10862","32","2","4","lose","no-go","0"
"pit-trial","157","1188089","0.0-37.0","battery-v0.2","","""event"",""trial"",""time""
""fullscreenenter"",""1"",""2322""
","
","
","""event"",""trial"",""time""
""fullscreenenter"",""1"",""2322""
","
","","","-1","","","25","10862","2627","a","elianto","#f73b6a7A","-1","-1","1","0","[]","0","2","","","10862","33","2","4","lose","no-go","0"
"pit-trial","158","1192945","0.0-38.0","battery-v0.2","","""event"",""trial"",""time""
""fullscreenenter"",""1"",""2322""
","
","
","""event"",""trial"",""time""
""fullscreenenter"",""1"",""2322""
","
","","","-1","","","25","10862","2627","u","elianto","#f73b6a7A","-1","-1","1","0","[]","0","2","","","10862","34","0","4","lose","no-go","0"
"pit-trial","159","1196531","0.0-39.0","battery-v0.2","","""event"",""trial"",""time""
""fullscreenenter"",""1"",""2322""
","
","
","""event"",""trial"",""time""
""fullscreenenter"",""1"",""2322""
","
","","","729.9999999997672","","","25","10862","2627","l","elianto","#3366ff99"," "," ","1","+10","[1581]","1","2","","","10862","35","1","1","win","go","0"
"pit-trial","160","1201387","0.0-40.0","battery-v0.2","","""event"",""trial"",""time""
""fullscreenenter"",""1"",""2322""
","
","
","""event"",""trial"",""time""
""fullscreenenter"",""1"",""2322""
","
","","","-1","","","25","10862","2627","g","elianto","#f73b6a7A"," ","-1","0","-10","[]","0","2","","","10862","36","3","3","lose","go","0"
"pit-trial","161","1204942","0.0-41.0","battery-v0.2","","""event"",""trial"",""time""
""fullscreenenter"",""1"",""2322""
","
","
","""event"",""trial"",""time""
""fullscreenenter"",""1"",""2322""
","
","","","700","","","25","10862","2627","l","elianto","#3366ff99"," "," ","1","+10","[1551]","1","2","","","10862","37","1","1","win","go","0"
"pit-trial","162","1209797","0.0-42.0","battery-v0.2","","""event"",""trial"",""time""
""fullscreenenter"",""1"",""2322""
","
","
","""event"",""trial"",""time""
""fullscreenenter"",""1"",""2322""
","
","","","-1","","","25","10862","2627","u","elianto","#f73b6a7A","-1","-1","1","0","[]","0","2","","","10862","38","0","4","lose","no-go","0"
"pit-trial","163","1213355","0.0-43.0","battery-v0.2","","""event"",""trial"",""time""
""fullscreenenter"",""1"",""2322""
","
","
","""event"",""trial"",""time""
""fullscreenenter"",""1"",""2322""
","
","","","703","","","25","10862","2627","g","elianto","#f73b6a7A"," "," ","1","0","[1553.9999999997672]","1","2","","","10862","39","3","3","lose","go","0"
"pit-trial","164","1218210","0.0-44.0","battery-v0.2","","""event"",""trial"",""time""
""fullscreenenter"",""1"",""2322""
","
","
","""event"",""trial"",""time""
""fullscreenenter"",""1"",""2322""
","
","","","-1","","","25","10862","2627","a","elianto","#f73b6a7A","-1","-1","1","0","[]","0","2","","","10862","40","2","4","lose","no-go","0"
"pit-trial","165","1223066","0.0-45.0","battery-v0.2","","""event"",""trial"",""time""
""fullscreenenter"",""1"",""2322""
","
","
","""event"",""trial"",""time""
""fullscreenenter"",""1"",""2322""
","
","","","-1","","","25","10862","2627","a","elianto","#f73b6a7A","-1","-1","1","-10","[]","0","2","","","10862","41","2","4","lose","no-go","1"
"pit-trial","166","1226799","0.0-46.0","battery-v0.2","","""event"",""trial"",""time""
""fullscreenenter"",""1"",""2322""
","
","
","""event"",""trial"",""time""
""fullscreenenter"",""1"",""2322""
","
","","","878","","","25","10862","2627","g","elianto","#f73b6a7A"," "," ","1","0","[1727.9999999997672]","1","2","","","10862","42","3","3","lose","go","0"
"pit-trial","167","1230303","0.0-47.0","battery-v0.2","","""event"",""trial"",""time""
""fullscreenenter"",""1"",""2322""
","
","
","""event"",""trial"",""time""
""fullscreenenter"",""1"",""2322""
","
","","","649","","","25","10862","2627","l","elianto","#3366ff99"," "," ","1","+10","[1498.0000000002328]","1","2","","","10862","43","1","1","win","go","0"
"pit-trial","168","1235158","0.0-48.0","battery-v0.2","","""event"",""trial"",""time""
""fullscreenenter"",""1"",""2322""
","
","
","""event"",""trial"",""time""
""fullscreenenter"",""1"",""2322""
","
","","","-1","","","25","10862","2627","u","elianto","#f73b6a7A","-1","-1","1","-10","[]","0","2","","","10862","44","0","4","lose","no-go","1"
"pit-trial","169","1240014","0.0-49.0","battery-v0.2","","""event"",""trial"",""time""
""fullscreenenter"",""1"",""2322""
","
","
","""event"",""trial"",""time""
""fullscreenenter"",""1"",""2322""
","
","","","-1","","","25","10862","2627","u","elianto","#f73b6a7A","-1","-1","1","-10","[]","0","2","","","10862","45","0","4","lose","no-go","1"
"pit-trial","170","1244072","0.0-50.0","battery-v0.2","","""event"",""trial"",""time""
""fullscreenenter"",""1"",""2322""
","
","
","""event"",""trial"",""time""
""fullscreenenter"",""1"",""2322""
","
","","","1202","","","25","10862","2627","p","elianto","#3366ff99","-1"," ","0","0","[2052.000000000233]","1","2","","","10862","46","4","2","win","no-go","0"
"pit-trial","171","1247895","0.0-51.0","battery-v0.2","","""event"",""trial"",""time""
""fullscreenenter"",""1"",""2322""
","
","
","""event"",""trial"",""time""
""fullscreenenter"",""1"",""2322""
","
","","","967.9999999997672","","","25","10862","2627","g","elianto","#f73b6a7A"," "," ","1","0","[1819]","1","2","","","10862","47","3","3","lose","go","0"
"pit-trial","172","1252751","0.0-52.0","battery-v0.2","","""event"",""trial"",""time""
""fullscreenenter"",""1"",""2322""
","
","
","""event"",""trial"",""time""
""fullscreenenter"",""1"",""2322""
","
","","","-1","","","25","10862","2627","a","elianto","#f73b6a7A","-1","-1","1","0","[]","0","2","","","10862","48","2","4","lose","no-go","0"
"pit-trial","173","1256367","0.0-53.0","battery-v0.2","","""event"",""trial"",""time""
""fullscreenenter"",""1"",""2322""
","
","
","""event"",""trial"",""time""
""fullscreenenter"",""1"",""2322""
","
","","","763","","","25","10862","2627","l","elianto","#3366ff99"," "," ","1","+10","[1613]","1","2","","","10862","49","1","1","win","go","0"
"pit-trial","174","1261223","0.0-54.0","battery-v0.2","","""event"",""trial"",""time""
""fullscreenenter"",""1"",""2322""
","
","
","""event"",""trial"",""time""
""fullscreenenter"",""1"",""2322""
","
","","","-1","","","25","10862","2627","u","elianto","#f73b6a7A","-1","-1","1","0","[]","0","2","","","10862","50","0","4","lose","no-go","0"
"pit-trial","175","1264990","0.0-55.0","battery-v0.2","","""event"",""trial"",""time""
""fullscreenenter"",""1"",""2322""
","
","
","""event"",""trial"",""time""
""fullscreenenter"",""1"",""2322""
","
","","","912","","","25","10862","2627","g","elianto","#f73b6a7A"," "," ","1","0","[1762]","1","2","","","10862","51","3","3","lose","go","0"
"pit-trial","176","1268750","0.0-56.0","battery-v0.2","","""event"",""trial"",""time""
""fullscreenenter"",""1"",""2322""
","
","
","""event"",""trial"",""time""
""fullscreenenter"",""1"",""2322""
","
","","","904","","","25","10862","2627","p","elianto","#3366ff99","-1"," ","0","0","[1754.9999999997672]","1","2","","","10862","52","4","2","win","no-go","0"
"pit-trial","177","1272403","0.0-57.0","battery-v0.2","","""event"",""trial"",""time""
""fullscreenenter"",""1"",""2322""
","
","
","""event"",""trial"",""time""
""fullscreenenter"",""1"",""2322""
","
","","","798","","","25","10862","2627","l","elianto","#3366ff99"," "," ","1","+10","[1649]","1","2","","","10862","53","1","1","win","go","0"
"pit-trial","178","1276217","0.0-58.0","battery-v0.2","","""event"",""trial"",""time""
""fullscreenenter"",""1"",""2322""
","
","
","""event"",""trial"",""time""
""fullscreenenter"",""1"",""2322""
","
","","","959","","","25","10862","2627","p","elianto","#3366ff99","-1"," ","0","+10","[1809.0000000002328]","1","2","","","10862","54","4","2","win","no-go","1"
"pit-trial","179","1281073","0.0-59.0","battery-v0.2","","""event"",""trial"",""time""
""fullscreenenter"",""1"",""2322""
","
","
","""event"",""trial"",""time""
""fullscreenenter"",""1"",""2322""
","
","","","-1","","","25","10862","2627","a","elianto","#f73b6a7A","-1","-1","1","0","[]","0","2","","","10862","55","2","4","lose","no-go","0"
"pit-trial","180","1285929","0.0-60.0","battery-v0.2","","""event"",""trial"",""time""
""fullscreenenter"",""1"",""2322""
","
","
","""event"",""trial"",""time""
""fullscreenenter"",""1"",""2322""
","
","","","-1","","","25","10862","2627","u","elianto","#f73b6a7A","-1","-1","1","-10","[]","0","2","","","10862","56","0","4","lose","no-go","1"
"pit-trial","181","1289809","0.0-61.0","battery-v0.2","","""event"",""trial"",""time""
""fullscreenenter"",""1"",""2322""
","
","
","""event"",""trial"",""time""
""fullscreenenter"",""1"",""2322""
","
","","","1024.9999999997672","","","25","10862","2627","g","elianto","#f73b6a7A"," "," ","1","-10","[1876]","1","2","","","10862","57","3","3","lose","go","1"
"pit-trial","182","1293624","0.0-62.0","battery-v0.2","","""event"",""trial"",""time""
""fullscreenenter"",""1"",""2322""
","
","
","""event"",""trial"",""time""
""fullscreenenter"",""1"",""2322""
","
","","","959","","","25","10862","2627","l","elianto","#3366ff99"," "," ","1","+10","[1810]","1","2","","","10862","58","1","1","win","go","0"
"pit-trial","183","1297415","0.0-63.0","battery-v0.2","","""event"",""trial"",""time""
""fullscreenenter"",""1"",""2322""
","
","
","""event"",""trial"",""time""
""fullscreenenter"",""1"",""2322""
","
","","","937","","","25","10862","2627","p","elianto","#3366ff99","-1"," ","0","0","[1787]","1","2","","","10862","59","4","2","win","no-go","0"
"pit-trial","184","1302271","0.0-64.0","battery-v0.2","","""event"",""trial"",""time""
""fullscreenenter"",""1"",""2322""
","
","
","""event"",""trial"",""time""
""fullscreenenter"",""1"",""2322""
","
","","","-1","","","25","10862","2627","u","elianto","#f73b6a7A","-1","-1","1","0","[]","0","2","","","10862","60","0","4","lose","no-go","0"
"pit-trial","185","1306030","0.0-65.0","battery-v0.2","","""event"",""trial"",""time""
""fullscreenenter"",""1"",""2322""
","
","
","""event"",""trial"",""time""
""fullscreenenter"",""1"",""2322""
","
","","","905","","","25","10862","2627","p","elianto","#3366ff99","-1"," ","0","0","[1756]","1","2","","","10862","61","4","2","win","no-go","0"
"pit-trial","186","1309931","0.0-66.0","battery-v0.2","","""event"",""trial"",""time""
""fullscreenenter"",""1"",""2322""
","
","
","""event"",""trial"",""time""
""fullscreenenter"",""1"",""2322""
","
","","","1045","","","25","10862","2627","g","elianto","#f73b6a7A"," "," ","1","0","[1896.9999999997672]","1","2","","","10862","62","3","3","lose","go","0"
"pit-trial","187","1313681","0.0-67.0","battery-v0.2","","""event"",""trial"",""time""
""fullscreenenter"",""1"",""2322""
","
","
","""event"",""trial"",""time""
""fullscreenenter"",""1"",""2322""
","
","","","894","","","25","10862","2627","l","elianto","#3366ff99"," "," ","1","0","[1745]","1","2","","","10862","63","1","1","win","go","1"
"pit-trial","188","1318536","0.0-68.0","battery-v0.2","","""event"",""trial"",""time""
""fullscreenenter"",""1"",""2322""
","
","
","""event"",""trial"",""time""
""fullscreenenter"",""1"",""2322""
","
","","","-1","","","25","10862","2627","a","elianto","#f73b6a7A","-1","-1","1","0","[]","0","2","","","10862","64","2","4","lose","no-go","0"
"pit-trial","189","1323391","0.0-69.0","battery-v0.2","","""event"",""trial"",""time""
""fullscreenenter"",""1"",""2322""
","
","
","""event"",""trial"",""time""
""fullscreenenter"",""1"",""2322""
","
","","","-1","","","25","10862","2627","p","elianto","#3366ff99","-1","-1","1","0","[]","0","2","","","10862","65","4","2","win","no-go","1"
"pit-trial","190","1327094","0.0-70.0","battery-v0.2","","""event"",""trial"",""time""
""fullscreenenter"",""1"",""2322""
","
","
","""event"",""trial"",""time""
""fullscreenenter"",""1"",""2322""
","
","","","847","","","25","10862","2627","g","elianto","#f73b6a7A"," "," ","1","0","[1699]","1","2","","","10862","66","3","3","lose","go","0"
"pit-trial","191","1331949","0.0-71.0","battery-v0.2","","""event"",""trial"",""time""
""fullscreenenter"",""1"",""2322""
","
","
","""event"",""trial"",""time""
""fullscreenenter"",""1"",""2322""
","
","","","-1","","","25","10862","2627","a","elianto","#f73b6a7A","-1","-1","1","0","[]","0","2","","","10862","67","2","4","lose","no-go","0"
"pit-trial","192","1335453","0.0-72.0","battery-v0.2","","""event"",""trial"",""time""
""fullscreenenter"",""1"",""2322""
","
","
","""event"",""trial"",""time""
""fullscreenenter"",""1"",""2322""
","
","","","649","","","25","10862","2627","l","elianto","#3366ff99"," "," ","1","+10","[1501]","1","2","","","10862","68","1","1","win","go","0"
"pit-trial","193","1339192","0.0-73.0","battery-v0.2","","""event"",""trial"",""time""
""fullscreenenter"",""1"",""2322""
","
","
","""event"",""trial"",""time""
""fullscreenenter"",""1"",""2322""
","
","","","884","","","25","10862","2627","l","elianto","#3366ff99"," "," ","1","+10","[1735]","1","2","","","10862","69","1","1","win","go","0"
"pit-trial","194","1343312","0.0-74.0","battery-v0.2","","""event"",""trial"",""time""
""fullscreenenter"",""1"",""2322""
","
","
","""event"",""trial"",""time""
""fullscreenenter"",""1"",""2322""
","
","","","1266","","","25","10862","2627","p","elianto","#3366ff99","-1"," ","0","0","[2116]","1","2","","","10862","70","4","2","win","no-go","0"
"pit-trial","195","1346993","0.0-75.0","battery-v0.2","","""event"",""trial"",""time""
""fullscreenenter"",""1"",""2322""
","
","
","""event"",""trial"",""time""
""fullscreenenter"",""1"",""2322""
","
","","","825","","","25","10862","2627","g","elianto","#f73b6a7A"," "," ","1","0","[1676]","1","2","","","10862","71","3","3","lose","go","0"
"pit-trial","196","1350904","0.0-76.0","battery-v0.2","","""event"",""trial"",""time""
""fullscreenenter"",""1"",""2322""
","
","
","""event"",""trial"",""time""
""fullscreenenter"",""1"",""2322""
","
","","","1057","","","25","10862","2627","s","elianto","#3366ff99"," "," ","1","+10","[1907]","1","2","","","10862","72","5","1","win","go","0"
"pit-trial","197","1354420","0.0-77.0","battery-v0.2","","""event"",""trial"",""time""
""fullscreenenter"",""1"",""2322""
","
","
","""event"",""trial"",""time""
""fullscreenenter"",""1"",""2322""
","
","","","661","","","25","10862","2627","l","elianto","#3366ff99"," "," ","1","+10","[1512]","1","2","","","10862","73","1","1","win","go","0"
"pit-trial","198","1358268","0.0-78.0","battery-v0.2","","""event"",""trial"",""time""
""fullscreenenter"",""1"",""2322""
","
","
","""event"",""trial"",""time""
""fullscreenenter"",""1"",""2322""
","
","","","992","","","25","10862","2627","g","elianto","#f73b6a7A"," "," ","1","0","[1843]","1","2","","","10862","74","3","3","lose","go","0"
"pit-trial","199","1363124","0.0-79.0","battery-v0.2","","""event"",""trial"",""time""
""fullscreenenter"",""1"",""2322""
","
","
","""event"",""trial"",""time""
""fullscreenenter"",""1"",""2322""
","
","","","-1","","","25","10862","2627","p","elianto","#3366ff99","-1","-1","1","+10","[]","0","2","","","10862","75","4","2","win","no-go","0"
"pit-trial","200","1367087","0.0-80.0","battery-v0.2","","""event"",""trial"",""time""
""fullscreenenter"",""1"",""2322""
","
","
","""event"",""trial"",""time""
""fullscreenenter"",""1"",""2322""
","
","","","1108","","","25","10862","2627","s","elianto","#3366ff99"," "," ","1","0","[1959]","1","2","","","10862","76","5","1","win","go","1"
"pit-trial","201","1371943","0.0-81.0","battery-v0.2","","""event"",""trial"",""time""
""fullscreenenter"",""1"",""2322""
","
","
","""event"",""trial"",""time""
""fullscreenenter"",""1"",""2322""
","
","","","-1","","","25","10862","2627","p","elianto","#3366ff99","-1","-1","1","0","[]","0","2","","","10862","77","4","2","win","no-go","1"
"pit-trial","202","1376121","0.0-82.0","battery-v0.2","","""event"",""trial"",""time""
""fullscreenenter"",""1"",""2322""
","
","
","""event"",""trial"",""time""
""fullscreenenter"",""1"",""2322""
","
","","","1324.0000000002328","","","25","10862","2627","w","elianto","#f73b6a7A","-1"," ","0","-10","[2174.000000000233]","1","2","","","10862","78","6","4","lose","no-go","0"
"pit-trial","203","1379802","0.0-83.0","battery-v0.2","","""event"",""trial"",""time""
""fullscreenenter"",""1"",""2322""
","
","
","""event"",""trial"",""time""
""fullscreenenter"",""1"",""2322""
","
","","","826","","","25","10862","2627","g","elianto","#f73b6a7A"," "," ","1","-10","[1676]","1","2","","","10862","79","3","3","lose","go","1"
"pit-trial","204","1383505","0.0-84.0","battery-v0.2","","""event"",""trial"",""time""
""fullscreenenter"",""1"",""2322""
","
","
","""event"",""trial"",""time""
""fullscreenenter"",""1"",""2322""
","
","","","850","","","25","10862","2627","s","elianto","#3366ff99"," "," ","1","+10","[1700]","1","2","","","10862","80","5","1","win","go","0"
"pit-trial","205","1388360","0.0-85.0","battery-v0.2","","""event"",""trial"",""time""
""fullscreenenter"",""1"",""2322""
","
","
","""event"",""trial"",""time""
""fullscreenenter"",""1"",""2322""
","
","","","-1","","","25","10862","2627","e","elianto","#f73b6a7A"," ","-1","0","0","[]","0","2","","","10862","81","7","3","lose","go","1"
"pit-trial","206","1392297","0.0-86.0","battery-v0.2","","""event"",""trial"",""time""
""fullscreenenter"",""1"",""2322""
","
","
","""event"",""trial"",""time""
""fullscreenenter"",""1"",""2322""
","
","","","1082","","","25","10862","2627","w","elianto","#f73b6a7A","-1"," ","0","0","[1932]","1","2","","","10862","82","6","4","lose","no-go","1"
"pit-trial","207","1396047","0.0-87.0","battery-v0.2","","""event"",""trial"",""time""
""fullscreenenter"",""1"",""2322""
","
","
","""event"",""trial"",""time""
""fullscreenenter"",""1"",""2322""
","
","","","896.9999999997672","","","25","10862","2627","s","elianto","#3366ff99"," "," ","1","0","[1747]","1","2","","","10862","83","5","1","win","go","1"
"pit-trial","208","1399854","0.0-88.0","battery-v0.2","","""event"",""trial"",""time""
""fullscreenenter"",""1"",""2322""
","
","
","""event"",""trial"",""time""
""fullscreenenter"",""1"",""2322""
","
","","","952.9999999997672","","","25","10862","2627","p","elianto","#3366ff99","-1"," ","0","0","[1803]","1","2","","","10862","84","4","2","win","no-go","0"
"pit-trial","209","1404711","0.0-89.0","battery-v0.2","","""event"",""trial"",""time""
""fullscreenenter"",""1"",""2322""
","
","
","""event"",""trial"",""time""
""fullscreenenter"",""1"",""2322""
","
","","","-1","","","25","10862","2627","e","elianto","#f73b6a7A"," ","-1","0","-10","[]","0","2","","","10862","85","7","3","lose","go","0"
"pit-trial","210","1408504","0.0-90.0","battery-v0.2","","""event"",""trial"",""time""
""fullscreenenter"",""1"",""2322""
","
","
","""event"",""trial"",""time""
""fullscreenenter"",""1"",""2322""
","
","","","937.9999999997672","","","25","10862","2627","s","elianto","#3366ff99"," "," ","1","+10","[1788]","1","2","","","10862","86","5","1","win","go","0"
"pit-trial","211","1413360","0.0-91.0","battery-v0.2","","""event"",""trial"",""time""
""fullscreenenter"",""1"",""2322""
","
","
","""event"",""trial"",""time""
""fullscreenenter"",""1"",""2322""
","
","","","-1","","","25","10862","2627","w","elianto","#f73b6a7A","-1","-1","1","0","[]","0","2","","","10862","87","6","4","lose","no-go","0"
"pit-trial","212","1417070","0.0-92.0","battery-v0.2","","""event"",""trial"",""time""
""fullscreenenter"",""1"",""2322""
","
","
","""event"",""trial"",""time""
""fullscreenenter"",""1"",""2322""
","
","","","855","","","25","10862","2627","p","elianto","#3366ff99","-1"," ","0","0","[1705.9999999997672]","1","2","","","10862","88","4","2","win","no-go","0"
"pit-trial","213","1421926","0.0-93.0","battery-v0.2","","""event"",""trial"",""time""
""fullscreenenter"",""1"",""2322""
","
","
","""event"",""trial"",""time""
""fullscreenenter"",""1"",""2322""
","
","","","-1","","","25","10862","2627","e","elianto","#f73b6a7A"," ","-1","0","-10","[]","0","2","","","10862","89","7","3","lose","go","0"
"pit-trial","214","1425679","0.0-94.0","battery-v0.2","","""event"",""trial"",""time""
""fullscreenenter"",""1"",""2322""
","
","
","""event"",""trial"",""time""
""fullscreenenter"",""1"",""2322""
","
","","","898","","","25","10862","2627","p","elianto","#3366ff99","-1"," ","0","+10","[1749]","1","2","","","10862","90","4","2","win","no-go","1"
"pit-trial","215","1429630","0.0-95.0","battery-v0.2","","""event"",""trial"",""time""
""fullscreenenter"",""1"",""2322""
","
","
","""event"",""trial"",""time""
""fullscreenenter"",""1"",""2322""
","
","","","1095","","","25","10862","2627","w","elianto","#f73b6a7A","-1"," ","0","-10","[1945]","1","2","","","10862","91","6","4","lose","no-go","0"
"pit-trial","216","1433312","0.0-96.0","battery-v0.2","","""event"",""trial"",""time""
""fullscreenenter"",""1"",""2322""
","
","
","""event"",""trial"",""time""
""fullscreenenter"",""1"",""2322""
","
","","","826","","","25","10862","2627","s","elianto","#3366ff99"," "," ","1","+10","[1677]","1","2","","","10862","92","5","1","win","go","0"
"pit-trial","217","1437403","0.0-97.0","battery-v0.2","","""event"",""trial"",""time""
""fullscreenenter"",""1"",""2322""
","
","
","""event"",""trial"",""time""
""fullscreenenter"",""1"",""2322""
","
","","","1235.0000000002328","","","25","10862","2627","d","elianto","#3366ff99","-1"," ","0","0","[2085.000000000233]","1","2","","","10862","93","8","2","win","no-go","0"
"pit-trial","218","1441127","0.0-98.0","battery-v0.2","","""event"",""trial"",""time""
""fullscreenenter"",""1"",""2322""
","
","
","""event"",""trial"",""time""
""fullscreenenter"",""1"",""2322""
","
","","","867.9999999997672","","","25","10862","2627","s","elianto","#3366ff99"," "," ","1","+10","[1719]","1","2","","","10862","94","5","1","win","go","0"
"pit-trial","219","1445982","0.0-99.0","battery-v0.2","","""event"",""trial"",""time""
""fullscreenenter"",""1"",""2322""
","
","
","""event"",""trial"",""time""
""fullscreenenter"",""1"",""2322""
","
","","","-1","","","25","10862","2627","e","elianto","#f73b6a7A"," ","-1","0","-10","[]","0","2","","","10862","95","7","3","lose","go","0"
"pit-trial","220","1450837","0.0-100.0","battery-v0.2","","""event"",""trial"",""time""
""fullscreenenter"",""1"",""2322""
","
","
","""event"",""trial"",""time""
""fullscreenenter"",""1"",""2322""
","
","","","-1","","","25","10862","2627","w","elianto","#f73b6a7A","-1","-1","1","0","[]","0","2","","","10862","96","6","4","lose","no-go","0"
"pit-trial","221","1455692","0.0-101.0","battery-v0.2","","""event"",""trial"",""time""
""fullscreenenter"",""1"",""2322""
","
","
","""event"",""trial"",""time""
""fullscreenenter"",""1"",""2322""
","
","","","-1","","","25","10862","2627","w","elianto","#f73b6a7A","-1","-1","1","0","[]","0","2","","","10862","97","6","4","lose","no-go","0"
"pit-trial","222","1459639","0.0-102.0","battery-v0.2","","""event"",""trial"",""time""
""fullscreenenter"",""1"",""2322""
","
","
","""event"",""trial"",""time""
""fullscreenenter"",""1"",""2322""
","
","","","1091.9999999997672","","","25","10862","2627","e","elianto","#f73b6a7A"," "," ","1","0","[1941]","1","2","","","10862","98","7","3","lose","go","0"
"pit-trial","223","1463534","0.0-103.0","battery-v0.2","","""event"",""trial"",""time""
""fullscreenenter"",""1"",""2322""
","
","
","""event"",""trial"",""time""
""fullscreenenter"",""1"",""2322""
","
","","","1040","","","25","10862","2627","d","elianto","#3366ff99","-1"," ","0","+10","[1890.9999999997672]","1","2","","","10862","99","8","2","win","no-go","1"
"pit-trial","224","1467214","0.0-104.0","battery-v0.2","","""event"",""trial"",""time""
""fullscreenenter"",""1"",""2322""
","
","
","""event"",""trial"",""time""
""fullscreenenter"",""1"",""2322""
","
","","","825","","","25","10862","2627","s","elianto","#3366ff99"," "," ","1","+10","[1675.9999999997672]","1","2","","","10862","100","5","1","win","go","0"
"pit-trial","225","1471038","0.0-105.0","battery-v0.2","","""event"",""trial"",""time""
""fullscreenenter"",""1"",""2322""
","
","
","""event"",""trial"",""time""
""fullscreenenter"",""1"",""2322""
","
","","","969.0000000002328","","","25","10862","2627","j","elianto","#3366ff99","-1"," ","0","+10","[1819.0000000002328]","1","2","","","10862","101","9","2","win","no-go","1"
"pit-trial","226","1474729","0.0-106.0","battery-v0.2","","""event"",""trial"",""time""
""fullscreenenter"",""1"",""2322""
","
","
","""event"",""trial"",""time""
""fullscreenenter"",""1"",""2322""
","
","","","835.9999999997672","","","25","10862","2627","s","elianto","#3366ff99"," "," ","1","+10","[1687]","1","2","","","10862","102","5","1","win","go","0"
"pit-trial","227","1479584","0.0-107.0","battery-v0.2","","""event"",""trial"",""time""
""fullscreenenter"",""1"",""2322""
","
","
","""event"",""trial"",""time""
""fullscreenenter"",""1"",""2322""
","
","","","-1","","","25","10862","2627","w","elianto","#f73b6a7A","-1","-1","1","0","[]","0","2","","","10862","103","6","4","lose","no-go","0"
"pit-trial","228","1483134","0.0-108.0","battery-v0.2","","""event"",""trial"",""time""
""fullscreenenter"",""1"",""2322""
","
","
","""event"",""trial"",""time""
""fullscreenenter"",""1"",""2322""
","
","","","695.0000000002328","","","25","10862","2627","d","elianto","#3366ff99","-1"," ","0","+10","[1546.0000000002328]","1","2","","","10862","104","8","2","win","no-go","1"
"pit-trial","229","1487990","0.0-109.0","battery-v0.2","","""event"",""trial"",""time""
""fullscreenenter"",""1"",""2322""
","
","
","""event"",""trial"",""time""
""fullscreenenter"",""1"",""2322""
","
","","","-1","","","25","10862","2627","w","elianto","#f73b6a7A","-1","-1","1","0","[]","0","2","","","10862","105","6","4","lose","no-go","0"
"pit-trial","230","1491506","0.0-110.0","battery-v0.2","","""event"",""trial"",""time""
""fullscreenenter"",""1"",""2322""
","
","
","""event"",""trial"",""time""
""fullscreenenter"",""1"",""2322""
","
","","","660.9999999997672","","","25","10862","2627","d","elianto","#3366ff99","-1"," ","0","0","[1512]","1","2","","","10862","106","8","2","win","no-go","0"
"pit-trial","231","1495138","0.0-111.0","battery-v0.2","","""event"",""trial"",""time""
""fullscreenenter"",""1"",""2322""
","
","
","""event"",""trial"",""time""
""fullscreenenter"",""1"",""2322""
","
","","","777","","","25","10862","2627","j","elianto","#3366ff99","-1"," ","0","0","[1627]","1","2","","","10862","107","9","2","win","no-go","0"
"pit-trial","232","1498835","0.0-112.0","battery-v0.2","","""event"",""trial"",""time""
""fullscreenenter"",""1"",""2322""
","
","
","""event"",""trial"",""time""
""fullscreenenter"",""1"",""2322""
","
","","","842","","","25","10862","2627","s","elianto","#3366ff99"," "," ","1","+10","[1694]","1","2","","","10862","108","5","1","win","go","0"
"pit-trial","233","1503691","0.0-113.0","battery-v0.2","","""event"",""trial"",""time""
""fullscreenenter"",""1"",""2322""
","
","
","""event"",""trial"",""time""
""fullscreenenter"",""1"",""2322""
","
","","","-1","","","25","10862","2627","w","elianto","#f73b6a7A","-1","-1","1","0","[]","0","2","","","10862","109","6","4","lose","no-go","0"
"pit-trial","234","1507276","0.0-114.0","battery-v0.2","","""event"",""trial"",""time""
""fullscreenenter"",""1"",""2322""
","
","
","""event"",""trial"",""time""
""fullscreenenter"",""1"",""2322""
","
","","","730","","","25","10862","2627","d","elianto","#3366ff99","-1"," ","0","0","[1581]","1","2","","","10862","110","8","2","win","no-go","0"
"pit-trial","235","1510948","0.0-115.0","battery-v0.2","","""event"",""trial"",""time""
""fullscreenenter"",""1"",""2322""
","
","
","""event"",""trial"",""time""
""fullscreenenter"",""1"",""2322""
","
","","","818","","","25","10862","2627","s","elianto","#3366ff99"," "," ","1","+10","[1668]","1","2","","","10862","111","5","1","win","go","0"
"pit-trial","236","1515868","0.0-116.0","battery-v0.2","","""event"",""trial"",""time""
""fullscreenenter"",""1"",""2322""
","
","
","""event"",""trial"",""time""
""fullscreenenter"",""1"",""2322""
","
","","","-1","","","25","10862","2627","j","elianto","#3366ff99","-1","-1","1","+10","[]","0","2","","","10862","112","9","2","win","no-go","0"
"pit-trial","237","1519451","0.0-117.0","battery-v0.2","","""event"",""trial"",""time""
""fullscreenenter"",""1"",""2322""
","
","
","""event"",""trial"",""time""
""fullscreenenter"",""1"",""2322""
","
","","","727.0000000002328","","","25","10862","2627","d","elianto","#3366ff99","-1"," ","0","0","[1578.0000000002328]","1","2","","","10862","113","8","2","win","no-go","0"
"pit-trial","238","1524307","0.0-118.0","battery-v0.2","","""event"",""trial"",""time""
""fullscreenenter"",""1"",""2322""
","
","
","""event"",""trial"",""time""
""fullscreenenter"",""1"",""2322""
","
","","","-1","","","25","10862","2627","j","elianto","#3366ff99","-1","-1","1","+10","[]","0","2","","","10862","114","9","2","win","no-go","0"
"pit-trial","239","1527823","0.0-119.0","battery-v0.2","","""event"",""trial"",""time""
""fullscreenenter"",""1"",""2322""
","
","
","""event"",""trial"",""time""
""fullscreenenter"",""1"",""2322""
","
","","","661.9999999997672","","","25","10862","2627","s","elianto","#3366ff99"," "," ","1","+10","[1511]","1","2","","","10862","115","5","1","win","go","0"
"pit-trial","240","1532100","0.0-120.0","battery-v0.2","","""event"",""trial"",""time""
""fullscreenenter"",""1"",""2322""
","
","
","""event"",""trial"",""time""
""fullscreenenter"",""1"",""2322""
","
","","","1420","","","25","10862","2627","e","elianto","#f73b6a7A"," "," ","1","0","[2272]","1","2","","","10862","116","7","3","lose","go","0"
"pit-trial","241","1536955","0.0-121.0","battery-v0.2","","""event"",""trial"",""time""
""fullscreenenter"",""1"",""2322""
","
","
","""event"",""trial"",""time""
""fullscreenenter"",""1"",""2322""
","
","","","-1","","","25","10862","2627","w","elianto","#f73b6a7A","-1","-1","1","0","[]","0","2","","","10862","117","6","4","lose","no-go","0"
"pit-trial","242","1540540","0.0-122.0","battery-v0.2","","""event"",""trial"",""time""
""fullscreenenter"",""1"",""2322""
","
","
","""event"",""trial"",""time""
""fullscreenenter"",""1"",""2322""
","
","","","730","","","25","10862","2627","d","elianto","#3366ff99","-1"," ","0","0","[1579.9999999997672]","1","2","","","10862","118","8","2","win","no-go","0"
"pit-trial","243","1544091","0.0-123.0","battery-v0.2","","""event"",""trial"",""time""
""fullscreenenter"",""1"",""2322""
","
","
","""event"",""trial"",""time""
""fullscreenenter"",""1"",""2322""
","
","","","696","","","25","10862","2627","j","elianto","#3366ff99","-1"," ","0","0","[1547]","1","2","","","10862","119","9","2","win","no-go","0"
"pit-trial","244","1547716","0.0-124.0","battery-v0.2","","""event"",""trial"",""time""
""fullscreenenter"",""1"",""2322""
","
","
","""event"",""trial"",""time""
""fullscreenenter"",""1"",""2322""
","
","","","770","","","25","10862","2627","s","elianto","#3366ff99"," "," ","1","+10","[1620.9999999997672]","1","2","","","10862","120","5","1","win","go","0"
"pit-trial","245","1551347","0.0-125.0","battery-v0.2","","""event"",""trial"",""time""
""fullscreenenter"",""1"",""2322""
","
","
","""event"",""trial"",""time""
""fullscreenenter"",""1"",""2322""
","
","","","774","","","25","10862","2627","s","elianto","#3366ff99"," "," ","1","0","[1626.9999999997672]","1","2","","","10862","121","5","1","win","go","1"
"pit-trial","246","1556203","0.0-126.0","battery-v0.2","","""event"",""trial"",""time""
""fullscreenenter"",""1"",""2322""
","
","
","""event"",""trial"",""time""
""fullscreenenter"",""1"",""2322""
","
","","","-1","","","25","10862","2627","d","elianto","#3366ff99","-1","-1","1","0","[]","0","2","","","10862","122","8","2","win","no-go","1"
"pit-trial","247","1560316","0.0-127.0","battery-v0.2","","""event"",""trial"",""time""
""fullscreenenter"",""1"",""2322""
","
","
","""event"",""trial"",""time""
""fullscreenenter"",""1"",""2322""
","
","","","1257","","","25","10862","2627","e","elianto","#f73b6a7A"," "," ","1","-10","[2108]","1","2","","","10862","123","7","3","lose","go","1"
"pit-trial","248","1565171","0.0-128.0","battery-v0.2","","""event"",""trial"",""time""
""fullscreenenter"",""1"",""2322""
","
","
","""event"",""trial"",""time""
""fullscreenenter"",""1"",""2322""
","
","","","-1","","","25","10862","2627","j","elianto","#3366ff99","-1","-1","1","0","[]","0","2","","","10862","124","9","2","win","no-go","1"
"pit-trial","249","1570027","0.0-129.0","battery-v0.2","","""event"",""trial"",""time""
""fullscreenenter"",""1"",""2322""
","
","
","""event"",""trial"",""time""
""fullscreenenter"",""1"",""2322""
","
","","","-1","","","25","10862","2627","w","elianto","#f73b6a7A","-1","-1","1","0","[]","0","2","","","10862","125","6","4","lose","no-go","0"
"pit-trial","250","1573919","0.0-130.0","battery-v0.2","","""event"",""trial"",""time""
""fullscreenenter"",""1"",""2322""
","
","
","""event"",""trial"",""time""
""fullscreenenter"",""1"",""2322""
","
","","","1036","","","25","10862","2627","e","elianto","#f73b6a7A"," "," ","1","0","[1888]","1","2","","","10862","126","7","3","lose","go","0"
"pit-trial","251","1577575","0.0-131.0","battery-v0.2","","""event"",""trial"",""time""
""fullscreenenter"",""1"",""2322""
","
","
","""event"",""trial"",""time""
""fullscreenenter"",""1"",""2322""
","
","","","800","","","25","10862","2627","j","elianto","#3366ff99","-1"," ","0","0","[1651]","1","2","","","10862","127","9","2","win","no-go","0"
"pit-trial","252","1581345","0.0-132.0","battery-v0.2","","""event"",""trial"",""time""
""fullscreenenter"",""1"",""2322""
","
","
","""event"",""trial"",""time""
""fullscreenenter"",""1"",""2322""
","
","","","916","","","25","10862","2627","d","elianto","#3366ff99","-1"," ","0","0","[1766]","1","2","","","10862","128","8","2","win","no-go","0"
"pit-trial","253","1585309","0.0-133.0","battery-v0.2","","""event"",""trial"",""time""
""fullscreenenter"",""1"",""2322""
","
","
","""event"",""trial"",""time""
""fullscreenenter"",""1"",""2322""
","
","","","1109","","","25","10862","2627","j","elianto","#3366ff99","-1"," ","0","0","[1959]","1","2","","","10862","129","9","2","win","no-go","0"
"pit-trial","254","1590165","0.0-134.0","battery-v0.2","","""event"",""trial"",""time""
""fullscreenenter"",""1"",""2322""
","
","
","""event"",""trial"",""time""
""fullscreenenter"",""1"",""2322""
","
","","","-1","","","25","10862","2627","d","elianto","#3366ff99","-1","-1","1","0","[]","0","2","","","10862","130","8","2","win","no-go","1"
"pit-trial","255","1595021","0.0-135.0","battery-v0.2","","""event"",""trial"",""time""
""fullscreenenter"",""1"",""2322""
","
","
","""event"",""trial"",""time""
""fullscreenenter"",""1"",""2322""
","
","","","-1","","","25","10862","2627","w","elianto","#f73b6a7A","-1","-1","1","0","[]","0","2","","","10862","131","6","4","lose","no-go","0"
"pit-trial","256","1599876","0.0-136.0","battery-v0.2","","""event"",""trial"",""time""
""fullscreenenter"",""1"",""2322""
","
","
","""event"",""trial"",""time""
""fullscreenenter"",""1"",""2322""
","
","","","-1","","","25","10862","2627","e","elianto","#f73b6a7A"," ","-1","0","-10","[]","0","2","","","10862","132","7","3","lose","go","0"
"pit-trial","257","1603622","0.0-137.0","battery-v0.2","","""event"",""trial"",""time""
""fullscreenenter"",""1"",""2322""
","
","
","""event"",""trial"",""time""
""fullscreenenter"",""1"",""2322""
","
","","","891","","","25","10862","2627","j","elianto","#3366ff99","-1"," ","0","+10","[1741]","1","2","","","10862","133","9","2","win","no-go","1"
"pit-trial","258","1608479","0.0-138.0","battery-v0.2","","""event"",""trial"",""time""
""fullscreenenter"",""1"",""2322""
","
","
","""event"",""trial"",""time""
""fullscreenenter"",""1"",""2322""
","
","","","-1","","","25","10862","2627","e","elianto","#f73b6a7A"," ","-1","0","-10","[]","0","2","","","10862","134","7","3","lose","go","0"
"pit-trial","259","1613335","0.0-139.0","battery-v0.2","","""event"",""trial"",""time""
""fullscreenenter"",""1"",""2322""
","
","
","""event"",""trial"",""time""
""fullscreenenter"",""1"",""2322""
","
","","","-1","","","25","10862","2627","w","elianto","#f73b6a7A","-1","-1","1","0","[]","0","2","","","10862","135","6","4","lose","no-go","0"
"pit-trial","260","1616943","0.0-140.0","battery-v0.2","","""event"",""trial"",""time""
""fullscreenenter"",""1"",""2322""
","
","
","""event"",""trial"",""time""
""fullscreenenter"",""1"",""2322""
","
","","","754.0000000002328","","","25","10862","2627","d","elianto","#3366ff99","-1"," ","0","0","[1604.0000000002328]","1","2","","","10862","136","8","2","win","no-go","0"
"pit-trial","261","1620573","0.0-141.0","battery-v0.2","","""event"",""trial"",""time""
""fullscreenenter"",""1"",""2322""
","
","
","""event"",""trial"",""time""
""fullscreenenter"",""1"",""2322""
","
","","","774","","","25","10862","2627","j","elianto","#3366ff99","-1"," ","0","+10","[1625]","1","2","","","10862","137","9","2","win","no-go","1"
"pit-trial","262","1625428","0.0-142.0","battery-v0.2","","""event"",""trial"",""time""
""fullscreenenter"",""1"",""2322""
","
","
","""event"",""trial"",""time""
""fullscreenenter"",""1"",""2322""
","
","","","-1","","","25","10862","2627","w","elianto","#f73b6a7A","-1","-1","1","0","[]","0","2","","","10862","138","6","4","lose","no-go","0"
"pit-trial","263","1629340","0.0-143.0","battery-v0.2","","""event"",""trial"",""time""
""fullscreenenter"",""1"",""2322""
","
","
","""event"",""trial"",""time""
""fullscreenenter"",""1"",""2322""
","
","","","1056","","","25","10862","2627","d","elianto","#3366ff99","-1"," ","0","0","[1907]","1","2","","","10862","139","8","2","win","no-go","0"
"pit-trial","264","1634195","0.0-144.0","battery-v0.2","","""event"",""trial"",""time""
""fullscreenenter"",""1"",""2322""
","
","
","""event"",""trial"",""time""
""fullscreenenter"",""1"",""2322""
","
","","","-1","","","25","10862","2627","e","elianto","#f73b6a7A"," ","-1","0","-10","[]","0","2","","","10862","140","7","3","lose","go","0"
"pit-instructions","265","1698103","0.0-145.0","battery-v0.2","","""event"",""trial"",""time""
""fullscreenenter"",""1"",""2322""
","
","
","""event"",""trial"",""time""
""fullscreenenter"",""1"",""2322""
","
","","[{""page_index"":0,""viewing_time"":54690},{""page_index"":1,""viewing_time"":9213}]","63903","","","","","","","","","","","","","","","","","","","","","","","",""
"pit-trial","266","1701907","0.0-146.0","battery-v0.2","","""event"",""trial"",""time""
""fullscreenenter"",""1"",""2322""
","
","
","""event"",""trial"",""time""
""fullscreenenter"",""1"",""2322""
","
","","","946.0000000002328","","","25","10862","2627","h","elianto","#f73b6a7A","-1"," ","0","-10","[1797.0000000002328]","1","3","","","10862","141","3","4","lose","no-go","0"
"pit-trial","267","1705645","0.0-147.0","battery-v0.2","","""event"",""trial"",""time""
""fullscreenenter"",""1"",""2322""
","
","
","""event"",""trial"",""time""
""fullscreenenter"",""1"",""2322""
","
","","","884","","","25","10862","2627","y","elianto","#f73b6a7A"," "," ","1","-10","[1734]","1","3","","","10862","142","2","3","lose","go","1"
"pit-trial","268","1709265","0.0-148.0","battery-v0.2","","""event"",""trial"",""time""
""fullscreenenter"",""1"",""2322""
","
","
","""event"",""trial"",""time""
""fullscreenenter"",""1"",""2322""
","
","","","765","","","25","10862","2627","r","elianto","#3366ff99","-1"," ","0","0","[1615]","1","3","","","10862","143","1","2","win","no-go","0"
"pit-trial","269","1714121","0.0-149.0","battery-v0.2","","""event"",""trial"",""time""
""fullscreenenter"",""1"",""2322""
","
","
","""event"",""trial"",""time""
""fullscreenenter"",""1"",""2322""
","
","","","-1","","","25","10862","2627","m","elianto","#f73b6a7A"," ","-1","0","-10","[]","0","3","","","10862","144","0","3","lose","go","0"
"pit-trial","270","1717937","0.0-150.0","battery-v0.2","","""event"",""trial"",""time""
""fullscreenenter"",""1"",""2322""
","
","
","""event"",""trial"",""time""
""fullscreenenter"",""1"",""2322""
","
","","","959.0000000002328","","","25","10862","2627","m","elianto","#f73b6a7A"," "," ","1","0","[1811.0000000002328]","1","3","","","10862","145","0","3","lose","go","0"
"pit-trial","271","1722793","0.0-151.0","battery-v0.2","","""event"",""trial"",""time""
""fullscreenenter"",""1"",""2322""
","
","
","""event"",""trial"",""time""
""fullscreenenter"",""1"",""2322""
","
","","","-1","","","25","10862","2627","y","elianto","#f73b6a7A"," ","-1","0","0","[]","0","3","","","10862","146","2","3","lose","go","1"
"pit-trial","272","1726906","0.0-152.0","battery-v0.2","","""event"",""trial"",""time""
""fullscreenenter"",""1"",""2322""
","
","
","""event"",""trial"",""time""
""fullscreenenter"",""1"",""2322""
","
","","","1258","","","25","10862","2627","r","elianto","#3366ff99","-1"," ","0","0","[2108]","1","3","","","10862","147","1","2","win","no-go","0"
"pit-trial","273","1731762","0.0-153.0","battery-v0.2","","""event"",""trial"",""time""
""fullscreenenter"",""1"",""2322""
","
","
","""event"",""trial"",""time""
""fullscreenenter"",""1"",""2322""
","
","","","-1","","","25","10862","2627","h","elianto","#f73b6a7A","-1","-1","1","-10","[]","0","3","","","10862","148","3","4","lose","no-go","1"
"pit-trial","274","1736618","0.0-154.0","battery-v0.2","","""event"",""trial"",""time""