"trial_type","trial_index","time_elapsed","internal_node_id","task_version","subject_id","interactions","blur_events","focus_events","fullscreenenter_events","fullscreenexit_events","success","view_history","rt","responses","num_errors","age","subject","participantId","rune","rune_set","hex","correct","choice","accuracy","outcome","keys","total_keys","block","practice","value","sub","trial","stimulus","robot","valence","action","sham"
"pavlovia","0","31","0.0-0.0","battery-v0.2","","""event"",""trial"",""time""
""fullscreenenter"",""1"",""2199""
","
","
","""event"",""trial"",""time""
""fullscreenenter"",""1"",""2199""
","
","","","","","","","","","","","","","","","","","","","","","","","","","","",""
"fullscreen","1","3160","0.0-1.0","battery-v0.2","","""event"",""trial"",""time""
""fullscreenenter"",""1"",""2199""
","
","
","""event"",""trial"",""time""
""fullscreenenter"",""1"",""2199""
","
","true","","","","","","","","","","","","","","","","","","","","","","","","","",""
"pit-instructions","2","11003","0.0-2.0-0.0","battery-v0.2","","""event"",""trial"",""time""
""fullscreenenter"",""1"",""2199""
","
","
","""event"",""trial"",""time""
""fullscreenenter"",""1"",""2199""
","
","","[{""page_index"":0,""viewing_time"":7831.39999999851}]","7833.19999999553","","","","","","","","","","","","","","","","","","","","","","","",""
"pit-comprehension","3","16389","0.0-2.0-1.0-0.0","battery-v0.2","","""event"",""trial"",""time""
""fullscreenenter"",""1"",""2199""
","
","
","""event"",""trial"",""time""
""fullscreenenter"",""1"",""2199""
","
","","","5366.19999999553","[""shark""]","0","15","15545","6222","","","","","","","","","","","","","","","","","","",""
"pit-instructions","4","19489","0.0-2.0-1.0-1.0","battery-v0.2","","""event"",""trial"",""time""
""fullscreenenter"",""1"",""2199""
","
","
","""event"",""trial"",""time""
""fullscreenenter"",""1"",""2199""
","
","","[{""page_index"":0,""viewing_time"":3082.10000000149}]","3083.2000000029802","","","","","","","","","","","","","","","","","","","","","","","",""
"pit-comprehension","5","23992","0.0-2.0-2.0-0.0","battery-v0.2","","""event"",""trial"",""time""
""fullscreenenter"",""1"",""2199""
","
","
","""event"",""trial"",""time""
""fullscreenenter"",""1"",""2199""
","
","","","4486.89999999851","[""tiger""]","0","15","15545","6222","","","","","","","","","","","","","","","","","","",""
"pit-instructions","6","27578","0.0-2.0-2.0-1.0","battery-v0.2","","""event"",""trial"",""time""
""fullscreenenter"",""1"",""2199""
","
","
","""event"",""trial"",""time""
""fullscreenenter"",""1"",""2199""
","
","","[{""page_index"":0,""viewing_time"":3572.89999999851}]","3574.2999999970198","","","","","","","","","","","","","","","","","","","","","","","",""
"pit-instructions","7","128392","0.0-2.0-3.0","battery-v0.2","","""event"",""trial"",""time""
""fullscreenenter"",""1"",""2199""
","
","
","""event"",""trial"",""time""
""fullscreenenter"",""1"",""2199""
","
","","[{""page_index"":0,""viewing_time"":10094.30000000447},{""page_index"":1,""viewing_time"":7370.0999999940395},{""page_index"":2,""viewing_time"":7046.60000000149},{""page_index"":3,""viewing_time"":7330.30000000447},{""page_index"":4,""viewing_time"":5989.0999999940395},{""page_index"":5,""viewing_time"":6968.5},{""page_index"":6,""viewing_time"":6705.30000000447},{""page_index"":7,""viewing_time"":6447.89999999851},{""page_index"":8,""viewing_time"":7428},{""page_index"":9,""viewing_time"":8095.10000000149},{""page_index"":10,""viewing_time"":8428.10000000149},{""page_index"":11,""viewing_time"":7492.0999999940395},{""page_index"":12,""viewing_time"":6263.10000000149},{""page_index"":13,""viewing_time"":5146}]","100805.80000000447","","","","","","","","","","","","","","","","","","","","","","","",""
"pit-trial","8","132034","0.0-2.0-4.0-0.0","battery-v0.2","","""event"",""trial"",""time""
""fullscreenenter"",""1"",""2199""
","
","
","""event"",""trial"",""time""
""fullscreenenter"",""1"",""2199""
","
","","","779.7999999970198","","","15","15545","6222","&#9784;","elianto","#FFFFF080"," "," ","1","&#10004","[1629.7999999970198]","1","0","0","","","","","","","",""
"pit-trial","9","135537","0.0-2.0-4.1-0.1","battery-v0.2","","""event"",""trial"",""time""
""fullscreenenter"",""1"",""2199""
","
","
","""event"",""trial"",""time""
""fullscreenenter"",""1"",""2199""
","
","","","645.5","","","15","15545","6222","&#9784;","elianto","#FFFFF080"," "," ","1","&#10004","[1495.5]","1","0","0","","","","","","","",""
"pit-trial","10","139028","0.0-2.0-4.2-0.2","battery-v0.2","","""event"",""trial"",""time""
""fullscreenenter"",""1"",""2199""
","
","
","""event"",""trial"",""time""
""fullscreenenter"",""1"",""2199""
","
","","","632.8999999985099","","","15","15545","6222","&#9784;","elianto","#FFFFF080"," "," ","1","&#10004","[1482.8999999985099]","1","0","0","","","","","","","",""
"pit-trial","11","142691","0.0-2.0-4.3-0.3","battery-v0.2","","""event"",""trial"",""time""
""fullscreenenter"",""1"",""2199""
","
","
","""event"",""trial"",""time""
""fullscreenenter"",""1"",""2199""
","
","","","807.2999999970198","","","15","15545","6222","&#9784;","elianto","#FFFFF080"," "," ","1","&#10004","[1657.3000000044703]","1","0","0","","","","","","","",""
"pit-trial","12","146157","0.0-2.0-4.4-0.4","battery-v0.2","","""event"",""trial"",""time""
""fullscreenenter"",""1"",""2199""
","
","
","""event"",""trial"",""time""
""fullscreenenter"",""1"",""2199""
","
","","","609.9000000059605","","","15","15545","6222","&#9784;","elianto","#FFFFF080"," "," ","1","&#10004","[1460.1000000014901]","1","0","0","","","","","","","",""
"pit-instructions","13","168434","0.0-2.0-5.0","battery-v0.2","","""event"",""trial"",""time""
""fullscreenenter"",""1"",""2199""
","
","
","""event"",""trial"",""time""
""fullscreenenter"",""1"",""2199""
","
","","[{""page_index"":0,""viewing_time"":5028.4000000059605},{""page_index"":1,""viewing_time"":6499.0999999940395},{""page_index"":2,""viewing_time"":4723.10000000149},{""page_index"":3,""viewing_time"":6018.20000000298}]","22269.60000000149","","","","","","","","","","","","","","","","","","","","","","","",""
"pit-trial","14","173290","0.0-2.0-6.0-0.0","battery-v0.2","","""event"",""trial"",""time""
""fullscreenenter"",""1"",""2199""
","
","
","""event"",""trial"",""time""
""fullscreenenter"",""1"",""2199""
","
","","","-1","","","15","15545","6222","&#9854;","elianto","#FFFFF080","-1","-1","1","&#10004","[]","0","0","1","","","","","","","",""
"pit-trial","15","178147","0.0-2.0-6.1-0.1","battery-v0.2","","""event"",""trial"",""time""
""fullscreenenter"",""1"",""2199""
","
","
","""event"",""trial"",""time""
""fullscreenenter"",""1"",""2199""
","
","","","-1","","","15","15545","6222","&#9854;","elianto","#FFFFF080","-1","-1","1","&#10004","[]","0","0","1","","","","","","","",""
"pit-trial","16","183005","0.0-2.0-6.2-0.2","battery-v0.2","","""event"",""trial"",""time""
""fullscreenenter"",""1"",""2199""
","
","
","""event"",""trial"",""time""
""fullscreenenter"",""1"",""2199""
","
","","","-1","","","15","15545","6222","&#9854;","elianto","#FFFFF080","-1","-1","1","&#10004","[]","0","0","1","","","","","","","",""
"pit-trial","17","187864","0.0-2.0-6.3-0.3","battery-v0.2","","""event"",""trial"",""time""
""fullscreenenter"",""1"",""2199""
","
","
","""event"",""trial"",""time""
""fullscreenenter"",""1"",""2199""
","
","","","-1","","","15","15545","6222","&#9854;","elianto","#FFFFF080","-1","-1","1","&#10004","[]","0","0","1","","","","","","","",""
"pit-trial","18","192723","0.0-2.0-6.4-0.4","battery-v0.2","","""event"",""trial"",""time""
""fullscreenenter"",""1"",""2199""
","
","
","""event"",""trial"",""time""
""fullscreenenter"",""1"",""2199""
","
","","","-1","","","15","15545","6222","&#9854;","elianto","#FFFFF080","-1","-1","1","&#10004","[]","0","0","1","","","","","","","",""
"pit-instructions","19","312559","0.0-2.0-7.0","battery-v0.2","","""event"",""trial"",""time""
""fullscreenenter"",""1"",""2199""
","
","
","""event"",""trial"",""time""
""fullscreenenter"",""1"",""2199""
","
","","[{""page_index"":0,""viewing_time"":5866.80000000447},{""page_index"":1,""viewing_time"":7938.60000000149},{""page_index"":2,""viewing_time"":6123.89999999851},{""page_index"":3,""viewing_time"":6353.10000000149},{""page_index"":4,""viewing_time"":5732.69999999553},{""page_index"":5,""viewing_time"":5301.5},{""page_index"":6,""viewing_time"":4742.70000000298},{""page_index"":7,""viewing_time"":10358.79999999702},{""page_index"":8,""viewing_time"":6811.5},{""page_index"":9,""viewing_time"":5684.39999999851},{""page_index"":10,""viewing_time"":6742.20000000298},{""page_index"":11,""viewing_time"":5585.89999999851},{""page_index"":12,""viewing_time"":7419.30000000447},{""page_index"":13,""viewing_time"":7096},{""page_index"":14,""viewing_time"":7222.19999999553},{""page_index"":15,""viewing_time"":7233.89999999851},{""page_index"":16,""viewing_time"":6791.60000000149},{""page_index"":17,""viewing_time"":6821.5}]","119827.90000000596","","","","","","","","","","","","","","","","","","","","","","","",""
"pit-trial","20","315865","0.0-2.0-8.0-0.0","battery-v0.2","","""event"",""trial"",""time""
""fullscreenenter"",""1"",""2199""
","
","
","""event"",""trial"",""time""
""fullscreenenter"",""1"",""2199""
","
","","","447.3999999985099","","","15","15545","6222","&#9776;","elianto","#3366ff99"," "," ","1","+10","[1297.2000000029802]","1","0","1","","","","","","","",""
"pit-trial","21","319152","0.0-2.0-8.0-1.0","battery-v0.2","","""event"",""trial"",""time""
""fullscreenenter"",""1"",""2199""
","
","
","""event"",""trial"",""time""
""fullscreenenter"",""1"",""2199""
","
","","","428.6000000014901","","","15","15545","6222","&#9776;","elianto","#3366ff99"," "," ","1","+10","[1281]","1","0","1","","","","","","","",""
"pit-trial","22","322378","0.0-2.0-8.0-2.0","battery-v0.2","","""event"",""trial"",""time""
""fullscreenenter"",""1"",""2199""
","
","
","""event"",""trial"",""time""
""fullscreenenter"",""1"",""2199""
","
","","","370.09999999403954","","","15","15545","6222","&#9776;","elianto","#3366ff99"," "," ","1","+10","[1220.3000000044703]","1","0","1","","","","","","","",""
"pit-trial","23","325812","0.0-2.0-8.0-3.0","battery-v0.2","","""event"",""trial"",""time""
""fullscreenenter"",""1"",""2199""
","
","
","""event"",""trial"",""time""
""fullscreenenter"",""1"",""2199""
","
","","","571.8000000044703","","","15","15545","6222","&#9776;","elianto","#3366ff99"," "," ","1","0","[1427.2000000029802]","1","0","1","","","","","","","",""
"pit-trial","24","329462","0.0-2.0-8.0-4.0","battery-v0.2","","""event"",""trial"",""time""
""fullscreenenter"",""1"",""2199""
","
","
","""event"",""trial"",""time""
""fullscreenenter"",""1"",""2199""
","
","","","794","","","15","15545","6222","&#9776;","elianto","#3366ff99"," "," ","1","+10","[1643.8999999985099]","1","0","1","","","","","","","",""
"pit-trial","25","332688","0.0-2.0-8.1-0.1","battery-v0.2","","""event"",""trial"",""time""
""fullscreenenter"",""1"",""2199""
","
","
","""event"",""trial"",""time""
""fullscreenenter"",""1"",""2199""
","
","","","366.70000000298023","","","15","15545","6222","&#9776;","elianto","#3366ff99"," "," ","1","+10","[1216.8999999985099]","1","0","1","","","","","","","",""
"pit-trial","26","335894","0.0-2.0-8.1-1.1","battery-v0.2","","""event"",""trial"",""time""
""fullscreenenter"",""1"",""2199""
","
","
","""event"",""trial"",""time""
""fullscreenenter"",""1"",""2199""
","
","","","345.8999999985099","","","15","15545","6222","&#9776;","elianto","#3366ff99"," "," ","1","+10","[1199.6000000014901]","1","0","1","","","","","","","",""
"pit-trial","27","339699","0.0-2.0-8.1-2.1","battery-v0.2","","""event"",""trial"",""time""
""fullscreenenter"",""1"",""2199""
","
","
","""event"",""trial"",""time""
""fullscreenenter"",""1"",""2199""
","
","","","942.7000000029802","","","15","15545","6222","&#9776;","elianto","#3366ff99"," "," ","1","+10","[1798.8000000044703]","1","0","1","","","","","","","",""
"pit-trial","28","342948","0.0-2.0-8.1-3.1","battery-v0.2","","""event"",""trial"",""time""
""fullscreenenter"",""1"",""2199""
","
","
","""event"",""trial"",""time""
""fullscreenenter"",""1"",""2199""
","
","","","393.29999999701977","","","15","15545","6222","&#9776;","elianto","#3366ff99"," "," ","1","0","[1243.2000000029802]","1","0","1","","","","","","","",""
"pit-trial","29","346239","0.0-2.0-8.1-4.1","battery-v0.2","","""event"",""trial"",""time""
""fullscreenenter"",""1"",""2199""
","
","
","""event"",""trial"",""time""
""fullscreenenter"",""1"",""2199""
","
","","","433.90000000596046","","","15","15545","6222","&#9776;","elianto","#3366ff99"," "," ","1","+10","[1284.4000000059605]","1","0","1","","","","","","","",""
"pit-trial","30","349522","0.0-2.0-8.2-0.2","battery-v0.2","","""event"",""trial"",""time""
""fullscreenenter"",""1"",""2199""
","
","
","""event"",""trial"",""time""
""fullscreenenter"",""1"",""2199""
","
","","","422.8999999985099","","","15","15545","6222","&#9776;","elianto","#3366ff99"," "," ","1","+10","[1274.3999999985099]","1","0","1","","","","","","","",""
"pit-trial","31","352623","0.0-2.0-8.2-1.2","battery-v0.2","","""event"",""trial"",""time""
""fullscreenenter"",""1"",""2199""
","
","
","""event"",""trial"",""time""
""fullscreenenter"",""1"",""2199""
","
","","","245.19999999552965","","","15","15545","6222","&#9776;","elianto","#3366ff99"," "," ","1","+10","[1095.2999999970198]","1","0","1","","","","","","","",""
"pit-trial","32","355872","0.0-2.0-8.2-2.2","battery-v0.2","","""event"",""trial"",""time""
""fullscreenenter"",""1"",""2199""
","
","
","""event"",""trial"",""time""
""fullscreenenter"",""1"",""2199""
","
","","","392.70000000298023","","","15","15545","6222","&#9776;","elianto","#3366ff99"," "," ","1","+10","[1242.7999999970198]","1","0","1","","","","","","","",""
"pit-trial","33","359143","0.0-2.0-8.2-3.2","battery-v0.2","","""event"",""trial"",""time""
""fullscreenenter"",""1"",""2199""
","
","
","""event"",""trial"",""time""
""fullscreenenter"",""1"",""2199""
","
","","","415.09999999403954","","","15","15545","6222","&#9776;","elianto","#3366ff99"," "," ","1","0","[1265.1000000014901]","1","0","1","","","","","","","",""
"pit-trial","34","362459","0.0-2.0-8.2-4.2","battery-v0.2","","""event"",""trial"",""time""
""fullscreenenter"",""1"",""2199""
","
","
","""event"",""trial"",""time""
""fullscreenenter"",""1"",""2199""
","
","","","459.29999999701977","","","15","15545","6222","&#9776;","elianto","#3366ff99"," "," ","1","+10","[1309.7999999970198]","1","0","1","","","","","","","",""
"call-function","35","362465","0.0-2.0-9.0","battery-v0.2","","""event"",""trial"",""time""
""fullscreenenter"",""1"",""2199""
","
","
","""event"",""trial"",""time""
""fullscreenenter"",""1"",""2199""
","
","","","","","","","","","","","","","","","","","","","","","","","","","","",""
"pit-instructions","36","405797","0.0-2.0-10.0","battery-v0.2","","""event"",""trial"",""time""
""fullscreenenter"",""1"",""2199""
","
","
","""event"",""trial"",""time""
""fullscreenenter"",""1"",""2199""
","
","","[{""page_index"":0,""viewing_time"":5915.70000000298},{""page_index"":1,""viewing_time"":7157.79999999702},{""page_index"":2,""viewing_time"":11323.29999999702},{""page_index"":3,""viewing_time"":10228.90000000596},{""page_index"":4,""viewing_time"":8702.5}]","43329.5","","","","","","","","","","","","","","","","","","","","","","","",""
"pit-trial","37","409069","0.0-2.0-11.0-0.0","battery-v0.2","","""event"",""trial"",""time""
""fullscreenenter"",""1"",""2199""
","
","
","""event"",""trial"",""time""
""fullscreenenter"",""1"",""2199""
","
","","","415.30000000447035","","","15","15545","6222","&#9761;","elianto","#3366ff99","-1"," ","0","0","[1265.5]","1","0","2","","","","","","","",""
"pit-trial","38","413926","0.0-2.0-11.0-1.0","battery-v0.2","","""event"",""trial"",""time""
""fullscreenenter"",""1"",""2199""
","
","
","""event"",""trial"",""time""
""fullscreenenter"",""1"",""2199""
","
","","","-1","","","15","15545","6222","&#9761;","elianto","#3366ff99","-1","-1","1","+10","[]","0","0","2","","","","","","","",""
"pit-trial","39","418783","0.0-2.0-11.0-2.0","battery-v0.2","","""event"",""trial"",""time""
""fullscreenenter"",""1"",""2199""
","
","
","""event"",""trial"",""time""
""fullscreenenter"",""1"",""2199""
","
","","","-1","","","15","15545","6222","&#9761;","elianto","#3366ff99","-1","-1","1","+10","[]","0","0","2","","","","","","","",""
"pit-trial","40","423641","0.0-2.0-11.0-3.0","battery-v0.2","","""event"",""trial"",""time""
""fullscreenenter"",""1"",""2199""
","
","
","""event"",""trial"",""time""
""fullscreenenter"",""1"",""2199""
","
","","","-1","","","15","15545","6222","&#9761;","elianto","#3366ff99","-1","-1","1","0","[]","0","0","2","","","","","","","",""
"pit-trial","41","428498","0.0-2.0-11.0-4.0","battery-v0.2","","""event"",""trial"",""time""
""fullscreenenter"",""1"",""2199""
","
","
","""event"",""trial"",""time""
""fullscreenenter"",""1"",""2199""
","
","","","-1","","","15","15545","6222","&#9761;","elianto","#3366ff99","-1","-1","1","+10","[]","0","0","2","","","","","","","",""
"pit-trial","42","433357","0.0-2.0-11.1-0.1","battery-v0.2","","""event"",""trial"",""time""
""fullscreenenter"",""1"",""2199""
","
","
","""event"",""trial"",""time""
""fullscreenenter"",""1"",""2199""
","
","","","-1","","","15","15545","6222","&#9761;","elianto","#3366ff99","-1","-1","1","+10","[]","0","0","2","","","","","","","",""
"pit-trial","43","438214","0.0-2.0-11.1-1.1","battery-v0.2","","""event"",""trial"",""time""
""fullscreenenter"",""1"",""2199""
","
","
","""event"",""trial"",""time""
""fullscreenenter"",""1"",""2199""
","
","","","-1","","","15","15545","6222","&#9761;","elianto","#3366ff99","-1","-1","1","+10","[]","0","0","2","","","","","","","",""
"pit-trial","44","443071","0.0-2.0-11.1-2.1","battery-v0.2","","""event"",""trial"",""time""
""fullscreenenter"",""1"",""2199""
","
","
","""event"",""trial"",""time""
""fullscreenenter"",""1"",""2199""
","
","","","-1","","","15","15545","6222","&#9761;","elianto","#3366ff99","-1","-1","1","+10","[]","0","0","2","","","","","","","",""
"pit-trial","45","447927","0.0-2.0-11.1-3.1","battery-v0.2","","""event"",""trial"",""time""
""fullscreenenter"",""1"",""2199""
","
","
","""event"",""trial"",""time""
""fullscreenenter"",""1"",""2199""
","
","","","-1","","","15","15545","6222","&#9761;","elianto","#3366ff99","-1","-1","1","0","[]","0","0","2","","","","","","","",""
"pit-trial","46","452784","0.0-2.0-11.1-4.1","battery-v0.2","","""event"",""trial"",""time""
""fullscreenenter"",""1"",""2199""
","
","
","""event"",""trial"",""time""
""fullscreenenter"",""1"",""2199""
","
","","","-1","","","15","15545","6222","&#9761;","elianto","#3366ff99","-1","-1","1","+10","[]","0","0","2","","","","","","","",""
"pit-trial","47","457642","0.0-2.0-11.2-0.2","battery-v0.2","","""event"",""trial"",""time""
""fullscreenenter"",""1"",""2199""
","
","
","""event"",""trial"",""time""
""fullscreenenter"",""1"",""2199""
","
","","","-1","","","15","15545","6222","&#9761;","elianto","#3366ff99","-1","-1","1","+10","[]","0","0","2","","","","","","","",""
"pit-trial","48","462499","0.0-2.0-11.2-1.2","battery-v0.2","","""event"",""trial"",""time""
""fullscreenenter"",""1"",""2199""
","
","
","""event"",""trial"",""time""
""fullscreenenter"",""1"",""2199""
","
","","","-1","","","15","15545","6222","&#9761;","elianto","#3366ff99","-1","-1","1","+10","[]","0","0","2","","","","","","","",""
"pit-trial","49","467356","0.0-2.0-11.2-2.2","battery-v0.2","","""event"",""trial"",""time""
""fullscreenenter"",""1"",""2199""
","
","
","""event"",""trial"",""time""
""fullscreenenter"",""1"",""2199""
","
","","","-1","","","15","15545","6222","&#9761;","elianto","#3366ff99","-1","-1","1","+10","[]","0","0","2","","","","","","","",""
"pit-trial","50","472213","0.0-2.0-11.2-3.2","battery-v0.2","","""event"",""trial"",""time""
""fullscreenenter"",""1"",""2199""
","
","
","""event"",""trial"",""time""
""fullscreenenter"",""1"",""2199""
","
","","","-1","","","15","15545","6222","&#9761;","elianto","#3366ff99","-1","-1","1","0","[]","0","0","2","","","","","","","",""
"pit-trial","51","477070","0.0-2.0-11.2-4.2","battery-v0.2","","""event"",""trial"",""time""
""fullscreenenter"",""1"",""2199""
","
","
","""event"",""trial"",""time""
""fullscreenenter"",""1"",""2199""
","
","","","-1","","","15","15545","6222","&#9761;","elianto","#3366ff99","-1","-1","1","+10","[]","0","0","2","","","","","","","",""
"pit-trial","52","481927","0.0-2.0-11.3-0.3","battery-v0.2","","""event"",""trial"",""time""
""fullscreenenter"",""1"",""2199""
","
","
","""event"",""trial"",""time""
""fullscreenenter"",""1"",""2199""
","
","","","-1","","","15","15545","6222","&#9761;","elianto","#3366ff99","-1","-1","1","+10","[]","0","0","2","","","","","","","",""
"pit-trial","53","486784","0.0-2.0-11.3-1.3","battery-v0.2","","""event"",""trial"",""time""
""fullscreenenter"",""1"",""2199""
","
","
","""event"",""trial"",""time""
""fullscreenenter"",""1"",""2199""
","
","","","-1","","","15","15545","6222","&#9761;","elianto","#3366ff99","-1","-1","1","+10","[]","0","0","2","","","","","","","",""
"pit-trial","54","491641","0.0-2.0-11.3-2.3","battery-v0.2","","""event"",""trial"",""time""
""fullscreenenter"",""1"",""2199""
","
","
","""event"",""trial"",""time""
""fullscreenenter"",""1"",""2199""
","
","","","-1","","","15","15545","6222","&#9761;","elianto","#3366ff99","-1","-1","1","+10","[]","0","0","2","","","","","","","",""
"pit-trial","55","496498","0.0-2.0-11.3-3.3","battery-v0.2","","""event"",""trial"",""time""
""fullscreenenter"",""1"",""2199""
","
","
","""event"",""trial"",""time""
""fullscreenenter"",""1"",""2199""
","
","","","-1","","","15","15545","6222","&#9761;","elianto","#3366ff99","-1","-1","1","0","[]","0","0","2","","","","","","","",""
"pit-trial","56","501355","0.0-2.0-11.3-4.3","battery-v0.2","","""event"",""trial"",""time""
""fullscreenenter"",""1"",""2199""
","
","
","""event"",""trial"",""time""
""fullscreenenter"",""1"",""2199""
","
","","","-1","","","15","15545","6222","&#9761;","elianto","#3366ff99","-1","-1","1","+10","[]","0","0","2","","","","","","","",""
"call-function","57","501360","0.0-2.0-12.0","battery-v0.2","","""event"",""trial"",""time""
""fullscreenenter"",""1"",""2199""
","
","
","""event"",""trial"",""time""
""fullscreenenter"",""1"",""2199""
","
","","","","","","","","","","","","","","","","","","","","","","","","","","",""
"pit-instructions","58","536996","0.0-2.0-13.0","battery-v0.2","","""event"",""trial"",""time""
""fullscreenenter"",""1"",""2199""
","
","
","""event"",""trial"",""time""
""fullscreenenter"",""1"",""2199""
","
","","[{""page_index"":0,""viewing_time"":5381.0999999940395},{""page_index"":1,""viewing_time"":7430.60000000149},{""page_index"":2,""viewing_time"":6851},{""page_index"":3,""viewing_time"":10792.30000000447},{""page_index"":4,""viewing_time"":5176.5999999940395}]","35633","","","","","","","","","","","","","","","","","","","","","","","",""
"pit-trial","59","541854","0.0-2.0-14.0-0.0","battery-v0.2","","""event"",""trial"",""time""
""fullscreenenter"",""1"",""2199""
","
","
","""event"",""trial"",""time""
""fullscreenenter"",""1"",""2199""
","
","","","-1","","","15","15545","6222","&#9826;","elianto","#f73b6a7A","-1","-1","1","0","[]","0","0","3","","","","","","","",""
"pit-trial","60","546710","0.0-2.0-14.0-1.0","battery-v0.2","","""event"",""trial"",""time""
""fullscreenenter"",""1"",""2199""
","
","
","""event"",""trial"",""time""
""fullscreenenter"",""1"",""2199""
","
","","","-1","","","15","15545","6222","&#9826;","elianto","#f73b6a7A","-1","-1","1","0","[]","0","0","3","","","","","","","",""
"pit-trial","61","551567","0.0-2.0-14.0-2.0","battery-v0.2","","""event"",""trial"",""time""
""fullscreenenter"",""1"",""2199""
","
","
","""event"",""trial"",""time""
""fullscreenenter"",""1"",""2199""
","
","","","-1","","","15","15545","6222","&#9826;","elianto","#f73b6a7A","-1","-1","1","0","[]","0","0","3","","","","","","","",""
"pit-trial","62","556424","0.0-2.0-14.0-3.0","battery-v0.2","","""event"",""trial"",""time""
""fullscreenenter"",""1"",""2199""
","
","
","""event"",""trial"",""time""
""fullscreenenter"",""1"",""2199""
","
","","","-1","","","15","15545","6222","&#9826;","elianto","#f73b6a7A","-1","-1","1","-10","[]","0","0","3","","","","","","","",""
"pit-trial","63","561281","0.0-2.0-14.0-4.0","battery-v0.2","","""event"",""trial"",""time""
""fullscreenenter"",""1"",""2199""
","
","
","""event"",""trial"",""time""
""fullscreenenter"",""1"",""2199""
","
","","","-1","","","15","15545","6222","&#9826;","elianto","#f73b6a7A","-1","-1","1","0","[]","0","0","3","","","","","","","",""
"pit-trial","64","566138","0.0-2.0-14.1-0.1","battery-v0.2","","""event"",""trial"",""time""
""fullscreenenter"",""1"",""2199""
","
","
","""event"",""trial"",""time""
""fullscreenenter"",""1"",""2199""
","
","","","-1","","","15","15545","6222","&#9826;","elianto","#f73b6a7A","-1","-1","1","0","[]","0","0","3","","","","","","","",""
"pit-trial","65","570993","0.0-2.0-14.1-1.1","battery-v0.2","","""event"",""trial"",""time""
""fullscreenenter"",""1"",""2199""
","
","
","""event"",""trial"",""time""
""fullscreenenter"",""1"",""2199""
","
","","","-1","","","15","15545","6222","&#9826;","elianto","#f73b6a7A","-1","-1","1","0","[]","0","0","3","","","","","","","",""
"pit-trial","66","575850","0.0-2.0-14.1-2.1","battery-v0.2","","""event"",""trial"",""time""
""fullscreenenter"",""1"",""2199""
","
","
","""event"",""trial"",""time""
""fullscreenenter"",""1"",""2199""
","
","","","-1","","","15","15545","6222","&#9826;","elianto","#f73b6a7A","-1","-1","1","0","[]","0","0","3","","","","","","","",""
"pit-trial","67","580707","0.0-2.0-14.1-3.1","battery-v0.2","","""event"",""trial"",""time""
""fullscreenenter"",""1"",""2199""
","
","
","""event"",""trial"",""time""
""fullscreenenter"",""1"",""2199""
","
","","","-1","","","15","15545","6222","&#9826;","elianto","#f73b6a7A","-1","-1","1","-10","[]","0","0","3","","","","","","","",""
"pit-trial","68","585563","0.0-2.0-14.1-4.1","battery-v0.2","","""event"",""trial"",""time""
""fullscreenenter"",""1"",""2199""
","
","
","""event"",""trial"",""time""
""fullscreenenter"",""1"",""2199""
","
","","","-1","","","15","15545","6222","&#9826;","elianto","#f73b6a7A","-1","-1","1","0","[]","0","0","3","","","","","","","",""
"pit-trial","69","590423","0.0-2.0-14.2-0.2","battery-v0.2","","""event"",""trial"",""time""
""fullscreenenter"",""1"",""2199""
","
","
","""event"",""trial"",""time""
""fullscreenenter"",""1"",""2199""
","
","","","-1","","","15","15545","6222","&#9826;","elianto","#f73b6a7A","-1","-1","1","0","[]","0","0","3","","","","","","","",""
"pit-trial","70","595279","0.0-2.0-14.2-1.2","battery-v0.2","","""event"",""trial"",""time""
""fullscreenenter"",""1"",""2199""
","
","
","""event"",""trial"",""time""
""fullscreenenter"",""1"",""2199""
","
","","","-1","","","15","15545","6222","&#9826;","elianto","#f73b6a7A","-1","-1","1","0","[]","0","0","3","","","","","","","",""
"pit-trial","71","600137","0.0-2.0-14.2-2.2","battery-v0.2","","""event"",""trial"",""time""
""fullscreenenter"",""1"",""2199""
","
","
","""event"",""trial"",""time""
""fullscreenenter"",""1"",""2199""
","
","","","-1","","","15","15545","6222","&#9826;","elianto","#f73b6a7A","-1","-1","1","0","[]","0","0","3","","","","","","","",""
"pit-trial","72","604993","0.0-2.0-14.2-3.2","battery-v0.2","","""event"",""trial"",""time""
""fullscreenenter"",""1"",""2199""
","
","
","""event"",""trial"",""time""
""fullscreenenter"",""1"",""2199""
","
","","","-1","","","15","15545","6222","&#9826;","elianto","#f73b6a7A","-1","-1","1","-10","[]","0","0","3","","","","","","","",""
"pit-trial","73","609850","0.0-2.0-14.2-4.2","battery-v0.2","","""event"",""trial"",""time""
""fullscreenenter"",""1"",""2199""
","
","
","""event"",""trial"",""time""
""fullscreenenter"",""1"",""2199""
","
","","","-1","","","15","15545","6222","&#9826;","elianto","#f73b6a7A","-1","-1","1","0","[]","0","0","3","","","","","","","",""
"pit-trial","74","614709","0.0-2.0-14.3-0.3","battery-v0.2","","""event"",""trial"",""time""
""fullscreenenter"",""1"",""2199""
","
","
","""event"",""trial"",""time""
""fullscreenenter"",""1"",""2199""
","
","","","-1","","","15","15545","6222","&#9826;","elianto","#f73b6a7A","-1","-1","1","0","[]","0","0","3","","","","","","","",""
"pit-trial","75","619566","0.0-2.0-14.3-1.3","battery-v0.2","","""event"",""trial"",""time""
""fullscreenenter"",""1"",""2199""
","
","
","""event"",""trial"",""time""
""fullscreenenter"",""1"",""2199""
","
","","","-1","","","15","15545","6222","&#9826;","elianto","#f73b6a7A","-1","-1","1","0","[]","0","0","3","","","","","","","",""
"pit-trial","76","624422","0.0-2.0-14.3-2.3","battery-v0.2","","""event"",""trial"",""time""
""fullscreenenter"",""1"",""2199""
","
","
","""event"",""trial"",""time""
""fullscreenenter"",""1"",""2199""
","
","","","-1","","","15","15545","6222","&#9826;","elianto","#f73b6a7A","-1","-1","1","0","[]","0","0","3","","","","","","","",""
"pit-trial","77","629279","0.0-2.0-14.3-3.3","battery-v0.2","","""event"",""trial"",""time""
""fullscreenenter"",""1"",""2199""
","
","
","""event"",""trial"",""time""
""fullscreenenter"",""1"",""2199""
","
","","","-1","","","15","15545","6222","&#9826;","elianto","#f73b6a7A","-1","-1","1","-10","[]","0","0","3","","","","","","","",""
"pit-trial","78","634136","0.0-2.0-14.3-4.3","battery-v0.2","","""event"",""trial"",""time""
""fullscreenenter"",""1"",""2199""
","
","
","""event"",""trial"",""time""
""fullscreenenter"",""1"",""2199""
","
","","","-1","","","15","15545","6222","&#9826;","elianto","#f73b6a7A","-1","-1","1","0","[]","0","0","3","","","","","","","",""
"call-function","79","634142","0.0-2.0-15.0","battery-v0.2","","""event"",""trial"",""time""
""fullscreenenter"",""1"",""2199""
","
","
","""event"",""trial"",""time""
""fullscreenenter"",""1"",""2199""
","
","","","","","","","","","","","","","","","","","","","","","","","","","","",""
"pit-instructions","80","660620","0.0-2.0-16.0","battery-v0.2","","""event"",""trial"",""time""
""fullscreenenter"",""1"",""2199""
","
","
","""event"",""trial"",""time""
""fullscreenenter"",""1"",""2199""
","
","","[{""page_index"":0,""viewing_time"":6593.29999999702},{""page_index"":1,""viewing_time"":8998.80000000447},{""page_index"":2,""viewing_time"":5872.5999999940395},{""page_index"":3,""viewing_time"":5009.5}]","26475.29999999702","","","","","","","","","","","","","","","","","","","","","","","",""
"pit-trial","81","663928","0.0-2.0-17.0-0.0","battery-v0.2","","""event"",""trial"",""time""
""fullscreenenter"",""1"",""2199""
","
","
","""event"",""trial"",""time""
""fullscreenenter"",""1"",""2199""
","
","","","446.6000000014901","","","15","15545","6222","&#9789;","elianto","#f73b6a7A"," "," ","1","0","[1300.7999999970198]","1","0","4","","","","","","","",""
"pit-trial","82","667431","0.0-2.0-17.0-1.0","battery-v0.2","","""event"",""trial"",""time""
""fullscreenenter"",""1"",""2199""
","
","
","""event"",""trial"",""time""
""fullscreenenter"",""1"",""2199""
","
","","","647","","","15","15545","6222","&#9789;","elianto","#f73b6a7A"," "," ","1","0","[1497]","1","0","4","","","","","","","",""
"pit-trial","83","670736","0.0-2.0-17.0-2.0","battery-v0.2","","""event"",""trial"",""time""
""fullscreenenter"",""1"",""2199""
","
","
","""event"",""trial"",""time""
""fullscreenenter"",""1"",""2199""
","
","","","448.29999999701977","","","15","15545","6222","&#9789;","elianto","#f73b6a7A"," "," ","1","0","[1298.5]","1","0","4","","","","","","","",""
"pit-trial","84","673881","0.0-2.0-17.0-3.0","battery-v0.2","","""event"",""trial"",""time""
""fullscreenenter"",""1"",""2199""
","
","
","""event"",""trial"",""time""
""fullscreenenter"",""1"",""2199""
","
","","","289.1000000014901","","","15","15545","6222","&#9789;","elianto","#f73b6a7A"," "," ","1","-10","[1139.3999999985099]","1","0","4","","","","","","","",""
"pit-trial","85","677142","0.0-2.0-17.0-4.0","battery-v0.2","","""event"",""trial"",""time""
""fullscreenenter"",""1"",""2199""
","
","
","""event"",""trial"",""time""
""fullscreenenter"",""1"",""2199""
","
","","","404.80000000447035","","","15","15545","6222","&#9789;","elianto","#f73b6a7A"," "," ","1","0","[1254.8999999985099]","1","0","4","","","","","","","",""
"pit-trial","86","680448","0.0-2.0-17.1-0.1","battery-v0.2","","""event"",""trial"",""time""
""fullscreenenter"",""1"",""2199""
","
","
","""event"",""trial"",""time""
""fullscreenenter"",""1"",""2199""
","
","","","444.8999999985099","","","15","15545","6222","&#9789;","elianto","#f73b6a7A"," "," ","1","0","[1297.8999999985099]","1","0","4","","","","","","","",""
"pit-trial","87","683982","0.0-2.0-17.1-1.1","battery-v0.2","","""event"",""trial"",""time""
""fullscreenenter"",""1"",""2199""
","
","
","""event"",""trial"",""time""
""fullscreenenter"",""1"",""2199""
","
","","","677.7999999970198","","","15","15545","6222","&#9789;","elianto","#f73b6a7A"," "," ","1","0","[1527.8999999985099]","1","0","4","","","","","","","",""
"pit-trial","88","687421","0.0-2.0-17.1-2.1","battery-v0.2","","""event"",""trial"",""time""
""fullscreenenter"",""1"",""2199""
","
","
","""event"",""trial"",""time""
""fullscreenenter"",""1"",""2199""
","
","","","582.2000000029802","","","15","15545","6222","&#9789;","elianto","#f73b6a7A"," "," ","1","0","[1432.1999999955297]","1","0","4","","","","","","","",""
"pit-trial","89","690636","0.0-2.0-17.1-3.1","battery-v0.2","","""event"",""trial"",""time""
""fullscreenenter"",""1"",""2199""
","
","
","""event"",""trial"",""time""
""fullscreenenter"",""1"",""2199""
","
","","","357.5","","","15","15545","6222","&#9789;","elianto","#f73b6a7A"," "," ","1","-10","[1208.3999999985099]","1","0","4","","","","","","","",""
"pit-trial","90","693852","0.0-2.0-17.1-4.1","battery-v0.2","","""event"",""trial"",""time""
""fullscreenenter"",""1"",""2199""
","
","
","""event"",""trial"",""time""
""fullscreenenter"",""1"",""2199""
","
","","","359.29999999701977","","","15","15545","6222","&#9789;","elianto","#f73b6a7A"," "," ","1","0","[1209.5]","1","0","4","","","","","","","",""
"pit-trial","91","697190","0.0-2.0-17.2-0.2","battery-v0.2","","""event"",""trial"",""time""
""fullscreenenter"",""1"",""2199""
","
","
","""event"",""trial"",""time""
""fullscreenenter"",""1"",""2199""
","
","","","481.3999999985099","","","15","15545","6222","&#9789;","elianto","#f73b6a7A"," "," ","1","0","[1331.6000000014901]","1","0","4","","","","","","","",""
"pit-trial","92","700525","0.0-2.0-17.2-1.2","battery-v0.2","","""event"",""trial"",""time""
""fullscreenenter"",""1"",""2199""
","
","
","""event"",""trial"",""time""
""fullscreenenter"",""1"",""2199""
","
","","","473.09999999403954","","","15","15545","6222","&#9789;","elianto","#f73b6a7A"," "," ","1","0","[1328.5999999940395]","1","0","4","","","","","","","",""
"pit-trial","93","703676","0.0-2.0-17.2-2.2","battery-v0.2","","""event"",""trial"",""time""
""fullscreenenter"",""1"",""2199""
","
","
","""event"",""trial"",""time""
""fullscreenenter"",""1"",""2199""
","
","","","294.1000000014901","","","15","15545","6222","&#9789;","elianto","#f73b6a7A"," "," ","1","0","[1145.3999999985099]","1","0","4","","","","","","","",""
"pit-trial","94","706853","0.0-2.0-17.2-3.2","battery-v0.2","","""event"",""trial"",""time""
""fullscreenenter"",""1"",""2199""
","
","
","""event"",""trial"",""time""
""fullscreenenter"",""1"",""2199""
","
","","","317.1000000014901","","","15","15545","6222","&#9789;","elianto","#f73b6a7A"," "," ","1","-10","[1170.7000000029802]","1","0","4","","","","","","","",""
"pit-trial","95","710174","0.0-2.0-17.2-4.2","battery-v0.2","","""event"",""trial"",""time""
""fullscreenenter"",""1"",""2199""
","
","
","""event"",""trial"",""time""
""fullscreenenter"",""1"",""2199""
","
","","","464.69999999552965","","","15","15545","6222","&#9789;","elianto","#f73b6a7A"," "," ","1","0","[1314.6000000014901]","1","0","4","","","","","","","",""
"pit-trial","96","713506","0.0-2.0-17.3-0.3","battery-v0.2","","""event"",""trial"",""time""
""fullscreenenter"",""1"",""2199""
","
","
","""event"",""trial"",""time""
""fullscreenenter"",""1"",""2199""
","
","","","471.5","","","15","15545","6222","&#9789;","elianto","#f73b6a7A"," "," ","1","0","[1324]","1","0","4","","","","","","","",""
"pit-trial","97","716801","0.0-2.0-17.3-1.3","battery-v0.2","","""event"",""trial"",""time""
""fullscreenenter"",""1"",""2199""
","
","
","""event"",""trial"",""time""
""fullscreenenter"",""1"",""2199""
","
","","","439.29999999701977","","","15","15545","6222","&#9789;","elianto","#f73b6a7A"," "," ","1","0","[1289.2999999970198]","1","0","4","","","","","","","",""
"pit-trial","98","719984","0.0-2.0-17.3-2.3","battery-v0.2","","""event"",""trial"",""time""
""fullscreenenter"",""1"",""2199""
","
","
","""event"",""trial"",""time""
""fullscreenenter"",""1"",""2199""
","
","","","326.5","","","15","15545","6222","&#9789;","elianto","#f73b6a7A"," "," ","1","0","[1176.6000000014901]","1","0","4","","","","","","","",""
"pit-trial","99","723245","0.0-2.0-17.3-3.3","battery-v0.2","","""event"",""trial"",""time""
""fullscreenenter"",""1"",""2199""
","
","
","""event"",""trial"",""time""
""fullscreenenter"",""1"",""2199""
","
","","","402.69999999552965","","","15","15545","6222","&#9789;","elianto","#f73b6a7A"," "," ","1","-10","[1255.3999999985099]","1","0","4","","","","","","","",""
"pit-trial","100","726735","0.0-2.0-17.3-4.3","battery-v0.2","","""event"",""trial"",""time""
""fullscreenenter"",""1"",""2199""
","
","
","""event"",""trial"",""time""
""fullscreenenter"",""1"",""2199""
","
","","","629.2000000029802","","","15","15545","6222","&#9789;","elianto","#f73b6a7A"," "," ","1","0","[1483.7999999970198]","1","0","4","","","","","","","",""
"call-function","101","726741","0.0-2.0-18.0","battery-v0.2","","""event"",""trial"",""time""
""fullscreenenter"",""1"",""2199""
","
","
","""event"",""trial"",""time""
""fullscreenenter"",""1"",""2199""
","
","","","","","","","","","","","","","","","","","","","","","","","","","","",""
"pit-instructions","102","797808","0.0-2.0-19.0","battery-v0.2","","""event"",""trial"",""time""
""fullscreenenter"",""1"",""2199""
","
","
","""event"",""trial"",""time""
""fullscreenenter"",""1"",""2199""
","
","","[{""page_index"":0,""viewing_time"":6637.19999999553},{""page_index"":1,""viewing_time"":7440.30000000447},{""page_index"":2,""viewing_time"":13397.79999999702},{""page_index"":3,""viewing_time"":7253.80000000447},{""page_index"":4,""viewing_time"":8841.69999999553},{""page_index"":5,""viewing_time"":9057.10000000149},{""page_index"":6,""viewing_time"":8438.79999999702},{""page_index"":7,""viewing_time"":6018.5},{""page_index"":8,""viewing_time"":3979}]","71065.60000000149","","","","","","","","","","","","","","","","","","","","","","","",""
"pit-comprehension","103","802292","0.0-2.0-20.0-0.0","battery-v0.2","","""event"",""trial"",""time""
""fullscreenenter"",""1"",""2199""
","
","
","""event"",""trial"",""time""
""fullscreenenter"",""1"",""2199""
","
","","","4468.29999999702","[""SPACE""]","0","15","15545","6222","","","","","","","","","","","","","","","","","","",""
"pit-instructions","104","804954","0.0-2.0-20.0-1.0","battery-v0.2","","""event"",""trial"",""time""
""fullscreenenter"",""1"",""2199""
","
","
","""event"",""trial"",""time""
""fullscreenenter"",""1"",""2199""
","
","","[{""page_index"":0,""viewing_time"":2547.10000000149}]","2548.60000000149","","","","","","","","","","","","","","","","","","","","","","","",""
"pit-comprehension","105","810961","0.0-2.0-21.0-0.0","battery-v0.2","","""event"",""trial"",""time""
""fullscreenenter"",""1"",""2199""
","
","
","""event"",""trial"",""time""
""fullscreenenter"",""1"",""2199""
","
","","","5992.19999999553","[""10""]","0","15","15545","6222","","","","","","","","","","","","","","","","","","",""
"pit-instructions","106","812588","0.0-2.0-21.0-1.0","battery-v0.2","","""event"",""trial"",""time""
""fullscreenenter"",""1"",""2199""
","
","
","""event"",""trial"",""time""
""fullscreenenter"",""1"",""2199""
","
","","[{""page_index"":0,""viewing_time"":1530.6000000014901}]","1531.7000000029802","","","","","","","","","","","","","","","","","","","","","","","",""
"pit-comprehension","107","819775","0.0-2.0-22.0-0.0","battery-v0.2","","""event"",""trial"",""time""
""fullscreenenter"",""1"",""2199""
","
","
","""event"",""trial"",""time""
""fullscreenenter"",""1"",""2199""
","
","","","7169","[""0""]","0","15","15545","6222","","","","","","","","","","","","","","","","","","",""
"pit-instructions","108","823177","0.0-2.0-22.0-1.0","battery-v0.2","","""event"",""trial"",""time""
""fullscreenenter"",""1"",""2199""
","
","
","""event"",""trial"",""time""
""fullscreenenter"",""1"",""2199""
","
","","[{""page_index"":0,""viewing_time"":3295.2000000029802}]","3296.2000000029802","","","","","","","","","","","","","","","","","","","","","","","",""
"pit-comprehension","109","831915","0.0-2.0-23.0-0.0","battery-v0.2","","""event"",""trial"",""time""
""fullscreenenter"",""1"",""2199""
","
","
","""event"",""trial"",""time""
""fullscreenenter"",""1"",""2199""
","
","","","8725","[""True""]","0","15","15545","6222","","","","","","","","","","","","","","","","","","",""
"pit-instructions","110","834342","0.0-2.0-23.0-1.0","battery-v0.2","","""event"",""trial"",""time""
""fullscreenenter"",""1"",""2199""
","
","
","""event"",""trial"",""time""
""fullscreenenter"",""1"",""2199""
","
","","[{""page_index"":0,""viewing_time"":2343.2000000029802}]","2344.39999999851","","","","","","","","","","","","","","","","","","","","","","","",""
"pit-comprehension","111","841894","0.0-2.0-24.0-0.0","battery-v0.2","","""event"",""trial"",""time""
""fullscreenenter"",""1"",""2199""
","
","
","""event"",""trial"",""time""
""fullscreenenter"",""1"",""2199""
","
","","","7538.39999999851","[""True""]","0","15","15545","6222","","","","","","","","","","","","","","","","","","",""
"pit-instructions","112","843607","0.0-2.0-24.0-1.0","battery-v0.2","","""event"",""trial"",""time""
""fullscreenenter"",""1"",""2199""
","
","
","""event"",""trial"",""time""
""fullscreenenter"",""1"",""2199""
","
","","[{""page_index"":0,""viewing_time"":1595.3999999985099}]","1596.1000000014901","","","","","","","","","","","","","","","","","","","","","","","",""
"pit-comprehension","113","850138","0.0-2.0-25.0-0.0","battery-v0.2","","""event"",""trial"",""time""
""fullscreenenter"",""1"",""2199""
","
","
","""event"",""trial"",""time""
""fullscreenenter"",""1"",""2199""
","
","","","6522.30000000447","[""True""]","0","15","15545","6222","","","","","","","","","","","","","","","","","","",""
"pit-instructions","114","852371","0.0-2.0-25.0-1.0","battery-v0.2","","""event"",""trial"",""time""
""fullscreenenter"",""1"",""2199""
","
","
","""event"",""trial"",""time""
""fullscreenenter"",""1"",""2199""
","
","","[{""page_index"":0,""viewing_time"":2145}]","2146.1999999955297","","","","","","","","","","","","","","","","","","","","","","","",""
"pit-comprehension","115","856922","0.0-2.0-26.0-0.0","battery-v0.2","","""event"",""trial"",""time""
""fullscreenenter"",""1"",""2199""
","
","
","""event"",""trial"",""time""
""fullscreenenter"",""1"",""2199""
","
","","","4536.60000000149","[""False""]","0","15","15545","6222","","","","","","","","","","","","","","","","","","",""
"pit-instructions","116","858879","0.0-2.0-26.0-1.0","battery-v0.2","","""event"",""trial"",""time""
""fullscreenenter"",""1"",""2199""
","
","
","""event"",""trial"",""time""
""fullscreenenter"",""1"",""2199""
","
","","[{""page_index"":0,""viewing_time"":1845.6000000014901}]","1846.7000000029802","","","","","","","","","","","","","","","","","","","","","","","",""
"pit-instructions","117","877414","0.0-3.0","battery-v0.2","","""event"",""trial"",""time""
""fullscreenenter"",""1"",""2199""
","
","
","""event"",""trial"",""time""
""fullscreenenter"",""1"",""2199""
","
","","[{""page_index"":0,""viewing_time"":5381.29999999702},{""page_index"":1,""viewing_time"":5911.10000000149},{""page_index"":2,""viewing_time"":7234}]","18527.60000000149","","","","","","","","","","","","","","","","","","","","","","","",""
"pit-trial","118","881491","0.0-4.0","battery-v0.2","","""event"",""trial"",""time""
""fullscreenenter"",""1"",""2199""
","
","
","""event"",""trial"",""time""
""fullscreenenter"",""1"",""2199""
","
","","","1205.7000000029802","","","15","15545","6222","&#9733;","elianto","#3366ff99","-1"," ","0","0","[2060.5]","1","1","","","15545","1","2","2","win","no-go","0"
"pit-trial","119","885256","0.0-5.0","battery-v0.2","","""event"",""trial"",""time""
""fullscreenenter"",""1"",""2199""
","
","
","""event"",""trial"",""time""
""fullscreenenter"",""1"",""2199""
","
","","","908.7000000029802","","","15","15545","6222","&#9730;","elianto","#3366ff99"," "," ","1","+10","[1759]","1","1","","","15545","2","1","1","win","go","0"
"pit-trial","120","889152","0.0-6.0","battery-v0.2","","""event"",""trial"",""time""
""fullscreenenter"",""1"",""2199""
","
","
","""event"",""trial"",""time""
""fullscreenenter"",""1"",""2199""
","
","","","1037.5","","","15","15545","6222","&#9752;","elianto","#f73b6a7A"," "," ","1","0","[1889.5]","1","1","","","15545","3","3","3","lose","go","0"
"pit-trial","121","893081","0.0-7.0","battery-v0.2","","""event"",""trial"",""time""
""fullscreenenter"",""1"",""2199""
","
","
","""event"",""trial"",""time""
""fullscreenenter"",""1"",""2199""
","
","","","1072.2000000029802","","","15","15545","6222","&#9728;","elianto","#f73b6a7A","-1"," ","0","-10","[1922.3000000044703]","1","1","","","15545","4","0","4","lose","no-go","0"
"pit-trial","122","897939","0.0-8.0","battery-v0.2","","""event"",""trial"",""time""
""fullscreenenter"",""1"",""2199""
","
","
","""event"",""trial"",""time""
""fullscreenenter"",""1"",""2199""
","
","","","-1","","","15","15545","6222","&#9733;","elianto","#3366ff99","-1","-1","1","0","[]","0","1","","","15545","5","2","2","win","no-go","1"
"pit-trial","123","902724","0.0-9.0","battery-v0.2","","""event"",""trial"",""time""
""fullscreenenter"",""1"",""2199""
","
","
","""event"",""trial"",""time""
""fullscreenenter"",""1"",""2199""
","
","","","1926.5","","","15","15545","6222","&#9752;","elianto","#f73b6a7A"," "," ","1","0","[2779.7999999970198]","1","1","","","15545","6","3","3","lose","go","0"
"pit-trial","124","907581","0.0-10.0","battery-v0.2","","""event"",""trial"",""time""
""fullscreenenter"",""1"",""2199""
","
","
","""event"",""trial"",""time""
""fullscreenenter"",""1"",""2199""
","
","","","-1","","","15","15545","6222","&#9728;","elianto","#f73b6a7A","-1","-1","1","0","[]","0","1","","","15545","7","0","4","lose","no-go","0"
"pit-trial","125","911412","0.0-11.0","battery-v0.2","","""event"",""trial"",""time""
""fullscreenenter"",""1"",""2199""
","
","
","""event"",""trial"",""time""
""fullscreenenter"",""1"",""2199""
","
","","","970.5","","","15","15545","6222","&#9730;","elianto","#3366ff99"," "," ","1","+10","[1823.9000000059605]","1","1","","","15545","8","1","1","win","go","0"
"pit-trial","126","915440","0.0-12.0","battery-v0.2","","""event"",""trial"",""time""
""fullscreenenter"",""1"",""2199""
","
","
","""event"",""trial"",""time""
""fullscreenenter"",""1"",""2199""
","
","","","1171","","","15","15545","6222","&#9728;","elianto","#f73b6a7A","-1"," ","0","0","[2021.2999999970198]","1","1","","","15545","9","0","4","lose","no-go","1"
"pit-trial","127","920297","0.0-13.0","battery-v0.2","","""event"",""trial"",""time""
""fullscreenenter"",""1"",""2199""
","
","
","""event"",""trial"",""time""
""fullscreenenter"",""1"",""2199""
","
","","","-1","","","15","15545","6222","&#9733;","elianto","#3366ff99","-1","-1","1","+10","[]","0","1","","","15545","10","2","2","win","no-go","0"
"pit-trial","128","924212","0.0-14.0","battery-v0.2","","""event"",""trial"",""time""
""fullscreenenter"",""1"",""2199""
","
","
","""event"",""trial"",""time""
""fullscreenenter"",""1"",""2199""
","
","","","1055.6000000014901","","","15","15545","6222","&#9752;","elianto","#f73b6a7A"," "," ","1","0","[1909.1999999955297]","1","1","","","15545","11","3","3","lose","go","0"
"pit-trial","129","928374","0.0-15.0","battery-v0.2","","""event"",""trial"",""time""
""fullscreenenter"",""1"",""2199""
","
","
","""event"",""trial"",""time""
""fullscreenenter"",""1"",""2199""
","
","","","1305.3000000044703","","","15","15545","6222","&#9730;","elianto","#3366ff99"," "," ","1","+10","[2155.5]","1","1","","","15545","12","1","1","win","go","0"
"pit-trial","130","932191","0.0-16.0","battery-v0.2","","""event"",""trial"",""time""
""fullscreenenter"",""1"",""2199""
","
","
","""event"",""trial"",""time""
""fullscreenenter"",""1"",""2199""
","
","","","959.3000000044703","","","15","15545","6222","&#9728;","elianto","#f73b6a7A","-1"," ","0","-10","[1809.5]","1","1","","","15545","13","0","4","lose","no-go","0"
"pit-trial","131","935944","0.0-17.0","battery-v0.2","","""event"",""trial"",""time""
""fullscreenenter"",""1"",""2199""
","
","
","""event"",""trial"",""time""
""fullscreenenter"",""1"",""2199""
","
","","","896.6000000014901","","","15","15545","6222","&#9730;","elianto","#3366ff99"," "," ","1","+10","[1746.8999999985099]","1","1","","","15545","14","1","1","win","go","0"
"pit-trial","132","939814","0.0-18.0","battery-v0.2","","""event"",""trial"",""time""
""fullscreenenter"",""1"",""2199""
","
","
","""event"",""trial"",""time""
""fullscreenenter"",""1"",""2199""
","
","","","1014.2000000029802","","","15","15545","6222","&#9752;","elianto","#f73b6a7A"," "," ","1","0","[1864.3999999985099]","1","1","","","15545","15","3","3","lose","go","0"
"pit-trial","133","944671","0.0-19.0","battery-v0.2","","""event"",""trial"",""time""
""fullscreenenter"",""1"",""2199""
","
","
","""event"",""trial"",""time""
""fullscreenenter"",""1"",""2199""
","
","","","-1","","","15","15545","6222","&#9733;","elianto","#3366ff99","-1","-1","1","+10","[]","0","1","","","15545","16","2","2","win","no-go","0"
"pit-trial","134","949528","0.0-20.0","battery-v0.2","","""event"",""trial"",""time""
""fullscreenenter"",""1"",""2199""
","
","
","""event"",""trial"",""time""
""fullscreenenter"",""1"",""2199""
","
","","","-1","","","15","15545","6222","&#9733;","elianto","#3366ff99","-1","-1","1","+10","[]","0","1","","","15545","17","2","2","win","no-go","0"
"pit-trial","135","953194","0.0-21.0","battery-v0.2","","""event"",""trial"",""time""
""fullscreenenter"",""1"",""2199""
","
","
","""event"",""trial"",""time""
""fullscreenenter"",""1"",""2199""
","
","","","808.7000000029802","","","15","15545","6222","&#9730;","elianto","#3366ff99"," "," ","1","+10","[1658.7999999970198]","1","1","","","15545","18","1","1","win","go","0"
"pit-trial","136","956983","0.0-22.0","battery-v0.2","","""event"",""trial"",""time""
""fullscreenenter"",""1"",""2199""
","
","
","""event"",""trial"",""time""
""fullscreenenter"",""1"",""2199""
","
","","","928.2000000029802","","","15","15545","6222","&#9752;","elianto","#f73b6a7A"," "," ","1","0","[1782.8999999985099]","1","1","","","15545","19","3","3","lose","go","0"
"pit-trial","137","961840","0.0-23.0","battery-v0.2","","""event"",""trial"",""time""
""fullscreenenter"",""1"",""2199""
","
","
","""event"",""trial"",""time""
""fullscreenenter"",""1"",""2199""
","
","","","-1","","","15","15545","6222","&#9728;","elianto","#f73b6a7A","-1","-1","1","0","[]","0","1","","","15545","20","0","4","lose","no-go","0"
"pit-instructions","138","974997","0.0-24.0","battery-v0.2","","""event"",""trial"",""time""
""fullscreenenter"",""1"",""2199""
","
","
","""event"",""trial"",""time""
""fullscreenenter"",""1"",""2199""
","
","","[{""page_index"":0,""viewing_time"":6074.60000000149},{""page_index"":1,""viewing_time"":7076.10000000149}]","13151.5","","","","","","","","","","","","","","","","","","","","","","","",""
"pit-trial","139","978839","0.0-25.0","battery-v0.2","","""event"",""trial"",""time""
""fullscreenenter"",""1"",""2199""
","
","
","""event"",""trial"",""time""
""fullscreenenter"",""1"",""2199""
","
","","","984.1000000014901","","","15","15545","6222","t","elianto","#f73b6a7A"," "," ","1","0","[1834.1999999955297]","1","2","","","15545","21","2","3","lose","go","0"
"pit-trial","140","982668","0.0-26.0","battery-v0.2","","""event"",""trial"",""time""
""fullscreenenter"",""1"",""2199""
","
","
","""event"",""trial"",""time""
""fullscreenenter"",""1"",""2199""
","
","","","972.5999999940395","","","15","15545","6222","f","elianto","#3366ff99","-1"," ","0","0","[1822.7000000029802]","1","2","","","15545","22","1","2","win","no-go","0"
"pit-trial","141","986300","0.0-27.0","battery-v0.2","","""event"",""trial"",""time""
""fullscreenenter"",""1"",""2199""
","
","
","""event"",""trial"",""time""
""fullscreenenter"",""1"",""2199""
","
","","","771.1000000014901","","","15","15545","6222","b","elianto","#f73b6a7A","-1"," ","0","-10","[1624.8000000044703]","1","2","","","15545","23","3","4","lose","no-go","0"
"pit-trial","142","990734","0.0-28.0","battery-v0.2","","""event"",""trial"",""time""
""fullscreenenter"",""1"",""2199""
","
","
","""event"",""trial"",""time""
""fullscreenenter"",""1"",""2199""
","
","","","1577.6999999955297","","","15","15545","6222","n","elianto","#f73b6a7A"," "," ","1","0","[2427.89999999851]","1","2","","","15545","24","0","3","lose","go","0"
"pit-trial","143","995592","0.0-29.0","battery-v0.2","","""event"",""trial"",""time""
""fullscreenenter"",""1"",""2199""
","
","
","""event"",""trial"",""time""
""fullscreenenter"",""1"",""2199""
","
","","","-1","","","15","15545","6222","b","elianto","#f73b6a7A","-1","-1","1","0","[]","0","2","","","15545","25","3","4","lose","no-go","0"
"pit-trial","144","1000449","0.0-30.0","battery-v0.2","","""event"",""trial"",""time""
""fullscreenenter"",""1"",""2199""
","
","
","""event"",""trial"",""time""
""fullscreenenter"",""1"",""2199""
","
","","","-1","","","15","15545","6222","t","elianto","#f73b6a7A"," ","-1","0","0","[]","0","2","","","15545","26","2","3","lose","go","1"
"pit-trial","145","1005307","0.0-31.0","battery-v0.2","","""event"",""trial"",""time""
""fullscreenenter"",""1"",""2199""
","
","
","""event"",""trial"",""time""
""fullscreenenter"",""1"",""2199""
","
","","","-1","","","15","15545","6222","n","elianto","#f73b6a7A"," ","-1","0","-10","[3151.39999999851]","1","2","","","15545","27","0","3","lose","go","0"
"pit-trial","146","1008940","0.0-32.0","battery-v0.2","","""event"",""trial"",""time""
""fullscreenenter"",""1"",""2199""
","
","
","""event"",""trial"",""time""
""fullscreenenter"",""1"",""2199""
","
","","","775.5","","","15","15545","6222","f","elianto","#3366ff99","-1"," ","0","0","[1625.6000000014901]","1","2","","","15545","28","1","2","win","no-go","0"
"pit-trial","147","1012728","0.0-33.0","battery-v0.2","","""event"",""trial"",""time""
""fullscreenenter"",""1"",""2199""
","
","
","""event"",""trial"",""time""
""fullscreenenter"",""1"",""2199""
","
","","","930.6000000014901","","","15","15545","6222","f","elianto","#3366ff99","-1"," ","0","0","[1782.3999999985099]","1","2","","","15545","29","1","2","win","no-go","0"
"pit-trial","148","1017586","0.0-34.0","battery-v0.2","","""event"",""trial"",""time""
""fullscreenenter"",""1"",""2199""
","
","
","""event"",""trial"",""time""
""fullscreenenter"",""1"",""2199""
","
","","","-1","","","15","15545","6222","b","elianto","#f73b6a7A","-1","-1","1","0","[]","0","2","","","15545","30","3","4","lose","no-go","0"
"pit-trial","149","1021364","0.0-35.0","battery-v0.2","","""event"",""trial"",""time""
""fullscreenenter"",""1"",""2199""
","
","
","""event"",""trial"",""time""
""fullscreenenter"",""1"",""2199""
","
","","","920.1000000014901","","","15","15545","6222","t","elianto","#f73b6a7A"," "," ","1","-10","[1770.3999999985099]","1","2","","","15545","31","2","3","lose","go","1"
"pit-trial","150","1025281","0.0-36.0","battery-v0.2","","""event"",""trial"",""time""
""fullscreenenter"",""1"",""2199""
","
","
","""event"",""trial"",""time""
""fullscreenenter"",""1"",""2199""
","
","","","1060.5","","","15","15545","6222","n","elianto","#f73b6a7A"," "," ","1","-10","[1910.5999999940395]","1","2","","","15545","32","0","3","lose","go","1"
"pit-trial","151","1030136","0.0-37.0","battery-v0.2","","""event"",""trial"",""time""
""fullscreenenter"",""1"",""2199""
","
","
","""event"",""trial"",""time""
""fullscreenenter"",""1"",""2199""
","
","","","-1","","","15","15545","6222","f","elianto","#3366ff99","-1","-1","1","+10","[]","0","2","","","15545","33","1","2","win","no-go","0"
"pit-trial","152","1034993","0.0-38.0","battery-v0.2","","""event"",""trial"",""time""
""fullscreenenter"",""1"",""2199""
","
","
","""event"",""trial"",""time""
""fullscreenenter"",""1"",""2199""
","
","","","-1","","","15","15545","6222","b","elianto","#f73b6a7A","-1","-1","1","-10","[]","0","2","","","15545","34","3","4","lose","no-go","1"
"pit-trial","153","1039850","0.0-39.0","battery-v0.2","","""event"",""trial"",""time""
""fullscreenenter"",""1"",""2199""
","
","
","""event"",""trial"",""time""
""fullscreenenter"",""1"",""2199""
","
","","","-1","","","15","15545","6222","n","elianto","#f73b6a7A"," ","-1","0","-10","[]","0","2","","","15545","35","0","3","lose","go","0"
"pit-trial","154","1043447","0.0-40.0","battery-v0.2","","""event"",""trial"",""time""
""fullscreenenter"",""1"",""2199""
","
","
","""event"",""trial"",""time""
""fullscreenenter"",""1"",""2199""
","
","","","740.1999999955297","","","15","15545","6222","t","elianto","#f73b6a7A"," "," ","1","0","[1590.2999999970198]","1","2","","","15545","36","2","3","lose","go","0"
"pit-trial","155","1047185","0.0-41.0","battery-v0.2","","""event"",""trial"",""time""
""fullscreenenter"",""1"",""2199""
","
","
","""event"",""trial"",""time""
""fullscreenenter"",""1"",""2199""
","
","","","879.5","","","15","15545","6222","t","elianto","#f73b6a7A"," "," ","1","-10","[1731.1000000014901]","1","2","","","15545","37","2","3","lose","go","1"
"pit-trial","156","1050945","0.0-42.0","battery-v0.2","","""event"",""trial"",""time""
""fullscreenenter"",""1"",""2199""
","
","
","""event"",""trial"",""time""
""fullscreenenter"",""1"",""2199""
","
","","","899.2999999970198","","","15","15545","6222","n","elianto","#f73b6a7A"," "," ","1","0","[1754.3000000044703]","1","2","","","15545","38","0","3","lose","go","0"
"pit-trial","157","1054503","0.0-43.0","battery-v0.2","","""event"",""trial"",""time""
""fullscreenenter"",""1"",""2199""
","
","
","""event"",""trial"",""time""
""fullscreenenter"",""1"",""2199""
","
","","","700.7999999970198","","","15","15545","6222","b","elianto","#f73b6a7A","-1"," ","0","-10","[1551.1000000014901]","1","2","","","15545","39","3","4","lose","no-go","0"
"pit-trial","158","1059358","0.0-44.0","battery-v0.2","","""event"",""trial"",""time""
""fullscreenenter"",""1"",""2199""
","
","
","""event"",""trial"",""time""
""fullscreenenter"",""1"",""2199""
","
","","","-1","","","15","15545","6222","f","elianto","#3366ff99","-1","-1","1","+10","[]","0","2","","","15545","40","1","2","win","no-go","0"
"pit-trial","159","1064215","0.0-45.0","battery-v0.2","","""event"",""trial"",""time""
""fullscreenenter"",""1"",""2199""
","
","
","""event"",""trial"",""time""
""fullscreenenter"",""1"",""2199""
","
","","","-1","","","15","15545","6222","b","elianto","#f73b6a7A","-1","-1","1","0","[]","0","2","","","15545","41","3","4","lose","no-go","0"
"pit-trial","160","1069072","0.0-46.0","battery-v0.2","","""event"",""trial"",""time""
""fullscreenenter"",""1"",""2199""
","
","
","""event"",""trial"",""time""
""fullscreenenter"",""1"",""2199""
","
","","","-1","","","15","15545","6222","t","elianto","#f73b6a7A"," ","-1","0","-10","[]","0","2","","","15545","42","2","3","lose","go","0"
"pit-trial","161","1072770","0.0-47.0","battery-v0.2","","""event"",""trial"",""time""
""fullscreenenter"",""1"",""2199""
","
","
","""event"",""trial"",""time""
""fullscreenenter"",""1"",""2199""
","
","","","840.8999999985099","","","15","15545","6222","n","elianto","#f73b6a7A"," "," ","1","0","[1691.1000000014901]","1","2","","","15545","43","0","3","lose","go","0"
"pit-trial","162","1077627","0.0-48.0","battery-v0.2","","""event"",""trial"",""time""
""fullscreenenter"",""1"",""2199""
","
","
","""event"",""trial"",""time""
""fullscreenenter"",""1"",""2199""
","
","","","-1","","","15","15545","6222","f","elianto","#3366ff99","-1","-1","1","+10","[]","0","2","","","15545","44","1","2","win","no-go","0"
"pit-trial","163","1081283","0.0-49.0","battery-v0.2","","""event"",""trial"",""time""
""fullscreenenter"",""1"",""2199""
","
","
","""event"",""trial"",""time""
""fullscreenenter"",""1"",""2199""
","
","","","799.7000000029802","","","15","15545","6222","n","elianto","#f73b6a7A"," "," ","1","0","[1649.8000000044703]","1","2","","","15545","45","0","3","lose","go","0"
"pit-trial","164","1085858","0.0-50.0","battery-v0.2","","""event"",""trial"",""time""
""fullscreenenter"",""1"",""2199""
","
","
","""event"",""trial"",""time""
""fullscreenenter"",""1"",""2199""
","
","","","1717.8999999985099","","","15","15545","6222","t","elianto","#f73b6a7A"," "," ","1","0","[2568]","1","2","","","15545","46","2","3","lose","go","0"
"pit-trial","165","1090716","0.0-51.0","battery-v0.2","","""event"",""trial"",""time""
""fullscreenenter"",""1"",""2199""
","
","
","""event"",""trial"",""time""
""fullscreenenter"",""1"",""2199""
","
","","","-1","","","15","15545","6222","f","elianto","#3366ff99","-1","-1","1","+10","[]","0","2","","","15545","47","1","2","win","no-go","0"
"pit-trial","166","1095573","0.0-52.0","battery-v0.2","","""event"",""trial"",""time""
""fullscreenenter"",""1"",""2199""
","
","
","""event"",""trial"",""time""
""fullscreenenter"",""1"",""2199""
","
","","","-1","","","15","15545","6222","b","elianto","#f73b6a7A","-1","-1","1","0","[]","0","2","","","15545","48","3","4","lose","no-go","0"
"pit-trial","167","1099021","0.0-53.0","battery-v0.2","","""event"",""trial"",""time""
""fullscreenenter"",""1"",""2199""
","
","
","""event"",""trial"",""time""
""fullscreenenter"",""1"",""2199""
","
","","","591.6999999955297","","","15","15545","6222","b","elianto","#f73b6a7A","-1"," ","0","-10","[1442]","1","2","","","15545","49","3","4","lose","no-go","0"
"pit-trial","168","1102777","0.0-54.0","battery-v0.2","","""event"",""trial"",""time""
""fullscreenenter"",""1"",""2199""
","
","
","""event"",""trial"",""time""
""fullscreenenter"",""1"",""2199""
","
","","","900.1000000014901","","","15","15545","6222","t","elianto","#f73b6a7A"," "," ","1","0","[1750.2000000029802]","1","2","","","15545","50","2","3","lose","go","0"
"pit-trial","169","1107634","0.0-55.0","battery-v0.2","","""event"",""trial"",""time""
""fullscreenenter"",""1"",""2199""
","
","
","""event"",""trial"",""time""
""fullscreenenter"",""1"",""2199""
","
","","","-1","","","15","15545","6222","f","elianto","#3366ff99","-1","-1","1","0","[]","0","2","","","15545","51","1","2","win","no-go","1"
"pit-trial","170","1111220","0.0-56.0","battery-v0.2","","""event"",""trial"",""time""
""fullscreenenter"",""1"",""2199""
","
","
","""event"",""trial"",""time""
""fullscreenenter"",""1"",""2199""
","
","","","728.8000000044703","","","15","15545","6222","n","elianto","#f73b6a7A"," "," ","1","0","[1578.8999999985099]","1","2","","","15545","52","0","3","lose","go","0"
"pit-trial","171","1114837","0.0-57.0","battery-v0.2","","""event"",""trial"",""time""
""fullscreenenter"",""1"",""2199""
","
","
","""event"",""trial"",""time""
""fullscreenenter"",""1"",""2199""
","
","","","759","","","15","15545","6222","t","elianto","#f73b6a7A"," "," ","1","0","[1611.4000000059605]","1","2","","","15545","53","2","3","lose","go","0"
"pit-trial","172","1119694","0.0-58.0","battery-v0.2","","""event"",""trial"",""time""
""fullscreenenter"",""1"",""2199""
","
","
","""event"",""trial"",""time""
""fullscreenenter"",""1"",""2199""
","
","","","-1","","","15","15545","6222","b","elianto","#f73b6a7A","-1","-1","1","0","[]","0","2","","","15545","54","3","4","lose","no-go","0"
"pit-trial","173","1123307","0.0-59.0","battery-v0.2","","""event"",""trial"",""time""
""fullscreenenter"",""1"",""2199""
","
","
","""event"",""trial"",""time""
""fullscreenenter"",""1"",""2199""
","
","","","755.8999999985099","","","15","15545","6222","n","elianto","#f73b6a7A"," "," ","1","-10","[1606]","1","2","","","15545","55","0","3","lose","go","1"
"pit-trial","174","1128164","0.0-60.0","battery-v0.2","","""event"",""trial"",""time""
""fullscreenenter"",""1"",""2199""
","
","
","""event"",""trial"",""time""
""fullscreenenter"",""1"",""2199""
","
","","","-1","","","15","15545","6222","f","elianto","#3366ff99","-1","-1","1","0","[]","0","2","","","15545","56","1","2","win","no-go","1"
"pit-trial","175","1132410","0.0-61.0","battery-v0.2","","""event"",""trial"",""time""
""fullscreenenter"",""1"",""2199""
","
","
","""event"",""trial"",""time""
""fullscreenenter"",""1"",""2199""
","
","","","1388.6000000014901","","","15","15545","6222","c","elianto","#3366ff99"," "," ","1","+10","[2238.6999999955297]","1","2","","","15545","57","4","1","win","go","0"
"pit-trial","176","1136419","0.0-62.0","battery-v0.2","","""event"",""trial"",""time""
""fullscreenenter"",""1"",""2199""
","
","
","""event"",""trial"",""time""
""fullscreenenter"",""1"",""2199""
","
","","","1152.1999999955297","","","15","15545","6222","n","elianto","#f73b6a7A"," "," ","1","0","[2002.3999999985099]","1","2","","","15545","58","0","3","lose","go","0"
"pit-trial","177","1140199","0.0-63.0","battery-v0.2","","""event"",""trial"",""time""
""fullscreenenter"",""1"",""2199""
","
","
","""event"",""trial"",""time""
""fullscreenenter"",""1"",""2199""
","
","","","919.3999999985099","","","15","15545","6222","t","elianto","#f73b6a7A"," "," ","1","0","[1772.6000000014901]","1","2","","","15545","59","2","3","lose","go","0"
"pit-trial","178","1145056","0.0-64.0","battery-v0.2","","""event"",""trial"",""time""
""fullscreenenter"",""1"",""2199""
","
","
","""event"",""trial"",""time""
""fullscreenenter"",""1"",""2199""
","
","","","-1","","","15","15545","6222","b","elianto","#f73b6a7A","-1","-1","1","-10","[]","0","2","","","15545","60","3","4","lose","no-go","1"
"pit-trial","179","1149737","0.0-65.0","battery-v0.2","","""event"",""trial"",""time""
""fullscreenenter"",""1"",""2199""
","
","
","""event"",""trial"",""time""
""fullscreenenter"",""1"",""2199""
","
","","","1824.4000000059605","","","15","15545","6222","c","elianto","#3366ff99"," "," ","1","+10","[2674.5]","1","2","","","15545","61","4","1","win","go","0"
"pit-trial","180","1154594","0.0-66.0","battery-v0.2","","""event"",""trial"",""time""
""fullscreenenter"",""1"",""2199""
","
","
","""event"",""trial"",""time""
""fullscreenenter"",""1"",""2199""
","
","","","-1","","","15","15545","6222","b","elianto","#f73b6a7A","-1","-1","1","0","[]","0","2","","","15545","62","3","4","lose","no-go","0"
"pit-trial","181","1158274","0.0-67.0","battery-v0.2","","""event"",""trial"",""time""
""fullscreenenter"",""1"",""2199""
","
","
","""event"",""trial"",""time""
""fullscreenenter"",""1"",""2199""
","
","","","824.1999999955297","","","15","15545","6222","t","elianto","#f73b6a7A"," "," ","1","0","[1674.3999999985099]","1","2","","","15545","63","2","3","lose","go","0"
"pit-trial","182","1163131","0.0-68.0","battery-v0.2","","""event"",""trial"",""time""
""fullscreenenter"",""1"",""2199""
","
","
","""event"",""trial"",""time""
""fullscreenenter"",""1"",""2199""
","
","","","-1","","","15","15545","6222","f","elianto","#3366ff99","-1","-1","1","+10","[]","0","2","","","15545","64","1","2","win","no-go","0"
"pit-trial","183","1167988","0.0-69.0","battery-v0.2","","""event"",""trial"",""time""
""fullscreenenter"",""1"",""2199""
","
","
","""event"",""trial"",""time""
""fullscreenenter"",""1"",""2199""
","
","","","-1","","","15","15545","6222","f","elianto","#3366ff99","-1","-1","1","+10","[]","0","2","","","15545","65","1","2","win","no-go","0"
"pit-trial","184","1171937","0.0-70.0","battery-v0.2","","""event"",""trial"",""time""
""fullscreenenter"",""1"",""2199""
","
","
","""event"",""trial"",""time""
""fullscreenenter"",""1"",""2199""
","
","","","1093.1000000014901","","","15","15545","6222","z","elianto","#3366ff99","-1"," ","0","0","[1943.2999999970198]","1","2","","","15545","66","5","2","win","no-go","0"
"pit-trial","185","1176794","0.0-71.0","battery-v0.2","","""event"",""trial"",""time""
""fullscreenenter"",""1"",""2199""
","
","
","""event"",""trial"",""time""
""fullscreenenter"",""1"",""2199""
","
","","","-1","","","15","15545","6222","b","elianto","#f73b6a7A","-1","-1","1","0","[]","0","2","","","15545","67","3","4","lose","no-go","0"
"pit-trial","186","1180676","0.0-72.0","battery-v0.2","","""event"",""trial"",""time""
""fullscreenenter"",""1"",""2199""
","
","
","""event"",""trial"",""time""
""fullscreenenter"",""1"",""2199""
","
","","","1025.9000000059605","","","15","15545","6222","c","elianto","#3366ff99"," "," ","1","+10","[1875.8999999985099]","1","2","","","15545","68","4","1","win","go","0"
"pit-trial","187","1185534","0.0-73.0","battery-v0.2","","""event"",""trial"",""time""
""fullscreenenter"",""1"",""2199""
","
","
","""event"",""trial"",""time""
""fullscreenenter"",""1"",""2199""
","
","","","-1","","","15","15545","6222","z","elianto","#3366ff99","-1","-1","1","0","[]","0","2","","","15545","69","5","2","win","no-go","1"
"pit-trial","188","1189169","0.0-74.0","battery-v0.2","","""event"",""trial"",""time""
""fullscreenenter"",""1"",""2199""
","
","
","""event"",""trial"",""time""
""fullscreenenter"",""1"",""2199""
","
","","","775.7999999970198","","","15","15545","6222","c","elianto","#3366ff99"," "," ","1","+10","[1628.6000000014901]","1","2","","","15545","70","4","1","win","go","0"
"pit-trial","189","1193071","0.0-75.0","battery-v0.2","","""event"",""trial"",""time""
""fullscreenenter"",""1"",""2199""
","
","
","""event"",""trial"",""time""
""fullscreenenter"",""1"",""2199""
","
","","","1043.8999999985099","","","15","15545","6222","t","elianto","#f73b6a7A"," "," ","1","-10","[1895.3999999985099]","1","2","","","15545","71","2","3","lose","go","1"
"pit-trial","190","1197929","0.0-76.0","battery-v0.2","","""event"",""trial"",""time""
""fullscreenenter"",""1"",""2199""
","
","
","""event"",""trial"",""time""
""fullscreenenter"",""1"",""2199""
","
","","","-1","","","15","15545","6222","f","elianto","#3366ff99","-1","-1","1","+10","[]","0","2","","","15545","72","1","2","win","no-go","0"
"pit-trial","191","1202785","0.0-77.0","battery-v0.2","","""event"",""trial"",""time""
""fullscreenenter"",""1"",""2199""
","
","
","""event"",""trial"",""time""
""fullscreenenter"",""1"",""2199""
","
","","","-1","","","15","15545","6222","f","elianto","#3366ff99","-1","-1","1","+10","[]","0","2","","","15545","73","1","2","win","no-go","0"
"pit-trial","192","1207642","0.0-78.0","battery-v0.2","","""event"",""trial"",""time""
""fullscreenenter"",""1"",""2199""
","
","
","""event"",""trial"",""time""
""fullscreenenter"",""1"",""2199""
","
","","","-1","","","15","15545","6222","z","elianto","#3366ff99","-1","-1","1","+10","[]","0","2","","","15545","74","5","2","win","no-go","0"
"pit-trial","193","1211403","0.0-79.0","battery-v0.2","","""event"",""trial"",""time""
""fullscreenenter"",""1"",""2199""
","
","
","""event"",""trial"",""time""
""fullscreenenter"",""1"",""2199""
","
","","","904.3999999985099","","","15","15545","6222","c","elianto","#3366ff99"," "," ","1","+10","[1754.5]","1","2","","","15545","75","4","1","win","go","0"
"pit-trial","194","1216260","0.0-80.0","battery-v0.2","","""event"",""trial"",""time""
""fullscreenenter"",""1"",""2199""
","
","
","""event"",""trial"",""time""
""fullscreenenter"",""1"",""2199""
","
","","","-1","","","15","15545","6222","b","elianto","#f73b6a7A","-1","-1","1","-10","[]","0","2","","","15545","76","3","4","lose","no-go","1"
"pit-trial","195","1220727","0.0-81.0","battery-v0.2","","""event"",""trial"",""time""
""fullscreenenter"",""1"",""2199""
","
","
","""event"",""trial"",""time""
""fullscreenenter"",""1"",""2199""
","
","","","1610.7000000029802","","","15","15545","6222","c","elianto","#3366ff99"," "," ","1","0","[2460.89999999851]","1","2","","","15545","77","4","1","win","go","1"
"pit-trial","196","1224625","0.0-82.0","battery-v0.2","","""event"",""trial"",""time""
""fullscreenenter"",""1"",""2199""
","
","
","""event"",""trial"",""time""
""fullscreenenter"",""1"",""2199""
","
","","","1041.3000000044703","","","15","15545","6222","c","elianto","#3366ff99"," "," ","1","+10","[1891.3999999985099]","1","2","","","15545","78","4","1","win","go","0"
"pit-trial","197","1229483","0.0-83.0","battery-v0.2","","""event"",""trial"",""time""
""fullscreenenter"",""1"",""2199""
","
","
","""event"",""trial"",""time""
""fullscreenenter"",""1"",""2199""
","
","","","-1","","","15","15545","6222","b","elianto","#f73b6a7A","-1","-1","1","0","[]","0","2","","","15545","79","3","4","lose","no-go","0"
"pit-trial","198","1234341","0.0-84.0","battery-v0.2","","""event"",""trial"",""time""
""fullscreenenter"",""1"",""2199""
","
","
","""event"",""trial"",""time""
""fullscreenenter"",""1"",""2199""
","
","","","-1","","","15","15545","6222","z","elianto","#3366ff99","-1","-1","1","+10","[]","0","2","","","15545","80","5","2","win","no-go","0"
"pit-trial","199","1239196","0.0-85.0","battery-v0.2","","""event"",""trial"",""time""
""fullscreenenter"",""1"",""2199""
","
","
","""event"",""trial"",""time""
""fullscreenenter"",""1"",""2199""
","
","","","-1","","","15","15545","6222","z","elianto","#3366ff99","-1","-1","1","0","[]","0","2","","","15545","81","5","2","win","no-go","1"
"pit-trial","200","1242856","0.0-86.0","battery-v0.2","","""event"",""trial"",""time""
""fullscreenenter"",""1"",""2199""
","
","
","""event"",""trial"",""time""
""fullscreenenter"",""1"",""2199""
","
","","","803.1999999955297","","","15","15545","6222","y","elianto","#f73b6a7A","-1"," ","0","0","[1653.1000000014901]","1","2","","","15545","82","7","4","lose","no-go","1"
"pit-trial","201","1247713","0.0-87.0","battery-v0.2","","""event"",""trial"",""time""
""fullscreenenter"",""1"",""2199""
","
","
","""event"",""trial"",""time""
""fullscreenenter"",""1"",""2199""
","
","","","-1","","","15","15545","6222","b","elianto","#f73b6a7A","-1","-1","1","0","[]","0","2","","","15545","83","3","4","lose","no-go","0"
"pit-trial","202","1251348","0.0-88.0","battery-v0.2","","""event"",""trial"",""time""
""fullscreenenter"",""1"",""2199""
","
","
","""event"",""trial"",""time""
""fullscreenenter"",""1"",""2199""
","
","","","777.6999999955297","","","15","15545","6222","c","elianto","#3366ff99"," "," ","1","+10","[1628.0999999940395]","1","2","","","15545","84","4","1","win","go","0"
"pit-trial","203","1255062","0.0-89.0","battery-v0.2","","""event"",""trial"",""time""
""fullscreenenter"",""1"",""2199""
","
","
","""event"",""trial"",""time""
""fullscreenenter"",""1"",""2199""
","
","","","858","","","15","15545","6222","y","elianto","#f73b6a7A","-1"," ","0","-10","[1708.2000000029802]","1","2","","","15545","85","7","4","lose","no-go","0"
"pit-trial","204","1259059","0.0-90.0","battery-v0.2","","""event"",""trial"",""time""
""fullscreenenter"",""1"",""2199""
","
","
","""event"",""trial"",""time""
""fullscreenenter"",""1"",""2199""
","
","","","1136.3000000044703","","","15","15545","6222","z","elianto","#3366ff99","-1"," ","0","0","[1989.8999999985099]","1","2","","","15545","86","5","2","win","no-go","0"
"pit-trial","205","1262759","0.0-91.0","battery-v0.2","","""event"",""trial"",""time""
""fullscreenenter"",""1"",""2199""
","
","
","""event"",""trial"",""time""
""fullscreenenter"",""1"",""2199""
","
","","","844","","","15","15545","6222","c","elianto","#3366ff99"," "," ","1","+10","[1694.1999999955297]","1","2","","","15545","87","4","1","win","go","0"
"pit-trial","206","1266787","0.0-92.0","battery-v0.2","","""event"",""trial"",""time""
""fullscreenenter"",""1"",""2199""
","
","
","""event"",""trial"",""time""
""fullscreenenter"",""1"",""2199""
","
","","","1168.5","","","15","15545","6222","h","elianto","#f73b6a7A"," "," ","1","0","[2021.3999999985099]","1","2","","","15545","88","6","3","lose","go","0"
"pit-trial","207","1271085","0.0-93.0","battery-v0.2","","""event"",""trial"",""time""
""fullscreenenter"",""1"",""2199""
","
","
","""event"",""trial"",""time""
""fullscreenenter"",""1"",""2199""
","
","","","1441.6000000014901","","","15","15545","6222","h","elianto","#f73b6a7A"," "," ","1","0","[2291.6999999955297]","1","2","","","15545","89","6","3","lose","go","0"
"pit-trial","208","1275942","0.0-94.0","battery-v0.2","","""event"",""trial"",""time""
""fullscreenenter"",""1"",""2199""
","
","
","""event"",""trial"",""time""
""fullscreenenter"",""1"",""2199""
","
","","","-1","","","15","15545","6222","z","elianto","#3366ff99","-1","-1","1","+10","[]","0","2","","","15545","90","5","2","win","no-go","0"
"pit-trial","209","1280627","0.0-95.0","battery-v0.2","","""event"",""trial"",""time""
""fullscreenenter"",""1"",""2199""
","
","
","""event"",""trial"",""time""
""fullscreenenter"",""1"",""2199""
","
","","","1829.2999999970198","","","15","15545","6222","y","elianto","#f73b6a7A","-1"," ","0","-10","[2679.5]","1","2","","","15545","91","7","4","lose","no-go","0"
"pit-trial","210","1284289","0.0-96.0","battery-v0.2","","""event"",""trial"",""time""
""fullscreenenter"",""1"",""2199""
","
","
","""event"",""trial"",""time""
""fullscreenenter"",""1"",""2199""
","
","","","805.3999999985099","","","15","15545","6222","c","elianto","#3366ff99"," "," ","1","+10","[1655.6000000014901]","1","2","","","15545","92","4","1","win","go","0"
"pit-trial","211","1289146","0.0-97.0","battery-v0.2","","""event"",""trial"",""time""
""fullscreenenter"",""1"",""2199""
","
","
","""event"",""trial"",""time""
""fullscreenenter"",""1"",""2199""
","
","","","-1","","","15","15545","6222","y","elianto","#f73b6a7A","-1","-1","1","0","[]","0","2","","","15545","93","7","4","lose","no-go","0"
"pit-trial","212","1293080","0.0-98.0","battery-v0.2","","""event"",""trial"",""time""
""fullscreenenter"",""1"",""2199""
","
","
","""event"",""trial"",""time""
""fullscreenenter"",""1"",""2199""
","
","","","1077.0999999940395","","","15","15545","6222","r","elianto","#3366ff99"," "," ","1","+10","[1927.1000000014901]","1","2","","","15545","94","8","1","win","go","0"
"pit-trial","213","1297426","0.0-99.0","battery-v0.2","","""event"",""trial"",""time""
""fullscreenenter"",""1"",""2199""
","
","
","""event"",""trial"",""time""
""fullscreenenter"",""1"",""2199""
","
","","","1489.7999999970198","","","15","15545","6222","h","elianto","#f73b6a7A"," "," ","1","0","[2339.89999999851]","1","2","","","15545","95","6","3","lose","go","0"
"pit-trial","214","1302283","0.0-100.0","battery-v0.2","","""event"",""trial"",""time""
""fullscreenenter"",""1"",""2199""
","
","
","""event"",""trial"",""time""
""fullscreenenter"",""1"",""2199""
","
","","","-1","","","15","15545","6222","z","elianto","#3366ff99","-1","-1","1","+10","[]","0","2","","","15545","96","5","2","win","no-go","0"
"pit-trial","215","1307140","0.0-101.0","battery-v0.2","","""event"",""trial"",""time""
""fullscreenenter"",""1"",""2199""
","
","
","""event"",""trial"",""time""
""fullscreenenter"",""1"",""2199""
","
","","","-1","","","15","15545","6222","z","elianto","#3366ff99","-1","-1","1","+10","[]","0","2","","","15545","97","5","2","win","no-go","0"
"pit-trial","216","1311998","0.0-102.0","battery-v0.2","","""event"",""trial"",""time""
""fullscreenenter"",""1"",""2199""
","
","
","""event"",""trial"",""time""
""fullscreenenter"",""1"",""2199""
","
","","","-1","","","15","15545","6222","y","elianto","#f73b6a7A","-1","-1","1","0","[]","0","2","","","15545","98","7","4","lose","no-go","0"
"pit-trial","217","1316072","0.0-103.0","battery-v0.2","","""event"",""trial"",""time""
""fullscreenenter"",""1"",""2199""
","
","
","""event"",""trial"",""time""
""fullscreenenter"",""1"",""2199""
","
","","","1217.2000000029802","","","15","15545","6222","h","elianto","#f73b6a7A"," "," ","1","0","[2067.2999999970198]","1","2","","","15545","99","6","3","lose","go","0"
"pit-trial","218","1319943","0.0-104.0","battery-v0.2","","""event"",""trial"",""time""
""fullscreenenter"",""1"",""2199""
","
","
","""event"",""trial"",""time""
""fullscreenenter"",""1"",""2199""
","
","","","1013.7999999970198","","","15","15545","6222","r","elianto","#3366ff99"," "," ","1","+10","[1864]","1","2","","","15545","100","8","1","win","go","0"
"pit-trial","219","1323839","0.0-105.0","battery-v0.2","","""event"",""trial"",""time""
""fullscreenenter"",""1"",""2199""
","
","
","""event"",""trial"",""time""
""fullscreenenter"",""1"",""2199""
","
","","","1039.8000000044703","","","15","15545","6222","r","elianto","#3366ff99"," "," ","1","0","[1889.8999999985099]","1","2","","","15545","101","8","1","win","go","1"
"pit-trial","220","1327854","0.0-106.0","battery-v0.2","","""event"",""trial"",""time""
""fullscreenenter"",""1"",""2199""
","
","
","""event"",""trial"",""time""
""fullscreenenter"",""1"",""2199""
","
","","","1158.1000000014901","","","15","15545","6222","m","elianto","#3366ff99"," "," ","1","+10","[2008.3999999985099]","1","2","","","15545","102","9","1","win","go","0"
"pit-trial","221","1332711","0.0-107.0","battery-v0.2","","""event"",""trial"",""time""
""fullscreenenter"",""1"",""2199""
","
","
","""event"",""trial"",""time""
""fullscreenenter"",""1"",""2199""
","
","","","-1","","","15","15545","6222","y","elianto","#f73b6a7A","-1","-1","1","0","[]","0","2","","","15545","103","7","4","lose","no-go","0"
"pit-trial","222","1337569","0.0-108.0","battery-v0.2","","""event"",""trial"",""time""
""fullscreenenter"",""1"",""2199""
","
","
","""event"",""trial"",""time""
""fullscreenenter"",""1"",""2199""
","
","","","-1","","","15","15545","6222","z","elianto","#3366ff99","-1","-1","1","0","[]","0","2","","","15545","104","5","2","win","no-go","1"
"pit-trial","223","1341337","0.0-109.0","battery-v0.2","","""event"",""trial"",""time""
""fullscreenenter"",""1"",""2199""
","
","
","""event"",""trial"",""time""
""fullscreenenter"",""1"",""2199""
","
","","","911.6999999955297","","","15","15545","6222","c","elianto","#3366ff99"," "," ","1","+10","[1761.8999999985099]","1","2","","","15545","105","4","1","win","go","0"
"pit-trial","224","1345748","0.0-110.0","battery-v0.2","","""event"",""trial"",""time""
""fullscreenenter"",""1"",""2199""
","
","
","""event"",""trial"",""time""
""fullscreenenter"",""1"",""2199""
","
","","","1554.1000000014901","","","15","15545","6222","h","elianto","#f73b6a7A"," "," ","1","0","[2404.2000000029802]","1","2","","","15545","106","6","3","lose","go","0"
"pit-trial","225","1349695","0.0-111.0","battery-v0.2","","""event"",""trial"",""time""
""fullscreenenter"",""1"",""2199""
","
","
","""event"",""trial"",""time""
""fullscreenenter"",""1"",""2199""
","
","","","1089.3000000044703","","","15","15545","6222","r","elianto","#3366ff99"," "," ","1","+10","[1939.3999999985099]","1","2","","","15545","107","8","1","win","go","0"
"pit-trial","226","1353341","0.0-112.0","battery-v0.2","","""event"",""trial"",""time""
""fullscreenenter"",""1"",""2199""
","
","
","""event"",""trial"",""time""
""fullscreenenter"",""1"",""2199""
","
","","","789.7999999970198","","","15","15545","6222","m","elianto","#3366ff99"," "," ","1","0","[1639.9000000059605]","1","2","","","15545","108","9","1","win","go","1"
"pit-trial","227","1357171","0.0-113.0","battery-v0.2","","""event"",""trial"",""time""
""fullscreenenter"",""1"",""2199""
","
","
","""event"",""trial"",""time""
""fullscreenenter"",""1"",""2199""
","
","","","973.3999999985099","","","15","15545","6222","r","elianto","#3366ff99"," "," ","1","0","[1823.4000000059605]","1","2","","","15545","109","8","1","win","go","1"
"pit-trial","228","1360882","0.0-114.0","battery-v0.2","","""event"",""trial"",""time""
""fullscreenenter"",""1"",""2199""
","
","
","""event"",""trial"",""time""
""fullscreenenter"",""1"",""2199""
","
","","","854.7999999970198","","","15","15545","6222","h","elianto","#f73b6a7A"," "," ","1","-10","[1705,3220.60000000149]","2","2","","","15545","110","6","3","lose","go","1"
"pit-trial","229","1365739","0.0-115.0","battery-v0.2","","""event"",""trial"",""time""
""fullscreenenter"",""1"",""2199""
","
","
","""event"",""trial"",""time""
""fullscreenenter"",""1"",""2199""
","
","","","-1","","","15","15545","6222","z","elianto","#3366ff99","-1","-1","1","+10","[]","0","2","","","15545","111","5","2","win","no-go","0"
"pit-trial","230","1369570","0.0-116.0","battery-v0.2","","""event"",""trial"",""time""
""fullscreenenter"",""1"",""2199""
","
","
","""event"",""trial"",""time""
""fullscreenenter"",""1"",""2199""
","
","","","975.1999999955297","","","15","15545","6222","m","elianto","#3366ff99"," "," ","1","+10","[1825.3999999985099]","1","2","","","15545","112","9","1","win","go","0"
"pit-trial","231","1373528","0.0-117.0","battery-v0.2","","""event"",""trial"",""time""
""fullscreenenter"",""1"",""2199""
","
","
","""event"",""trial"",""time""
""fullscreenenter"",""1"",""2199""
","
","","","1101.7999999970198","","","15","15545","6222","h","elianto","#f73b6a7A"," "," ","1","0","[1951.7999999970198]","1","2","","","15545","113","6","3","lose","go","0"
"pit-trial","232","1378385","0.0-118.0","battery-v0.2","","""event"",""trial"",""time""
""fullscreenenter"",""1"",""2199""
","
","
","""event"",""trial"",""time""
""fullscreenenter"",""1"",""2199""
","
","","","-1","","","15","15545","6222","z","elianto","#3366ff99","-1","-1","1","+10","[]","0","2","","","15545","114","5","2","win","no-go","0"
"pit-trial","233","1382238","0.0-119.0","battery-v0.2","","""event"",""trial"",""time""
""fullscreenenter"",""1"",""2199""
","
","
","""event"",""trial"",""time""
""fullscreenenter"",""1"",""2199""
","
","","","995.6000000014901","","","15","15545","6222","m","elianto","#3366ff99"," "," ","1","+10","[1846.3000000044703]","1","2","","","15545","115","9","1","win","go","0"
"pit-trial","234","1386098","0.0-120.0","battery-v0.2","","""event"",""trial"",""time""
""fullscreenenter"",""1"",""2199""
","
","
","""event"",""trial"",""time""
""fullscreenenter"",""1"",""2199""
","
","","","1000","","","15","15545","6222","r","elianto","#3366ff99"," "," ","1","+10","[1853.7999999970198]","1","2","","","15545","116","8","1","win","go","0"
"pit-trial","235","1390016","0.0-121.0","battery-v0.2","","""event"",""trial"",""time""
""fullscreenenter"",""1"",""2199""
","
","
","""event"",""trial"",""time""
""fullscreenenter"",""1"",""2199""
","
","","","1061.0999999940395","","","15","15545","6222","h","elianto","#f73b6a7A"," "," ","1","0","[1911.2000000029802]","1","2","","","15545","117","6","3","lose","go","0"
"pit-trial","236","1393789","0.0-122.0","battery-v0.2","","""event"",""trial"",""time""
""fullscreenenter"",""1"",""2199""
","
","
","""event"",""trial"",""time""
""fullscreenenter"",""1"",""2199""
","
","","","915.6999999955297","","","15","15545","6222","r","elianto","#3366ff99"," "," ","1","0","[1766.9000000059605]","1","2","","","15545","118","8","1","win","go","1"
"pit-trial","237","1397513","0.0-123.0","battery-v0.2","","""event"",""trial"",""time""
""fullscreenenter"",""1"",""2199""
","
","
","""event"",""trial"",""time""
""fullscreenenter"",""1"",""2199""
","
","","","867.2999999970198","","","15","15545","6222","m","elianto","#3366ff99"," "," ","1","+10","[1717.5]","1","2","","","15545","119","9","1","win","go","0"
"pit-trial","238","1402370","0.0-124.0","battery-v0.2","","""event"",""trial"",""time""
""fullscreenenter"",""1"",""2199""
","
","
","""event"",""trial"",""time""
""fullscreenenter"",""1"",""2199""
","
","","","-1","","","15","15545","6222","z","elianto","#3366ff99","-1","-1","1","+10","[]","0","2","","","15545","120","5","2","win","no-go","0"
"pit-trial","239","1406035","0.0-125.0","battery-v0.2","","""event"",""trial"",""time""
""fullscreenenter"",""1"",""2199""
","
","
","""event"",""trial"",""time""
""fullscreenenter"",""1"",""2199""
","
","","","807.8000000044703","","","15","15545","6222","m","elianto","#3366ff99"," "," ","1","+10","[1658.1000000014901]","1","2","","","15545","121","9","1","win","go","0"
"pit-trial","240","1410891","0.0-126.0","battery-v0.2","","""event"",""trial"",""time""
""fullscreenenter"",""1"",""2199""
","
","
","""event"",""trial"",""time""
""fullscreenenter"",""1"",""2199""
","
","","","-1","","","15","15545","6222","y","elianto","#f73b6a7A","-1","-1","1","0","[]","0","2","","","15545","122","7","4","lose","no-go","0"
"pit-trial","241","1414645","0.0-127.0","battery-v0.2","","""event"",""trial"",""time""
""fullscreenenter"",""1"",""2199""
","
","
","""event"",""trial"",""time""
""fullscreenenter"",""1"",""2199""
","
","","","897.0999999940395","","","15","15545","6222","r","elianto","#3366ff99"," "," ","1","+10","[1747.2000000029802]","1","2","","","15545","123","8","1","win","go","0"
"pit-trial","242","1418353","0.0-128.0","battery-v0.2","","""event"",""trial"",""time""
""fullscreenenter"",""1"",""2199""
","
","
","""event"",""trial"",""time""
""fullscreenenter"",""1"",""2199""
","
","","","851.3999999985099","","","15","15545","6222","h","elianto","#f73b6a7A"," "," ","1","0","[1701.6000000014901]","1","2","","","15545","124","6","3","lose","go","0"
"pit-trial","243","1422038","0.0-129.0","battery-v0.2","","""event"",""trial"",""time""
""fullscreenenter"",""1"",""2199""
","
","
","""event"",""trial"",""time""
""fullscreenenter"",""1"",""2199""
","
","","","827.1999999955297","","","15","15545","6222","m","elianto","#3366ff99"," "," ","1","+10","[1677.5]","1","2","","","15545","125","9","1","win","go","0"
"pit-trial","244","1425650","0.0-130.0","battery-v0.2","","""event"",""trial"",""time""
""fullscreenenter"",""1"",""2199""
","
","
","""event"",""trial"",""time""
""fullscreenenter"",""1"",""2199""
","
","","","755.2999999970198","","","15","15545","6222","r","elianto","#3366ff99"," "," ","1","+10","[1605.2999999970198]","1","2","","","15545","126","8","1","win","go","0"
"pit-trial","245","1429212","0.0-131.0","battery-v0.2","","""event"",""trial"",""time""
""fullscreenenter"",""1"",""2199""
","
","
","""event"",""trial"",""time""
""fullscreenenter"",""1"",""2199""
","
","","","705.6000000014901","","","15","15545","6222","h","elianto","#f73b6a7A"," "," ","1","0","[1555.7999999970198]","1","2","","","15545","127","6","3","lose","go","0"
"pit-trial","246","1434069","0.0-132.0","battery-v0.2","","""event"",""trial"",""time""
""fullscreenenter"",""1"",""2199""
","
","
","""event"",""trial"",""time""
""fullscreenenter"",""1"",""2199""
","
","","","-1","","","15","15545","6222","y","elianto","#f73b6a7A","-1","-1","1","0","[]","0","2","","","15545","128","7","4","lose","no-go","0"
"pit-trial","247","1437713","0.0-133.0","battery-v0.2","","""event"",""trial"",""time""
""fullscreenenter"",""1"",""2199""
","
","
","""event"",""trial"",""time""
""fullscreenenter"",""1"",""2199""
","
","","","785.5","","","15","15545","6222","m","elianto","#3366ff99"," "," ","1","+10","[1637.1000000014901]","1","2","","","15545","129","9","1","win","go","0"
"pit-trial","248","1441345","0.0-134.0","battery-v0.2","","""event"",""trial"",""time""
""fullscreenenter"",""1"",""2199""
","
","
","""event"",""trial"",""time""
""fullscreenenter"",""1"",""2199""
","
","","","774.8000000044703","","","15","15545","6222","h","elianto","#f73b6a7A"," "," ","1","0","[1624.8999999985099]","1","2","","","15545","130","6","3","lose","go","0"
"pit-trial","249","1445089","0.0-135.0","battery-v0.2","","""event"",""trial"",""time""
""fullscreenenter"",""1"",""2199""
","
","
","""event"",""trial"",""time""
""fullscreenenter"",""1"",""2199""
","
","","","888.1000000014901","","","15","15545","6222","r","elianto","#3366ff99"," "," ","1","0","[1738.2000000029802]","1","2","","","15545","131","8","1","win","go","1"
"pit-trial","250","1449946","0.0-136.0","battery-v0.2","","""event"",""trial"",""time""
""fullscreenenter"",""1"",""2199""
","
","
","""event"",""trial"",""time""
""fullscreenenter"",""1"",""2199""
","
","","","-1","","","15","15545","6222","y","elianto","#f73b6a7A","-1","-1","1","0","[]","0","2","","","15545","132","7","4","lose","no-go","0"
"pit-trial","251","1453794","0.0-137.0","battery-v0.2","","""event"",""trial"",""time""
""fullscreenenter"",""1"",""2199""
","
","
","""event"",""trial"",""time""
""fullscreenenter"",""1"",""2199""
","
","","","990.7000000029802","","","15","15545","6222","r","elianto","#3366ff99"," "," ","1","+10","[1840.8000000044703]","1","2","","","15545","133","8","1","win","go","0"
"pit-trial","252","1458651","0.0-138.0","battery-v0.2","","""event"",""trial"",""time""
""fullscreenenter"",""1"",""2199""
","
","
","""event"",""trial"",""time""
""fullscreenenter"",""1"",""2199""
","
","","","-1","","","15","15545","6222","y","elianto","#f73b6a7A","-1","-1","1","0","[]","0","2","","","15545","134","7","4","lose","no-go","0"
"pit-trial","253","1462326","0.0-139.0","battery-v0.2","","""event"",""trial"",""time""
""fullscreenenter"",""1"",""2199""
","
","
","""event"",""trial"",""time""
""fullscreenenter"",""1"",""2199""
","
","","","819.1000000014901","","","15","15545","6222","m","elianto","#3366ff99"," "," ","1","+10","[1669.3000000044703]","1","2","","","15545","135","9","1","win","go","0"
"pit-trial","254","1466288","0.0-140.0","battery-v0.2","","""event"",""trial"",""time""
""fullscreenenter"",""1"",""2199""
","
","
","""event"",""trial"",""time""
""fullscreenenter"",""1"",""2199""
","
","","","1102.1999999955297","","","15","15545","6222","h","elianto","#f73b6a7A"," "," ","1","-10","[1955]","1","2","","","15545","136","6","3","lose","go","1"
"pit-trial","255","1469995","0.0-141.0","battery-v0.2","","""event"",""trial"",""time""
""fullscreenenter"",""1"",""2199""
","
","
","""event"",""trial"",""time""
""fullscreenenter"",""1"",""2199""
","
","","","850.2999999970198","","","15","15545","6222","m","elianto","#3366ff99"," "," ","1","+10","[1700.3999999985099]","1","2","","","15545","137","9","1","win","go","0"
"pit-trial","256","1473633","0.0-142.0","battery-v0.2","","""event"",""trial"",""time""
""fullscreenenter"",""1"",""2199""
","
","
","""event"",""trial"",""time""
""fullscreenenter"",""1"",""2199""
","
","","","781.2999999970198","","","15","15545","6222","h","elianto","#f73b6a7A"," "," ","1","-10","[1631.6000000014901]","1","2","","","15545","138","6","3","lose","go","1"
"pit-trial","257","1477206","0.0-143.0","battery-v0.2","","""event"",""trial"",""time""
""fullscreenenter"",""1"",""2199""
","
","
","""event"",""trial"",""time""
""fullscreenenter"",""1"",""2199""
","
","","","716.6000000014901","","","15","15545","6222","r","elianto","#3366ff99"," "," ","1","+10","[1566.7999999970198]","1","2","","","15545","139","8","1","win","go","0"
"pit-trial","258","1482063","0.0-144.0","battery-v0.2","","""event"",""trial"",""time""
""fullscreenenter"",""1"",""2199""
","
","
","""event"",""trial"",""time""
""fullscreenenter"",""1"",""2199""
","
","","","-1","","","15","15545","6222","y","elianto","#f73b6a7A","-1","-1","1","0","[]","0","2","","","15545","140","7","4","lose","no-go","0"
"pit-instructions","259","1502346","0.0-145.0","battery-v0.2","","""event"",""trial"",""time""
""fullscreenenter"",""1"",""2199""
","
","
","""event"",""trial"",""time""
""fullscreenenter"",""1"",""2199""
","
","","[{""page_index"":0,""viewing_time"":8055.29999999702},{""page_index"":1,""viewing_time"":12220.80000000447}]","20277.29999999702","","","","","","","","","","","","","","","","","","","","","","","",""
"pit-trial","260","1506461","0.0-146.0","battery-v0.2","","""event"",""trial"",""time""
""fullscreenenter"",""1"",""2199""
","
","
","""event"",""trial"",""time""
""fullscreenenter"",""1"",""2199""
","
","","","1246.4000000059605","","","15","15545","6222","a","elianto","#f73b6a7A","-1"," ","0","-10","[2098.7000000029802]","1","3","","","15545","141","2","4","lose","no-go","0"
"pit-trial","261","1510032","0.0-147.0","battery-v0.2","","""event"",""trial"",""time""
""fullscreenenter"",""1"",""2199""
","
","
","""event"",""trial"",""time""
""fullscreenenter"",""1"",""2199""
","
","","","710.3999999985099","","","15","15545","6222","u","elianto","#f73b6a7A","-1"," ","0","0","[1564.5]","1","3","","","15545","142","0","4","lose","no-go","1"
"pit-trial","262","1513603","0.0-148.0","battery-v0.2","","""event"",""trial"",""time""
""fullscreenenter"",""1"",""2199""
","
","
","""event"",""trial"",""time""
""fullscreenenter"",""1"",""2199""
","
","","","713.5","","","15","15545","6222","g","elianto","#f73b6a7A"," "," ","1","0","[1563.8999999985099]","1","3","","","15545","143","3","3","lose","go","0"
"pit-trial","263","1518460","0.0-149.0","battery-v0.2","","""event"",""trial"",""time""
""fullscreenenter"",""1"",""2199""
","
","
","""event"",""trial"",""time""
""fullscreenenter"",""1"",""2199""
","
","","","-1","","","15","15545","6222","l","elianto","#3366ff99"," ","-1","0","0","[]","0","3","","","15545","144","1","1","win","go","0"
"pit-trial","264","1522382","0.0-150.0","battery-v0.2","","""event"",""trial"",""time""
""fullscreenenter"",""1"",""2199""
","
","
","""event"",""trial"",""time""
""fullscreenenter"",""1"",""2199""
","
","","","1065.3999999985099","","","15","15545","6222","g","elianto","#f73b6a7A"," "," ","1","0","[1915.5]","1","3","","","15545","145","3","3","lose","go","0"
"pit-trial","265","1525892","0.0-151.0","battery-v0.2","","""event"",""trial"",""time""
""fullscreenenter"",""1"",""2199""
","
","
","""event"",""trial"",""time""
""fullscreenenter"",""1"",""2199""
","
","","","652.7999999970198","","","15","15545","6222","l","elianto","#3366ff99"," "," ","1","+10","[1503.1000000014901]","1","3","","","15545","146","1","1","win","go","0"
