"trial_type","trial_index","time_elapsed","internal_node_id","task_version","subject_id","interactions","blur_events","focus_events","fullscreenenter_events","fullscreenexit_events","success","view_history","rt","responses","num_errors","age","subject","participantId","rune","rune_set","hex","correct","choice","accuracy","outcome","keys","total_keys","block","practice","value","sub","trial","stimulus","robot","valence","action","sham"
"pavlovia","0","29","0.0-0.0","battery-v0.2","","""event"",""trial"",""time""
""fullscreenenter"",""1"",""8702""
","
","
","""event"",""trial"",""time""
""fullscreenenter"",""1"",""8702""
","
","","","","","","","","","","","","","","","","","","","","","","","","","","",""
"fullscreen","1","9687","0.0-1.0","battery-v0.2","","""event"",""trial"",""time""
""fullscreenenter"",""1"",""8702""
","
","
","""event"",""trial"",""time""
""fullscreenenter"",""1"",""8702""
","
","true","","","","","","","","","","","","","","","","","","","","","","","","","",""
"pit-instructions","2","18028","0.0-2.0-0.0","battery-v0.2","","""event"",""trial"",""time""
""fullscreenenter"",""1"",""8702""
","
","
","""event"",""trial"",""time""
""fullscreenenter"",""1"",""8702""
","
","","[{""page_index"":0,""viewing_time"":8329.599999999627}]","8331.39999999851","","","","","","","","","","","","","","","","","","","","","","","",""
"pit-comprehension","3","26746","0.0-2.0-1.0-0.0","battery-v0.2","","""event"",""trial"",""time""
""fullscreenenter"",""1"",""8702""
","
","
","""event"",""trial"",""time""
""fullscreenenter"",""1"",""8702""
","
","","","8698.800000000745","[""shark""]","0","13","9835","4533","","","","","","","","","","","","","","","","","","",""
"pit-instructions","4","29137","0.0-2.0-1.0-1.0","battery-v0.2","","""event"",""trial"",""time""
""fullscreenenter"",""1"",""8702""
","
","
","""event"",""trial"",""time""
""fullscreenenter"",""1"",""8702""
","
","","[{""page_index"":0,""viewing_time"":2370.7000000011176}]","2372.0999999996275","","","","","","","","","","","","","","","","","","","","","","","",""
"pit-comprehension","5","35009","0.0-2.0-2.0-0.0","battery-v0.2","","""event"",""trial"",""time""
""fullscreenenter"",""1"",""8702""
","
","
","""event"",""trial"",""time""
""fullscreenenter"",""1"",""8702""
","
","","","5851.700000001118","[""tiger""]","0","13","9835","4533","","","","","","","","","","","","","","","","","","",""
"pit-instructions","6","37870","0.0-2.0-2.0-1.0","battery-v0.2","","""event"",""trial"",""time""
""fullscreenenter"",""1"",""8702""
","
","
","""event"",""trial"",""time""
""fullscreenenter"",""1"",""8702""
","
","","[{""page_index"":0,""viewing_time"":2845.5}]","2846.699999999255","","","","","","","","","","","","","","","","","","","","","","","",""
"pit-instructions","7","161553","0.0-2.0-3.0","battery-v0.2","","""event"",""trial"",""time""
""fullscreenenter"",""1"",""8702""
","
","
","""event"",""trial"",""time""
""fullscreenenter"",""1"",""8702""
","
","","[{""page_index"":0,""viewing_time"":10395.5},{""page_index"":1,""viewing_time"":10025.699999999255},{""page_index"":2,""viewing_time"":7189.700000001118},{""page_index"":3,""viewing_time"":6239.5},{""page_index"":4,""viewing_time"":6934.5},{""page_index"":5,""viewing_time"":8785},{""page_index"":6,""viewing_time"":8528.599999999627},{""page_index"":7,""viewing_time"":8518.699999999255},{""page_index"":8,""viewing_time"":9599.300000000745},{""page_index"":9,""viewing_time"":10797.199999999255},{""page_index"":10,""viewing_time"":9529},{""page_index"":11,""viewing_time"":12846.099999999627},{""page_index"":12,""viewing_time"":6578},{""page_index"":13,""viewing_time"":7702.10000000149}]","123670.5","","","","","","","","","","","","","","","","","","","","","","","",""
"pit-trial","8","165465","0.0-2.0-4.0-0.0","battery-v0.2","","""event"",""trial"",""time""
""fullscreenenter"",""1"",""8702""
","
","
","""event"",""trial"",""time""
""fullscreenenter"",""1"",""8702""
","
","","","1044.0999999996275","","","13","9835","4533","&#9784;","elianto","#FFFFF080"," "," ","1","&#10004","[1898.300000000745]","1","0","0","","","","","","","",""
"pit-trial","9","169145","0.0-2.0-4.1-0.1","battery-v0.2","","""event"",""trial"",""time""
""fullscreenenter"",""1"",""8702""
","
","
","""event"",""trial"",""time""
""fullscreenenter"",""1"",""8702""
","
","","","810.4000000003725","","","13","9835","4533","&#9784;","elianto","#FFFFF080"," "," ","1","&#10004","[1664.2000000011176]","1","0","0","","","","","","","",""
"pit-trial","10","172896","0.0-2.0-4.2-0.2","battery-v0.2","","""event"",""trial"",""time""
""fullscreenenter"",""1"",""8702""
","
","
","""event"",""trial"",""time""
""fullscreenenter"",""1"",""8702""
","
","","","887.3999999985099","","","13","9835","4533","&#9784;","elianto","#FFFFF080"," "," ","1","&#10004","[1741.300000000745]","1","0","0","","","","","","","",""
"pit-trial","11","176792","0.0-2.0-4.3-0.3","battery-v0.2","","""event"",""trial"",""time""
""fullscreenenter"",""1"",""8702""
","
","
","""event"",""trial"",""time""
""fullscreenenter"",""1"",""8702""
","
","","","1031.9000000003725","","","13","9835","4533","&#9784;","elianto","#FFFFF080"," "," ","1","&#10004","[1884.800000000745]","1","0","0","","","","","","","",""
"pit-trial","12","180401","0.0-2.0-4.4-0.4","battery-v0.2","","""event"",""trial"",""time""
""fullscreenenter"",""1"",""8702""
","
","
","""event"",""trial"",""time""
""fullscreenenter"",""1"",""8702""
","
","","","746","","","13","9835","4533","&#9784;","elianto","#FFFFF080"," "," ","1","&#10004","[1596.300000000745]","1","0","0","","","","","","","",""
"pit-instructions","13","205487","0.0-2.0-5.0","battery-v0.2","","""event"",""trial"",""time""
""fullscreenenter"",""1"",""8702""
","
","
","""event"",""trial"",""time""
""fullscreenenter"",""1"",""8702""
","
","","[{""page_index"":0,""viewing_time"":5564.39999999851},{""page_index"":1,""viewing_time"":6922.700000001118},{""page_index"":2,""viewing_time"":6692},{""page_index"":3,""viewing_time"":5895.5999999996275}]","25076.099999999627","","","","","","","","","","","","","","","","","","","","","","","",""
"pit-trial","14","210361","0.0-2.0-6.0-0.0","battery-v0.2","","""event"",""trial"",""time""
""fullscreenenter"",""1"",""8702""
","
","
","""event"",""trial"",""time""
""fullscreenenter"",""1"",""8702""
","
","","","-1","","","13","9835","4533","&#9854;","elianto","#FFFFF080","-1","-1","1","&#10004","[]","0","0","1","","","","","","","",""
"pit-trial","15","215232","0.0-2.0-6.1-0.1","battery-v0.2","","""event"",""trial"",""time""
""fullscreenenter"",""1"",""8702""
","
","
","""event"",""trial"",""time""
""fullscreenenter"",""1"",""8702""
","
","","","-1","","","13","9835","4533","&#9854;","elianto","#FFFFF080","-1","-1","1","&#10004","[]","0","0","1","","","","","","","",""
"pit-trial","16","220096","0.0-2.0-6.2-0.2","battery-v0.2","","""event"",""trial"",""time""
""fullscreenenter"",""1"",""8702""
","
","
","""event"",""trial"",""time""
""fullscreenenter"",""1"",""8702""
","
","","","-1","","","13","9835","4533","&#9854;","elianto","#FFFFF080","-1","-1","1","&#10004","[]","0","0","1","","","","","","","",""
"pit-trial","17","224969","0.0-2.0-6.3-0.3","battery-v0.2","","""event"",""trial"",""time""
""fullscreenenter"",""1"",""8702""
","
","
","""event"",""trial"",""time""
""fullscreenenter"",""1"",""8702""
","
","","","-1","","","13","9835","4533","&#9854;","elianto","#FFFFF080","-1","-1","1","&#10004","[]","0","0","1","","","","","","","",""
"pit-trial","18","229841","0.0-2.0-6.4-0.4","battery-v0.2","","""event"",""trial"",""time""
""fullscreenenter"",""1"",""8702""
","
","
","""event"",""trial"",""time""
""fullscreenenter"",""1"",""8702""
","
","","","-1","","","13","9835","4533","&#9854;","elianto","#FFFFF080","-1","-1","1","&#10004","[]","0","0","1","","","","","","","",""
"pit-instructions","19","373699","0.0-2.0-7.0","battery-v0.2","","""event"",""trial"",""time""
""fullscreenenter"",""1"",""8702""
","
","
","""event"",""trial"",""time""
""fullscreenenter"",""1"",""8702""
","
","","[{""page_index"":0,""viewing_time"":9169.400000000373},{""page_index"":1,""viewing_time"":9335.300000000745},{""page_index"":2,""viewing_time"":7204.5999999996275},{""page_index"":3,""viewing_time"":7589.799999998882},{""page_index"":4,""viewing_time"":7091.800000000745},{""page_index"":5,""viewing_time"":6365.5},{""page_index"":6,""viewing_time"":7375.5999999996275},{""page_index"":7,""viewing_time"":9254.800000000745},{""page_index"":8,""viewing_time"":9103.400000000373},{""page_index"":9,""viewing_time"":8129},{""page_index"":10,""viewing_time"":7271.0999999996275},{""page_index"":11,""viewing_time"":5788.4000000003725},{""page_index"":12,""viewing_time"":11162.89999999851},{""page_index"":13,""viewing_time"":7819},{""page_index"":14,""viewing_time"":7871.9000000003725},{""page_index"":15,""viewing_time"":7190.5},{""page_index"":16,""viewing_time"":7712.4000000003725},{""page_index"":17,""viewing_time"":8403.400000000373}]","143840.09999999963","","","","","","","","","","","","","","","","","","","","","","","",""
"pit-trial","20","377377","0.0-2.0-8.0-0.0","battery-v0.2","","""event"",""trial"",""time""
""fullscreenenter"",""1"",""8702""
","
","
","""event"",""trial"",""time""
""fullscreenenter"",""1"",""8702""
","
","","","805.9000000003725","","","13","9835","4533","&#9776;","elianto","#3366ff99"," "," ","1","+10","[1662.5999999996275]","1","0","1","","","","","","","",""
"pit-trial","21","381032","0.0-2.0-8.0-1.0","battery-v0.2","","""event"",""trial"",""time""
""fullscreenenter"",""1"",""8702""
","
","
","""event"",""trial"",""time""
""fullscreenenter"",""1"",""8702""
","
","","","790.2999999988824","","","13","9835","4533","&#9776;","elianto","#3366ff99"," "," ","1","+10","[1646.7999999988824]","1","0","1","","","","","","","",""
"pit-trial","22","384584","0.0-2.0-8.0-2.0","battery-v0.2","","""event"",""trial"",""time""
""fullscreenenter"",""1"",""8702""
","
","
","""event"",""trial"",""time""
""fullscreenenter"",""1"",""8702""
","
","","","684","","","13","9835","4533","&#9776;","elianto","#3366ff99"," "," ","1","+10","[1541.300000000745]","1","0","1","","","","","","","",""
"pit-trial","23","388144","0.0-2.0-8.0-3.0","battery-v0.2","","""event"",""trial"",""time""
""fullscreenenter"",""1"",""8702""
","
","
","""event"",""trial"",""time""
""fullscreenenter"",""1"",""8702""
","
","","","700.3999999985099","","","13","9835","4533","&#9776;","elianto","#3366ff99"," "," ","1","0","[1550.5]","1","0","1","","","","","","","",""
"pit-trial","24","391881","0.0-2.0-8.0-4.0","battery-v0.2","","""event"",""trial"",""time""
""fullscreenenter"",""1"",""8702""
","
","
","""event"",""trial"",""time""
""fullscreenenter"",""1"",""8702""
","
","","","875.8000000007451","","","13","9835","4533","&#9776;","elianto","#3366ff99"," "," ","1","+10","[1727.300000000745]","1","0","1","","","","","","","",""
"pit-trial","25","395592","0.0-2.0-8.1-0.1","battery-v0.2","","""event"",""trial"",""time""
""fullscreenenter"",""1"",""8702""
","
","
","""event"",""trial"",""time""
""fullscreenenter"",""1"",""8702""
","
","","","839.1000000014901","","","13","9835","4533","&#9776;","elianto","#3366ff99"," "," ","1","+10","[1694.3999999985099]","1","0","1","","","","","","","",""
"pit-trial","26","399169","0.0-2.0-8.1-1.1","battery-v0.2","","""event"",""trial"",""time""
""fullscreenenter"",""1"",""8702""
","
","
","""event"",""trial"",""time""
""fullscreenenter"",""1"",""8702""
","
","","","707.8000000007451","","","13","9835","4533","&#9776;","elianto","#3366ff99"," "," ","1","+10","[1566]","1","0","1","","","","","","","",""
"pit-trial","27","402776","0.0-2.0-8.1-2.1","battery-v0.2","","""event"",""trial"",""time""
""fullscreenenter"",""1"",""8702""
","
","
","""event"",""trial"",""time""
""fullscreenenter"",""1"",""8702""
","
","","","748.7999999988824","","","13","9835","4533","&#9776;","elianto","#3366ff99"," "," ","1","+10","[1599.800000000745]","1","0","1","","","","","","","",""
"pit-trial","28","406344","0.0-2.0-8.1-3.1","battery-v0.2","","""event"",""trial"",""time""
""fullscreenenter"",""1"",""8702""
","
","
","""event"",""trial"",""time""
""fullscreenenter"",""1"",""8702""
","
","","","704.4000000003725","","","13","9835","4533","&#9776;","elianto","#3366ff99"," "," ","1","0","[1558.2000000011176]","1","0","1","","","","","","","",""
"pit-trial","29","409880","0.0-2.0-8.1-4.1","battery-v0.2","","""event"",""trial"",""time""
""fullscreenenter"",""1"",""8702""
","
","
","""event"",""trial"",""time""
""fullscreenenter"",""1"",""8702""
","
","","","664.2999999988824","","","13","9835","4533","&#9776;","elianto","#3366ff99"," "," ","1","+10","[1522.0999999996275]","1","0","1","","","","","","","",""
"pit-trial","30","413448","0.0-2.0-8.2-0.2","battery-v0.2","","""event"",""trial"",""time""
""fullscreenenter"",""1"",""8702""
","
","
","""event"",""trial"",""time""
""fullscreenenter"",""1"",""8702""
","
","","","695.3000000007451","","","13","9835","4533","&#9776;","elianto","#3366ff99"," "," ","1","+10","[1551.7000000011176]","1","0","1","","","","","","","",""
"pit-trial","31","417024","0.0-2.0-8.2-1.2","battery-v0.2","","""event"",""trial"",""time""
""fullscreenenter"",""1"",""8702""
","
","
","""event"",""trial"",""time""
""fullscreenenter"",""1"",""8702""
","
","","","714.9000000003725","","","13","9835","4533","&#9776;","elianto","#3366ff99"," "," ","1","+10","[1566.6000000014901]","1","0","1","","","","","","","",""
"pit-trial","32","420553","0.0-2.0-8.2-2.2","battery-v0.2","","""event"",""trial"",""time""
""fullscreenenter"",""1"",""8702""
","
","
","""event"",""trial"",""time""
""fullscreenenter"",""1"",""8702""
","
","","","659.5","","","13","9835","4533","&#9776;","elianto","#3366ff99"," "," ","1","+10","[1514.5999999996275]","1","0","1","","","","","","","",""
"pit-trial","33","424336","0.0-2.0-8.2-3.2","battery-v0.2","","""event"",""trial"",""time""
""fullscreenenter"",""1"",""8702""
","
","
","""event"",""trial"",""time""
""fullscreenenter"",""1"",""8702""
","
","","","919.2000000011176","","","13","9835","4533","&#9776;","elianto","#3366ff99"," "," ","1","0","[1773.300000000745]","1","0","1","","","","","","","",""
"pit-trial","34","428120","0.0-2.0-8.2-4.2","battery-v0.2","","""event"",""trial"",""time""
""fullscreenenter"",""1"",""8702""
","
","
","""event"",""trial"",""time""
""fullscreenenter"",""1"",""8702""
","
","","","918.1999999992549","","","13","9835","4533","&#9776;","elianto","#3366ff99"," "," ","1","+10","[1775.800000000745]","1","0","1","","","","","","","",""
"call-function","35","428126","0.0-2.0-9.0","battery-v0.2","","""event"",""trial"",""time""
""fullscreenenter"",""1"",""8702""
","
","
","""event"",""trial"",""time""
""fullscreenenter"",""1"",""8702""
","
","","","","","","","","","","","","","","","","","","","","","","","","","","",""
"pit-instructions","36","471873","0.0-2.0-10.0","battery-v0.2","","""event"",""trial"",""time""
""fullscreenenter"",""1"",""8702""
","
","
","""event"",""trial"",""time""
""fullscreenenter"",""1"",""8702""
","
","","[{""page_index"":0,""viewing_time"":7124.89999999851},{""page_index"":1,""viewing_time"":7580.4000000003725},{""page_index"":2,""viewing_time"":9775.200000001118},{""page_index"":3,""viewing_time"":10460.299999998882},{""page_index"":4,""viewing_time"":8802.400000000373}]","43744.5","","","","","","","","","","","","","","","","","","","","","","","",""
"pit-trial","37","475593","0.0-2.0-11.0-0.0","battery-v0.2","","""event"",""trial"",""time""
""fullscreenenter"",""1"",""8702""
","
","
","""event"",""trial"",""time""
""fullscreenenter"",""1"",""8702""
","
","","","850.3999999985099","","","13","9835","4533","&#9761;","elianto","#3366ff99","-1"," ","0","0","[1705.4000000003725]","1","0","2","","","","","","","",""
"pit-trial","38","479760","0.0-2.0-11.0-1.0","battery-v0.2","","""event"",""trial"",""time""
""fullscreenenter"",""1"",""8702""
","
","
","""event"",""trial"",""time""
""fullscreenenter"",""1"",""8702""
","
","","","1299","","","13","9835","4533","&#9761;","elianto","#3366ff99","-1"," ","0","0","[2153.9000000003725]","1","0","2","","","","","","","",""
"pit-trial","39","483560","0.0-2.0-11.0-2.0","battery-v0.2","","""event"",""trial"",""time""
""fullscreenenter"",""1"",""8702""
","
","
","""event"",""trial"",""time""
""fullscreenenter"",""1"",""8702""
","
","","","927.7999999988824","","","13","9835","4533","&#9761;","elianto","#3366ff99","-1"," ","0","0","[1785.2999999988824]","1","0","2","","","","","","","",""
"pit-trial","40","488432","0.0-2.0-11.0-3.0","battery-v0.2","","""event"",""trial"",""time""
""fullscreenenter"",""1"",""8702""
","
","
","""event"",""trial"",""time""
""fullscreenenter"",""1"",""8702""
","
","","","-1","","","13","9835","4533","&#9761;","elianto","#3366ff99","-1","-1","1","0","[]","0","0","2","","","","","","","",""
"pit-trial","41","493305","0.0-2.0-11.0-4.0","battery-v0.2","","""event"",""trial"",""time""
""fullscreenenter"",""1"",""8702""
","
","
","""event"",""trial"",""time""
""fullscreenenter"",""1"",""8702""
","
","","","-1","","","13","9835","4533","&#9761;","elianto","#3366ff99","-1","-1","1","+10","[]","0","0","2","","","","","","","",""
"pit-trial","42","498176","0.0-2.0-11.1-0.1","battery-v0.2","","""event"",""trial"",""time""
""fullscreenenter"",""1"",""8702""
","
","
","""event"",""trial"",""time""
""fullscreenenter"",""1"",""8702""
","
","","","-1","","","13","9835","4533","&#9761;","elianto","#3366ff99","-1","-1","1","+10","[]","0","0","2","","","","","","","",""
"pit-trial","43","503048","0.0-2.0-11.1-1.1","battery-v0.2","","""event"",""trial"",""time""
""fullscreenenter"",""1"",""8702""
","
","
","""event"",""trial"",""time""
""fullscreenenter"",""1"",""8702""
","
","","","-1","","","13","9835","4533","&#9761;","elianto","#3366ff99","-1","-1","1","+10","[]","0","0","2","","","","","","","",""
"pit-trial","44","507921","0.0-2.0-11.1-2.1","battery-v0.2","","""event"",""trial"",""time""
""fullscreenenter"",""1"",""8702""
","
","
","""event"",""trial"",""time""
""fullscreenenter"",""1"",""8702""
","
","","","-1","","","13","9835","4533","&#9761;","elianto","#3366ff99","-1","-1","1","+10","[]","0","0","2","","","","","","","",""
"pit-trial","45","512792","0.0-2.0-11.1-3.1","battery-v0.2","","""event"",""trial"",""time""
""fullscreenenter"",""1"",""8702""
","
","
","""event"",""trial"",""time""
""fullscreenenter"",""1"",""8702""
","
","","","-1","","","13","9835","4533","&#9761;","elianto","#3366ff99","-1","-1","1","0","[]","0","0","2","","","","","","","",""
"pit-trial","46","517665","0.0-2.0-11.1-4.1","battery-v0.2","","""event"",""trial"",""time""
""fullscreenenter"",""1"",""8702""
","
","
","""event"",""trial"",""time""
""fullscreenenter"",""1"",""8702""
","
","","","-1","","","13","9835","4533","&#9761;","elianto","#3366ff99","-1","-1","1","+10","[]","0","0","2","","","","","","","",""
"pit-trial","47","522536","0.0-2.0-11.2-0.2","battery-v0.2","","""event"",""trial"",""time""
""fullscreenenter"",""1"",""8702""
","
","
","""event"",""trial"",""time""
""fullscreenenter"",""1"",""8702""
","
","","","-1","","","13","9835","4533","&#9761;","elianto","#3366ff99","-1","-1","1","+10","[]","0","0","2","","","","","","","",""
"pit-trial","48","527408","0.0-2.0-11.2-1.2","battery-v0.2","","""event"",""trial"",""time""
""fullscreenenter"",""1"",""8702""
","
","
","""event"",""trial"",""time""
""fullscreenenter"",""1"",""8702""
","
","","","-1","","","13","9835","4533","&#9761;","elianto","#3366ff99","-1","-1","1","+10","[]","0","0","2","","","","","","","",""
"pit-trial","49","532280","0.0-2.0-11.2-2.2","battery-v0.2","","""event"",""trial"",""time""
""fullscreenenter"",""1"",""8702""
","
","
","""event"",""trial"",""time""
""fullscreenenter"",""1"",""8702""
","
","","","-1","","","13","9835","4533","&#9761;","elianto","#3366ff99","-1","-1","1","+10","[]","0","0","2","","","","","","","",""
"pit-trial","50","537153","0.0-2.0-11.2-3.2","battery-v0.2","","""event"",""trial"",""time""
""fullscreenenter"",""1"",""8702""
","
","
","""event"",""trial"",""time""
""fullscreenenter"",""1"",""8702""
","
","","","-1","","","13","9835","4533","&#9761;","elianto","#3366ff99","-1","-1","1","0","[]","0","0","2","","","","","","","",""
"pit-trial","51","542025","0.0-2.0-11.2-4.2","battery-v0.2","","""event"",""trial"",""time""
""fullscreenenter"",""1"",""8702""
","
","
","""event"",""trial"",""time""
""fullscreenenter"",""1"",""8702""
","
","","","-1","","","13","9835","4533","&#9761;","elianto","#3366ff99","-1","-1","1","+10","[]","0","0","2","","","","","","","",""
"pit-trial","52","546896","0.0-2.0-11.3-0.3","battery-v0.2","","""event"",""trial"",""time""
""fullscreenenter"",""1"",""8702""
","
","
","""event"",""trial"",""time""
""fullscreenenter"",""1"",""8702""
","
","","","-1","","","13","9835","4533","&#9761;","elianto","#3366ff99","-1","-1","1","+10","[]","0","0","2","","","","","","","",""
"pit-trial","53","551768","0.0-2.0-11.3-1.3","battery-v0.2","","""event"",""trial"",""time""
""fullscreenenter"",""1"",""8702""
","
","
","""event"",""trial"",""time""
""fullscreenenter"",""1"",""8702""
","
","","","-1","","","13","9835","4533","&#9761;","elianto","#3366ff99","-1","-1","1","+10","[]","0","0","2","","","","","","","",""
"pit-trial","54","556640","0.0-2.0-11.3-2.3","battery-v0.2","","""event"",""trial"",""time""
""fullscreenenter"",""1"",""8702""
","
","
","""event"",""trial"",""time""
""fullscreenenter"",""1"",""8702""
","
","","","-1","","","13","9835","4533","&#9761;","elianto","#3366ff99","-1","-1","1","+10","[]","0","0","2","","","","","","","",""
"pit-trial","55","561512","0.0-2.0-11.3-3.3","battery-v0.2","","""event"",""trial"",""time""
""fullscreenenter"",""1"",""8702""
","
","
","""event"",""trial"",""time""
""fullscreenenter"",""1"",""8702""
","
","","","-1","","","13","9835","4533","&#9761;","elianto","#3366ff99","-1","-1","1","0","[]","0","0","2","","","","","","","",""
"pit-trial","56","566376","0.0-2.0-11.3-4.3","battery-v0.2","","""event"",""trial"",""time""
""fullscreenenter"",""1"",""8702""
","
","
","""event"",""trial"",""time""
""fullscreenenter"",""1"",""8702""
","
","","","-1","","","13","9835","4533","&#9761;","elianto","#3366ff99","-1","-1","1","+10","[]","0","0","2","","","","","","","",""
"call-function","57","566383","0.0-2.0-12.0","battery-v0.2","","""event"",""trial"",""time""
""fullscreenenter"",""1"",""8702""
","
","
","""event"",""trial"",""time""
""fullscreenenter"",""1"",""8702""
","
","","","","","","","","","","","","","","","","","","","","","","","","","","",""
"pit-instructions","58","612770","0.0-2.0-13.0","battery-v0.2","","""event"",""trial"",""time""
""fullscreenenter"",""1"",""8702""
","
","
","""event"",""trial"",""time""
""fullscreenenter"",""1"",""8702""
","
","","[{""page_index"":0,""viewing_time"":5595},{""page_index"":1,""viewing_time"":9895.099999999627},{""page_index"":2,""viewing_time"":7196.5999999996275},{""page_index"":3,""viewing_time"":12836.699999999255},{""page_index"":4,""viewing_time"":10860.10000000149}]","46384.59999999963","","","","","","","","","","","","","","","","","","","","","","","",""
"pit-trial","59","616592","0.0-2.0-14.0-0.0","battery-v0.2","","""event"",""trial"",""time""
""fullscreenenter"",""1"",""8702""
","
","
","""event"",""trial"",""time""
""fullscreenenter"",""1"",""8702""
","
","","","961.5999999996275","","","13","9835","4533","&#9826;","elianto","#f73b6a7A","-1"," ","0","-10","[1816.0999999996275]","1","0","3","","","","","","","",""
"pit-trial","60","621473","0.0-2.0-14.0-1.0","battery-v0.2","","""event"",""trial"",""time""
""fullscreenenter"",""1"",""8702""
","
","
","""event"",""trial"",""time""
""fullscreenenter"",""1"",""8702""
","
","","","-1","","","13","9835","4533","&#9826;","elianto","#f73b6a7A","-1","-1","1","0","[]","0","0","3","","","","","","","",""
"pit-trial","61","626344","0.0-2.0-14.0-2.0","battery-v0.2","","""event"",""trial"",""time""
""fullscreenenter"",""1"",""8702""
","
","
","""event"",""trial"",""time""
""fullscreenenter"",""1"",""8702""
","
","","","-1","","","13","9835","4533","&#9826;","elianto","#f73b6a7A","-1","-1","1","0","[]","0","0","3","","","","","","","",""
"pit-trial","62","631217","0.0-2.0-14.0-3.0","battery-v0.2","","""event"",""trial"",""time""
""fullscreenenter"",""1"",""8702""
","
","
","""event"",""trial"",""time""
""fullscreenenter"",""1"",""8702""
","
","","","-1","","","13","9835","4533","&#9826;","elianto","#f73b6a7A","-1","-1","1","-10","[]","0","0","3","","","","","","","",""
"pit-trial","63","636089","0.0-2.0-14.0-4.0","battery-v0.2","","""event"",""trial"",""time""
""fullscreenenter"",""1"",""8702""
","
","
","""event"",""trial"",""time""
""fullscreenenter"",""1"",""8702""
","
","","","-1","","","13","9835","4533","&#9826;","elianto","#f73b6a7A","-1","-1","1","0","[]","0","0","3","","","","","","","",""
"pit-trial","64","640192","0.0-2.0-14.1-0.1","battery-v0.2","","""event"",""trial"",""time""
""fullscreenenter"",""1"",""8702""
","
","
","""event"",""trial"",""time""
""fullscreenenter"",""1"",""8702""
","
","","","1234.2999999988824","","","13","9835","4533","&#9826;","elianto","#f73b6a7A","-1"," ","0","-10","[2084.699999999255]","1","0","3","","","","","","","",""
"pit-trial","65","643720","0.0-2.0-14.1-1.1","battery-v0.2","","""event"",""trial"",""time""
""fullscreenenter"",""1"",""8702""
","
","
","""event"",""trial"",""time""
""fullscreenenter"",""1"",""8702""
","
","","","667.1999999992549","","","13","9835","4533","&#9826;","elianto","#f73b6a7A","-1"," ","0","-10","[1519.9000000003725]","1","0","3","","","","","","","",""
"pit-trial","66","648592","0.0-2.0-14.1-2.1","battery-v0.2","","""event"",""trial"",""time""
""fullscreenenter"",""1"",""8702""
","
","
","""event"",""trial"",""time""
""fullscreenenter"",""1"",""8702""
","
","","","-1","","","13","9835","4533","&#9826;","elianto","#f73b6a7A","-1","-1","1","0","[]","0","0","3","","","","","","","",""
"pit-trial","67","653465","0.0-2.0-14.1-3.1","battery-v0.2","","""event"",""trial"",""time""
""fullscreenenter"",""1"",""8702""
","
","
","""event"",""trial"",""time""
""fullscreenenter"",""1"",""8702""
","
","","","-1","","","13","9835","4533","&#9826;","elianto","#f73b6a7A","-1","-1","1","-10","[]","0","0","3","","","","","","","",""
"pit-trial","68","658328","0.0-2.0-14.1-4.1","battery-v0.2","","""event"",""trial"",""time""
""fullscreenenter"",""1"",""8702""
","
","
","""event"",""trial"",""time""
""fullscreenenter"",""1"",""8702""
","
","","","-1","","","13","9835","4533","&#9826;","elianto","#f73b6a7A","-1","-1","1","0","[]","0","0","3","","","","","","","",""
"pit-trial","69","663200","0.0-2.0-14.2-0.2","battery-v0.2","","""event"",""trial"",""time""
""fullscreenenter"",""1"",""8702""
","
","
","""event"",""trial"",""time""
""fullscreenenter"",""1"",""8702""
","
","","","-1","","","13","9835","4533","&#9826;","elianto","#f73b6a7A","-1","-1","1","0","[]","0","0","3","","","","","","","",""
"pit-trial","70","668064","0.0-2.0-14.2-1.2","battery-v0.2","","""event"",""trial"",""time""
""fullscreenenter"",""1"",""8702""
","
","
","""event"",""trial"",""time""
""fullscreenenter"",""1"",""8702""
","
","","","-1","","","13","9835","4533","&#9826;","elianto","#f73b6a7A","-1","-1","1","0","[]","0","0","3","","","","","","","",""
"pit-trial","71","672928","0.0-2.0-14.2-2.2","battery-v0.2","","""event"",""trial"",""time""
""fullscreenenter"",""1"",""8702""
","
","
","""event"",""trial"",""time""
""fullscreenenter"",""1"",""8702""
","
","","","-1","","","13","9835","4533","&#9826;","elianto","#f73b6a7A","-1","-1","1","0","[]","0","0","3","","","","","","","",""
"pit-trial","72","677800","0.0-2.0-14.2-3.2","battery-v0.2","","""event"",""trial"",""time""
""fullscreenenter"",""1"",""8702""
","
","
","""event"",""trial"",""time""
""fullscreenenter"",""1"",""8702""
","
","","","-1","","","13","9835","4533","&#9826;","elianto","#f73b6a7A","-1","-1","1","-10","[]","0","0","3","","","","","","","",""
"pit-trial","73","682672","0.0-2.0-14.2-4.2","battery-v0.2","","""event"",""trial"",""time""
""fullscreenenter"",""1"",""8702""
","
","
","""event"",""trial"",""time""
""fullscreenenter"",""1"",""8702""
","
","","","-1","","","13","9835","4533","&#9826;","elianto","#f73b6a7A","-1","-1","1","0","[]","0","0","3","","","","","","","",""
"pit-trial","74","687544","0.0-2.0-14.3-0.3","battery-v0.2","","""event"",""trial"",""time""
""fullscreenenter"",""1"",""8702""
","
","
","""event"",""trial"",""time""
""fullscreenenter"",""1"",""8702""
","
","","","-1","","","13","9835","4533","&#9826;","elianto","#f73b6a7A","-1","-1","1","0","[]","0","0","3","","","","","","","",""
"pit-trial","75","692417","0.0-2.0-14.3-1.3","battery-v0.2","","""event"",""trial"",""time""
""fullscreenenter"",""1"",""8702""
","
","
","""event"",""trial"",""time""
""fullscreenenter"",""1"",""8702""
","
","","","-1","","","13","9835","4533","&#9826;","elianto","#f73b6a7A","-1","-1","1","0","[]","0","0","3","","","","","","","",""
"pit-trial","76","697288","0.0-2.0-14.3-2.3","battery-v0.2","","""event"",""trial"",""time""
""fullscreenenter"",""1"",""8702""
","
","
","""event"",""trial"",""time""
""fullscreenenter"",""1"",""8702""
","
","","","-1","","","13","9835","4533","&#9826;","elianto","#f73b6a7A","-1","-1","1","0","[]","0","0","3","","","","","","","",""
"pit-trial","77","702161","0.0-2.0-14.3-3.3","battery-v0.2","","""event"",""trial"",""time""
""fullscreenenter"",""1"",""8702""
","
","
","""event"",""trial"",""time""
""fullscreenenter"",""1"",""8702""
","
","","","-1","","","13","9835","4533","&#9826;","elianto","#f73b6a7A","-1","-1","1","-10","[]","0","0","3","","","","","","","",""
"pit-trial","78","707032","0.0-2.0-14.3-4.3","battery-v0.2","","""event"",""trial"",""time""
""fullscreenenter"",""1"",""8702""
","
","
","""event"",""trial"",""time""
""fullscreenenter"",""1"",""8702""
","
","","","-1","","","13","9835","4533","&#9826;","elianto","#f73b6a7A","-1","-1","1","0","[]","0","0","3","","","","","","","",""
"call-function","79","707038","0.0-2.0-15.0","battery-v0.2","","""event"",""trial"",""time""
""fullscreenenter"",""1"",""8702""
","
","
","""event"",""trial"",""time""
""fullscreenenter"",""1"",""8702""
","
","","","","","","","","","","","","","","","","","","","","","","","","","","",""
"pit-instructions","80","739114","0.0-2.0-16.0","battery-v0.2","","""event"",""trial"",""time""
""fullscreenenter"",""1"",""8702""
","
","
","""event"",""trial"",""time""
""fullscreenenter"",""1"",""8702""
","
","","[{""page_index"":0,""viewing_time"":7617.39999999851},{""page_index"":1,""viewing_time"":9414.700000001118},{""page_index"":2,""viewing_time"":7676},{""page_index"":3,""viewing_time"":7364.5999999996275}]","32073.89999999851","","","","","","","","","","","","","","","","","","","","","","","",""
"pit-trial","81","742912","0.0-2.0-17.0-0.0","battery-v0.2","","""event"",""trial"",""time""
""fullscreenenter"",""1"",""8702""
","
","
","""event"",""trial"",""time""
""fullscreenenter"",""1"",""8702""
","
","","","935.5","","","13","9835","4533","&#9789;","elianto","#f73b6a7A"," "," ","1","0","[1786]","1","0","4","","","","","","","",""
"pit-trial","82","746680","0.0-2.0-17.0-1.0","battery-v0.2","","""event"",""trial"",""time""
""fullscreenenter"",""1"",""8702""
","
","
","""event"",""trial"",""time""
""fullscreenenter"",""1"",""8702""
","
","","","907.7999999988824","","","13","9835","4533","&#9789;","elianto","#f73b6a7A"," "," ","1","0","[1758.199999999255]","1","0","4","","","","","","","",""
"pit-trial","83","750608","0.0-2.0-17.0-2.0","battery-v0.2","","""event"",""trial"",""time""
""fullscreenenter"",""1"",""8702""
","
","
","""event"",""trial"",""time""
""fullscreenenter"",""1"",""8702""
","
","","","1055.5999999996275","","","13","9835","4533","&#9789;","elianto","#f73b6a7A"," "," ","1","0","[1913.2000000011176]","1","0","4","","","","","","","",""
"pit-trial","84","755481","0.0-2.0-17.0-3.0","battery-v0.2","","""event"",""trial"",""time""
""fullscreenenter"",""1"",""8702""
","
","
","""event"",""trial"",""time""
""fullscreenenter"",""1"",""8702""
","
","","","-1","","","13","9835","4533","&#9789;","elianto","#f73b6a7A"," ","-1","0","0","[]","0","0","4","","","","","","","",""
"pit-trial","85","760352","0.0-2.0-17.0-4.0","battery-v0.2","","""event"",""trial"",""time""
""fullscreenenter"",""1"",""8702""
","
","
","""event"",""trial"",""time""
""fullscreenenter"",""1"",""8702""
","
","","","-1","","","13","9835","4533","&#9789;","elianto","#f73b6a7A"," ","-1","0","-10","[]","0","0","4","","","","","","","",""
"pit-trial","86","765224","0.0-2.0-17.1-0.1","battery-v0.2","","""event"",""trial"",""time""
""fullscreenenter"",""1"",""8702""
","
","
","""event"",""trial"",""time""
""fullscreenenter"",""1"",""8702""
","
","","","-1","","","13","9835","4533","&#9789;","elianto","#f73b6a7A"," ","-1","0","-10","[]","0","0","4","","","","","","","",""
"pit-trial","87","770089","0.0-2.0-17.1-1.1","battery-v0.2","","""event"",""trial"",""time""
""fullscreenenter"",""1"",""8702""
","
","
","""event"",""trial"",""time""
""fullscreenenter"",""1"",""8702""
","
","","","-1","","","13","9835","4533","&#9789;","elianto","#f73b6a7A"," ","-1","0","-10","[]","0","0","4","","","","","","","",""
"pit-trial","88","774088","0.0-2.0-17.1-2.1","battery-v0.2","","""event"",""trial"",""time""
""fullscreenenter"",""1"",""8702""
","
","
","""event"",""trial"",""time""
""fullscreenenter"",""1"",""8702""
","
","","","1130.6000000014901","","","13","9835","4533","&#9789;","elianto","#f73b6a7A"," "," ","1","0","[1988.2000000011176]","1","0","4","","","","","","","",""
"pit-trial","89","777544","0.0-2.0-17.1-3.1","battery-v0.2","","""event"",""trial"",""time""
""fullscreenenter"",""1"",""8702""
","
","
","""event"",""trial"",""time""
""fullscreenenter"",""1"",""8702""
","
","","","588.6999999992549","","","13","9835","4533","&#9789;","elianto","#f73b6a7A"," "," ","1","-10","[1442.9000000003725]","1","0","4","","","","","","","",""
"pit-trial","90","780928","0.0-2.0-17.1-4.1","battery-v0.2","","""event"",""trial"",""time""
""fullscreenenter"",""1"",""8702""
","
","
","""event"",""trial"",""time""
""fullscreenenter"",""1"",""8702""
","
","","","518.5999999996275","","","13","9835","4533","&#9789;","elianto","#f73b6a7A"," "," ","1","0","[1370]","1","0","4","","","","","","","",""
"pit-trial","91","784297","0.0-2.0-17.2-0.2","battery-v0.2","","""event"",""trial"",""time""
""fullscreenenter"",""1"",""8702""
","
","
","""event"",""trial"",""time""
""fullscreenenter"",""1"",""8702""
","
","","","503.69999999925494","","","13","9835","4533","&#9789;","elianto","#f73b6a7A"," "," ","1","0","[1357.300000000745]","1","0","4","","","","","","","",""
"pit-trial","92","787696","0.0-2.0-17.2-1.2","battery-v0.2","","""event"",""trial"",""time""
""fullscreenenter"",""1"",""8702""
","
","
","""event"",""trial"",""time""
""fullscreenenter"",""1"",""8702""
","
","","","537.0999999996275","","","13","9835","4533","&#9789;","elianto","#f73b6a7A"," "," ","1","0","[1391.0999999996275]","1","0","4","","","","","","","",""
"pit-trial","93","791104","0.0-2.0-17.2-2.2","battery-v0.2","","""event"",""trial"",""time""
""fullscreenenter"",""1"",""8702""
","
","
","""event"",""trial"",""time""
""fullscreenenter"",""1"",""8702""
","
","","","549.2000000011176","","","13","9835","4533","&#9789;","elianto","#f73b6a7A"," "," ","1","0","[1400]","1","0","4","","","","","","","",""
"pit-trial","94","794704","0.0-2.0-17.2-3.2","battery-v0.2","","""event"",""trial"",""time""
""fullscreenenter"",""1"",""8702""
","
","
","""event"",""trial"",""time""
""fullscreenenter"",""1"",""8702""
","
","","","738.5","","","13","9835","4533","&#9789;","elianto","#f73b6a7A"," "," ","1","-10","[1592.8999999985099]","1","0","4","","","","","","","",""
"pit-trial","95","798096","0.0-2.0-17.2-4.2","battery-v0.2","","""event"",""trial"",""time""
""fullscreenenter"",""1"",""8702""
","
","
","""event"",""trial"",""time""
""fullscreenenter"",""1"",""8702""
","
","","","531.7999999988824","","","13","9835","4533","&#9789;","elianto","#f73b6a7A"," "," ","1","0","[1382.4000000003725]","1","0","4","","","","","","","",""
"pit-trial","96","801480","0.0-2.0-17.3-0.3","battery-v0.2","","""event"",""trial"",""time""
""fullscreenenter"",""1"",""8702""
","
","
","""event"",""trial"",""time""
""fullscreenenter"",""1"",""8702""
","
","","","523","","","13","9835","4533","&#9789;","elianto","#f73b6a7A"," "," ","1","0","[1374.7999999988824]","1","0","4","","","","","","","",""
"pit-trial","97","804864","0.0-2.0-17.3-1.3","battery-v0.2","","""event"",""trial"",""time""
""fullscreenenter"",""1"",""8702""
","
","
","""event"",""trial"",""time""
""fullscreenenter"",""1"",""8702""
","
","","","507.59999999962747","","","13","9835","4533","&#9789;","elianto","#f73b6a7A"," "," ","1","0","[1371.1000000014901]","1","0","4","","","","","","","",""
"pit-trial","98","808257","0.0-2.0-17.3-2.3","battery-v0.2","","""event"",""trial"",""time""
""fullscreenenter"",""1"",""8702""
","
","
","""event"",""trial"",""time""
""fullscreenenter"",""1"",""8702""
","
","","","529.5999999996275","","","13","9835","4533","&#9789;","elianto","#f73b6a7A"," "," ","1","0","[1379.800000000745]","1","0","4","","","","","","","",""
"pit-trial","99","811793","0.0-2.0-17.3-3.3","battery-v0.2","","""event"",""trial"",""time""
""fullscreenenter"",""1"",""8702""
","
","
","""event"",""trial"",""time""
""fullscreenenter"",""1"",""8702""
","
","","","666.3000000007451","","","13","9835","4533","&#9789;","elianto","#f73b6a7A"," "," ","1","-10","[1521.9000000003725]","1","0","4","","","","","","","",""
"pit-trial","100","815600","0.0-2.0-17.3-4.3","battery-v0.2","","""event"",""trial"",""time""
""fullscreenenter"",""1"",""8702""
","
","
","""event"",""trial"",""time""
""fullscreenenter"",""1"",""8702""
","
","","","939.9000000003725","","","13","9835","4533","&#9789;","elianto","#f73b6a7A"," "," ","1","0","[1794.4000000003725]","1","0","4","","","","","","","",""
"call-function","101","815605","0.0-2.0-18.0","battery-v0.2","","""event"",""trial"",""time""
""fullscreenenter"",""1"",""8702""
","
","
","""event"",""trial"",""time""
""fullscreenenter"",""1"",""8702""
","
","","","","","","","","","","","","","","","","","","","","","","","","","","",""
"pit-instructions","102","905578","0.0-2.0-19.0","battery-v0.2","","""event"",""trial"",""time""
""fullscreenenter"",""1"",""8702""
","
","
","""event"",""trial"",""time""
""fullscreenenter"",""1"",""8702""
","
","","[{""page_index"":0,""viewing_time"":6827.299999998882},{""page_index"":1,""viewing_time"":6845.200000001118},{""page_index"":2,""viewing_time"":20447.39999999851},{""page_index"":3,""viewing_time"":9368.300000000745},{""page_index"":4,""viewing_time"":10034.599999999627},{""page_index"":5,""viewing_time"":12924.700000001118},{""page_index"":6,""viewing_time"":9476.5},{""page_index"":7,""viewing_time"":7449.0999999996275},{""page_index"":8,""viewing_time"":6595.9000000003725}]","89970.19999999925","","","","","","","","","","","","","","","","","","","","","","","",""
"pit-comprehension","103","915971","0.0-2.0-20.0-0.0","battery-v0.2","","""event"",""trial"",""time""
""fullscreenenter"",""1"",""8702""
","
","
","""event"",""trial"",""time""
""fullscreenenter"",""1"",""8702""
","
","","","10379.300000000745","[""SPACE""]","0","13","9835","4533","","","","","","","","","","","","","","","","","","",""
"pit-instructions","104","919339","0.0-2.0-20.0-1.0","battery-v0.2","","""event"",""trial"",""time""
""fullscreenenter"",""1"",""8702""
","
","
","""event"",""trial"",""time""
""fullscreenenter"",""1"",""8702""
","
","","[{""page_index"":0,""viewing_time"":3262.0999999996275}]","3263.2999999988824","","","","","","","","","","","","","","","","","","","","","","","",""
"pit-comprehension","105","928347","0.0-2.0-21.0-0.0","battery-v0.2","","""event"",""trial"",""time""
""fullscreenenter"",""1"",""8702""
","
","
","""event"",""trial"",""time""
""fullscreenenter"",""1"",""8702""
","
","","","8991.5","[""10""]","0","13","9835","4533","","","","","","","","","","","","","","","","","","",""
"pit-instructions","106","930588","0.0-2.0-21.0-1.0","battery-v0.2","","""event"",""trial"",""time""
""fullscreenenter"",""1"",""8702""
","
","
","""event"",""trial"",""time""
""fullscreenenter"",""1"",""8702""
","
","","[{""page_index"":0,""viewing_time"":2120.199999999255}]","2121.5999999996275","","","","","","","","","","","","","","","","","","","","","","","",""
"pit-comprehension","107","942272","0.0-2.0-22.0-0.0","battery-v0.2","","""event"",""trial"",""time""
""fullscreenenter"",""1"",""8702""
","
","
","""event"",""trial"",""time""
""fullscreenenter"",""1"",""8702""
","
","","","11669.300000000745","[""0""]","0","13","9835","4533","","","","","","","","","","","","","","","","","","",""
"pit-instructions","108","946118","0.0-2.0-22.0-1.0","battery-v0.2","","""event"",""trial"",""time""
""fullscreenenter"",""1"",""8702""
","
","
","""event"",""trial"",""time""
""fullscreenenter"",""1"",""8702""
","
","","[{""page_index"":0,""viewing_time"":3742.0999999996275}]","3743","","","","","","","","","","","","","","","","","","","","","","","",""
"pit-comprehension","109","963025","0.0-2.0-23.0-0.0","battery-v0.2","","""event"",""trial"",""time""
""fullscreenenter"",""1"",""8702""
","
","
","""event"",""trial"",""time""
""fullscreenenter"",""1"",""8702""
","
","","","16895.700000001118","[""True""]","0","13","9835","4533","","","","","","","","","","","","","","","","","","",""
"pit-instructions","110","966402","0.0-2.0-23.0-1.0","battery-v0.2","","""event"",""trial"",""time""
""fullscreenenter"",""1"",""8702""
","
","
","""event"",""trial"",""time""
""fullscreenenter"",""1"",""8702""
","
","","[{""page_index"":0,""viewing_time"":3264}]","3265.199999999255","","","","","","","","","","","","","","","","","","","","","","","",""
"pit-comprehension","111","976437","0.0-2.0-24.0-0.0","battery-v0.2","","""event"",""trial"",""time""
""fullscreenenter"",""1"",""8702""
","
","
","""event"",""trial"",""time""
""fullscreenenter"",""1"",""8702""
","
","","","10019.199999999255","[""True""]","0","13","9835","4533","","","","","","","","","","","","","","","","","","",""
"pit-instructions","112","978626","0.0-2.0-24.0-1.0","battery-v0.2","","""event"",""trial"",""time""
""fullscreenenter"",""1"",""8702""
","
","
","""event"",""trial"",""time""
""fullscreenenter"",""1"",""8702""
","
","","[{""page_index"":0,""viewing_time"":2056.4000000003725}]","2057.5","","","","","","","","","","","","","","","","","","","","","","","",""
"pit-comprehension","113","987023","0.0-2.0-25.0-0.0","battery-v0.2","","""event"",""trial"",""time""
""fullscreenenter"",""1"",""8702""
","
","
","""event"",""trial"",""time""
""fullscreenenter"",""1"",""8702""
","
","","","8380","[""True""]","0","13","9835","4533","","","","","","","","","","","","","","","","","","",""
"pit-instructions","114","989263","0.0-2.0-25.0-1.0","battery-v0.2","","""event"",""trial"",""time""
""fullscreenenter"",""1"",""8702""
","
","
","""event"",""trial"",""time""
""fullscreenenter"",""1"",""8702""
","
","","[{""page_index"":0,""viewing_time"":2113}]","2114.0999999996275","","","","","","","","","","","","","","","","","","","","","","","",""
"pit-comprehension","115","1000560","0.0-2.0-26.0-0.0","battery-v0.2","","""event"",""trial"",""time""
""fullscreenenter"",""1"",""8702""
","
","
","""event"",""trial"",""time""
""fullscreenenter"",""1"",""8702""
","
","","","11282.300000000745","[""True""]","1","13","9835","4533","","","","","","","","","","","","","","","","","","",""
"pit-instructions","116","1003854","0.0-2.0-26.0-1.0","battery-v0.2","","""event"",""trial"",""time""
""fullscreenenter"",""1"",""8702""
","
","
","""event"",""trial"",""time""
""fullscreenenter"",""1"",""8702""
","
","","[{""page_index"":0,""viewing_time"":3170.2000000011176}]","3171.4000000003725","","","","","","","","","","","","","","","","","","","","","","","",""
"pit-instructions","117","1008483","0.0-2.0-26.0-2.0-0.0","battery-v0.2","","""event"",""trial"",""time""
""fullscreenenter"",""1"",""8702""
","
","
","""event"",""trial"",""time""
""fullscreenenter"",""1"",""8702""
","
","","[{""page_index"":0,""viewing_time"":4619.5}]","4620.799999998882","","","","","","","","","","","","","","","","","","","","","","","",""
"pit-comprehension","118","1014956","0.0-2.0-26.1-0.1","battery-v0.2","","""event"",""trial"",""time""
""fullscreenenter"",""1"",""8702""
","
","
","""event"",""trial"",""time""
""fullscreenenter"",""1"",""8702""
","
","","","6461.199999999255","[""False""]","0","13","9835","4533","","","","","","","","","","","","","","","","","","",""
"pit-instructions","119","1017345","0.0-2.0-26.1-1.1","battery-v0.2","","""event"",""trial"",""time""
""fullscreenenter"",""1"",""8702""
","
","
","""event"",""trial"",""time""
""fullscreenenter"",""1"",""8702""
","
","","[{""page_index"":0,""viewing_time"":2262.39999999851}]","2263.2999999988824","","","","","","","","","","","","","","","","","","","","","","","",""
"pit-instructions","120","1040577","0.0-3.0","battery-v0.2","","""event"",""trial"",""time""
""fullscreenenter"",""1"",""8702""
","
","
","""event"",""trial"",""time""
""fullscreenenter"",""1"",""8702""
","
","","[{""page_index"":0,""viewing_time"":9300},{""page_index"":1,""viewing_time"":5957.5999999996275},{""page_index"":2,""viewing_time"":7968}]","23226.700000001118","","","","","","","","","","","","","","","","","","","","","","","",""
"pit-trial","121","1045457","0.0-4.0","battery-v0.2","","""event"",""trial"",""time""
""fullscreenenter"",""1"",""8702""
","
","
","""event"",""trial"",""time""
""fullscreenenter"",""1"",""8702""
","
","","","-1","","","13","9835","4533","&#9728;","elianto","#f73b6a7A","-1","-1","1","0","[]","0","1","","","9835","1","0","4","lose","no-go","0"
"pit-trial","122","1050329","0.0-5.0","battery-v0.2","","""event"",""trial"",""time""
""fullscreenenter"",""1"",""8702""
","
","
","""event"",""trial"",""time""
""fullscreenenter"",""1"",""8702""
","
","","","-1","","","13","9835","4533","&#9752;","elianto","#f73b6a7A"," ","-1","0","0","[]","0","1","","","9835","2","3","3","lose","go","1"
"pit-trial","123","1054272","0.0-6.0","battery-v0.2","","""event"",""trial"",""time""
""fullscreenenter"",""1"",""8702""
","
","
","""event"",""trial"",""time""
""fullscreenenter"",""1"",""8702""
","
","","","1079.8999999985099","","","13","9835","4533","&#9733;","elianto","#3366ff99","-1"," ","0","0","[1933.4000000003725]","1","1","","","9835","3","2","2","win","no-go","0"
"pit-trial","124","1058121","0.0-7.0","battery-v0.2","","""event"",""trial"",""time""
""fullscreenenter"",""1"",""8702""
","
","
","""event"",""trial"",""time""
""fullscreenenter"",""1"",""8702""
","
","","","982.5999999996275","","","13","9835","4533","&#9730;","elianto","#3366ff99"," "," ","1","+10","[1836.5]","1","1","","","9835","4","1","1","win","go","0"
"pit-trial","125","1062992","0.0-8.0","battery-v0.2","","""event"",""trial"",""time""
""fullscreenenter"",""1"",""8702""
","
","
","""event"",""trial"",""time""
""fullscreenenter"",""1"",""8702""
","
","","","-1","","","13","9835","4533","&#9728;","elianto","#f73b6a7A","-1","-1","1","0","[]","0","1","","","9835","5","0","4","lose","no-go","0"
"pit-trial","126","1067865","0.0-9.0","battery-v0.2","","""event"",""trial"",""time""
""fullscreenenter"",""1"",""8702""
","
","
","""event"",""trial"",""time""
""fullscreenenter"",""1"",""8702""
","
","","","-1","","","13","9835","4533","&#9733;","elianto","#3366ff99","-1","-1","1","+10","[]","0","1","","","9835","6","2","2","win","no-go","0"
"pit-trial","127","1071673","0.0-10.0","battery-v0.2","","""event"",""trial"",""time""
""fullscreenenter"",""1"",""8702""
","
","
","""event"",""trial"",""time""
""fullscreenenter"",""1"",""8702""
","
","","","946.5999999996275","","","13","9835","4533","&#9752;","elianto","#f73b6a7A"," "," ","1","0","[1799.5999999996275]","1","1","","","9835","7","3","3","lose","go","0"
"pit-trial","128","1075329","0.0-11.0","battery-v0.2","","""event"",""trial"",""time""
""fullscreenenter"",""1"",""8702""
","
","
","""event"",""trial"",""time""
""fullscreenenter"",""1"",""8702""
","
","","","790.8000000007451","","","13","9835","4533","&#9730;","elianto","#3366ff99"," "," ","1","0","[1646.800000000745]","1","1","","","9835","8","1","1","win","go","1"
"pit-trial","129","1079241","0.0-12.0","battery-v0.2","","""event"",""trial"",""time""
""fullscreenenter"",""1"",""8702""
","
","
","""event"",""trial"",""time""
""fullscreenenter"",""1"",""8702""
","
","","","1050.7000000011176","","","13","9835","4533","&#9728;","elianto","#f73b6a7A","-1"," ","0","-10","[1903.6000000014901]","1","1","","","9835","9","0","4","lose","no-go","0"
"pit-trial","130","1082944","0.0-13.0","battery-v0.2","","""event"",""trial"",""time""
""fullscreenenter"",""1"",""8702""
","
","
","""event"",""trial"",""time""
""fullscreenenter"",""1"",""8702""
","
","","","832.9000000003725","","","13","9835","4533","&#9730;","elianto","#3366ff99"," "," ","1","+10","[1689.6000000014901]","1","1","","","9835","10","1","1","win","go","0"
"pit-trial","131","1087817","0.0-14.0","battery-v0.2","","""event"",""trial"",""time""
""fullscreenenter"",""1"",""8702""
","
","
","""event"",""trial"",""time""
""fullscreenenter"",""1"",""8702""
","
","","","-1","","","13","9835","4533","&#9733;","elianto","#3366ff99","-1","-1","1","+10","[]","0","1","","","9835","11","2","2","win","no-go","0"
"pit-trial","132","1092689","0.0-15.0","battery-v0.2","","""event"",""trial"",""time""
""fullscreenenter"",""1"",""8702""
","
","
","""event"",""trial"",""time""
""fullscreenenter"",""1"",""8702""
","
","","","-1","","","13","9835","4533","&#9752;","elianto","#f73b6a7A"," ","-1","0","0","[]","0","1","","","9835","12","3","3","lose","go","1"
"pit-trial","133","1097560","0.0-16.0","battery-v0.2","","""event"",""trial"",""time""
""fullscreenenter"",""1"",""8702""
","
","
","""event"",""trial"",""time""
""fullscreenenter"",""1"",""8702""
","
","","","-1","","","13","9835","4533","&#9728;","elianto","#f73b6a7A","-1","-1","1","0","[]","0","1","","","9835","13","0","4","lose","no-go","0"
"pit-trial","134","1101288","0.0-17.0","battery-v0.2","","""event"",""trial"",""time""
""fullscreenenter"",""1"",""8702""
","
","
","""event"",""trial"",""time""
""fullscreenenter"",""1"",""8702""
","
","","","867.2999999970198","","","13","9835","4533","&#9730;","elianto","#3366ff99"," "," ","1","0","[1717.6000000014901]","1","1","","","9835","14","1","1","win","go","1"
"pit-trial","135","1106161","0.0-18.0","battery-v0.2","","""event"",""trial"",""time""
""fullscreenenter"",""1"",""8702""
","
","
","""event"",""trial"",""time""
""fullscreenenter"",""1"",""8702""
","
","","","-1","","","13","9835","4533","&#9733;","elianto","#3366ff99","-1","-1","1","+10","[]","0","1","","","9835","15","2","2","win","no-go","0"
"pit-trial","136","1111032","0.0-19.0","battery-v0.2","","""event"",""trial"",""time""
""fullscreenenter"",""1"",""8702""
","
","
","""event"",""trial"",""time""
""fullscreenenter"",""1"",""8702""
","
","","","-1","","","13","9835","4533","&#9752;","elianto","#f73b6a7A"," ","-1","0","-10","[]","0","1","","","9835","16","3","3","lose","go","0"
"pit-trial","137","1115905","0.0-20.0","battery-v0.2","","""event"",""trial"",""time""
""fullscreenenter"",""1"",""8702""
","
","
","""event"",""trial"",""time""
""fullscreenenter"",""1"",""8702""
","
","","","-1","","","13","9835","4533","&#9733;","elianto","#3366ff99","-1","-1","1","0","[]","0","1","","","9835","17","2","2","win","no-go","1"
"pit-trial","138","1119529","0.0-21.0","battery-v0.2","","""event"",""trial"",""time""
""fullscreenenter"",""1"",""8702""
","
","
","""event"",""trial"",""time""
""fullscreenenter"",""1"",""8702""
","
","","","757.3000000007451","","","13","9835","4533","&#9730;","elianto","#3366ff99"," "," ","1","+10","[1609.3999999985099]","1","1","","","9835","18","1","1","win","go","0"
"pit-trial","139","1124400","0.0-22.0","battery-v0.2","","""event"",""trial"",""time""
""fullscreenenter"",""1"",""8702""
","
","
","""event"",""trial"",""time""
""fullscreenenter"",""1"",""8702""
","
","","","-1","","","13","9835","4533","&#9728;","elianto","#f73b6a7A","-1","-1","1","0","[]","0","1","","","9835","19","0","4","lose","no-go","0"
"pit-trial","140","1128056","0.0-23.0","battery-v0.2","","""event"",""trial"",""time""
""fullscreenenter"",""1"",""8702""
","
","
","""event"",""trial"",""time""
""fullscreenenter"",""1"",""8702""
","
","","","785.5","","","13","9835","4533","&#9752;","elianto","#f73b6a7A"," "," ","1","0","[1639.300000000745]","1","1","","","9835","20","3","3","lose","go","0"
"pit-instructions","141","1141305","0.0-24.0","battery-v0.2","","""event"",""trial"",""time""
""fullscreenenter"",""1"",""8702""
","
","
","""event"",""trial"",""time""
""fullscreenenter"",""1"",""8702""
","
","","[{""page_index"":0,""viewing_time"":6316.89999999851},{""page_index"":1,""viewing_time"":6924.5}]","13242.599999997765","","","","","","","","","","","","","","","","","","","","","","","",""
"pit-trial","142","1146177","0.0-25.0","battery-v0.2","","""event"",""trial"",""time""
""fullscreenenter"",""1"",""8702""
","
","
","""event"",""trial"",""time""
""fullscreenenter"",""1"",""8702""
","
","","","-1","","","13","9835","4533","b","elianto","#f73b6a7A","-1","-1","1","0","[]","0","2","","","9835","21","3","4","lose","no-go","0"
"pit-trial","143","1150153","0.0-26.0","battery-v0.2","","""event"",""trial"",""time""
""fullscreenenter"",""1"",""8702""
","
","
","""event"",""trial"",""time""
""fullscreenenter"",""1"",""8702""
","
","","","1110.2999999970198","","","13","9835","4533","f","elianto","#3366ff99","-1"," ","0","0","[1965]","1","2","","","9835","22","1","2","win","no-go","0"
"pit-trial","144","1154320","0.0-27.0","battery-v0.2","","""event"",""trial"",""time""
""fullscreenenter"",""1"",""8702""
","
","
","""event"",""trial"",""time""
""fullscreenenter"",""1"",""8702""
","
","","","1295.3999999985099","","","13","9835","4533","n","elianto","#f73b6a7A"," "," ","1","0","[2153.89999999851]","1","2","","","9835","23","0","3","lose","go","0"
"pit-trial","145","1159193","0.0-28.0","battery-v0.2","","""event"",""trial"",""time""
""fullscreenenter"",""1"",""8702""
","
","
","""event"",""trial"",""time""
""fullscreenenter"",""1"",""8702""
","
","","","-1","","","13","9835","4533","t","elianto","#f73b6a7A"," ","-1","0","-10","[]","0","2","","","9835","24","2","3","lose","go","0"
"pit-trial","146","1164064","0.0-29.0","battery-v0.2","","""event"",""trial"",""time""
""fullscreenenter"",""1"",""8702""
","
","
","""event"",""trial"",""time""
""fullscreenenter"",""1"",""8702""
","
","","","-1","","","13","9835","4533","b","elianto","#f73b6a7A","-1","-1","1","0","[]","0","2","","","9835","25","3","4","lose","no-go","0"
"pit-trial","147","1168008","0.0-30.0","battery-v0.2","","""event"",""trial"",""time""
""fullscreenenter"",""1"",""8702""
","
","
","""event"",""trial"",""time""
""fullscreenenter"",""1"",""8702""
","
","","","1078.5999999977648","","","13","9835","4533","t","elianto","#f73b6a7A"," "," ","1","0","[1931.7000000029802]","1","2","","","9835","26","2","3","lose","go","0"
"pit-trial","148","1171793","0.0-31.0","battery-v0.2","","""event"",""trial"",""time""
""fullscreenenter"",""1"",""8702""
","
","
","""event"",""trial"",""time""
""fullscreenenter"",""1"",""8702""
","
","","","916.1000000014901","","","13","9835","4533","f","elianto","#3366ff99","-1"," ","0","0","[1769.300000000745]","1","2","","","9835","27","1","2","win","no-go","0"
"pit-trial","149","1176664","0.0-32.0","battery-v0.2","","""event"",""trial"",""time""
""fullscreenenter"",""1"",""8702""
","
","
","""event"",""trial"",""time""
""fullscreenenter"",""1"",""8702""
","
","","","-1","","","13","9835","4533","n","elianto","#f73b6a7A"," ","-1","0","0","[]","0","2","","","9835","28","0","3","lose","go","1"
"pit-trial","150","1181537","0.0-33.0","battery-v0.2","","""event"",""trial"",""time""
""fullscreenenter"",""1"",""8702""
","
","
","""event"",""trial"",""time""
""fullscreenenter"",""1"",""8702""
","
","","","-1","","","13","9835","4533","f","elianto","#3366ff99","-1","-1","1","+10","[]","0","2","","","9835","29","1","2","win","no-go","0"
"pit-trial","151","1185344","0.0-34.0","battery-v0.2","","""event"",""trial"",""time""
""fullscreenenter"",""1"",""8702""
","
","
","""event"",""trial"",""time""
""fullscreenenter"",""1"",""8702""
","
","","","930.8000000007451","","","13","9835","4533","t","elianto","#f73b6a7A"," "," ","1","0","[1792.7000000029802]","1","2","","","9835","30","2","3","lose","go","0"
"pit-trial","152","1190216","0.0-35.0","battery-v0.2","","""event"",""trial"",""time""
""fullscreenenter"",""1"",""8702""
","
","
","""event"",""trial"",""time""
""fullscreenenter"",""1"",""8702""
","
","","","-1","","","13","9835","4533","b","elianto","#f73b6a7A","-1","-1","1","0","[]","0","2","","","9835","31","3","4","lose","no-go","0"
"pit-trial","153","1195088","0.0-36.0","battery-v0.2","","""event"",""trial"",""time""
""fullscreenenter"",""1"",""8702""
","
","
","""event"",""trial"",""time""
""fullscreenenter"",""1"",""8702""
","
","","","-1","","","13","9835","4533","n","elianto","#f73b6a7A"," ","-1","0","-10","[]","0","2","","","9835","32","0","3","lose","go","0"
"pit-trial","154","1199960","0.0-37.0","battery-v0.2","","""event"",""trial"",""time""
""fullscreenenter"",""1"",""8702""
","
","
","""event"",""trial"",""time""
""fullscreenenter"",""1"",""8702""
","
","","","-1","","","13","9835","4533","b","elianto","#f73b6a7A","-1","-1","1","-10","[]","0","2","","","9835","33","3","4","lose","no-go","1"
"pit-trial","155","1203616","0.0-38.0","battery-v0.2","","""event"",""trial"",""time""
""fullscreenenter"",""1"",""8702""
","
","
","""event"",""trial"",""time""
""fullscreenenter"",""1"",""8702""
","
","","","789.1999999992549","","","13","9835","4533","t","elianto","#f73b6a7A"," "," ","1","0","[1647.199999999255]","1","2","","","9835","34","2","3","lose","go","0"
"pit-trial","156","1208488","0.0-39.0","battery-v0.2","","""event"",""trial"",""time""
""fullscreenenter"",""1"",""8702""
","
","
","""event"",""trial"",""time""
""fullscreenenter"",""1"",""8702""
","
","","","-1","","","13","9835","4533","f","elianto","#3366ff99","-1","-1","1","+10","[]","0","2","","","9835","35","1","2","win","no-go","0"
"pit-trial","157","1212120","0.0-40.0","battery-v0.2","","""event"",""trial"",""time""
""fullscreenenter"",""1"",""8702""
","
","
","""event"",""trial"",""time""
""fullscreenenter"",""1"",""8702""
","
","","","772","","","13","9835","4533","n","elianto","#f73b6a7A"," "," ","1","0","[1623.1000000014901]","1","2","","","9835","36","0","3","lose","go","0"
"pit-trial","158","1216992","0.0-41.0","battery-v0.2","","""event"",""trial"",""time""
""fullscreenenter"",""1"",""8702""
","
","
","""event"",""trial"",""time""
""fullscreenenter"",""1"",""8702""
","
","","","-1","","","13","9835","4533","b","elianto","#f73b6a7A","-1","-1","1","0","[]","0","2","","","9835","37","3","4","lose","no-go","0"
"pit-trial","159","1220816","0.0-42.0","battery-v0.2","","""event"",""trial"",""time""
""fullscreenenter"",""1"",""8702""
","
","
","""event"",""trial"",""time""
""fullscreenenter"",""1"",""8702""
","
","","","961.6000000014901","","","13","9835","4533","n","elianto","#f73b6a7A"," "," ","1","0","[1812.0999999977648]","1","2","","","9835","38","0","3","lose","go","0"
"pit-trial","160","1225688","0.0-43.0","battery-v0.2","","""event"",""trial"",""time""
""fullscreenenter"",""1"",""8702""
","
","
","""event"",""trial"",""time""
""fullscreenenter"",""1"",""8702""
","
","","","-1","","","13","9835","4533","f","elianto","#3366ff99","-1","-1","1","+10","[]","0","2","","","9835","39","1","2","win","no-go","0"
"pit-trial","161","1229328","0.0-44.0","battery-v0.2","","""event"",""trial"",""time""
""fullscreenenter"",""1"",""8702""
","
","
","""event"",""trial"",""time""
""fullscreenenter"",""1"",""8702""
","
","","","774.7000000029802","","","13","9835","4533","t","elianto","#f73b6a7A"," "," ","1","-10","[1631.800000000745]","1","2","","","9835","40","2","3","lose","go","1"
"pit-trial","162","1234201","0.0-45.0","battery-v0.2","","""event"",""trial"",""time""
""fullscreenenter"",""1"",""8702""
","
","
","""event"",""trial"",""time""
""fullscreenenter"",""1"",""8702""
","
","","","-1","","","13","9835","4533","b","elianto","#f73b6a7A","-1","-1","1","0","[]","0","2","","","9835","41","3","4","lose","no-go","0"
"pit-trial","163","1239072","0.0-46.0","battery-v0.2","","""event"",""trial"",""time""
""fullscreenenter"",""1"",""8702""
","
","
","""event"",""trial"",""time""
""fullscreenenter"",""1"",""8702""
","
","","","-1","","","13","9835","4533","f","elianto","#3366ff99","-1","-1","1","+10","[]","0","2","","","9835","42","1","2","win","no-go","0"
"pit-trial","164","1242728","0.0-47.0","battery-v0.2","","""event"",""trial"",""time""
""fullscreenenter"",""1"",""8702""
","
","
","""event"",""trial"",""time""
""fullscreenenter"",""1"",""8702""
","
","","","783.6999999992549","","","13","9835","4533","n","elianto","#f73b6a7A"," "," ","1","0","[1642.2999999970198]","1","2","","","9835","43","0","3","lose","go","0"
"pit-trial","165","1246457","0.0-48.0","battery-v0.2","","""event"",""trial"",""time""
""fullscreenenter"",""1"",""8702""
","
","
","""event"",""trial"",""time""
""fullscreenenter"",""1"",""8702""
","
","","","861.8000000007451","","","13","9835","4533","t","elianto","#f73b6a7A"," "," ","1","-10","[1720.8999999985099]","1","2","","","9835","44","2","3","lose","go","1"
"pit-trial","166","1251329","0.0-49.0","battery-v0.2","","""event"",""trial"",""time""
""fullscreenenter"",""1"",""8702""
","
","
","""event"",""trial"",""time""
""fullscreenenter"",""1"",""8702""
","
","","","-1","","","13","9835","4533","b","elianto","#f73b6a7A","-1","-1","1","-10","[]","0","2","","","9835","45","3","4","lose","no-go","1"
"pit-trial","167","1256200","0.0-50.0","battery-v0.2","","""event"",""trial"",""time""
""fullscreenenter"",""1"",""8702""
","
","
","""event"",""trial"",""time""
""fullscreenenter"",""1"",""8702""
","
","","","-1","","","13","9835","4533","f","elianto","#3366ff99","-1","-1","1","+10","[]","0","2","","","9835","46","1","2","win","no-go","0"
"pit-trial","168","1259944","0.0-51.0","battery-v0.2","","""event"",""trial"",""time""
""fullscreenenter"",""1"",""8702""
","
","
","""event"",""trial"",""time""
""fullscreenenter"",""1"",""8702""
","
","","","885","","","13","9835","4533","n","elianto","#f73b6a7A"," "," ","1","-10","[1736.199999999255]","1","2","","","9835","47","0","3","lose","go","1"
"pit-trial","169","1264817","0.0-52.0","battery-v0.2","","""event"",""trial"",""time""
""fullscreenenter"",""1"",""8702""
","
","
","""event"",""trial"",""time""
""fullscreenenter"",""1"",""8702""
","
","","","-1","","","13","9835","4533","t","elianto","#f73b6a7A"," ","-1","0","0","[]","0","2","","","9835","48","2","3","lose","go","1"
"pit-trial","170","1269688","0.0-53.0","battery-v0.2","","""event"",""trial"",""time""
""fullscreenenter"",""1"",""8702""
","
","
","""event"",""trial"",""time""
""fullscreenenter"",""1"",""8702""
","
","","","-1","","","13","9835","4533","t","elianto","#f73b6a7A"," ","-1","0","-10","[]","0","2","","","9835","49","2","3","lose","go","0"
"pit-trial","171","1274561","0.0-54.0","battery-v0.2","","""event"",""trial"",""time""
""fullscreenenter"",""1"",""8702""
","
","
","""event"",""trial"",""time""
""fullscreenenter"",""1"",""8702""
","
","","","-1","","","13","9835","4533","b","elianto","#f73b6a7A","-1","-1","1","-10","[]","0","2","","","9835","50","3","4","lose","no-go","1"
"pit-trial","172","1279433","0.0-55.0","battery-v0.2","","""event"",""trial"",""time""
""fullscreenenter"",""1"",""8702""
","
","
","""event"",""trial"",""time""
""fullscreenenter"",""1"",""8702""
","
","","","-1","","","13","9835","4533","f","elianto","#3366ff99","-1","-1","1","+10","[]","0","2","","","9835","51","1","2","win","no-go","0"
"pit-trial","173","1283161","0.0-56.0","battery-v0.2","","""event"",""trial"",""time""
""fullscreenenter"",""1"",""8702""
","
","
","""event"",""trial"",""time""
""fullscreenenter"",""1"",""8702""
","
","","","857.3000000007451","","","13","9835","4533","n","elianto","#f73b6a7A"," "," ","1","-10","[1714.2999999970198]","1","2","","","9835","52","0","3","lose","go","1"
"pit-trial","174","1288032","0.0-57.0","battery-v0.2","","""event"",""trial"",""time""
""fullscreenenter"",""1"",""8702""
","
","
","""event"",""trial"",""time""
""fullscreenenter"",""1"",""8702""
","
","","","-1","","","13","9835","4533","f","elianto","#3366ff99","-1","-1","1","+10","[]","0","2","","","9835","53","1","2","win","no-go","0"
"pit-trial","175","1291817","0.0-58.0","battery-v0.2","","""event"",""trial"",""time""
""fullscreenenter"",""1"",""8702""
","
","
","""event"",""trial"",""time""
""fullscreenenter"",""1"",""8702""
","
","","","919.6999999992549","","","13","9835","4533","n","elianto","#f73b6a7A"," "," ","1","0","[1772]","1","2","","","9835","54","0","3","lose","go","0"
"pit-trial","176","1295369","0.0-59.0","battery-v0.2","","""event"",""trial"",""time""
""fullscreenenter"",""1"",""8702""
","
","
","""event"",""trial"",""time""
""fullscreenenter"",""1"",""8702""
","
","","","679.5999999977648","","","13","9835","4533","t","elianto","#f73b6a7A"," "," ","1","0","[1542.300000000745]","1","2","","","9835","55","2","3","lose","go","0"
"pit-trial","177","1300240","0.0-60.0","battery-v0.2","","""event"",""trial"",""time""
""fullscreenenter"",""1"",""8702""
","
","
","""event"",""trial"",""time""
""fullscreenenter"",""1"",""8702""
","
","","","-1","","","13","9835","4533","b","elianto","#f73b6a7A","-1","-1","1","0","[]","0","2","","","9835","56","3","4","lose","no-go","0"
"pit-trial","178","1305112","0.0-61.0","battery-v0.2","","""event"",""trial"",""time""
""fullscreenenter"",""1"",""8702""
","
","
","""event"",""trial"",""time""
""fullscreenenter"",""1"",""8702""
","
","","","-1","","","13","9835","4533","b","elianto","#f73b6a7A","-1","-1","1","0","[]","0","2","","","9835","57","3","4","lose","no-go","0"
"pit-trial","179","1309985","0.0-62.0","battery-v0.2","","""event"",""trial"",""time""
""fullscreenenter"",""1"",""8702""
","
","
","""event"",""trial"",""time""
""fullscreenenter"",""1"",""8702""
","
","","","-1","","","13","9835","4533","c","elianto","#3366ff99"," ","-1","0","+10","[]","0","2","","","9835","58","4","1","win","go","1"
"pit-trial","180","1313848","0.0-63.0","battery-v0.2","","""event"",""trial"",""time""
""fullscreenenter"",""1"",""8702""
","
","
","""event"",""trial"",""time""
""fullscreenenter"",""1"",""8702""
","
","","","994.8999999985099","","","13","9835","4533","t","elianto","#f73b6a7A"," "," ","1","0","[1848.1000000014901]","1","2","","","9835","59","2","3","lose","go","0"
"pit-trial","181","1317728","0.0-64.0","battery-v0.2","","""event"",""trial"",""time""
""fullscreenenter"",""1"",""8702""
","
","
","""event"",""trial"",""time""
""fullscreenenter"",""1"",""8702""
","
","","","1016.6999999992549","","","13","9835","4533","n","elianto","#f73b6a7A"," "," ","1","0","[1867.699999999255]","1","2","","","9835","60","0","3","lose","go","0"
"pit-trial","182","1322600","0.0-65.0","battery-v0.2","","""event"",""trial"",""time""
""fullscreenenter"",""1"",""8702""
","
","
","""event"",""trial"",""time""
""fullscreenenter"",""1"",""8702""
","
","","","-1","","","13","9835","4533","b","elianto","#f73b6a7A","-1","-1","1","0","[]","0","2","","","9835","61","3","4","lose","no-go","0"
"pit-trial","183","1327473","0.0-66.0","battery-v0.2","","""event"",""trial"",""time""
""fullscreenenter"",""1"",""8702""
","
","
","""event"",""trial"",""time""
""fullscreenenter"",""1"",""8702""
","
","","","-1","","","13","9835","4533","c","elianto","#3366ff99"," ","-1","0","0","[]","0","2","","","9835","62","4","1","win","go","0"
"pit-trial","184","1331073","0.0-67.0","battery-v0.2","","""event"",""trial"",""time""
""fullscreenenter"",""1"",""8702""
","
","
","""event"",""trial"",""time""
""fullscreenenter"",""1"",""8702""
","
","","","738.3999999985099","","","13","9835","4533","t","elianto","#f73b6a7A"," "," ","1","0","[1589.300000000745]","1","2","","","9835","63","2","3","lose","go","0"
"pit-trial","185","1335944","0.0-68.0","battery-v0.2","","""event"",""trial"",""time""
""fullscreenenter"",""1"",""8702""
","
","
","""event"",""trial"",""time""
""fullscreenenter"",""1"",""8702""
","
","","","-1","","","13","9835","4533","f","elianto","#3366ff99","-1","-1","1","+10","[]","0","2","","","9835","64","1","2","win","no-go","0"
"pit-trial","186","1340817","0.0-69.0","battery-v0.2","","""event"",""trial"",""time""
""fullscreenenter"",""1"",""8702""
","
","
","""event"",""trial"",""time""
""fullscreenenter"",""1"",""8702""
","
","","","-1","","","13","9835","4533","c","elianto","#3366ff99"," ","-1","0","0","[]","0","2","","","9835","65","4","1","win","go","0"
"pit-trial","187","1345688","0.0-70.0","battery-v0.2","","""event"",""trial"",""time""
""fullscreenenter"",""1"",""8702""
","
","
","""event"",""trial"",""time""
""fullscreenenter"",""1"",""8702""
","
","","","-1","","","13","9835","4533","b","elianto","#f73b6a7A","-1","-1","1","0","[]","0","2","","","9835","66","3","4","lose","no-go","0"
"pit-trial","188","1349945","0.0-71.0","battery-v0.2","","""event"",""trial"",""time""
""fullscreenenter"",""1"",""8702""
","
","
","""event"",""trial"",""time""
""fullscreenenter"",""1"",""8702""
","
","","","1392.699999999255","","","13","9835","4533","z","elianto","#3366ff99","-1"," ","0","0","[2243.2999999970198]","1","2","","","9835","67","5","2","win","no-go","0"
"pit-trial","189","1354817","0.0-72.0","battery-v0.2","","""event"",""trial"",""time""
""fullscreenenter"",""1"",""8702""
","
","
","""event"",""trial"",""time""
""fullscreenenter"",""1"",""8702""
","
","","","-1","","","13","9835","4533","f","elianto","#3366ff99","-1","-1","1","+10","[]","0","2","","","9835","68","1","2","win","no-go","0"
"pit-trial","190","1359689","0.0-73.0","battery-v0.2","","""event"",""trial"",""time""
""fullscreenenter"",""1"",""8702""
","
","
","""event"",""trial"",""time""
""fullscreenenter"",""1"",""8702""
","
","","","-1","","","13","9835","4533","f","elianto","#3366ff99","-1","-1","1","+10","[]","0","2","","","9835","69","1","2","win","no-go","0"
"pit-trial","191","1363752","0.0-74.0","battery-v0.2","","""event"",""trial"",""time""
""fullscreenenter"",""1"",""8702""
","
","
","""event"",""trial"",""time""
""fullscreenenter"",""1"",""8702""
","
","","","1198.9000000022352","","","13","9835","4533","z","elianto","#3366ff99","-1"," ","0","0","[2055.800000000745]","1","2","","","9835","70","5","2","win","no-go","0"
"pit-trial","192","1367553","0.0-75.0","battery-v0.2","","""event"",""trial"",""time""
""fullscreenenter"",""1"",""8702""
","
","
","""event"",""trial"",""time""
""fullscreenenter"",""1"",""8702""
","
","","","924.0999999977648","","","13","9835","4533","c","elianto","#3366ff99"," "," ","1","0","[1785.5]","1","2","","","9835","71","4","1","win","go","1"
"pit-trial","193","1371337","0.0-76.0","battery-v0.2","","""event"",""trial"",""time""
""fullscreenenter"",""1"",""8702""
","
","
","""event"",""trial"",""time""
""fullscreenenter"",""1"",""8702""
","
","","","921.9000000022352","","","13","9835","4533","t","elianto","#f73b6a7A"," "," ","1","0","[1776]","1","2","","","9835","72","2","3","lose","go","0"
"pit-trial","194","1376208","0.0-77.0","battery-v0.2","","""event"",""trial"",""time""
""fullscreenenter"",""1"",""8702""
","
","
","""event"",""trial"",""time""
""fullscreenenter"",""1"",""8702""
","
","","","-1","","","13","9835","4533","f","elianto","#3366ff99","-1","-1","1","+10","[]","0","2","","","9835","73","1","2","win","no-go","0"
"pit-trial","195","1380089","0.0-78.0","battery-v0.2","","""event"",""trial"",""time""
""fullscreenenter"",""1"",""8702""
","
","
","""event"",""trial"",""time""
""fullscreenenter"",""1"",""8702""
","
","","","1019","","","13","9835","4533","z","elianto","#3366ff99","-1"," ","0","0","[1872.699999999255]","1","2","","","9835","74","5","2","win","no-go","0"
"pit-trial","196","1384176","0.0-79.0","battery-v0.2","","""event"",""trial"",""time""
""fullscreenenter"",""1"",""8702""
","
","
","""event"",""trial"",""time""
""fullscreenenter"",""1"",""8702""
","
","","","1225","","","13","9835","4533","c","elianto","#3366ff99"," "," ","1","+10","[2075.300000000745]","1","2","","","9835","75","4","1","win","go","0"
"pit-trial","197","1389049","0.0-80.0","battery-v0.2","","""event"",""trial"",""time""
""fullscreenenter"",""1"",""8702""
","
","
","""event"",""trial"",""time""
""fullscreenenter"",""1"",""8702""
","
","","","-1","","","13","9835","4533","b","elianto","#f73b6a7A","-1","-1","1","-10","[]","0","2","","","9835","76","3","4","lose","no-go","1"
"pit-trial","198","1393216","0.0-81.0","battery-v0.2","","""event"",""trial"",""time""
""fullscreenenter"",""1"",""8702""
","
","
","""event"",""trial"",""time""
""fullscreenenter"",""1"",""8702""
","
","","","1299.800000000745","","","13","9835","4533","z","elianto","#3366ff99","-1"," ","0","+10","[2155.900000002235]","1","2","","","9835","77","5","2","win","no-go","1"
"pit-trial","199","1398088","0.0-82.0","battery-v0.2","","""event"",""trial"",""time""
""fullscreenenter"",""1"",""8702""
","
","
","""event"",""trial"",""time""
""fullscreenenter"",""1"",""8702""
","
","","","-1","","","13","9835","4533","b","elianto","#f73b6a7A","-1","-1","1","0","[]","0","2","","","9835","78","3","4","lose","no-go","0"
"pit-trial","200","1401920","0.0-83.0","battery-v0.2","","""event"",""trial"",""time""
""fullscreenenter"",""1"",""8702""
","
","
","""event"",""trial"",""time""
""fullscreenenter"",""1"",""8702""
","
","","","958","","","13","9835","4533","c","elianto","#3366ff99"," "," ","1","+10","[1817.6000000014901]","1","2","","","9835","79","4","1","win","go","0"
"pit-trial","201","1405600","0.0-84.0","battery-v0.2","","""event"",""trial"",""time""
""fullscreenenter"",""1"",""8702""
","
","
","""event"",""trial"",""time""
""fullscreenenter"",""1"",""8702""
","
","","","811.3000000007451","","","13","9835","4533","c","elianto","#3366ff99"," "," ","1","0","[1667.300000000745]","1","2","","","9835","80","4","1","win","go","1"
"pit-trial","202","1409585","0.0-85.0","battery-v0.2","","""event"",""trial"",""time""
""fullscreenenter"",""1"",""8702""
","
","
","""event"",""trial"",""time""
""fullscreenenter"",""1"",""8702""
","
","","","1117","","","13","9835","4533","z","elianto","#3366ff99","-1"," ","0","0","[1971.9000000022352]","1","2","","","9835","81","5","2","win","no-go","0"
"pit-trial","203","1413608","0.0-86.0","battery-v0.2","","""event"",""trial"",""time""
""fullscreenenter"",""1"",""8702""
","
","
","""event"",""trial"",""time""
""fullscreenenter"",""1"",""8702""
","
","","","1154","","","13","9835","4533","c","elianto","#3366ff99"," "," ","1","+10","[2010.6000000014901]","1","2","","","9835","82","4","1","win","go","0"
"pit-trial","204","1418480","0.0-87.0","battery-v0.2","","""event"",""trial"",""time""
""fullscreenenter"",""1"",""8702""
","
","
","""event"",""trial"",""time""
""fullscreenenter"",""1"",""8702""
","
","","","-1","","","13","9835","4533","b","elianto","#f73b6a7A","-1","-1","1","-10","[]","0","2","","","9835","83","3","4","lose","no-go","1"
"pit-trial","205","1423352","0.0-88.0","battery-v0.2","","""event"",""trial"",""time""
""fullscreenenter"",""1"",""8702""
","
","
","""event"",""trial"",""time""
""fullscreenenter"",""1"",""8702""
","
","","","-1","","","13","9835","4533","y","elianto","#f73b6a7A","-1","-1","1","0","[]","0","2","","","9835","84","7","4","lose","no-go","0"
"pit-trial","206","1426960","0.0-89.0","battery-v0.2","","""event"",""trial"",""time""
""fullscreenenter"",""1"",""8702""
","
","
","""event"",""trial"",""time""
""fullscreenenter"",""1"",""8702""
","
","","","741.3000000007451","","","13","9835","4533","c","elianto","#3366ff99"," "," ","1","+10","[1595.7000000029802]","1","2","","","9835","85","4","1","win","go","0"
"pit-trial","207","1431833","0.0-90.0","battery-v0.2","","""event"",""trial"",""time""
""fullscreenenter"",""1"",""8702""
","
","
","""event"",""trial"",""time""
""fullscreenenter"",""1"",""8702""
","
","","","-1","","","13","9835","4533","h","elianto","#f73b6a7A"," ","-1","0","-10","[]","0","2","","","9835","86","6","3","lose","go","0"
"pit-trial","208","1436705","0.0-91.0","battery-v0.2","","""event"",""trial"",""time""
""fullscreenenter"",""1"",""8702""
","
","
","""event"",""trial"",""time""
""fullscreenenter"",""1"",""8702""
","
","","","-1","","","13","9835","4533","y","elianto","#f73b6a7A","-1","-1","1","0","[]","0","2","","","9835","87","7","4","lose","no-go","0"
"pit-trial","209","1440608","0.0-92.0","battery-v0.2","","""event"",""trial"",""time""
""fullscreenenter"",""1"",""8702""
","
","
","""event"",""trial"",""time""
""fullscreenenter"",""1"",""8702""
","
","","","1037.8999999985099","","","13","9835","4533","z","elianto","#3366ff99","-1"," ","0","+10","[1894]","1","2","","","9835","88","5","2","win","no-go","1"
"pit-trial","210","1444553","0.0-93.0","battery-v0.2","","""event"",""trial"",""time""
""fullscreenenter"",""1"",""8702""
","
","
","""event"",""trial"",""time""
""fullscreenenter"",""1"",""8702""
","
","","","1074.8999999985099","","","13","9835","4533","z","elianto","#3366ff99","-1"," ","0","0","[1933]","1","2","","","9835","89","5","2","win","no-go","0"
"pit-trial","211","1448416","0.0-94.0","battery-v0.2","","""event"",""trial"",""time""
""fullscreenenter"",""1"",""8702""
","
","
","""event"",""trial"",""time""
""fullscreenenter"",""1"",""8702""
","
","","","993.1000000014901","","","13","9835","4533","c","elianto","#3366ff99"," "," ","1","+10","[1850.9000000022352]","1","2","","","9835","90","4","1","win","go","0"
"pit-trial","212","1453289","0.0-95.0","battery-v0.2","","""event"",""trial"",""time""
""fullscreenenter"",""1"",""8702""
","
","
","""event"",""trial"",""time""
""fullscreenenter"",""1"",""8702""
","
","","","-1","","","13","9835","4533","y","elianto","#f73b6a7A","-1","-1","1","-10","[]","0","2","","","9835","91","7","4","lose","no-go","1"
"pit-trial","213","1457128","0.0-96.0","battery-v0.2","","""event"",""trial"",""time""
""fullscreenenter"",""1"",""8702""
","
","
","""event"",""trial"",""time""
""fullscreenenter"",""1"",""8702""
","
","","","973.1000000014901","","","13","9835","4533","h","elianto","#f73b6a7A"," "," ","1","0","[1829.699999999255]","1","2","","","9835","92","6","3","lose","go","0"
"pit-trial","214","1460769","0.0-97.0","battery-v0.2","","""event"",""trial"",""time""
""fullscreenenter"",""1"",""8702""
","
","
","""event"",""trial"",""time""
""fullscreenenter"",""1"",""8702""
","
","","","774.6999999992549","","","13","9835","4533","h","elianto","#f73b6a7A"," "," ","1","0","[1630.199999999255]","1","2","","","9835","93","6","3","lose","go","0"
"pit-trial","215","1464576","0.0-98.0","battery-v0.2","","""event"",""trial"",""time""
""fullscreenenter"",""1"",""8702""
","
","
","""event"",""trial"",""time""
""fullscreenenter"",""1"",""8702""
","
","","","942.9000000022352","","","13","9835","4533","z","elianto","#3366ff99","-1"," ","0","+10","[1795.5]","1","2","","","9835","94","5","2","win","no-go","1"
"pit-trial","216","1469449","0.0-99.0","battery-v0.2","","""event"",""trial"",""time""
""fullscreenenter"",""1"",""8702""
","
","
","""event"",""trial"",""time""
""fullscreenenter"",""1"",""8702""
","
","","","-1","","","13","9835","4533","y","elianto","#f73b6a7A","-1","-1","1","0","[]","0","2","","","9835","95","7","4","lose","no-go","0"
"pit-trial","217","1473761","0.0-100.0","battery-v0.2","","""event"",""trial"",""time""
""fullscreenenter"",""1"",""8702""
","
","
","""event"",""trial"",""time""
""fullscreenenter"",""1"",""8702""
","
","","","1450.300000000745","","","13","9835","4533","r","elianto","#3366ff99"," "," ","1","+10","[2300.2999999970198]","1","2","","","9835","96","8","1","win","go","0"
"pit-trial","218","1477672","0.0-101.0","battery-v0.2","","""event"",""trial"",""time""
""fullscreenenter"",""1"",""8702""
","
","
","""event"",""trial"",""time""
""fullscreenenter"",""1"",""8702""
","
","","","1043.300000000745","","","13","9835","4533","r","elianto","#3366ff99"," "," ","1","+10","[1900.4000000022352]","1","2","","","9835","97","8","1","win","go","0"
"pit-trial","219","1482545","0.0-102.0","battery-v0.2","","""event"",""trial"",""time""
""fullscreenenter"",""1"",""8702""
","
","
","""event"",""trial"",""time""
""fullscreenenter"",""1"",""8702""
","
","","","-1","","","13","9835","4533","y","elianto","#f73b6a7A","-1","-1","1","0","[]","0","2","","","9835","98","7","4","lose","no-go","0"
"pit-trial","220","1486432","0.0-103.0","battery-v0.2","","""event"",""trial"",""time""
""fullscreenenter"",""1"",""8702""
","
","
","""event"",""trial"",""time""
""fullscreenenter"",""1"",""8702""
","
","","","1022.0999999977648","","","13","9835","4533","z","elianto","#3366ff99","-1"," ","0","0","[1874.6000000014901]","1","2","","","9835","99","5","2","win","no-go","0"
"pit-trial","221","1490400","0.0-104.0","battery-v0.2","","""event"",""trial"",""time""
""fullscreenenter"",""1"",""8702""
","
","
","""event"",""trial"",""time""
""fullscreenenter"",""1"",""8702""
","
","","","1101.800000000745","","","13","9835","4533","h","elianto","#f73b6a7A"," "," ","1","0","[1956.6000000014901]","1","2","","","9835","100","6","3","lose","go","0"
"pit-trial","222","1494536","0.0-105.0","battery-v0.2","","""event"",""trial"",""time""
""fullscreenenter"",""1"",""8702""
","
","
","""event"",""trial"",""time""
""fullscreenenter"",""1"",""8702""
","
","","","1273.6000000014901","","","13","9835","4533","m","elianto","#3366ff99"," "," ","1","+10","[2125.5]","1","2","","","9835","101","9","1","win","go","0"
"pit-trial","223","1499409","0.0-106.0","battery-v0.2","","""event"",""trial"",""time""
""fullscreenenter"",""1"",""8702""
","
","
","""event"",""trial"",""time""
""fullscreenenter"",""1"",""8702""
","
","","","-1","","","13","9835","4533","y","elianto","#f73b6a7A","-1","-1","1","0","[]","0","2","","","9835","102","7","4","lose","no-go","0"
"pit-trial","224","1502993","0.0-107.0","battery-v0.2","","""event"",""trial"",""time""
""fullscreenenter"",""1"",""8702""
","
","
","""event"",""trial"",""time""
""fullscreenenter"",""1"",""8702""
","
","","","715.3000000007451","","","13","9835","4533","r","elianto","#3366ff99"," "," ","1","+10","[1571.699999999255]","1","2","","","9835","103","8","1","win","go","0"
"pit-trial","225","1506544","0.0-108.0","battery-v0.2","","""event"",""trial"",""time""
""fullscreenenter"",""1"",""8702""
","
","
","""event"",""trial"",""time""
""fullscreenenter"",""1"",""8702""
","
","","","685.5","","","13","9835","4533","z","elianto","#3366ff99","-1"," ","0","0","[1539]","1","2","","","9835","104","5","2","win","no-go","0"
"pit-trial","226","1510200","0.0-109.0","battery-v0.2","","""event"",""trial"",""time""
""fullscreenenter"",""1"",""8702""
","
","
","""event"",""trial"",""time""
""fullscreenenter"",""1"",""8702""
","
","","","792.6000000014901","","","13","9835","4533","c","elianto","#3366ff99"," "," ","1","+10","[1646.5]","1","2","","","9835","105","4","1","win","go","0"
"pit-trial","227","1513904","0.0-110.0","battery-v0.2","","""event"",""trial"",""time""
""fullscreenenter"",""1"",""8702""
","
","
","""event"",""trial"",""time""
""fullscreenenter"",""1"",""8702""
","
","","","838.0999999977648","","","13","9835","4533","r","elianto","#3366ff99"," "," ","1","+10","[1692.7999999970198]","1","2","","","9835","106","8","1","win","go","0"
"pit-trial","228","1517657","0.0-111.0","battery-v0.2","","""event"",""trial"",""time""
""fullscreenenter"",""1"",""8702""
","
","
","""event"",""trial"",""time""
""fullscreenenter"",""1"",""8702""
","
","","","882.5","","","13","9835","4533","h","elianto","#f73b6a7A"," "," ","1","0","[1739.6000000014901]","1","2","","","9835","107","6","3","lose","go","0"
"pit-trial","229","1521536","0.0-112.0","battery-v0.2","","""event"",""trial"",""time""
""fullscreenenter"",""1"",""8702""
","
","
","""event"",""trial"",""time""
""fullscreenenter"",""1"",""8702""
","
","","","1012.6999999992549","","","13","9835","4533","m","elianto","#3366ff99"," "," ","1","0","[1871.0999999977648]","1","2","","","9835","108","9","1","win","go","1"
"pit-trial","230","1525392","0.0-113.0","battery-v0.2","","""event"",""trial"",""time""
""fullscreenenter"",""1"",""8702""
","
","
","""event"",""trial"",""time""
""fullscreenenter"",""1"",""8702""
","
","","","992","","","13","9835","4533","r","elianto","#3366ff99"," "," ","1","+10","[1843.3999999985099]","1","2","","","9835","109","8","1","win","go","0"
"pit-trial","231","1529136","0.0-114.0","battery-v0.2","","""event"",""trial"",""time""
""fullscreenenter"",""1"",""8702""
","
","
","""event"",""trial"",""time""
""fullscreenenter"",""1"",""8702""
","
","","","879.0999999977648","","","13","9835","4533","m","elianto","#3366ff99"," "," ","1","+10","[1736.1000000014901]","1","2","","","9835","110","9","1","win","go","0"
"pit-trial","232","1532888","0.0-115.0","battery-v0.2","","""event"",""trial"",""time""
""fullscreenenter"",""1"",""8702""
","
","
","""event"",""trial"",""time""
""fullscreenenter"",""1"",""8702""
","
","","","882.8000000007451","","","13","9835","4533","h","elianto","#f73b6a7A"," "," ","1","0","[1740.699999999255]","1","2","","","9835","111","6","3","lose","go","0"
"pit-trial","233","1537761","0.0-116.0","battery-v0.2","","""event"",""trial"",""time""
""fullscreenenter"",""1"",""8702""
","
","
","""event"",""trial"",""time""
""fullscreenenter"",""1"",""8702""
","
","","","-1","","","13","9835","4533","z","elianto","#3366ff99","-1","-1","1","+10","[]","0","2","","","9835","112","5","2","win","no-go","0"
"pit-trial","234","1542632","0.0-117.0","battery-v0.2","","""event"",""trial"",""time""
""fullscreenenter"",""1"",""8702""
","
","
","""event"",""trial"",""time""
""fullscreenenter"",""1"",""8702""
","
","","","-1","","","13","9835","4533","z","elianto","#3366ff99","-1","-1","1","+10","[]","0","2","","","9835","113","5","2","win","no-go","0"
"pit-trial","235","1546520","0.0-118.0","battery-v0.2","","""event"",""trial"",""time""
""fullscreenenter"",""1"",""8702""
","
","
","""event"",""trial"",""time""
""fullscreenenter"",""1"",""8702""
","
","","","1022.6999999992549","","","13","9835","4533","r","elianto","#3366ff99"," "," ","1","+10","[1880.300000000745]","1","2","","","9835","114","8","1","win","go","0"
"pit-trial","236","1551392","0.0-119.0","battery-v0.2","","""event"",""trial"",""time""
""fullscreenenter"",""1"",""8702""
","
","
","""event"",""trial"",""time""
""fullscreenenter"",""1"",""8702""
","
","","","-1","","","13","9835","4533","m","elianto","#3366ff99"," ","-1","0","0","[]","0","2","","","9835","115","9","1","win","go","0"
"pit-trial","237","1555240","0.0-120.0","battery-v0.2","","""event"",""trial"",""time""
""fullscreenenter"",""1"",""8702""
","
","
","""event"",""trial"",""time""
""fullscreenenter"",""1"",""8702""
","
","","","983.3999999985099","","","13","9835","4533","h","elianto","#f73b6a7A"," "," ","1","0","[1837]","1","2","","","9835","116","6","3","lose","go","0"
"pit-trial","238","1559048","0.0-121.0","battery-v0.2","","""event"",""trial"",""time""
""fullscreenenter"",""1"",""8702""
","
","
","""event"",""trial"",""time""
""fullscreenenter"",""1"",""8702""
","
","","","943.3000000007451","","","13","9835","4533","h","elianto","#f73b6a7A"," "," ","1","0","[1794.5]","1","2","","","9835","117","6","3","lose","go","0"
"pit-trial","239","1563008","0.0-122.0","battery-v0.2","","""event"",""trial"",""time""
""fullscreenenter"",""1"",""8702""
","
","
","""event"",""trial"",""time""
""fullscreenenter"",""1"",""8702""
","
","","","1098.4000000022352","","","13","9835","4533","z","elianto","#3366ff99","-1"," ","0","0","[1952.300000000745]","1","2","","","9835","118","5","2","win","no-go","0"
"pit-trial","240","1566864","0.0-123.0","battery-v0.2","","""event"",""trial"",""time""
""fullscreenenter"",""1"",""8702""
","
","
","""event"",""trial"",""time""
""fullscreenenter"",""1"",""8702""
","
","","","980.3999999985099","","","13","9835","4533","r","elianto","#3366ff99"," "," ","1","+10","[1840.6000000014901]","1","2","","","9835","119","8","1","win","go","0"
"pit-trial","241","1570656","0.0-124.0","battery-v0.2","","""event"",""trial"",""time""
""fullscreenenter"",""1"",""8702""
","
","
","""event"",""trial"",""time""
""fullscreenenter"",""1"",""8702""
","
","","","920.1000000014901","","","13","9835","4533","m","elianto","#3366ff99"," "," ","1","+10","[1777]","1","2","","","9835","120","9","1","win","go","0"
"pit-trial","242","1574552","0.0-125.0","battery-v0.2","","""event"",""trial"",""time""
""fullscreenenter"",""1"",""8702""
","
","
","""event"",""trial"",""time""
""fullscreenenter"",""1"",""8702""
","
","","","1034.6000000014901","","","13","9835","4533","r","elianto","#3366ff99"," "," ","1","+10","[1887.699999999255]","1","2","","","9835","121","8","1","win","go","0"
"pit-trial","243","1578288","0.0-126.0","battery-v0.2","","""event"",""trial"",""time""
""fullscreenenter"",""1"",""8702""
","
","
","""event"",""trial"",""time""
""fullscreenenter"",""1"",""8702""
","
","","","874.4000000022352","","","13","9835","4533","m","elianto","#3366ff99"," "," ","1","+10","[1724.699999999255]","1","2","","","9835","122","9","1","win","go","0"
"pit-trial","244","1582193","0.0-127.0","battery-v0.2","","""event"",""trial"",""time""
""fullscreenenter"",""1"",""8702""
","
","
","""event"",""trial"",""time""
""fullscreenenter"",""1"",""8702""
","
","","","1044.800000000745","","","13","9835","4533","h","elianto","#f73b6a7A"," "," ","1","0","[1895.699999999255]","1","2","","","9835","123","6","3","lose","go","0"
"pit-trial","245","1587064","0.0-128.0","battery-v0.2","","""event"",""trial"",""time""
""fullscreenenter"",""1"",""8702""
","
","
","""event"",""trial"",""time""
""fullscreenenter"",""1"",""8702""
","
","","","-1","","","13","9835","4533","y","elianto","#f73b6a7A","-1","-1","1","0","[]","0","2","","","9835","124","7","4","lose","no-go","0"
"pit-trial","246","1590808","0.0-129.0","battery-v0.2","","""event"",""trial"",""time""
""fullscreenenter"",""1"",""8702""
","
","
","""event"",""trial"",""time""
""fullscreenenter"",""1"",""8702""
","
","","","876.1000000014901","","","13","9835","4533","h","elianto","#f73b6a7A"," "," ","1","0","[1730.699999999255]","1","2","","","9835","125","6","3","lose","go","0"
"pit-trial","247","1594721","0.0-130.0","battery-v0.2","","""event"",""trial"",""time""
""fullscreenenter"",""1"",""8702""
","
","
","""event"",""trial"",""time""
""fullscreenenter"",""1"",""8702""
","
","","","1049","","","13","9835","4533","m","elianto","#3366ff99"," "," ","1","+10","[1903.5999999977648]","1","2","","","9835","126","9","1","win","go","0"
"pit-trial","248","1599592","0.0-131.0","battery-v0.2","","""event"",""trial"",""time""
""fullscreenenter"",""1"",""8702""
","
","
","""event"",""trial"",""time""
""fullscreenenter"",""1"",""8702""
","
","","","-1","","","13","9835","4533","y","elianto","#f73b6a7A","-1","-1","1","0","[]","0","2","","","9835","127","7","4","lose","no-go","0"
"pit-trial","249","1603208","0.0-132.0","battery-v0.2","","""event"",""trial"",""time""
""fullscreenenter"",""1"",""8702""
","
","
","""event"",""trial"",""time""
""fullscreenenter"",""1"",""8702""
","
","","","745.9000000022352","","","13","9835","4533","r","elianto","#3366ff99"," "," ","1","+10","[1605.5]","1","2","","","9835","128","8","1","win","go","0"
"pit-trial","250","1607088","0.0-133.0","battery-v0.2","","""event"",""trial"",""time""
""fullscreenenter"",""1"",""8702""
","
","
","""event"",""trial"",""time""
""fullscreenenter"",""1"",""8702""
","
","","","1011","","","13","9835","4533","h","elianto","#f73b6a7A"," "," ","1","0","[1866.3999999985099]","1","2","","","9835","129","6","3","lose","go","0"
"pit-trial","251","1610696","0.0-134.0","battery-v0.2","","""event"",""trial"",""time""
""fullscreenenter"",""1"",""8702""
","
","
","""event"",""trial"",""time""
""fullscreenenter"",""1"",""8702""
","
","","","745.6999999992549","","","13","9835","4533","m","elianto","#3366ff99"," "," ","1","+10","[1599.1000000014901]","1","2","","","9835","130","9","1","win","go","0"
"pit-trial","252","1615569","0.0-135.0","battery-v0.2","","""event"",""trial"",""time""
""fullscreenenter"",""1"",""8702""
","
","
","""event"",""trial"",""time""
""fullscreenenter"",""1"",""8702""
","
","","","-1","","","13","9835","4533","y","elianto","#f73b6a7A","-1","-1","1","0","[]","0","2","","","9835","131","7","4","lose","no-go","0"
"pit-trial","253","1619216","0.0-136.0","battery-v0.2","","""event"",""trial"",""time""
""fullscreenenter"",""1"",""8702""
","
","
","""event"",""trial"",""time""
""fullscreenenter"",""1"",""8702""
","
","","","778.0999999977648","","","13","9835","4533","r","elianto","#3366ff99"," "," ","1","+10","[1632.4000000022352]","1","2","","","9835","132","8","1","win","go","0"
"pit-trial","254","1622872","0.0-137.0","battery-v0.2","","""event"",""trial"",""time""
""fullscreenenter"",""1"",""8702""
","
","
","""event"",""trial"",""time""
""fullscreenenter"",""1"",""8702""
","
","","","794.1000000014901","","","13","9835","4533","r","elianto","#3366ff99"," "," ","1","+10","[1646.9000000022352]","1","2","","","9835","133","8","1","win","go","0"
"pit-trial","255","1626777","0.0-138.0","battery-v0.2","","""event"",""trial"",""time""
""fullscreenenter"",""1"",""8702""
","
","
","""event"",""trial"",""time""
""fullscreenenter"",""1"",""8702""
","
","","","1032.8999999985099","","","13","9835","4533","h","elianto","#f73b6a7A"," "," ","1","0","[1891.5999999977648]","1","2","","","9835","134","6","3","lose","go","0"
"pit-trial","256","1630592","0.0-139.0","battery-v0.2","","""event"",""trial"",""time""
""fullscreenenter"",""1"",""8702""
","
","
","""event"",""trial"",""time""
""fullscreenenter"",""1"",""8702""
","
","","","950.6000000014901","","","13","9835","4533","m","elianto","#3366ff99"," "," ","1","+10","[1804.3999999985099]","1","2","","","9835","135","9","1","win","go","0"
"pit-trial","257","1635464","0.0-140.0","battery-v0.2","","""event"",""trial"",""time""
""fullscreenenter"",""1"",""8702""
","
","
","""event"",""trial"",""time""
""fullscreenenter"",""1"",""8702""
","
","","","-1","","","13","9835","4533","y","elianto","#f73b6a7A","-1","-1","1","0","[]","0","2","","","9835","136","7","4","lose","no-go","0"
"pit-trial","258","1639128","0.0-141.0","battery-v0.2","","""event"",""trial"",""time""
""fullscreenenter"",""1"",""8702""
","
","
","""event"",""trial"",""time""
""fullscreenenter"",""1"",""8702""
","
","","","798.8000000007451","","","13","9835","4533","m","elianto","#3366ff99"," "," ","1","+10","[1653.199999999255]","1","2","","","9835","137","9","1","win","go","0"
"pit-trial","259","1642913","0.0-142.0","battery-v0.2","","""event"",""trial"",""time""
""fullscreenenter"",""1"",""8702""
","
","
","""event"",""trial"",""time""
""fullscreenenter"",""1"",""8702""
","
","","","921.1999999992549","","","13","9835","4533","h","elianto","#f73b6a7A"," "," ","1","0","[1773.2000000029802]","1","2","","","9835","138","6","3","lose","go","0"
"pit-trial","260","1647784","0.0-143.0","battery-v0.2","","""event"",""trial"",""time""
""fullscreenenter"",""1"",""8702""
","
","
","""event"",""trial"",""time""
""fullscreenenter"",""1"",""8702""
","
","","","-1","","","13","9835","4533","y","elianto","#f73b6a7A","-1","-1","1","0","[]","0","2","","","9835","139","7","4","lose","no-go","0"
"pit-trial","261","1651409","0.0-144.0","battery-v0.2","","""event"",""trial"",""time""
""fullscreenenter"",""1"",""8702""
","
","
","""event"",""trial"",""time""
""fullscreenenter"",""1"",""8702""
","
","","","765.7000000029802","","","13","9835","4533","r","elianto","#3366ff99"," "," ","1","+10","[1616.300000000745]","1","2","","","9835","140","8","1","win","go","0"
"pit-instructions","262","1666723","0.0-145.0","battery-v0.2","","""event"",""trial"",""time""
""fullscreenenter"",""1"",""8702""
","
","
","""event"",""trial"",""time""
""fullscreenenter"",""1"",""8702""
","
","","[{""page_index"":0,""viewing_time"":6424.699999999255},{""page_index"":1,""viewing_time"":8881.60000000149}]","15307.60000000149","","","","","","","","","","","","","","","","","","","","","","","",""
"pit-trial","263","1670937","0.0-146.0","battery-v0.2","","""event"",""trial"",""time""
""fullscreenenter"",""1"",""8702""
","
","
","""event"",""trial"",""time""
""fullscreenenter"",""1"",""8702""
","
","","","1337.0999999977648","","","13","9835","4533","u","elianto","#f73b6a7A","-1"," ","0","0","[2189.2000000029802]","1","3","","","9835","141","0","4","lose","no-go","1"
"pit-trial","264","1675808","0.0-147.0","battery-v0.2","","""event"",""trial"",""time""
""fullscreenenter"",""1"",""8702""
","
","
","""event"",""trial"",""time""
""fullscreenenter"",""1"",""8702""
","
","","","-1","","","13","9835","4533","g","elianto","#f73b6a7A"," ","-1","0","0","[]","0","3","","","9835","142","3","3","lose","go","1"
"pit-trial","265","1679728","0.0-148.0","battery-v0.2","","""event"",""trial"",""time""
""fullscreenenter"",""1"",""8702""
","
","
","""event"",""trial"",""time""
""fullscreenenter"",""1"",""8702""
","
","","","1054.0999999977648","","","13","9835","4533","a","elianto","#f73b6a7A","-1"," ","0","0","[1908.5]","1","3","","","9835","143","2","4","lose","no-go","1"
"pit-trial","266","1683553","0.0-149.0","battery-v0.2","","""event"",""trial"",""time""
""fullscreenenter"",""1"",""8702""
","
","
","""event"",""trial"",""time""
""fullscreenenter"",""1"",""8702""
","
","","","953.3999999985099","","","13","9835","4533","l","elianto","#3366ff99"," "," ","1","+10","[1816.199999999255]","1","3","","","9835","144","1","1","win","go","0"
"pit-trial","267","1687488","0.0-150.0","battery-v0.2","","""event"",""trial"",""time""
""fullscreenenter"",""1"",""8702""
","
","
","""event"",""trial"",""time""
""fullscreenenter"",""1"",""8702""
","
","","","1064.199999999255","","","13","9835","4533","a","elianto","#f73b6a7A","-1"," ","0","-10","[1921.0999999977648]","1","3","","","9835","145","2","4","lose","no-go","0"
