"trial_type","trial_index","time_elapsed","internal_node_id","task_version","subject_id","interactions","blur_events","focus_events","fullscreenenter_events","fullscreenexit_events","success","view_history","rt","responses","num_errors","age","subject","participantId","rune","rune_set","hex","correct","choice","accuracy","outcome","keys","total_keys","block","practice","value","sub","trial","stimulus","robot","valence","action","sham"
"pavlovia","0","6","0.0-0.0","battery-v0.2","","""event"",""trial"",""time""
""fullscreenenter"",""1"",""4331""
""fullscreenenter"",""1"",""4332""
","
","
","""event"",""trial"",""time""
""fullscreenenter"",""1"",""4331""
""fullscreenenter"",""1"",""4332""
","
","","","","","","","","","","","","","","","","","","","","","","","","","","",""
"fullscreen","1","5183","0.0-1.0","battery-v0.2","","""event"",""trial"",""time""
""fullscreenenter"",""1"",""4331""
""fullscreenenter"",""1"",""4332""
","
","
","""event"",""trial"",""time""
""fullscreenenter"",""1"",""4331""
""fullscreenenter"",""1"",""4332""
","
","true","","","","","","","","","","","","","","","","","","","","","","","","","",""
"pit-instructions","2","15055","0.0-2.0-0.0","battery-v0.2","","""event"",""trial"",""time""
""fullscreenenter"",""1"",""4331""
""fullscreenenter"",""1"",""4332""
","
","
","""event"",""trial"",""time""
""fullscreenenter"",""1"",""4331""
""fullscreenenter"",""1"",""4332""
","
","","[{""page_index"":0,""viewing_time"":9869.000000000002}]","9869.000000000002","","","","","","","","","","","","","","","","","","","","","","","",""
"pit-comprehension","3","36895","0.0-2.0-1.0-0.0","battery-v0.2","","""event"",""trial"",""time""
""fullscreenenter"",""1"",""4331""
""fullscreenenter"",""1"",""4332""
","
","
","""event"",""trial"",""time""
""fullscreenenter"",""1"",""4331""
""fullscreenenter"",""1"",""4332""
","
","","","21519","[""fish""]","1","24","12618","5525","","","","","","","","","","","","","","","","","","",""
"pit-instructions","4","38827","0.0-2.0-1.0-1.0","battery-v0.2","","""event"",""trial"",""time""
""fullscreenenter"",""1"",""4331""
""fullscreenenter"",""1"",""4332""
","
","
","""event"",""trial"",""time""
""fullscreenenter"",""1"",""4331""
""fullscreenenter"",""1"",""4332""
","
","","[{""page_index"":0,""viewing_time"":1924}]","1924","","","","","","","","","","","","","","","","","","","","","","","",""
"pit-instructions","5","39993","0.0-2.0-1.0-2.0-0.0","battery-v0.2","","""event"",""trial"",""time""
""fullscreenenter"",""1"",""4331""
""fullscreenenter"",""1"",""4332""
","
","
","""event"",""trial"",""time""
""fullscreenenter"",""1"",""4331""
""fullscreenenter"",""1"",""4332""
","
","","[{""page_index"":0,""viewing_time"":1165}]","1165","","","","","","","","","","","","","","","","","","","","","","","",""
"pit-comprehension","6","42145","0.0-2.0-1.1-0.1","battery-v0.2","","""event"",""trial"",""time""
""fullscreenenter"",""1"",""4331""
""fullscreenenter"",""1"",""4332""
","
","
","""event"",""trial"",""time""
""fullscreenenter"",""1"",""4331""
""fullscreenenter"",""1"",""4332""
","
","","","2149.9999999999927","[""shark""]","0","24","12618","5525","","","","","","","","","","","","","","","","","","",""
"pit-instructions","7","43811","0.0-2.0-1.1-1.1","battery-v0.2","","""event"",""trial"",""time""
""fullscreenenter"",""1"",""4331""
""fullscreenenter"",""1"",""4332""
","
","
","""event"",""trial"",""time""
""fullscreenenter"",""1"",""4331""
""fullscreenenter"",""1"",""4332""
","
","","[{""page_index"":0,""viewing_time"":1662}]","1662","","","","","","","","","","","","","","","","","","","","","","","",""
"pit-comprehension","8","46331","0.0-2.0-2.0-0.0","battery-v0.2","","""event"",""trial"",""time""
""fullscreenenter"",""1"",""4331""
""fullscreenenter"",""1"",""4332""
","
","
","""event"",""trial"",""time""
""fullscreenenter"",""1"",""4331""
""fullscreenenter"",""1"",""4332""
","
","","","2517","[""tiger""]","0","24","12618","5525","","","","","","","","","","","","","","","","","","",""
"pit-instructions","9","50079","0.0-2.0-2.0-1.0","battery-v0.2","","""event"",""trial"",""time""
""fullscreenenter"",""1"",""4331""
""fullscreenenter"",""1"",""4332""
","
","
","""event"",""trial"",""time""
""fullscreenenter"",""1"",""4331""
""fullscreenenter"",""1"",""4332""
","
","","[{""page_index"":0,""viewing_time"":3744}]","3744","","","","","","","","","","","","","","","","","","","","","","","",""
"pit-instructions","10","178475","0.0-2.0-3.0","battery-v0.2","","""event"",""trial"",""time""
""fullscreenenter"",""1"",""4331""
""fullscreenenter"",""1"",""4332""
","
","
","""event"",""trial"",""time""
""fullscreenenter"",""1"",""4331""
""fullscreenenter"",""1"",""4332""
","
","","[{""page_index"":0,""viewing_time"":9181},{""page_index"":1,""viewing_time"":7168},{""page_index"":2,""viewing_time"":18789},{""page_index"":3,""viewing_time"":5367},{""page_index"":4,""viewing_time"":6535},{""page_index"":5,""viewing_time"":6902},{""page_index"":6,""viewing_time"":12620},{""page_index"":7,""viewing_time"":7369},{""page_index"":8,""viewing_time"":12586},{""page_index"":9,""viewing_time"":8902.00000000003},{""page_index"":10,""viewing_time"":9518.99999999997},{""page_index"":11,""viewing_time"":7702},{""page_index"":12,""viewing_time"":8185},{""page_index"":13,""viewing_time"":7569}]","128394","","","","","","","","","","","","","","","","","","","","","","","",""
"pit-trial","11","182169","0.0-2.0-4.0-0.0","battery-v0.2","","""event"",""trial"",""time""
""fullscreenenter"",""1"",""4331""
""fullscreenenter"",""1"",""4332""
","
","
","""event"",""trial"",""time""
""fullscreenenter"",""1"",""4331""
""fullscreenenter"",""1"",""4332""
","
","","","840.0000000000291","","","24","12618","5525","&#9784;","elianto","#FFFFF080"," "," ","1","&#10004","[1691]","1","0","0","","","","","","","",""
"pit-trial","12","185746","0.0-2.0-4.1-0.1","battery-v0.2","","""event"",""trial"",""time""
""fullscreenenter"",""1"",""4331""
""fullscreenenter"",""1"",""4332""
","
","
","""event"",""trial"",""time""
""fullscreenenter"",""1"",""4331""
""fullscreenenter"",""1"",""4332""
","
","","","723.0000000000291","","","24","12618","5525","&#9784;","elianto","#FFFFF080"," "," ","1","&#10004","[1574.000000000029]","1","0","0","","","","","","","",""
"pit-trial","13","189358","0.0-2.0-4.2-0.2","battery-v0.2","","""event"",""trial"",""time""
""fullscreenenter"",""1"",""4331""
""fullscreenenter"",""1"",""4332""
","
","
","""event"",""trial"",""time""
""fullscreenenter"",""1"",""4331""
""fullscreenenter"",""1"",""4332""
","
","","","759","","","24","12618","5525","&#9784;","elianto","#FFFFF080"," "," ","1","&#10004","[1609]","1","0","0","","","","","","","",""
"pit-trial","14","192924","0.0-2.0-4.3-0.3","battery-v0.2","","""event"",""trial"",""time""
""fullscreenenter"",""1"",""4331""
""fullscreenenter"",""1"",""4332""
","
","
","""event"",""trial"",""time""
""fullscreenenter"",""1"",""4331""
""fullscreenenter"",""1"",""4332""
","
","","","713","","","24","12618","5525","&#9784;","elianto","#FFFFF080"," "," ","1","&#10004","[1563]","1","0","0","","","","","","","",""
"pit-trial","15","196310","0.0-2.0-4.4-0.4","battery-v0.2","","""event"",""trial"",""time""
""fullscreenenter"",""1"",""4331""
""fullscreenenter"",""1"",""4332""
","
","
","""event"",""trial"",""time""
""fullscreenenter"",""1"",""4331""
""fullscreenenter"",""1"",""4332""
","
","","","534","","","24","12618","5525","&#9784;","elianto","#FFFFF080"," "," ","1","&#10004","[1384]","1","0","0","","","","","","","",""
"pit-instructions","16","217884","0.0-2.0-5.0","battery-v0.2","","""event"",""trial"",""time""
""fullscreenenter"",""1"",""4331""
""fullscreenenter"",""1"",""4332""
","
","
","""event"",""trial"",""time""
""fullscreenenter"",""1"",""4331""
""fullscreenenter"",""1"",""4332""
","
","","[{""page_index"":0,""viewing_time"":5869},{""page_index"":1,""viewing_time"":5700.000000000029},{""page_index"":2,""viewing_time"":4834.999999999971},{""page_index"":3,""viewing_time"":5168}]","21572","","","","","","","","","","","","","","","","","","","","","","","",""
"pit-trial","17","222738","0.0-2.0-6.0-0.0","battery-v0.2","","""event"",""trial"",""time""
""fullscreenenter"",""1"",""4331""
""fullscreenenter"",""1"",""4332""
","
","
","""event"",""trial"",""time""
""fullscreenenter"",""1"",""4331""
""fullscreenenter"",""1"",""4332""
","
","","","-1","","","24","12618","5525","&#9854;","elianto","#FFFFF080","-1","-1","1","&#10004","[]","0","0","1","","","","","","","",""
"pit-trial","18","227592","0.0-2.0-6.1-0.1","battery-v0.2","","""event"",""trial"",""time""
""fullscreenenter"",""1"",""4331""
""fullscreenenter"",""1"",""4332""
","
","
","""event"",""trial"",""time""
""fullscreenenter"",""1"",""4331""
""fullscreenenter"",""1"",""4332""
","
","","","-1","","","24","12618","5525","&#9854;","elianto","#FFFFF080","-1","-1","1","&#10004","[]","0","0","1","","","","","","","",""
"pit-trial","19","232446","0.0-2.0-6.2-0.2","battery-v0.2","","""event"",""trial"",""time""
""fullscreenenter"",""1"",""4331""
""fullscreenenter"",""1"",""4332""
","
","
","""event"",""trial"",""time""
""fullscreenenter"",""1"",""4331""
""fullscreenenter"",""1"",""4332""
","
","","","-1","","","24","12618","5525","&#9854;","elianto","#FFFFF080","-1","-1","1","&#10004","[]","0","0","1","","","","","","","",""
"pit-trial","20","237299","0.0-2.0-6.3-0.3","battery-v0.2","","""event"",""trial"",""time""
""fullscreenenter"",""1"",""4331""
""fullscreenenter"",""1"",""4332""
","
","
","""event"",""trial"",""time""
""fullscreenenter"",""1"",""4331""
""fullscreenenter"",""1"",""4332""
","
","","","-1","","","24","12618","5525","&#9854;","elianto","#FFFFF080","-1","-1","1","&#10004","[]","0","0","1","","","","","","","",""
"pit-trial","21","242154","0.0-2.0-6.4-0.4","battery-v0.2","","""event"",""trial"",""time""
""fullscreenenter"",""1"",""4331""
""fullscreenenter"",""1"",""4332""
","
","
","""event"",""trial"",""time""
""fullscreenenter"",""1"",""4331""
""fullscreenenter"",""1"",""4332""
","
","","","-1","","","24","12618","5525","&#9854;","elianto","#FFFFF080","-1","-1","1","&#10004","[]","0","0","1","","","","","","","",""
"pit-instructions","22","542226","0.0-2.0-7.0","battery-v0.2","","""event"",""trial"",""time""
""fullscreenenter"",""1"",""4331""
""fullscreenenter"",""1"",""4332""
","
","
","""event"",""trial"",""time""
""fullscreenenter"",""1"",""4331""
""fullscreenenter"",""1"",""4332""
","
","","[{""page_index"":0,""viewing_time"":8152},{""page_index"":1,""viewing_time"":51695},{""page_index"":2,""viewing_time"":8819},{""page_index"":3,""viewing_time"":111227},{""page_index"":4,""viewing_time"":12520},{""page_index"":5,""viewing_time"":11419},{""page_index"":6,""viewing_time"":7352},{""page_index"":7,""viewing_time"":15136},{""page_index"":8,""viewing_time"":6569},{""page_index"":9,""viewing_time"":6668},{""page_index"":10,""viewing_time"":6768},{""page_index"":11,""viewing_time"":5636},{""page_index"":12,""viewing_time"":7835},{""page_index"":13,""viewing_time"":8035},{""page_index"":14,""viewing_time"":7602.000000000058},{""page_index"":15,""viewing_time"":7801.999999999942},{""page_index"":16,""viewing_time"":9085},{""page_index"":17,""viewing_time"":7752}]","300072","","","","","","","","","","","","","","","","","","","","","","","",""
"pit-trial","23","545655","0.0-2.0-8.0-0.0","battery-v0.2","","""event"",""trial"",""time""
""fullscreenenter"",""1"",""4331""
""fullscreenenter"",""1"",""4332""
","
","
","""event"",""trial"",""time""
""fullscreenenter"",""1"",""4331""
""fullscreenenter"",""1"",""4332""
","
","","","576","","","24","12618","5525","&#9776;","elianto","#3366ff99"," "," ","1","+10","[1426]","1","0","1","","","","","","","",""
"pit-trial","24","549053","0.0-2.0-8.0-1.0","battery-v0.2","","""event"",""trial"",""time""
""fullscreenenter"",""1"",""4331""
""fullscreenenter"",""1"",""4332""
","
","
","""event"",""trial"",""time""
""fullscreenenter"",""1"",""4331""
""fullscreenenter"",""1"",""4332""
","
","","","545","","","24","12618","5525","&#9776;","elianto","#3366ff99"," "," ","1","+10","[1394]","1","0","1","","","","","","","",""
"pit-trial","25","552440","0.0-2.0-8.0-2.0","battery-v0.2","","""event"",""trial"",""time""
""fullscreenenter"",""1"",""4331""
""fullscreenenter"",""1"",""4332""
","
","
","""event"",""trial"",""time""
""fullscreenenter"",""1"",""4331""
""fullscreenenter"",""1"",""4332""
","
","","","533","","","24","12618","5525","&#9776;","elianto","#3366ff99"," "," ","1","+10","[1384,2261,3015]","3","0","1","","","","","","","",""
"pit-trial","26","555894","0.0-2.0-8.0-3.0","battery-v0.2","","""event"",""trial"",""time""
""fullscreenenter"",""1"",""4331""
""fullscreenenter"",""1"",""4332""
","
","
","""event"",""trial"",""time""
""fullscreenenter"",""1"",""4331""
""fullscreenenter"",""1"",""4332""
","
","","","601","","","24","12618","5525","&#9776;","elianto","#3366ff99"," "," ","1","0","[1450.9999999998836,2395.9999999998836,2699.9999999998836,3216.9999999998836]","4","0","1","","","","","","","",""
"pit-trial","27","559460","0.0-2.0-8.0-4.0","battery-v0.2","","""event"",""trial"",""time""
""fullscreenenter"",""1"",""4331""
""fullscreenenter"",""1"",""4332""
","
","
","""event"",""trial"",""time""
""fullscreenenter"",""1"",""4331""
""fullscreenenter"",""1"",""4332""
","
","","","713","","","24","12618","5525","&#9776;","elianto","#3366ff99"," "," ","1","+10","[111,1563]","2","0","1","","","","","","","",""
"pit-trial","28","562891","0.0-2.0-8.1-0.1","battery-v0.2","","""event"",""trial"",""time""
""fullscreenenter"",""1"",""4331""
""fullscreenenter"",""1"",""4332""
","
","
","""event"",""trial"",""time""
""fullscreenenter"",""1"",""4331""
""fullscreenenter"",""1"",""4332""
","
","","","577","","","24","12618","5525","&#9776;","elianto","#3366ff99"," "," ","1","+10","[1428]","1","0","1","","","","","","","",""
"pit-trial","29","566367","0.0-2.0-8.1-1.1","battery-v0.2","","""event"",""trial"",""time""
""fullscreenenter"",""1"",""4331""
""fullscreenenter"",""1"",""4332""
","
","
","""event"",""trial"",""time""
""fullscreenenter"",""1"",""4331""
""fullscreenenter"",""1"",""4332""
","
","","","624","","","24","12618","5525","&#9776;","elianto","#3366ff99"," "," ","1","+10","[1474]","1","0","1","","","","","","","",""
"pit-trial","30","569833","0.0-2.0-8.1-2.1","battery-v0.2","","""event"",""trial"",""time""
""fullscreenenter"",""1"",""4331""
""fullscreenenter"",""1"",""4332""
","
","
","""event"",""trial"",""time""
""fullscreenenter"",""1"",""4331""
""fullscreenenter"",""1"",""4332""
","
","","","612","","","24","12618","5525","&#9776;","elianto","#3366ff99"," "," ","1","+10","[1463]","1","0","1","","","","","","","",""
"pit-trial","31","573219","0.0-2.0-8.1-3.1","battery-v0.2","","""event"",""trial"",""time""
""fullscreenenter"",""1"",""4331""
""fullscreenenter"",""1"",""4332""
","
","
","""event"",""trial"",""time""
""fullscreenenter"",""1"",""4331""
""fullscreenenter"",""1"",""4332""
","
","","","534","","","24","12618","5525","&#9776;","elianto","#3366ff99"," "," ","1","0","[1384]","1","0","1","","","","","","","",""
"pit-trial","32","576559","0.0-2.0-8.1-4.1","battery-v0.2","","""event"",""trial"",""time""
""fullscreenenter"",""1"",""4331""
""fullscreenenter"",""1"",""4332""
","
","
","""event"",""trial"",""time""
""fullscreenenter"",""1"",""4331""
""fullscreenenter"",""1"",""4332""
","
","","","486.9999999998836","","","24","12618","5525","&#9776;","elianto","#3366ff99"," "," ","1","+10","[1337.9999999998836]","1","0","1","","","","","","","",""
"pit-trial","33","579925","0.0-2.0-8.2-0.2","battery-v0.2","","""event"",""trial"",""time""
""fullscreenenter"",""1"",""4331""
""fullscreenenter"",""1"",""4332""
","
","
","""event"",""trial"",""time""
""fullscreenenter"",""1"",""4331""
""fullscreenenter"",""1"",""4332""
","
","","","510","","","24","12618","5525","&#9776;","elianto","#3366ff99"," "," ","1","+10","[1362]","1","0","1","","","","","","","",""
"pit-trial","34","583276","0.0-2.0-8.2-1.2","battery-v0.2","","""event"",""trial"",""time""
""fullscreenenter"",""1"",""4331""
""fullscreenenter"",""1"",""4332""
","
","
","""event"",""trial"",""time""
""fullscreenenter"",""1"",""4331""
""fullscreenenter"",""1"",""4332""
","
","","","498","","","24","12618","5525","&#9776;","elianto","#3366ff99"," "," ","1","+10","[1349]","1","0","1","","","","","","","",""
"pit-trial","35","586618","0.0-2.0-8.2-2.2","battery-v0.2","","""event"",""trial"",""time""
""fullscreenenter"",""1"",""4331""
""fullscreenenter"",""1"",""4332""
","
","
","""event"",""trial"",""time""
""fullscreenenter"",""1"",""4331""
""fullscreenenter"",""1"",""4332""
","
","","","489","","","24","12618","5525","&#9776;","elianto","#3366ff99"," "," ","1","+10","[1340]","1","0","1","","","","","","","",""
"pit-trial","36","589925","0.0-2.0-8.2-3.2","battery-v0.2","","""event"",""trial"",""time""
""fullscreenenter"",""1"",""4331""
""fullscreenenter"",""1"",""4332""
","
","
","""event"",""trial"",""time""
""fullscreenenter"",""1"",""4331""
""fullscreenenter"",""1"",""4332""
","
","","","453.9999999998836","","","24","12618","5525","&#9776;","elianto","#3366ff99"," "," ","1","0","[1304.9999999998836]","1","0","1","","","","","","","",""
"pit-trial","37","593256","0.0-2.0-8.2-4.2","battery-v0.2","","""event"",""trial"",""time""
""fullscreenenter"",""1"",""4331""
""fullscreenenter"",""1"",""4332""
","
","
","""event"",""trial"",""time""
""fullscreenenter"",""1"",""4331""
""fullscreenenter"",""1"",""4332""
","
","","","477","","","24","12618","5525","&#9776;","elianto","#3366ff99"," "," ","1","+10","[1329]","1","0","1","","","","","","","",""
"call-function","38","593257","0.0-2.0-9.0","battery-v0.2","","""event"",""trial"",""time""
""fullscreenenter"",""1"",""4331""
""fullscreenenter"",""1"",""4332""
","
","
","""event"",""trial"",""time""
""fullscreenenter"",""1"",""4331""
""fullscreenenter"",""1"",""4332""
","
","","","","","","","","","","","","","","","","","","","","","","","","","","",""
"pit-instructions","39","636364","0.0-2.0-10.0","battery-v0.2","","""event"",""trial"",""time""
""fullscreenenter"",""1"",""4331""
""fullscreenenter"",""1"",""4332""
","
","
","""event"",""trial"",""time""
""fullscreenenter"",""1"",""4331""
""fullscreenenter"",""1"",""4332""
","
","","[{""page_index"":0,""viewing_time"":6564},{""page_index"":1,""viewing_time"":7568},{""page_index"":2,""viewing_time"":10336},{""page_index"":3,""viewing_time"":10803},{""page_index"":4,""viewing_time"":7835.000000000116}]","43106.00000000012","","","","","","","","","","","","","","","","","","","","","","","",""
"pit-trial","40","639800","0.0-2.0-11.0-0.0","battery-v0.2","","""event"",""trial"",""time""
""fullscreenenter"",""1"",""4331""
""fullscreenenter"",""1"",""4332""
","
","
","""event"",""trial"",""time""
""fullscreenenter"",""1"",""4331""
""fullscreenenter"",""1"",""4332""
","
","","","581","","","24","12618","5525","&#9761;","elianto","#3366ff99","-1"," ","0","0","[1432]","1","0","2","","","","","","","",""
"pit-trial","41","643151","0.0-2.0-11.0-1.0","battery-v0.2","","""event"",""trial"",""time""
""fullscreenenter"",""1"",""4331""
""fullscreenenter"",""1"",""4332""
","
","
","""event"",""trial"",""time""
""fullscreenenter"",""1"",""4331""
""fullscreenenter"",""1"",""4332""
","
","","","496","","","24","12618","5525","&#9761;","elianto","#3366ff99","-1"," ","0","0","[1348]","1","0","2","","","","","","","",""
"pit-trial","42","648005","0.0-2.0-11.0-2.0","battery-v0.2","","""event"",""trial"",""time""
""fullscreenenter"",""1"",""4331""
""fullscreenenter"",""1"",""4332""
","
","
","""event"",""trial"",""time""
""fullscreenenter"",""1"",""4331""
""fullscreenenter"",""1"",""4332""
","
","","","-1","","","24","12618","5525","&#9761;","elianto","#3366ff99","-1","-1","1","+10","[]","0","0","2","","","","","","","",""
"pit-trial","43","652858","0.0-2.0-11.0-3.0","battery-v0.2","","""event"",""trial"",""time""
""fullscreenenter"",""1"",""4331""
""fullscreenenter"",""1"",""4332""
","
","
","""event"",""trial"",""time""
""fullscreenenter"",""1"",""4331""
""fullscreenenter"",""1"",""4332""
","
","","","-1","","","24","12618","5525","&#9761;","elianto","#3366ff99","-1","-1","1","0","[]","0","0","2","","","","","","","",""
"pit-trial","44","657711","0.0-2.0-11.0-4.0","battery-v0.2","","""event"",""trial"",""time""
""fullscreenenter"",""1"",""4331""
""fullscreenenter"",""1"",""4332""
","
","
","""event"",""trial"",""time""
""fullscreenenter"",""1"",""4331""
""fullscreenenter"",""1"",""4332""
","
","","","-1","","","24","12618","5525","&#9761;","elianto","#3366ff99","-1","-1","1","+10","[]","0","0","2","","","","","","","",""
"pit-trial","45","662565","0.0-2.0-11.1-0.1","battery-v0.2","","""event"",""trial"",""time""
""fullscreenenter"",""1"",""4331""
""fullscreenenter"",""1"",""4332""
","
","
","""event"",""trial"",""time""
""fullscreenenter"",""1"",""4331""
""fullscreenenter"",""1"",""4332""
","
","","","-1","","","24","12618","5525","&#9761;","elianto","#3366ff99","-1","-1","1","+10","[]","0","0","2","","","","","","","",""
"pit-trial","46","667418","0.0-2.0-11.1-1.1","battery-v0.2","","""event"",""trial"",""time""
""fullscreenenter"",""1"",""4331""
""fullscreenenter"",""1"",""4332""
","
","
","""event"",""trial"",""time""
""fullscreenenter"",""1"",""4331""
""fullscreenenter"",""1"",""4332""
","
","","","-1","","","24","12618","5525","&#9761;","elianto","#3366ff99","-1","-1","1","+10","[]","0","0","2","","","","","","","",""
"pit-trial","47","672271","0.0-2.0-11.1-2.1","battery-v0.2","","""event"",""trial"",""time""
""fullscreenenter"",""1"",""4331""
""fullscreenenter"",""1"",""4332""
","
","
","""event"",""trial"",""time""
""fullscreenenter"",""1"",""4331""
""fullscreenenter"",""1"",""4332""
","
","","","-1","","","24","12618","5525","&#9761;","elianto","#3366ff99","-1","-1","1","+10","[]","0","0","2","","","","","","","",""
"pit-trial","48","677124","0.0-2.0-11.1-3.1","battery-v0.2","","""event"",""trial"",""time""
""fullscreenenter"",""1"",""4331""
""fullscreenenter"",""1"",""4332""
","
","
","""event"",""trial"",""time""
""fullscreenenter"",""1"",""4331""
""fullscreenenter"",""1"",""4332""
","
","","","-1","","","24","12618","5525","&#9761;","elianto","#3366ff99","-1","-1","1","0","[]","0","0","2","","","","","","","",""
"pit-trial","49","681978","0.0-2.0-11.1-4.1","battery-v0.2","","""event"",""trial"",""time""
""fullscreenenter"",""1"",""4331""
""fullscreenenter"",""1"",""4332""
","
","
","""event"",""trial"",""time""
""fullscreenenter"",""1"",""4331""
""fullscreenenter"",""1"",""4332""
","
","","","-1","","","24","12618","5525","&#9761;","elianto","#3366ff99","-1","-1","1","+10","[]","0","0","2","","","","","","","",""
"pit-trial","50","686833","0.0-2.0-11.2-0.2","battery-v0.2","","""event"",""trial"",""time""
""fullscreenenter"",""1"",""4331""
""fullscreenenter"",""1"",""4332""
","
","
","""event"",""trial"",""time""
""fullscreenenter"",""1"",""4331""
""fullscreenenter"",""1"",""4332""
","
","","","-1","","","24","12618","5525","&#9761;","elianto","#3366ff99","-1","-1","1","+10","[]","0","0","2","","","","","","","",""
"pit-trial","51","691686","0.0-2.0-11.2-1.2","battery-v0.2","","""event"",""trial"",""time""
""fullscreenenter"",""1"",""4331""
""fullscreenenter"",""1"",""4332""
","
","
","""event"",""trial"",""time""
""fullscreenenter"",""1"",""4331""
""fullscreenenter"",""1"",""4332""
","
","","","-1","","","24","12618","5525","&#9761;","elianto","#3366ff99","-1","-1","1","+10","[]","0","0","2","","","","","","","",""
"pit-trial","52","696538","0.0-2.0-11.2-2.2","battery-v0.2","","""event"",""trial"",""time""
""fullscreenenter"",""1"",""4331""
""fullscreenenter"",""1"",""4332""
","
","
","""event"",""trial"",""time""
""fullscreenenter"",""1"",""4331""
""fullscreenenter"",""1"",""4332""
","
","","","-1","","","24","12618","5525","&#9761;","elianto","#3366ff99","-1","-1","1","+10","[]","0","0","2","","","","","","","",""
"pit-trial","53","701394","0.0-2.0-11.2-3.2","battery-v0.2","","""event"",""trial"",""time""
""fullscreenenter"",""1"",""4331""
""fullscreenenter"",""1"",""4332""
","
","
","""event"",""trial"",""time""
""fullscreenenter"",""1"",""4331""
""fullscreenenter"",""1"",""4332""
","
","","","-1","","","24","12618","5525","&#9761;","elianto","#3366ff99","-1","-1","1","0","[]","0","0","2","","","","","","","",""
"pit-trial","54","706249","0.0-2.0-11.2-4.2","battery-v0.2","","""event"",""trial"",""time""
""fullscreenenter"",""1"",""4331""
""fullscreenenter"",""1"",""4332""
","
","
","""event"",""trial"",""time""
""fullscreenenter"",""1"",""4331""
""fullscreenenter"",""1"",""4332""
","
","","","-1","","","24","12618","5525","&#9761;","elianto","#3366ff99","-1","-1","1","+10","[]","0","0","2","","","","","","","",""
"pit-trial","55","711103","0.0-2.0-11.3-0.3","battery-v0.2","","""event"",""trial"",""time""
""fullscreenenter"",""1"",""4331""
""fullscreenenter"",""1"",""4332""
","
","
","""event"",""trial"",""time""
""fullscreenenter"",""1"",""4331""
""fullscreenenter"",""1"",""4332""
","
","","","-1","","","24","12618","5525","&#9761;","elianto","#3366ff99","-1","-1","1","+10","[]","0","0","2","","","","","","","",""
"pit-trial","56","715956","0.0-2.0-11.3-1.3","battery-v0.2","","""event"",""trial"",""time""
""fullscreenenter"",""1"",""4331""
""fullscreenenter"",""1"",""4332""
","
","
","""event"",""trial"",""time""
""fullscreenenter"",""1"",""4331""
""fullscreenenter"",""1"",""4332""
","
","","","-1","","","24","12618","5525","&#9761;","elianto","#3366ff99","-1","-1","1","+10","[]","0","0","2","","","","","","","",""
"pit-trial","57","720810","0.0-2.0-11.3-2.3","battery-v0.2","","""event"",""trial"",""time""
""fullscreenenter"",""1"",""4331""
""fullscreenenter"",""1"",""4332""
","
","
","""event"",""trial"",""time""
""fullscreenenter"",""1"",""4331""
""fullscreenenter"",""1"",""4332""
","
","","","-1","","","24","12618","5525","&#9761;","elianto","#3366ff99","-1","-1","1","+10","[]","0","0","2","","","","","","","",""
"pit-trial","58","725663","0.0-2.0-11.3-3.3","battery-v0.2","","""event"",""trial"",""time""
""fullscreenenter"",""1"",""4331""
""fullscreenenter"",""1"",""4332""
","
","
","""event"",""trial"",""time""
""fullscreenenter"",""1"",""4331""
""fullscreenenter"",""1"",""4332""
","
","","","-1","","","24","12618","5525","&#9761;","elianto","#3366ff99","-1","-1","1","0","[]","0","0","2","","","","","","","",""
"pit-trial","59","730516","0.0-2.0-11.3-4.3","battery-v0.2","","""event"",""trial"",""time""
""fullscreenenter"",""1"",""4331""
""fullscreenenter"",""1"",""4332""
","
","
","""event"",""trial"",""time""
""fullscreenenter"",""1"",""4331""
""fullscreenenter"",""1"",""4332""
","
","","","-1","","","24","12618","5525","&#9761;","elianto","#3366ff99","-1","-1","1","+10","[]","0","0","2","","","","","","","",""
"call-function","60","730518","0.0-2.0-12.0","battery-v0.2","","""event"",""trial"",""time""
""fullscreenenter"",""1"",""4331""
""fullscreenenter"",""1"",""4332""
","
","
","""event"",""trial"",""time""
""fullscreenenter"",""1"",""4331""
""fullscreenenter"",""1"",""4332""
","
","","","","","","","","","","","","","","","","","","","","","","","","","","",""
"pit-instructions","61","773779","0.0-2.0-13.0","battery-v0.2","","""event"",""trial"",""time""
""fullscreenenter"",""1"",""4331""
""fullscreenenter"",""1"",""4332""
","
","
","""event"",""trial"",""time""
""fullscreenenter"",""1"",""4331""
""fullscreenenter"",""1"",""4332""
","
","","[{""page_index"":0,""viewing_time"":9986},{""page_index"":1,""viewing_time"":11120},{""page_index"":2,""viewing_time"":4117},{""page_index"":3,""viewing_time"":11486},{""page_index"":4,""viewing_time"":6552}]","43261","","","","","","","","","","","","","","","","","","","","","","","",""
"pit-trial","62","777299","0.0-2.0-14.0-0.0","battery-v0.2","","""event"",""trial"",""time""
""fullscreenenter"",""1"",""4331""
""fullscreenenter"",""1"",""4332""
","
","
","""event"",""trial"",""time""
""fullscreenenter"",""1"",""4331""
""fullscreenenter"",""1"",""4332""
","
","","","667","","","24","12618","5525","&#9826;","elianto","#f73b6a7A","-1"," ","0","-10","[1519]","1","0","3","","","","","","","",""
"pit-trial","63","782154","0.0-2.0-14.0-1.0","battery-v0.2","","""event"",""trial"",""time""
""fullscreenenter"",""1"",""4331""
""fullscreenenter"",""1"",""4332""
","
","
","""event"",""trial"",""time""
""fullscreenenter"",""1"",""4331""
""fullscreenenter"",""1"",""4332""
","
","","","-1","","","24","12618","5525","&#9826;","elianto","#f73b6a7A","-1","-1","1","0","[]","0","0","3","","","","","","","",""
"pit-trial","64","787007","0.0-2.0-14.0-2.0","battery-v0.2","","""event"",""trial"",""time""
""fullscreenenter"",""1"",""4331""
""fullscreenenter"",""1"",""4332""
","
","
","""event"",""trial"",""time""
""fullscreenenter"",""1"",""4331""
""fullscreenenter"",""1"",""4332""
","
","","","-1","","","24","12618","5525","&#9826;","elianto","#f73b6a7A","-1","-1","1","0","[]","0","0","3","","","","","","","",""
"pit-trial","65","791860","0.0-2.0-14.0-3.0","battery-v0.2","","""event"",""trial"",""time""
""fullscreenenter"",""1"",""4331""
""fullscreenenter"",""1"",""4332""
","
","
","""event"",""trial"",""time""
""fullscreenenter"",""1"",""4331""
""fullscreenenter"",""1"",""4332""
","
","","","-1","","","24","12618","5525","&#9826;","elianto","#f73b6a7A","-1","-1","1","-10","[]","0","0","3","","","","","","","",""
"pit-trial","66","796713","0.0-2.0-14.0-4.0","battery-v0.2","","""event"",""trial"",""time""
""fullscreenenter"",""1"",""4331""
""fullscreenenter"",""1"",""4332""
","
","
","""event"",""trial"",""time""
""fullscreenenter"",""1"",""4331""
""fullscreenenter"",""1"",""4332""
","
","","","-1","","","24","12618","5525","&#9826;","elianto","#f73b6a7A","-1","-1","1","0","[]","0","0","3","","","","","","","",""
"pit-trial","67","801567","0.0-2.0-14.1-0.1","battery-v0.2","","""event"",""trial"",""time""
""fullscreenenter"",""1"",""4331""
""fullscreenenter"",""1"",""4332""
","
","
","""event"",""trial"",""time""
""fullscreenenter"",""1"",""4331""
""fullscreenenter"",""1"",""4332""
","
","","","-1","","","24","12618","5525","&#9826;","elianto","#f73b6a7A","-1","-1","1","0","[]","0","0","3","","","","","","","",""
"pit-trial","68","806420","0.0-2.0-14.1-1.1","battery-v0.2","","""event"",""trial"",""time""
""fullscreenenter"",""1"",""4331""
""fullscreenenter"",""1"",""4332""
","
","
","""event"",""trial"",""time""
""fullscreenenter"",""1"",""4331""
""fullscreenenter"",""1"",""4332""
","
","","","-1","","","24","12618","5525","&#9826;","elianto","#f73b6a7A","-1","-1","1","0","[]","0","0","3","","","","","","","",""
"pit-trial","69","811273","0.0-2.0-14.1-2.1","battery-v0.2","","""event"",""trial"",""time""
""fullscreenenter"",""1"",""4331""
""fullscreenenter"",""1"",""4332""
","
","
","""event"",""trial"",""time""
""fullscreenenter"",""1"",""4331""
""fullscreenenter"",""1"",""4332""
","
","","","-1","","","24","12618","5525","&#9826;","elianto","#f73b6a7A","-1","-1","1","0","[]","0","0","3","","","","","","","",""
"pit-trial","70","816126","0.0-2.0-14.1-3.1","battery-v0.2","","""event"",""trial"",""time""
""fullscreenenter"",""1"",""4331""
""fullscreenenter"",""1"",""4332""
","
","
","""event"",""trial"",""time""
""fullscreenenter"",""1"",""4331""
""fullscreenenter"",""1"",""4332""
","
","","","-1","","","24","12618","5525","&#9826;","elianto","#f73b6a7A","-1","-1","1","-10","[]","0","0","3","","","","","","","",""
"pit-trial","71","820979","0.0-2.0-14.1-4.1","battery-v0.2","","""event"",""trial"",""time""
""fullscreenenter"",""1"",""4331""
""fullscreenenter"",""1"",""4332""
","
","
","""event"",""trial"",""time""
""fullscreenenter"",""1"",""4331""
""fullscreenenter"",""1"",""4332""
","
","","","-1","","","24","12618","5525","&#9826;","elianto","#f73b6a7A","-1","-1","1","0","[]","0","0","3","","","","","","","",""
"pit-trial","72","825831","0.0-2.0-14.2-0.2","battery-v0.2","","""event"",""trial"",""time""
""fullscreenenter"",""1"",""4331""
""fullscreenenter"",""1"",""4332""
","
","
","""event"",""trial"",""time""
""fullscreenenter"",""1"",""4331""
""fullscreenenter"",""1"",""4332""
","
","","","-1","","","24","12618","5525","&#9826;","elianto","#f73b6a7A","-1","-1","1","0","[]","0","0","3","","","","","","","",""
"pit-trial","73","830684","0.0-2.0-14.2-1.2","battery-v0.2","","""event"",""trial"",""time""
""fullscreenenter"",""1"",""4331""
""fullscreenenter"",""1"",""4332""
","
","
","""event"",""trial"",""time""
""fullscreenenter"",""1"",""4331""
""fullscreenenter"",""1"",""4332""
","
","","","-1","","","24","12618","5525","&#9826;","elianto","#f73b6a7A","-1","-1","1","0","[]","0","0","3","","","","","","","",""
"pit-trial","74","835539","0.0-2.0-14.2-2.2","battery-v0.2","","""event"",""trial"",""time""
""fullscreenenter"",""1"",""4331""
""fullscreenenter"",""1"",""4332""
","
","
","""event"",""trial"",""time""
""fullscreenenter"",""1"",""4331""
""fullscreenenter"",""1"",""4332""
","
","","","-1","","","24","12618","5525","&#9826;","elianto","#f73b6a7A","-1","-1","1","0","[]","0","0","3","","","","","","","",""
"pit-trial","75","840392","0.0-2.0-14.2-3.2","battery-v0.2","","""event"",""trial"",""time""
""fullscreenenter"",""1"",""4331""
""fullscreenenter"",""1"",""4332""
","
","
","""event"",""trial"",""time""
""fullscreenenter"",""1"",""4331""
""fullscreenenter"",""1"",""4332""
","
","","","-1","","","24","12618","5525","&#9826;","elianto","#f73b6a7A","-1","-1","1","-10","[]","0","0","3","","","","","","","",""
"pit-trial","76","845245","0.0-2.0-14.2-4.2","battery-v0.2","","""event"",""trial"",""time""
""fullscreenenter"",""1"",""4331""
""fullscreenenter"",""1"",""4332""
","
","
","""event"",""trial"",""time""
""fullscreenenter"",""1"",""4331""
""fullscreenenter"",""1"",""4332""
","
","","","-1","","","24","12618","5525","&#9826;","elianto","#f73b6a7A","-1","-1","1","0","[]","0","0","3","","","","","","","",""
"pit-trial","77","850098","0.0-2.0-14.3-0.3","battery-v0.2","","""event"",""trial"",""time""
""fullscreenenter"",""1"",""4331""
""fullscreenenter"",""1"",""4332""
","
","
","""event"",""trial"",""time""
""fullscreenenter"",""1"",""4331""
""fullscreenenter"",""1"",""4332""
","
","","","-1","","","24","12618","5525","&#9826;","elianto","#f73b6a7A","-1","-1","1","0","[]","0","0","3","","","","","","","",""
"pit-trial","78","854952","0.0-2.0-14.3-1.3","battery-v0.2","","""event"",""trial"",""time""
""fullscreenenter"",""1"",""4331""
""fullscreenenter"",""1"",""4332""
","
","
","""event"",""trial"",""time""
""fullscreenenter"",""1"",""4331""
""fullscreenenter"",""1"",""4332""
","
","","","-1","","","24","12618","5525","&#9826;","elianto","#f73b6a7A","-1","-1","1","0","[]","0","0","3","","","","","","","",""
"pit-trial","79","859807","0.0-2.0-14.3-2.3","battery-v0.2","","""event"",""trial"",""time""
""fullscreenenter"",""1"",""4331""
""fullscreenenter"",""1"",""4332""
","
","
","""event"",""trial"",""time""
""fullscreenenter"",""1"",""4331""
""fullscreenenter"",""1"",""4332""
","
","","","-1","","","24","12618","5525","&#9826;","elianto","#f73b6a7A","-1","-1","1","0","[]","0","0","3","","","","","","","",""
"pit-trial","80","864661","0.0-2.0-14.3-3.3","battery-v0.2","","""event"",""trial"",""time""
""fullscreenenter"",""1"",""4331""
""fullscreenenter"",""1"",""4332""
","
","
","""event"",""trial"",""time""
""fullscreenenter"",""1"",""4331""
""fullscreenenter"",""1"",""4332""
","
","","","-1","","","24","12618","5525","&#9826;","elianto","#f73b6a7A","-1","-1","1","-10","[]","0","0","3","","","","","","","",""
"pit-trial","81","869514","0.0-2.0-14.3-4.3","battery-v0.2","","""event"",""trial"",""time""
""fullscreenenter"",""1"",""4331""
""fullscreenenter"",""1"",""4332""
","
","
","""event"",""trial"",""time""
""fullscreenenter"",""1"",""4331""
""fullscreenenter"",""1"",""4332""
","
","","","-1","","","24","12618","5525","&#9826;","elianto","#f73b6a7A","-1","-1","1","0","[]","0","0","3","","","","","","","",""
"call-function","82","869515","0.0-2.0-15.0","battery-v0.2","","""event"",""trial"",""time""
""fullscreenenter"",""1"",""4331""
""fullscreenenter"",""1"",""4332""
","
","
","""event"",""trial"",""time""
""fullscreenenter"",""1"",""4331""
""fullscreenenter"",""1"",""4332""
","
","","","","","","","","","","","","","","","","","","","","","","","","","","",""
"pit-instructions","83","1040191","0.0-2.0-16.0","battery-v0.2","","""event"",""trial"",""time""
""fullscreenenter"",""1"",""4331""
""fullscreenenter"",""1"",""4332""
","
","
","""event"",""trial"",""time""
""fullscreenenter"",""1"",""4331""
""fullscreenenter"",""1"",""4332""
","
","","[{""page_index"":0,""viewing_time"":10221},{""page_index"":1,""viewing_time"":149737},{""page_index"":2,""viewing_time"":5801},{""page_index"":3,""viewing_time"":4918.000000000116}]","170677.00000000012","","","","","","","","","","","","","","","","","","","","","","","",""
"pit-trial","84","1045045","0.0-2.0-17.0-0.0","battery-v0.2","","""event"",""trial"",""time""
""fullscreenenter"",""1"",""4331""
""fullscreenenter"",""1"",""4332""
","
","
","""event"",""trial"",""time""
""fullscreenenter"",""1"",""4331""
""fullscreenenter"",""1"",""4332""
","
","","","-1","","","24","12618","5525","&#9789;","elianto","#f73b6a7A"," ","-1","0","-10","[]","0","0","4","","","","","","","",""
"pit-trial","85","1049899","0.0-2.0-17.0-1.0","battery-v0.2","","""event"",""trial"",""time""
""fullscreenenter"",""1"",""4331""
""fullscreenenter"",""1"",""4332""
","
","
","""event"",""trial"",""time""
""fullscreenenter"",""1"",""4331""
""fullscreenenter"",""1"",""4332""
","
","","","-1","","","24","12618","5525","&#9789;","elianto","#f73b6a7A"," ","-1","0","-10","[]","0","0","4","","","","","","","",""
"pit-trial","86","1054752","0.0-2.0-17.0-2.0","battery-v0.2","","""event"",""trial"",""time""
""fullscreenenter"",""1"",""4331""
""fullscreenenter"",""1"",""4332""
","
","
","""event"",""trial"",""time""
""fullscreenenter"",""1"",""4331""
""fullscreenenter"",""1"",""4332""
","
","","","-1","","","24","12618","5525","&#9789;","elianto","#f73b6a7A"," ","-1","0","-10","[]","0","0","4","","","","","","","",""
"pit-trial","87","1058750","0.0-2.0-17.0-3.0","battery-v0.2","","""event"",""trial"",""time""
""fullscreenenter"",""1"",""4331""
""fullscreenenter"",""1"",""4332""
","
","
","""event"",""trial"",""time""
""fullscreenenter"",""1"",""4331""
""fullscreenenter"",""1"",""4332""
","
","","","1145","","","24","12618","5525","&#9789;","elianto","#f73b6a7A"," "," ","1","-10","[1996]","1","0","4","","","","","","","",""
"pit-trial","88","1062147","0.0-2.0-17.0-4.0","battery-v0.2","","""event"",""trial"",""time""
""fullscreenenter"",""1"",""4331""
""fullscreenenter"",""1"",""4332""
","
","
","""event"",""trial"",""time""
""fullscreenenter"",""1"",""4331""
""fullscreenenter"",""1"",""4332""
","
","","","545","","","24","12618","5525","&#9789;","elianto","#f73b6a7A"," "," ","1","0","[1395]","1","0","4","","","","","","","",""
"pit-trial","89","1065444","0.0-2.0-17.1-0.1","battery-v0.2","","""event"",""trial"",""time""
""fullscreenenter"",""1"",""4331""
""fullscreenenter"",""1"",""4332""
","
","
","""event"",""trial"",""time""
""fullscreenenter"",""1"",""4331""
""fullscreenenter"",""1"",""4332""
","
","","","444","","","24","12618","5525","&#9789;","elianto","#f73b6a7A"," "," ","1","0","[1294]","1","0","4","","","","","","","",""
"pit-trial","90","1068752","0.0-2.0-17.1-1.1","battery-v0.2","","""event"",""trial"",""time""
""fullscreenenter"",""1"",""4331""
""fullscreenenter"",""1"",""4332""
","
","
","""event"",""trial"",""time""
""fullscreenenter"",""1"",""4331""
""fullscreenenter"",""1"",""4332""
","
","","","453","","","24","12618","5525","&#9789;","elianto","#f73b6a7A"," "," ","1","0","[1305]","1","0","4","","","","","","","",""
"pit-trial","91","1072059","0.0-2.0-17.1-2.1","battery-v0.2","","""event"",""trial"",""time""
""fullscreenenter"",""1"",""4331""
""fullscreenenter"",""1"",""4332""
","
","
","""event"",""trial"",""time""
""fullscreenenter"",""1"",""4331""
""fullscreenenter"",""1"",""4332""
","
","","","455","","","24","12618","5525","&#9789;","elianto","#f73b6a7A"," "," ","1","0","[1305]","1","0","4","","","","","","","",""
"pit-trial","92","1075344","0.0-2.0-17.1-3.1","battery-v0.2","","""event"",""trial"",""time""
""fullscreenenter"",""1"",""4331""
""fullscreenenter"",""1"",""4332""
","
","
","""event"",""trial"",""time""
""fullscreenenter"",""1"",""4331""
""fullscreenenter"",""1"",""4332""
","
","","","431","","","24","12618","5525","&#9789;","elianto","#f73b6a7A"," "," ","1","-10","[1282]","1","0","4","","","","","","","",""
"pit-trial","93","1078865","0.0-2.0-17.1-4.1","battery-v0.2","","""event"",""trial"",""time""
""fullscreenenter"",""1"",""4331""
""fullscreenenter"",""1"",""4332""
","
","
","""event"",""trial"",""time""
""fullscreenenter"",""1"",""4331""
""fullscreenenter"",""1"",""4332""
","
","","","669","","","24","12618","5525","&#9789;","elianto","#f73b6a7A"," "," ","1","0","[1518]","1","0","4","","","","","","","",""
"pit-trial","94","1082173","0.0-2.0-17.2-0.2","battery-v0.2","","""event"",""trial"",""time""
""fullscreenenter"",""1"",""4331""
""fullscreenenter"",""1"",""4332""
","
","
","""event"",""trial"",""time""
""fullscreenenter"",""1"",""4331""
""fullscreenenter"",""1"",""4332""
","
","","","454.99999999976717","","","24","12618","5525","&#9789;","elianto","#f73b6a7A"," "," ","1","0","[1305]","1","0","4","","","","","","","",""
"pit-trial","95","1085492","0.0-2.0-17.2-1.2","battery-v0.2","","""event"",""trial"",""time""
""fullscreenenter"",""1"",""4331""
""fullscreenenter"",""1"",""4332""
","
","
","""event"",""trial"",""time""
""fullscreenenter"",""1"",""4331""
""fullscreenenter"",""1"",""4332""
","
","","","465","","","24","12618","5525","&#9789;","elianto","#f73b6a7A"," "," ","1","0","[1316]","1","0","4","","","","","","","",""
"pit-trial","96","1088890","0.0-2.0-17.2-2.2","battery-v0.2","","""event"",""trial"",""time""
""fullscreenenter"",""1"",""4331""
""fullscreenenter"",""1"",""4332""
","
","
","""event"",""trial"",""time""
""fullscreenenter"",""1"",""4331""
""fullscreenenter"",""1"",""4332""
","
","","","545","","","24","12618","5525","&#9789;","elianto","#f73b6a7A"," "," ","1","0","[1396]","1","0","4","","","","","","","",""
"pit-trial","97","1092321","0.0-2.0-17.2-3.2","battery-v0.2","","""event"",""trial"",""time""
""fullscreenenter"",""1"",""4331""
""fullscreenenter"",""1"",""4332""
","
","
","""event"",""trial"",""time""
""fullscreenenter"",""1"",""4331""
""fullscreenenter"",""1"",""4332""
","
","","","577","","","24","12618","5525","&#9789;","elianto","#f73b6a7A"," "," ","1","-10","[1428]","1","0","4","","","","","","","",""
"pit-trial","98","1095842","0.0-2.0-17.2-4.2","battery-v0.2","","""event"",""trial"",""time""
""fullscreenenter"",""1"",""4331""
""fullscreenenter"",""1"",""4332""
","
","
","""event"",""trial"",""time""
""fullscreenenter"",""1"",""4331""
""fullscreenenter"",""1"",""4332""
","
","","","668","","","24","12618","5525","&#9789;","elianto","#f73b6a7A"," "," ","1","0","[1517.9999999997672]","1","0","4","","","","","","","",""
"pit-trial","99","1099307","0.0-2.0-17.3-0.3","battery-v0.2","","""event"",""trial"",""time""
""fullscreenenter"",""1"",""4331""
""fullscreenenter"",""1"",""4332""
","
","
","""event"",""trial"",""time""
""fullscreenenter"",""1"",""4331""
""fullscreenenter"",""1"",""4332""
","
","","","612","","","24","12618","5525","&#9789;","elianto","#f73b6a7A"," "," ","1","0","[1463]","1","0","4","","","","","","","",""
"pit-trial","100","1102795","0.0-2.0-17.3-1.3","battery-v0.2","","""event"",""trial"",""time""
""fullscreenenter"",""1"",""4331""
""fullscreenenter"",""1"",""4332""
","
","
","""event"",""trial"",""time""
""fullscreenenter"",""1"",""4331""
""fullscreenenter"",""1"",""4332""
","
","","","634.0000000002328","","","24","12618","5525","&#9789;","elianto","#f73b6a7A"," "," ","1","0","[1485.0000000002328]","1","0","4","","","","","","","",""
"pit-trial","101","1106260","0.0-2.0-17.3-2.3","battery-v0.2","","""event"",""trial"",""time""
""fullscreenenter"",""1"",""4331""
""fullscreenenter"",""1"",""4332""
","
","
","""event"",""trial"",""time""
""fullscreenenter"",""1"",""4331""
""fullscreenenter"",""1"",""4332""
","
","","","612","","","24","12618","5525","&#9789;","elianto","#f73b6a7A"," "," ","1","0","[1462]","1","0","4","","","","","","","",""
"pit-trial","102","1109668","0.0-2.0-17.3-3.3","battery-v0.2","","""event"",""trial"",""time""
""fullscreenenter"",""1"",""4331""
""fullscreenenter"",""1"",""4332""
","
","
","""event"",""trial"",""time""
""fullscreenenter"",""1"",""4331""
""fullscreenenter"",""1"",""4332""
","
","","","556","","","24","12618","5525","&#9789;","elianto","#f73b6a7A"," "," ","1","-10","[1406]","1","0","4","","","","","","","",""
"pit-trial","103","1114522","0.0-2.0-17.3-4.3","battery-v0.2","","""event"",""trial"",""time""
""fullscreenenter"",""1"",""4331""
""fullscreenenter"",""1"",""4332""
","
","
","""event"",""trial"",""time""
""fullscreenenter"",""1"",""4331""
""fullscreenenter"",""1"",""4332""
","
","","","-1","","","24","12618","5525","&#9789;","elianto","#f73b6a7A"," ","-1","0","-10","[]","0","0","4","","","","","","","",""
"call-function","104","1114523","0.0-2.0-18.0","battery-v0.2","","""event"",""trial"",""time""
""fullscreenenter"",""1"",""4331""
""fullscreenenter"",""1"",""4332""
","
","
","""event"",""trial"",""time""
""fullscreenenter"",""1"",""4331""
""fullscreenenter"",""1"",""4332""
","
","","","","","","","","","","","","","","","","","","","","","","","","","","",""
"pit-instructions","105","1231418","0.0-2.0-19.0","battery-v0.2","","""event"",""trial"",""time""
""fullscreenenter"",""1"",""4331""
""fullscreenenter"",""1"",""4332""
","
","
","""event"",""trial"",""time""
""fullscreenenter"",""1"",""4331""
""fullscreenenter"",""1"",""4332""
","
","","[{""page_index"":0,""viewing_time"":11422},{""page_index"":1,""viewing_time"":6517},{""page_index"":2,""viewing_time"":28924},{""page_index"":3,""viewing_time"":22838},{""page_index"":4,""viewing_time"":9502.000000000233},{""page_index"":5,""viewing_time"":8619.999999999767},{""page_index"":6,""viewing_time"":17404},{""page_index"":7,""viewing_time"":6984},{""page_index"":8,""viewing_time"":4685}]","116896","","","","","","","","","","","","","","","","","","","","","","","",""
"pit-comprehension","106","1237505","0.0-2.0-20.0-0.0","battery-v0.2","","""event"",""trial"",""time""
""fullscreenenter"",""1"",""4331""
""fullscreenenter"",""1"",""4332""
","
","
","""event"",""trial"",""time""
""fullscreenenter"",""1"",""4331""
""fullscreenenter"",""1"",""4332""
","
","","","6084","[""SPACE""]","0","24","12618","5525","","","","","","","","","","","","","","","","","","",""
"pit-instructions","107","1241521","0.0-2.0-20.0-1.0","battery-v0.2","","""event"",""trial"",""time""
""fullscreenenter"",""1"",""4331""
""fullscreenenter"",""1"",""4332""
","
","
","""event"",""trial"",""time""
""fullscreenenter"",""1"",""4331""
""fullscreenenter"",""1"",""4332""
","
","","[{""page_index"":0,""viewing_time"":3972}]","3972","","","","","","","","","","","","","","","","","","","","","","","",""
"pit-comprehension","108","1247206","0.0-2.0-21.0-0.0","battery-v0.2","","""event"",""trial"",""time""
""fullscreenenter"",""1"",""4331""
""fullscreenenter"",""1"",""4332""
","
","
","""event"",""trial"",""time""
""fullscreenenter"",""1"",""4331""
""fullscreenenter"",""1"",""4332""
","
","","","5682.999999999767","[""10""]","0","24","12618","5525","","","","","","","","","","","","","","","","","","",""
"pit-instructions","109","1249239","0.0-2.0-21.0-1.0","battery-v0.2","","""event"",""trial"",""time""
""fullscreenenter"",""1"",""4331""
""fullscreenenter"",""1"",""4332""
","
","
","""event"",""trial"",""time""
""fullscreenenter"",""1"",""4331""
""fullscreenenter"",""1"",""4332""
","
","","[{""page_index"":0,""viewing_time"":1992}]","1992","","","","","","","","","","","","","","","","","","","","","","","",""
"pit-comprehension","110","1256360","0.0-2.0-22.0-0.0","battery-v0.2","","""event"",""trial"",""time""
""fullscreenenter"",""1"",""4331""
""fullscreenenter"",""1"",""4332""
","
","
","""event"",""trial"",""time""
""fullscreenenter"",""1"",""4331""
""fullscreenenter"",""1"",""4332""
","
","","","7118","[""0""]","0","24","12618","5525","","","","","","","","","","","","","","","","","","",""
"pit-instructions","111","1259341","0.0-2.0-22.0-1.0","battery-v0.2","","""event"",""trial"",""time""
""fullscreenenter"",""1"",""4331""
""fullscreenenter"",""1"",""4332""
","
","
","""event"",""trial"",""time""
""fullscreenenter"",""1"",""4331""
""fullscreenenter"",""1"",""4332""
","
","","[{""page_index"":0,""viewing_time"":2933}]","2933","","","","","","","","","","","","","","","","","","","","","","","",""
"pit-comprehension","112","1272981","0.0-2.0-23.0-0.0","battery-v0.2","","""event"",""trial"",""time""
""fullscreenenter"",""1"",""4331""
""fullscreenenter"",""1"",""4332""
","
","
","""event"",""trial"",""time""
""fullscreenenter"",""1"",""4331""
""fullscreenenter"",""1"",""4332""
","
","","","13636","[""True""]","0","24","12618","5525","","","","","","","","","","","","","","","","","","",""
"pit-instructions","113","1276862","0.0-2.0-23.0-1.0","battery-v0.2","","""event"",""trial"",""time""
""fullscreenenter"",""1"",""4331""
""fullscreenenter"",""1"",""4332""
","
","
","""event"",""trial"",""time""
""fullscreenenter"",""1"",""4331""
""fullscreenenter"",""1"",""4332""
","
","","[{""page_index"":0,""viewing_time"":3837}]","3837","","","","","","","","","","","","","","","","","","","","","","","",""
"pit-comprehension","114","1284431","0.0-2.0-24.0-0.0","battery-v0.2","","""event"",""trial"",""time""
""fullscreenenter"",""1"",""4331""
""fullscreenenter"",""1"",""4332""
","
","
","""event"",""trial"",""time""
""fullscreenenter"",""1"",""4331""
""fullscreenenter"",""1"",""4332""
","
","","","7567","[""True""]","0","24","12618","5525","","","","","","","","","","","","","","","","","","",""
"pit-instructions","115","1288665","0.0-2.0-24.0-1.0","battery-v0.2","","""event"",""trial"",""time""
""fullscreenenter"",""1"",""4331""
""fullscreenenter"",""1"",""4332""
","
","
","""event"",""trial"",""time""
""fullscreenenter"",""1"",""4331""
""fullscreenenter"",""1"",""4332""
","
","","[{""page_index"":0,""viewing_time"":4188}]","4188","","","","","","","","","","","","","","","","","","","","","","","",""
"pit-comprehension","116","1295253","0.0-2.0-25.0-0.0","battery-v0.2","","""event"",""trial"",""time""
""fullscreenenter"",""1"",""4331""
""fullscreenenter"",""1"",""4332""
","
","
","""event"",""trial"",""time""
""fullscreenenter"",""1"",""4331""
""fullscreenenter"",""1"",""4332""
","
","","","6586","[""True""]","0","24","12618","5525","","","","","","","","","","","","","","","","","","",""
"pit-instructions","117","1298417","0.0-2.0-25.0-1.0","battery-v0.2","","""event"",""trial"",""time""
""fullscreenenter"",""1"",""4331""
""fullscreenenter"",""1"",""4332""
","
","
","""event"",""trial"",""time""
""fullscreenenter"",""1"",""4331""
""fullscreenenter"",""1"",""4332""
","
","","[{""page_index"":0,""viewing_time"":3115.999999999767}]","3115.999999999767","","","","","","","","","","","","","","","","","","","","","","","",""
"pit-comprehension","118","1316191","0.0-2.0-26.0-0.0","battery-v0.2","","""event"",""trial"",""time""
""fullscreenenter"",""1"",""4331""
""fullscreenenter"",""1"",""4332""
","
","
","""event"",""trial"",""time""
""fullscreenenter"",""1"",""4331""
""fullscreenenter"",""1"",""4332""
","
","","","17772","[""False""]","0","24","12618","5525","","","","","","","","","","","","","","","","","","",""
"pit-instructions","119","1320507","0.0-2.0-26.0-1.0","battery-v0.2","","""event"",""trial"",""time""
""fullscreenenter"",""1"",""4331""
""fullscreenenter"",""1"",""4332""
""blur"",""120"",""1948849""
""focus"",""120"",""2134218""
","""event"",""trial"",""time""
""blur"",""120"",""1948849""
","""event"",""trial"",""time""
""focus"",""120"",""2134218""
","""event"",""trial"",""time""
""fullscreenenter"",""1"",""4331""
""fullscreenenter"",""1"",""4332""
","
","","[{""page_index"":0,""viewing_time"":4268}]","4269","","","","","","","","","","","","","","","","","","","","","","","",""
"pit-instructions","120","2146214","0.0-3.0","battery-v0.2","","""event"",""trial"",""time""
""fullscreenenter"",""1"",""4331""
""fullscreenenter"",""1"",""4332""
""blur"",""120"",""1948849""
""focus"",""120"",""2134218""
","""event"",""trial"",""time""
""blur"",""120"",""1948849""
","""event"",""trial"",""time""
""focus"",""120"",""2134218""
","""event"",""trial"",""time""
""fullscreenenter"",""1"",""4331""
""fullscreenenter"",""1"",""4332""
","
","","[{""page_index"":0,""viewing_time"":5648},{""page_index"":1,""viewing_time"":811980},{""page_index"":2,""viewing_time"":8086}]","825714","","","","","","","","","","","","","","","","","","","","","","","",""
"pit-trial","121","2151070","0.0-4.0","battery-v0.2","","""event"",""trial"",""time""
""fullscreenenter"",""1"",""4331""
""fullscreenenter"",""1"",""4332""
""blur"",""120"",""1948849""
""focus"",""120"",""2134218""
","""event"",""trial"",""time""
""blur"",""120"",""1948849""
","""event"",""trial"",""time""
""focus"",""120"",""2134218""
","""event"",""trial"",""time""
""fullscreenenter"",""1"",""4331""
""fullscreenenter"",""1"",""4332""
","
","","","-1","","","24","12618","5525","&#9752;","elianto","#f73b6a7A"," ","-1","0","-10","[]","0","1","","","12618","1","3","3","lose","go","0"
"pit-trial","122","2154770","0.0-5.0","battery-v0.2","","""event"",""trial"",""time""
""fullscreenenter"",""1"",""4331""
""fullscreenenter"",""1"",""4332""
""blur"",""120"",""1948849""
""focus"",""120"",""2134218""
","""event"",""trial"",""time""
""blur"",""120"",""1948849""
","""event"",""trial"",""time""
""focus"",""120"",""2134218""
","""event"",""trial"",""time""
""fullscreenenter"",""1"",""4331""
""fullscreenenter"",""1"",""4332""
","
","","","846","","","24","12618","5525","&#9728;","elianto","#f73b6a7A","-1"," ","0","-10","[1696]","1","1","","","12618","2","0","4","lose","no-go","0"
"pit-trial","123","2158628","0.0-6.0","battery-v0.2","","""event"",""trial"",""time""
""fullscreenenter"",""1"",""4331""
""fullscreenenter"",""1"",""4332""
""blur"",""120"",""1948849""
""focus"",""120"",""2134218""
","""event"",""trial"",""time""
""blur"",""120"",""1948849""
","""event"",""trial"",""time""
""focus"",""120"",""2134218""
","""event"",""trial"",""time""
""fullscreenenter"",""1"",""4331""
""fullscreenenter"",""1"",""4332""
","
","","","1003","","","24","12618","5525","&#9730;","elianto","#3366ff99"," "," ","1","+10","[1854]","1","1","","","12618","3","1","1","win","go","0"
"pit-trial","124","2162240","0.0-7.0","battery-v0.2","","""event"",""trial"",""time""
""fullscreenenter"",""1"",""4331""
""fullscreenenter"",""1"",""4332""
""blur"",""120"",""1948849""
""focus"",""120"",""2134218""
","""event"",""trial"",""time""
""blur"",""120"",""1948849""
","""event"",""trial"",""time""
""focus"",""120"",""2134218""
","""event"",""trial"",""time""
""fullscreenenter"",""1"",""4331""
""fullscreenenter"",""1"",""4332""
","
","","","758","","","24","12618","5525","&#9733;","elianto","#3366ff99","-1"," ","0","0","[1609]","1","1","","","12618","4","2","2","win","no-go","0"
"pit-trial","125","2166402","0.0-8.0","battery-v0.2","","""event"",""trial"",""time""
""fullscreenenter"",""1"",""4331""
""fullscreenenter"",""1"",""4332""
""blur"",""120"",""1948849""
""focus"",""120"",""2134218""
","""event"",""trial"",""time""
""blur"",""120"",""1948849""
","""event"",""trial"",""time""
""focus"",""120"",""2134218""
","""event"",""trial"",""time""
""fullscreenenter"",""1"",""4331""
""fullscreenenter"",""1"",""4332""
","
","","","1307.0000000004657","","","24","12618","5525","&#9752;","elianto","#f73b6a7A"," "," ","1","0","[2158.0000000004657]","1","1","","","12618","5","3","3","lose","go","0"
"pit-trial","126","2170755","0.0-9.0","battery-v0.2","","""event"",""trial"",""time""
""fullscreenenter"",""1"",""4331""
""fullscreenenter"",""1"",""4332""
""blur"",""120"",""1948849""
""focus"",""120"",""2134218""
","""event"",""trial"",""time""
""blur"",""120"",""1948849""
","""event"",""trial"",""time""
""focus"",""120"",""2134218""
","""event"",""trial"",""time""
""fullscreenenter"",""1"",""4331""
""fullscreenenter"",""1"",""4332""
","
","","","1499","","","24","12618","5525","&#9730;","elianto","#3366ff99"," "," ","1","+10","[2350]","1","1","","","12618","6","1","1","win","go","0"
"pit-trial","127","2174333","0.0-10.0","battery-v0.2","","""event"",""trial"",""time""
""fullscreenenter"",""1"",""4331""
""fullscreenenter"",""1"",""4332""
""blur"",""120"",""1948849""
""focus"",""120"",""2134218""
","""event"",""trial"",""time""
""blur"",""120"",""1948849""
","""event"",""trial"",""time""
""focus"",""120"",""2134218""
","""event"",""trial"",""time""
""fullscreenenter"",""1"",""4331""
""fullscreenenter"",""1"",""4332""
","
","","","724","","","24","12618","5525","&#9733;","elianto","#3366ff99","-1"," ","0","0","[1574.9999999995343]","1","1","","","12618","7","2","2","win","no-go","0"
"pit-trial","128","2179187","0.0-11.0","battery-v0.2","","""event"",""trial"",""time""
""fullscreenenter"",""1"",""4331""
""fullscreenenter"",""1"",""4332""
""blur"",""120"",""1948849""
""focus"",""120"",""2134218""
","""event"",""trial"",""time""
""blur"",""120"",""1948849""
","""event"",""trial"",""time""
""focus"",""120"",""2134218""
","""event"",""trial"",""time""
""fullscreenenter"",""1"",""4331""
""fullscreenenter"",""1"",""4332""
","
","","","-1","","","24","12618","5525","&#9728;","elianto","#f73b6a7A","-1","-1","1","0","[]","0","1","","","12618","8","0","4","lose","no-go","0"
"pit-trial","129","2184042","0.0-12.0","battery-v0.2","","""event"",""trial"",""time""
""fullscreenenter"",""1"",""4331""
""fullscreenenter"",""1"",""4332""
""blur"",""120"",""1948849""
""focus"",""120"",""2134218""
","""event"",""trial"",""time""
""blur"",""120"",""1948849""
","""event"",""trial"",""time""
""focus"",""120"",""2134218""
","""event"",""trial"",""time""
""fullscreenenter"",""1"",""4331""
""fullscreenenter"",""1"",""4332""
","
","","","-1","","","24","12618","5525","&#9728;","elianto","#f73b6a7A","-1","-1","1","0","[]","0","1","","","12618","9","0","4","lose","no-go","0"
"pit-trial","130","2188895","0.0-13.0","battery-v0.2","","""event"",""trial"",""time""
""fullscreenenter"",""1"",""4331""
""fullscreenenter"",""1"",""4332""
""blur"",""120"",""1948849""
""focus"",""120"",""2134218""
","""event"",""trial"",""time""
""blur"",""120"",""1948849""
","""event"",""trial"",""time""
""focus"",""120"",""2134218""
","""event"",""trial"",""time""
""fullscreenenter"",""1"",""4331""
""fullscreenenter"",""1"",""4332""
","
","","","-1","","","24","12618","5525","&#9733;","elianto","#3366ff99","-1","-1","1","0","[]","0","1","","","12618","10","2","2","win","no-go","1"
"pit-trial","131","2192548","0.0-14.0","battery-v0.2","","""event"",""trial"",""time""
""fullscreenenter"",""1"",""4331""
""fullscreenenter"",""1"",""4332""
""blur"",""120"",""1948849""
""focus"",""120"",""2134218""
","""event"",""trial"",""time""
""blur"",""120"",""1948849""
","""event"",""trial"",""time""
""focus"",""120"",""2134218""
","""event"",""trial"",""time""
""fullscreenenter"",""1"",""4331""
""fullscreenenter"",""1"",""4332""
","
","","","799","","","24","12618","5525","&#9730;","elianto","#3366ff99"," "," ","1","0","[1650]","1","1","","","12618","11","1","1","win","go","1"
"pit-trial","132","2196947","0.0-15.0","battery-v0.2","","""event"",""trial"",""time""
""fullscreenenter"",""1"",""4331""
""fullscreenenter"",""1"",""4332""
""blur"",""120"",""1948849""
""focus"",""120"",""2134218""
","""event"",""trial"",""time""
""blur"",""120"",""1948849""
","""event"",""trial"",""time""
""focus"",""120"",""2134218""
","""event"",""trial"",""time""
""fullscreenenter"",""1"",""4331""
""fullscreenenter"",""1"",""4332""
","
","","","1544","","","24","12618","5525","&#9752;","elianto","#f73b6a7A"," "," ","1","-10","[2395]","1","1","","","12618","12","3","3","lose","go","1"
"pit-trial","133","2201802","0.0-16.0","battery-v0.2","","""event"",""trial"",""time""
""fullscreenenter"",""1"",""4331""
""fullscreenenter"",""1"",""4332""
""blur"",""120"",""1948849""
""focus"",""120"",""2134218""
","""event"",""trial"",""time""
""blur"",""120"",""1948849""
","""event"",""trial"",""time""
""focus"",""120"",""2134218""
","""event"",""trial"",""time""
""fullscreenenter"",""1"",""4331""
""fullscreenenter"",""1"",""4332""
","
","","","-1","","","24","12618","5525","&#9728;","elianto","#f73b6a7A","-1","-1","1","0","[]","0","1","","","12618","13","0","4","lose","no-go","0"
"pit-trial","134","2205430","0.0-17.0","battery-v0.2","","""event"",""trial"",""time""
""fullscreenenter"",""1"",""4331""
""fullscreenenter"",""1"",""4332""
""blur"",""120"",""1948849""
""focus"",""120"",""2134218""
","""event"",""trial"",""time""
""blur"",""120"",""1948849""
","""event"",""trial"",""time""
""focus"",""120"",""2134218""
","""event"",""trial"",""time""
""fullscreenenter"",""1"",""4331""
""fullscreenenter"",""1"",""4332""
","
","","","774","","","24","12618","5525","&#9730;","elianto","#3366ff99"," "," ","1","0","[1623.9999999995343]","1","1","","","12618","14","1","1","win","go","1"
"pit-trial","135","2209199","0.0-18.0","battery-v0.2","","""event"",""trial"",""time""
""fullscreenenter"",""1"",""4331""
""fullscreenenter"",""1"",""4332""
""blur"",""120"",""1948849""
""focus"",""120"",""2134218""
","""event"",""trial"",""time""
""blur"",""120"",""1948849""
","""event"",""trial"",""time""
""focus"",""120"",""2134218""
","""event"",""trial"",""time""
""fullscreenenter"",""1"",""4331""
""fullscreenenter"",""1"",""4332""
","
","","","914","","","24","12618","5525","&#9733;","elianto","#3366ff99","-1"," ","0","0","[1765]","1","1","","","12618","15","2","2","win","no-go","0"
"pit-trial","136","2214053","0.0-19.0","battery-v0.2","","""event"",""trial"",""time""
""fullscreenenter"",""1"",""4331""
""fullscreenenter"",""1"",""4332""
""blur"",""120"",""1948849""
""focus"",""120"",""2134218""
","""event"",""trial"",""time""
""blur"",""120"",""1948849""
","""event"",""trial"",""time""
""focus"",""120"",""2134218""
","""event"",""trial"",""time""
""fullscreenenter"",""1"",""4331""
""fullscreenenter"",""1"",""4332""
","
","","","-1","","","24","12618","5525","&#9752;","elianto","#f73b6a7A"," ","-1","0","-10","[]","0","1","","","12618","16","3","3","lose","go","0"
"pit-trial","137","2217524","0.0-20.0","battery-v0.2","","""event"",""trial"",""time""
""fullscreenenter"",""1"",""4331""
""fullscreenenter"",""1"",""4332""
""blur"",""120"",""1948849""
""focus"",""120"",""2134218""
","""event"",""trial"",""time""
""blur"",""120"",""1948849""
","""event"",""trial"",""time""
""focus"",""120"",""2134218""
","""event"",""trial"",""time""
""fullscreenenter"",""1"",""4331""
""fullscreenenter"",""1"",""4332""
","
","","","616","","","24","12618","5525","&#9733;","elianto","#3366ff99","-1"," ","0","+10","[1467]","1","1","","","12618","17","2","2","win","no-go","1"
"pit-trial","138","2222378","0.0-21.0","battery-v0.2","","""event"",""trial"",""time""
""fullscreenenter"",""1"",""4331""
""fullscreenenter"",""1"",""4332""
""blur"",""120"",""1948849""
""focus"",""120"",""2134218""
","""event"",""trial"",""time""
""blur"",""120"",""1948849""
","""event"",""trial"",""time""
""focus"",""120"",""2134218""
","""event"",""trial"",""time""
""fullscreenenter"",""1"",""4331""
""fullscreenenter"",""1"",""4332""
","
","","","-1","","","24","12618","5525","&#9730;","elianto","#3366ff99"," ","-1","0","0","[]","0","1","","","12618","18","1","1","win","go","0"
"pit-trial","139","2227232","0.0-22.0","battery-v0.2","","""event"",""trial"",""time""
""fullscreenenter"",""1"",""4331""
""fullscreenenter"",""1"",""4332""
""blur"",""120"",""1948849""
""focus"",""120"",""2134218""
","""event"",""trial"",""time""
""blur"",""120"",""1948849""
","""event"",""trial"",""time""
""focus"",""120"",""2134218""
","""event"",""trial"",""time""
""fullscreenenter"",""1"",""4331""
""fullscreenenter"",""1"",""4332""
","
","","","-1","","","24","12618","5525","&#9752;","elianto","#f73b6a7A"," ","-1","0","-10","[]","0","1","","","12618","19","3","3","lose","go","0"
"pit-trial","140","2232086","0.0-23.0","battery-v0.2","","""event"",""trial"",""time""
""fullscreenenter"",""1"",""4331""
""fullscreenenter"",""1"",""4332""
""blur"",""120"",""1948849""
""focus"",""120"",""2134218""
","""event"",""trial"",""time""
""blur"",""120"",""1948849""
","""event"",""trial"",""time""
""focus"",""120"",""2134218""
","""event"",""trial"",""time""
""fullscreenenter"",""1"",""4331""
""fullscreenenter"",""1"",""4332""
","
","","","-1","","","24","12618","5525","&#9728;","elianto","#f73b6a7A","-1","-1","1","-10","[]","0","1","","","12618","20","0","4","lose","no-go","1"
"pit-instructions","141","2246503","0.0-24.0","battery-v0.2","","""event"",""trial"",""time""
""fullscreenenter"",""1"",""4331""
""fullscreenenter"",""1"",""4332""
""blur"",""120"",""1948849""
""focus"",""120"",""2134218""
","""event"",""trial"",""time""
""blur"",""120"",""1948849""
","""event"",""trial"",""time""
""focus"",""120"",""2134218""
","""event"",""trial"",""time""
""fullscreenenter"",""1"",""4331""
""fullscreenenter"",""1"",""4332""
","
","","[{""page_index"":0,""viewing_time"":6295},{""page_index"":1,""viewing_time"":8119}]","14414","","","","","","","","","","","","","","","","","","","","","","","",""
"pit-trial","142","2251358","0.0-25.0","battery-v0.2","","""event"",""trial"",""time""
""fullscreenenter"",""1"",""4331""
""fullscreenenter"",""1"",""4332""
""blur"",""120"",""1948849""
""focus"",""120"",""2134218""
","""event"",""trial"",""time""
""blur"",""120"",""1948849""
","""event"",""trial"",""time""
""focus"",""120"",""2134218""
","""event"",""trial"",""time""
""fullscreenenter"",""1"",""4331""
""fullscreenenter"",""1"",""4332""
","
","","","-1","","","24","12618","5525","y","elianto","#f73b6a7A"," ","-1","0","-10","[]","0","2","","","12618","21","2","3","lose","go","0"
"pit-trial","143","2255258","0.0-26.0","battery-v0.2","","""event"",""trial"",""time""
""fullscreenenter"",""1"",""4331""
""fullscreenenter"",""1"",""4332""
""blur"",""120"",""1948849""
""focus"",""120"",""2134218""
","""event"",""trial"",""time""
""blur"",""120"",""1948849""
","""event"",""trial"",""time""
""focus"",""120"",""2134218""
","""event"",""trial"",""time""
""fullscreenenter"",""1"",""4331""
""fullscreenenter"",""1"",""4332""
","
","","","1046.0000000004657","","","24","12618","5525","m","elianto","#f73b6a7A"," "," ","1","-10","[1896.0000000004657]","1","2","","","12618","22","0","3","lose","go","1"
"pit-trial","144","2259128","0.0-27.0","battery-v0.2","","""event"",""trial"",""time""
""fullscreenenter"",""1"",""4331""
""fullscreenenter"",""1"",""4332""
""blur"",""120"",""1948849""
""focus"",""120"",""2134218""
","""event"",""trial"",""time""
""blur"",""120"",""1948849""
","""event"",""trial"",""time""
""focus"",""120"",""2134218""
","""event"",""trial"",""time""
""fullscreenenter"",""1"",""4331""
""fullscreenenter"",""1"",""4332""
","
","","","1016","","","24","12618","5525","r","elianto","#3366ff99","-1"," ","0","0","[1867]","1","2","","","12618","23","1","2","win","no-go","0"
"pit-trial","145","2263983","0.0-28.0","battery-v0.2","","""event"",""trial"",""time""
""fullscreenenter"",""1"",""4331""
""fullscreenenter"",""1"",""4332""
""blur"",""120"",""1948849""
""focus"",""120"",""2134218""
","""event"",""trial"",""time""
""blur"",""120"",""1948849""
","""event"",""trial"",""time""
""focus"",""120"",""2134218""
","""event"",""trial"",""time""
""fullscreenenter"",""1"",""4331""
""fullscreenenter"",""1"",""4332""
","
","","","-1","","","24","12618","5525","h","elianto","#f73b6a7A","-1","-1","1","0","[]","0","2","","","12618","24","3","4","lose","no-go","0"
"pit-trial","146","2267824","0.0-29.0","battery-v0.2","","""event"",""trial"",""time""
""fullscreenenter"",""1"",""4331""
""fullscreenenter"",""1"",""4332""
""blur"",""120"",""1948849""
""focus"",""120"",""2134218""
","""event"",""trial"",""time""
""blur"",""120"",""1948849""
","""event"",""trial"",""time""
""focus"",""120"",""2134218""
","""event"",""trial"",""time""
""fullscreenenter"",""1"",""4331""
""fullscreenenter"",""1"",""4332""
","
","","","987","","","24","12618","5525","r","elianto","#3366ff99","-1"," ","0","0","[1837]","1","2","","","12618","25","1","2","win","no-go","0"
"pit-trial","147","2271953","0.0-30.0","battery-v0.2","","""event"",""trial"",""time""
""fullscreenenter"",""1"",""4331""
""fullscreenenter"",""1"",""4332""
""blur"",""120"",""1948849""
""focus"",""120"",""2134218""
","""event"",""trial"",""time""
""blur"",""120"",""1948849""
","""event"",""trial"",""time""
""focus"",""120"",""2134218""
","""event"",""trial"",""time""
""fullscreenenter"",""1"",""4331""
""fullscreenenter"",""1"",""4332""
","
","","","1272.9999999995343","","","24","12618","5525","m","elianto","#f73b6a7A"," "," ","1","-10","[2125]","1","2","","","12618","26","0","3","lose","go","1"
"pit-trial","148","2275497","0.0-31.0","battery-v0.2","","""event"",""trial"",""time""
""fullscreenenter"",""1"",""4331""
""fullscreenenter"",""1"",""4332""
""blur"",""120"",""1948849""
""focus"",""120"",""2134218""
","""event"",""trial"",""time""
""blur"",""120"",""1948849""
","""event"",""trial"",""time""
""focus"",""120"",""2134218""
","""event"",""trial"",""time""
""fullscreenenter"",""1"",""4331""
""fullscreenenter"",""1"",""4332""
","
","","","689.0000000004657","","","24","12618","5525","h","elianto","#f73b6a7A","-1"," ","0","0","[1540.0000000004657]","1","2","","","12618","27","3","4","lose","no-go","1"
"pit-trial","149","2280351","0.0-32.0","battery-v0.2","","""event"",""trial"",""time""
""fullscreenenter"",""1"",""4331""
""fullscreenenter"",""1"",""4332""
""blur"",""120"",""1948849""
""focus"",""120"",""2134218""
","""event"",""trial"",""time""
""blur"",""120"",""1948849""
","""event"",""trial"",""time""
""focus"",""120"",""2134218""
","""event"",""trial"",""time""
""fullscreenenter"",""1"",""4331""
""fullscreenenter"",""1"",""4332""
","
","","","-1","","","24","12618","5525","y","elianto","#f73b6a7A"," ","-1","0","0","[]","0","2","","","12618","28","2","3","lose","go","1"
"pit-trial","150","2283766","0.0-33.0","battery-v0.2","","""event"",""trial"",""time""
""fullscreenenter"",""1"",""4331""
""fullscreenenter"",""1"",""4332""
""blur"",""120"",""1948849""
""focus"",""120"",""2134218""
","""event"",""trial"",""time""
""blur"",""120"",""1948849""
","""event"",""trial"",""time""
""focus"",""120"",""2134218""
","""event"",""trial"",""time""
""fullscreenenter"",""1"",""4331""
""fullscreenenter"",""1"",""4332""
","
","","","560","","","24","12618","5525","r","elianto","#3366ff99","-1"," ","0","+10","[1411]","1","2","","","12618","29","1","2","win","no-go","1"
"pit-trial","151","2288620","0.0-34.0","battery-v0.2","","""event"",""trial"",""time""
""fullscreenenter"",""1"",""4331""
""fullscreenenter"",""1"",""4332""
""blur"",""120"",""1948849""
""focus"",""120"",""2134218""
","""event"",""trial"",""time""
""blur"",""120"",""1948849""
","""event"",""trial"",""time""
""focus"",""120"",""2134218""
","""event"",""trial"",""time""
""fullscreenenter"",""1"",""4331""
""fullscreenenter"",""1"",""4332""
","
","","","-1","","","24","12618","5525","h","elianto","#f73b6a7A","-1","-1","1","0","[]","0","2","","","12618","30","3","4","lose","no-go","0"
"pit-trial","152","2293475","0.0-35.0","battery-v0.2","","""event"",""trial"",""time""
""fullscreenenter"",""1"",""4331""
""fullscreenenter"",""1"",""4332""
""blur"",""120"",""1948849""
""focus"",""120"",""2134218""
","""event"",""trial"",""time""
""blur"",""120"",""1948849""
","""event"",""trial"",""time""
""focus"",""120"",""2134218""
","""event"",""trial"",""time""
""fullscreenenter"",""1"",""4331""
""fullscreenenter"",""1"",""4332""
","
","","","-1","","","24","12618","5525","y","elianto","#f73b6a7A"," ","-1","0","0","[]","0","2","","","12618","31","2","3","lose","go","1"
"pit-trial","153","2297615","0.0-36.0","battery-v0.2","","""event"",""trial"",""time""
""fullscreenenter"",""1"",""4331""
""fullscreenenter"",""1"",""4332""
""blur"",""120"",""1948849""
""focus"",""120"",""2134218""
","""event"",""trial"",""time""
""blur"",""120"",""1948849""
","""event"",""trial"",""time""
""focus"",""120"",""2134218""
","""event"",""trial"",""time""
""fullscreenenter"",""1"",""4331""
""fullscreenenter"",""1"",""4332""
","
","","","1285","","","24","12618","5525","m","elianto","#f73b6a7A"," "," ","1","0","[2135.9999999995343]","1","2","","","12618","32","0","3","lose","go","0"
"pit-trial","154","2302469","0.0-37.0","battery-v0.2","","""event"",""trial"",""time""
""fullscreenenter"",""1"",""4331""
""fullscreenenter"",""1"",""4332""
""blur"",""120"",""1948849""
""focus"",""120"",""2134218""
","""event"",""trial"",""time""
""blur"",""120"",""1948849""
","""event"",""trial"",""time""
""focus"",""120"",""2134218""
","""event"",""trial"",""time""
""fullscreenenter"",""1"",""4331""
""fullscreenenter"",""1"",""4332""
","
","","","-1","","","24","12618","5525","h","elianto","#f73b6a7A","-1","-1","1","0","[]","0","2","","","12618","33","3","4","lose","no-go","0"
"pit-trial","155","2307324","0.0-38.0","battery-v0.2","","""event"",""trial"",""time""
""fullscreenenter"",""1"",""4331""
""fullscreenenter"",""1"",""4332""
""blur"",""120"",""1948849""
""focus"",""120"",""2134218""
","""event"",""trial"",""time""
""blur"",""120"",""1948849""
","""event"",""trial"",""time""
""focus"",""120"",""2134218""
","""event"",""trial"",""time""
""fullscreenenter"",""1"",""4331""
""fullscreenenter"",""1"",""4332""
","
","","","-1","","","24","12618","5525","y","elianto","#f73b6a7A"," ","-1","0","-10","[]","0","2","","","12618","34","2","3","lose","go","0"
"pit-trial","156","2312178","0.0-39.0","battery-v0.2","","""event"",""trial"",""time""
""fullscreenenter"",""1"",""4331""
""fullscreenenter"",""1"",""4332""
""blur"",""120"",""1948849""
""focus"",""120"",""2134218""
","""event"",""trial"",""time""
""blur"",""120"",""1948849""
","""event"",""trial"",""time""
""focus"",""120"",""2134218""
","""event"",""trial"",""time""
""fullscreenenter"",""1"",""4331""
""fullscreenenter"",""1"",""4332""
","
","","","-1","","","24","12618","5525","m","elianto","#f73b6a7A"," ","-1","0","-10","[]","0","2","","","12618","35","0","3","lose","go","0"
"pit-trial","157","2315728","0.0-40.0","battery-v0.2","","""event"",""trial"",""time""
""fullscreenenter"",""1"",""4331""
""fullscreenenter"",""1"",""4332""
""blur"",""120"",""1948849""
""focus"",""120"",""2134218""
","""event"",""trial"",""time""
""blur"",""120"",""1948849""
","""event"",""trial"",""time""
""focus"",""120"",""2134218""
","""event"",""trial"",""time""
""fullscreenenter"",""1"",""4331""
""fullscreenenter"",""1"",""4332""
","
","","","695.0000000004657","","","24","12618","5525","r","elianto","#3366ff99","-1"," ","0","0","[1547.0000000004657]","1","2","","","12618","36","1","2","win","no-go","0"
"pit-trial","158","2320582","0.0-41.0","battery-v0.2","","""event"",""trial"",""time""
""fullscreenenter"",""1"",""4331""
""fullscreenenter"",""1"",""4332""
""blur"",""120"",""1948849""
""focus"",""120"",""2134218""
","""event"",""trial"",""time""
""blur"",""120"",""1948849""
","""event"",""trial"",""time""
""focus"",""120"",""2134218""
","""event"",""trial"",""time""
""fullscreenenter"",""1"",""4331""
""fullscreenenter"",""1"",""4332""
","
","","","-1","","","24","12618","5525","r","elianto","#3366ff99","-1","-1","1","+10","[]","0","2","","","12618","37","1","2","win","no-go","0"
"pit-trial","159","2324605","0.0-42.0","battery-v0.2","","""event"",""trial"",""time""
""fullscreenenter"",""1"",""4331""
""fullscreenenter"",""1"",""4332""
""blur"",""120"",""1948849""
""focus"",""120"",""2134218""
","""event"",""trial"",""time""
""blur"",""120"",""1948849""
","""event"",""trial"",""time""
""focus"",""120"",""2134218""
","""event"",""trial"",""time""
""fullscreenenter"",""1"",""4331""
""fullscreenenter"",""1"",""4332""
","
","","","1168","","","24","12618","5525","m","elianto","#f73b6a7A"," "," ","1","0","[2018]","1","2","","","12618","38","0","3","lose","go","0"
"pit-trial","160","2329459","0.0-43.0","battery-v0.2","","""event"",""trial"",""time""
""fullscreenenter"",""1"",""4331""
""fullscreenenter"",""1"",""4332""
""blur"",""120"",""1948849""
""focus"",""120"",""2134218""
","""event"",""trial"",""time""
""blur"",""120"",""1948849""
","""event"",""trial"",""time""
""focus"",""120"",""2134218""
","""event"",""trial"",""time""
""fullscreenenter"",""1"",""4331""
""fullscreenenter"",""1"",""4332""
","
","","","-1","","","24","12618","5525","h","elianto","#f73b6a7A","-1","-1","1","0","[]","0","2","","","12618","39","3","4","lose","no-go","0"
"pit-trial","161","2333447","0.0-44.0","battery-v0.2","","""event"",""trial"",""time""
""fullscreenenter"",""1"",""4331""
""fullscreenenter"",""1"",""4332""
""blur"",""120"",""1948849""
""focus"",""120"",""2134218""
","""event"",""trial"",""time""
""blur"",""120"",""1948849""
","""event"",""trial"",""time""
""focus"",""120"",""2134218""
","""event"",""trial"",""time""
""fullscreenenter"",""1"",""4331""
""fullscreenenter"",""1"",""4332""
","
","","","1133","","","24","12618","5525","y","elianto","#f73b6a7A"," "," ","1","0","[1984]","1","2","","","12618","40","2","3","lose","go","0"
"pit-trial","162","2338302","0.0-45.0","battery-v0.2","","""event"",""trial"",""time""
""fullscreenenter"",""1"",""4331""
""fullscreenenter"",""1"",""4332""
""blur"",""120"",""1948849""
""focus"",""120"",""2134218""
","""event"",""trial"",""time""
""blur"",""120"",""1948849""
","""event"",""trial"",""time""
""focus"",""120"",""2134218""
","""event"",""trial"",""time""
""fullscreenenter"",""1"",""4331""
""fullscreenenter"",""1"",""4332""
","
","","","-1","","","24","12618","5525","r","elianto","#3366ff99","-1","-1","1","+10","[]","0","2","","","12618","41","1","2","win","no-go","0"
"pit-trial","163","2342290","0.0-46.0","battery-v0.2","","""event"",""trial"",""time""
""fullscreenenter"",""1"",""4331""
""fullscreenenter"",""1"",""4332""
""blur"",""120"",""1948849""
""focus"",""120"",""2134218""
","""event"",""trial"",""time""
""blur"",""120"",""1948849""
","""event"",""trial"",""time""
""focus"",""120"",""2134218""
","""event"",""trial"",""time""
""fullscreenenter"",""1"",""4331""
""fullscreenenter"",""1"",""4332""
","
","","","1134","","","24","12618","5525","m","elianto","#f73b6a7A"," "," ","1","0","[1985]","1","2","","","12618","42","0","3","lose","go","0"
"pit-trial","164","2347144","0.0-47.0","battery-v0.2","","""event"",""trial"",""time""
""fullscreenenter"",""1"",""4331""
""fullscreenenter"",""1"",""4332""
""blur"",""120"",""1948849""
""focus"",""120"",""2134218""
","""event"",""trial"",""time""
""blur"",""120"",""1948849""
","""event"",""trial"",""time""
""focus"",""120"",""2134218""
","""event"",""trial"",""time""
""fullscreenenter"",""1"",""4331""
""fullscreenenter"",""1"",""4332""
","
","","","-1","","","24","12618","5525","h","elianto","#f73b6a7A","-1","-1","1","0","[]","0","2","","","12618","43","3","4","lose","no-go","0"
"pit-trial","165","2350918","0.0-48.0","battery-v0.2","","""event"",""trial"",""time""
""fullscreenenter"",""1"",""4331""
""fullscreenenter"",""1"",""4332""
""blur"",""120"",""1948849""
""focus"",""120"",""2134218""
","""event"",""trial"",""time""
""blur"",""120"",""1948849""
","""event"",""trial"",""time""
""focus"",""120"",""2134218""
","""event"",""trial"",""time""
""fullscreenenter"",""1"",""4331""
""fullscreenenter"",""1"",""4332""
","
","","","920","","","24","12618","5525","y","elianto","#f73b6a7A"," "," ","1","0","[1771]","1","2","","","12618","44","2","3","lose","go","0"
"pit-trial","166","2354699","0.0-49.0","battery-v0.2","","""event"",""trial"",""time""
""fullscreenenter"",""1"",""4331""
""fullscreenenter"",""1"",""4332""
""blur"",""120"",""1948849""
""focus"",""120"",""2134218""
","""event"",""trial"",""time""
""blur"",""120"",""1948849""
","""event"",""trial"",""time""
""focus"",""120"",""2134218""
","""event"",""trial"",""time""
""fullscreenenter"",""1"",""4331""
""fullscreenenter"",""1"",""4332""
","
","","","926.0000000004657","","","24","12618","5525","m","elianto","#f73b6a7A"," "," ","1","0","[1777.0000000004657]","1","2","","","12618","45","0","3","lose","go","0"
"pit-trial","167","2359554","0.0-50.0","battery-v0.2","","""event"",""trial"",""time""
""fullscreenenter"",""1"",""4331""
""fullscreenenter"",""1"",""4332""
""blur"",""120"",""1948849""
""focus"",""120"",""2134218""
","""event"",""trial"",""time""
""blur"",""120"",""1948849""
","""event"",""trial"",""time""
""focus"",""120"",""2134218""
","""event"",""trial"",""time""
""fullscreenenter"",""1"",""4331""
""fullscreenenter"",""1"",""4332""
","
","","","-1","","","24","12618","5525","h","elianto","#f73b6a7A","-1","-1","1","0","[]","0","2","","","12618","46","3","4","lose","no-go","0"
"pit-trial","168","2364407","0.0-51.0","battery-v0.2","","""event"",""trial"",""time""
""fullscreenenter"",""1"",""4331""
""fullscreenenter"",""1"",""4332""
""blur"",""120"",""1948849""
""focus"",""120"",""2134218""
","""event"",""trial"",""time""
""blur"",""120"",""1948849""
","""event"",""trial"",""time""
""focus"",""120"",""2134218""
","""event"",""trial"",""time""
""fullscreenenter"",""1"",""4331""
""fullscreenenter"",""1"",""4332""
","
","","","-1","","","24","12618","5525","r","elianto","#3366ff99","-1","-1","1","+10","[]","0","2","","","12618","47","1","2","win","no-go","0"
"pit-trial","169","2368786","0.0-52.0","battery-v0.2","","""event"",""trial"",""time""
""fullscreenenter"",""1"",""4331""
""fullscreenenter"",""1"",""4332""
""blur"",""120"",""1948849""
""focus"",""120"",""2134218""
","""event"",""trial"",""time""
""blur"",""120"",""1948849""
","""event"",""trial"",""time""
""focus"",""120"",""2134218""
","""event"",""trial"",""time""
""fullscreenenter"",""1"",""4331""
""fullscreenenter"",""1"",""4332""
","
","","","1524.0000000004657","","","24","12618","5525","y","elianto","#f73b6a7A"," "," ","1","0","[2375]","1","2","","","12618","48","2","3","lose","go","0"
"pit-trial","170","2373640","0.0-53.0","battery-v0.2","","""event"",""trial"",""time""
""fullscreenenter"",""1"",""4331""
""fullscreenenter"",""1"",""4332""
""blur"",""120"",""1948849""
""focus"",""120"",""2134218""
","""event"",""trial"",""time""
""blur"",""120"",""1948849""
","""event"",""trial"",""time""
""focus"",""120"",""2134218""
","""event"",""trial"",""time""
""fullscreenenter"",""1"",""4331""
""fullscreenenter"",""1"",""4332""
","
","","","-1","","","24","12618","5525","r","elianto","#3366ff99","-1","-1","1","+10","[]","0","2","","","12618","49","1","2","win","no-go","0"
"pit-trial","171","2377841","0.0-54.0","battery-v0.2","","""event"",""trial"",""time""
""fullscreenenter"",""1"",""4331""
""fullscreenenter"",""1"",""4332""
""blur"",""120"",""1948849""
""focus"",""120"",""2134218""
","""event"",""trial"",""time""
""blur"",""120"",""1948849""
","""event"",""trial"",""time""
""focus"",""120"",""2134218""
","""event"",""trial"",""time""
""fullscreenenter"",""1"",""4331""
""fullscreenenter"",""1"",""4332""
","
","","","1346","","","24","12618","5525","y","elianto","#f73b6a7A"," "," ","1","0","[2197]","1","2","","","12618","50","2","3","lose","go","0"
"pit-trial","172","2382695","0.0-55.0","battery-v0.2","","""event"",""trial"",""time""
""fullscreenenter"",""1"",""4331""
""fullscreenenter"",""1"",""4332""
""blur"",""120"",""1948849""
""focus"",""120"",""2134218""
","""event"",""trial"",""time""
""blur"",""120"",""1948849""
","""event"",""trial"",""time""
""focus"",""120"",""2134218""
","""event"",""trial"",""time""
""fullscreenenter"",""1"",""4331""
""fullscreenenter"",""1"",""4332""
","
","","","-1","","","24","12618","5525","h","elianto","#f73b6a7A","-1","-1","1","0","[]","0","2","","","12618","51","3","4","lose","no-go","0"
"pit-trial","173","2386313","0.0-56.0","battery-v0.2","","""event"",""trial"",""time""
""fullscreenenter"",""1"",""4331""
""fullscreenenter"",""1"",""4332""
""blur"",""120"",""1948849""
""focus"",""120"",""2134218""
","""event"",""trial"",""time""
""blur"",""120"",""1948849""
","""event"",""trial"",""time""
""focus"",""120"",""2134218""
","""event"",""trial"",""time""
""fullscreenenter"",""1"",""4331""
""fullscreenenter"",""1"",""4332""
","
","","","763","","","24","12618","5525","m","elianto","#f73b6a7A"," "," ","1","0","[1613.9999999995343]","1","2","","","12618","52","0","3","lose","go","0"
"pit-trial","174","2390160","0.0-57.0","battery-v0.2","","""event"",""trial"",""time""
""fullscreenenter"",""1"",""4331""
""fullscreenenter"",""1"",""4332""
""blur"",""120"",""1948849""
""focus"",""120"",""2134218""
","""event"",""trial"",""time""
""blur"",""120"",""1948849""
","""event"",""trial"",""time""
""focus"",""120"",""2134218""
","""event"",""trial"",""time""
""fullscreenenter"",""1"",""4331""
""fullscreenenter"",""1"",""4332""
","
","","","993.0000000004657","","","24","12618","5525","y","elianto","#f73b6a7A"," "," ","1","0","[1844.0000000004657]","1","2","","","12618","53","2","3","lose","go","0"
"pit-trial","175","2395014","0.0-58.0","battery-v0.2","","""event"",""trial"",""time""
""fullscreenenter"",""1"",""4331""
""fullscreenenter"",""1"",""4332""
""blur"",""120"",""1948849""
""focus"",""120"",""2134218""
","""event"",""trial"",""time""
""blur"",""120"",""1948849""
","""event"",""trial"",""time""
""focus"",""120"",""2134218""
","""event"",""trial"",""time""
""fullscreenenter"",""1"",""4331""
""fullscreenenter"",""1"",""4332""
","
","","","-1","","","24","12618","5525","m","elianto","#f73b6a7A"," ","-1","0","0","[3014]","1","2","","","12618","54","0","3","lose","go","1"
"pit-trial","176","2399869","0.0-59.0","battery-v0.2","","""event"",""trial"",""time""
""fullscreenenter"",""1"",""4331""
""fullscreenenter"",""1"",""4332""
""blur"",""120"",""1948849""
""focus"",""120"",""2134218""
","""event"",""trial"",""time""
""blur"",""120"",""1948849""
","""event"",""trial"",""time""
""focus"",""120"",""2134218""
","""event"",""trial"",""time""
""fullscreenenter"",""1"",""4331""
""fullscreenenter"",""1"",""4332""
","
","","","-1","","","24","12618","5525","r","elianto","#3366ff99","-1","-1","1","+10","[]","0","2","","","12618","55","1","2","win","no-go","0"
"pit-trial","177","2404723","0.0-60.0","battery-v0.2","","""event"",""trial"",""time""
""fullscreenenter"",""1"",""4331""
""fullscreenenter"",""1"",""4332""
""blur"",""120"",""1948849""
""focus"",""120"",""2134218""
","""event"",""trial"",""time""
""blur"",""120"",""1948849""
","""event"",""trial"",""time""
""focus"",""120"",""2134218""
","""event"",""trial"",""time""
""fullscreenenter"",""1"",""4331""
""fullscreenenter"",""1"",""4332""
","
","","","-1","","","24","12618","5525","h","elianto","#f73b6a7A","-1","-1","1","0","[]","0","2","","","12618","56","3","4","lose","no-go","0"
"pit-trial","178","2408396","0.0-61.0","battery-v0.2","","""event"",""trial"",""time""
""fullscreenenter"",""1"",""4331""
""fullscreenenter"",""1"",""4332""
""blur"",""120"",""1948849""
""focus"",""120"",""2134218""
","""event"",""trial"",""time""
""blur"",""120"",""1948849""
","""event"",""trial"",""time""
""focus"",""120"",""2134218""
","""event"",""trial"",""time""
""fullscreenenter"",""1"",""4331""
""fullscreenenter"",""1"",""4332""
","
","","","818","","","24","12618","5525","y","elianto","#f73b6a7A"," "," ","1","0","[1668.9999999995343]","1","2","","","12618","57","2","3","lose","go","0"
"pit-trial","179","2412278","0.0-62.0","battery-v0.2","","""event"",""trial"",""time""
""fullscreenenter"",""1"",""4331""
""fullscreenenter"",""1"",""4332""
""blur"",""120"",""1948849""
""focus"",""120"",""2134218""
","""event"",""trial"",""time""
""blur"",""120"",""1948849""
","""event"",""trial"",""time""
""focus"",""120"",""2134218""
","""event"",""trial"",""time""
""fullscreenenter"",""1"",""4331""
""fullscreenenter"",""1"",""4332""
","
","","","1028","","","24","12618","5525","z","elianto","#3366ff99"," "," ","1","+10","[1878.9999999995343]","1","2","","","12618","58","4","1","win","go","0"
"pit-trial","180","2417133","0.0-63.0","battery-v0.2","","""event"",""trial"",""time""
""fullscreenenter"",""1"",""4331""
""fullscreenenter"",""1"",""4332""
""blur"",""120"",""1948849""
""focus"",""120"",""2134218""
","""event"",""trial"",""time""
""blur"",""120"",""1948849""
","""event"",""trial"",""time""
""focus"",""120"",""2134218""
","""event"",""trial"",""time""
""fullscreenenter"",""1"",""4331""
""fullscreenenter"",""1"",""4332""
","
","","","-1","","","24","12618","5525","h","elianto","#f73b6a7A","-1","-1","1","0","[]","0","2","","","12618","59","3","4","lose","no-go","0"
"pit-trial","181","2420739","0.0-64.0","battery-v0.2","","""event"",""trial"",""time""
""fullscreenenter"",""1"",""4331""
""fullscreenenter"",""1"",""4332""
""blur"",""120"",""1948849""
""focus"",""120"",""2134218""
","""event"",""trial"",""time""
""blur"",""120"",""1948849""
","""event"",""trial"",""time""
""focus"",""120"",""2134218""
","""event"",""trial"",""time""
""fullscreenenter"",""1"",""4331""
""fullscreenenter"",""1"",""4332""
","
","","","751","","","24","12618","5525","m","elianto","#f73b6a7A"," "," ","1","0","[1602]","1","2","","","12618","60","0","3","lose","go","0"
"pit-trial","182","2424969","0.0-65.0","battery-v0.2","","""event"",""trial"",""time""
""fullscreenenter"",""1"",""4331""
""fullscreenenter"",""1"",""4332""
""blur"",""120"",""1948849""
""focus"",""120"",""2134218""
","""event"",""trial"",""time""
""blur"",""120"",""1948849""
","""event"",""trial"",""time""
""focus"",""120"",""2134218""
","""event"",""trial"",""time""
""fullscreenenter"",""1"",""4331""
""fullscreenenter"",""1"",""4332""
","
","","","1376","","","24","12618","5525","z","elianto","#3366ff99"," "," ","1","+10","[2227]","1","2","","","12618","61","4","1","win","go","0"
"pit-trial","183","2428670","0.0-66.0","battery-v0.2","","""event"",""trial"",""time""
""fullscreenenter"",""1"",""4331""
""fullscreenenter"",""1"",""4332""
""blur"",""120"",""1948849""
""focus"",""120"",""2134218""
","""event"",""trial"",""time""
""blur"",""120"",""1948849""
","""event"",""trial"",""time""
""focus"",""120"",""2134218""
","""event"",""trial"",""time""
""fullscreenenter"",""1"",""4331""
""fullscreenenter"",""1"",""4332""
","
","","","846.9999999995343","","","24","12618","5525","y","elianto","#f73b6a7A"," "," ","1","-10","[1697]","1","2","","","12618","62","2","3","lose","go","1"
"pit-trial","184","2433524","0.0-67.0","battery-v0.2","","""event"",""trial"",""time""
""fullscreenenter"",""1"",""4331""
""fullscreenenter"",""1"",""4332""
""blur"",""120"",""1948849""
""focus"",""120"",""2134218""
","""event"",""trial"",""time""
""blur"",""120"",""1948849""
","""event"",""trial"",""time""
""focus"",""120"",""2134218""
","""event"",""trial"",""time""
""fullscreenenter"",""1"",""4331""
""fullscreenenter"",""1"",""4332""
","
","","","-1","","","24","12618","5525","h","elianto","#f73b6a7A","-1","-1","1","0","[]","0","2","","","12618","63","3","4","lose","no-go","0"
"pit-trial","185","2438379","0.0-68.0","battery-v0.2","","""event"",""trial"",""time""
""fullscreenenter"",""1"",""4331""
""fullscreenenter"",""1"",""4332""
""blur"",""120"",""1948849""
""focus"",""120"",""2134218""
","""event"",""trial"",""time""
""blur"",""120"",""1948849""
","""event"",""trial"",""time""
""focus"",""120"",""2134218""
","""event"",""trial"",""time""
""fullscreenenter"",""1"",""4331""
""fullscreenenter"",""1"",""4332""
","
","","","-1","","","24","12618","5525","r","elianto","#3366ff99","-1","-1","1","+10","[]","0","2","","","12618","64","1","2","win","no-go","0"
"pit-trial","186","2443233","0.0-69.0","battery-v0.2","","""event"",""trial"",""time""
""fullscreenenter"",""1"",""4331""
""fullscreenenter"",""1"",""4332""
""blur"",""120"",""1948849""
""focus"",""120"",""2134218""
","""event"",""trial"",""time""
""blur"",""120"",""1948849""
","""event"",""trial"",""time""
""focus"",""120"",""2134218""
","""event"",""trial"",""time""
""fullscreenenter"",""1"",""4331""
""fullscreenenter"",""1"",""4332""
","
","","","-1","","","24","12618","5525","r","elianto","#3366ff99","-1","-1","1","+10","[]","0","2","","","12618","65","1","2","win","no-go","0"
"pit-trial","187","2447121","0.0-70.0","battery-v0.2","","""event"",""trial"",""time""
""fullscreenenter"",""1"",""4331""
""fullscreenenter"",""1"",""4332""
""blur"",""120"",""1948849""
""focus"",""120"",""2134218""
","""event"",""trial"",""time""
""blur"",""120"",""1948849""
","""event"",""trial"",""time""
""focus"",""120"",""2134218""
","""event"",""trial"",""time""
""fullscreenenter"",""1"",""4331""
""fullscreenenter"",""1"",""4332""
","
","","","1033","","","24","12618","5525","c","elianto","#3366ff99","-1"," ","0","0","[1884]","1","2","","","12618","66","5","2","win","no-go","0"
"pit-trial","188","2450890","0.0-71.0","battery-v0.2","","""event"",""trial"",""time""
""fullscreenenter"",""1"",""4331""
""fullscreenenter"",""1"",""4332""
""blur"",""120"",""1948849""
""focus"",""120"",""2134218""
","""event"",""trial"",""time""
""blur"",""120"",""1948849""
","""event"",""trial"",""time""
""focus"",""120"",""2134218""
","""event"",""trial"",""time""
""fullscreenenter"",""1"",""4331""
""fullscreenenter"",""1"",""4332""
","
","","","915.0000000004657","","","24","12618","5525","z","elianto","#3366ff99"," "," ","1","+10","[1765.0000000004657]","1","2","","","12618","67","4","1","win","go","0"
"pit-trial","189","2455744","0.0-72.0","battery-v0.2","","""event"",""trial"",""time""
""fullscreenenter"",""1"",""4331""
""fullscreenenter"",""1"",""4332""
""blur"",""120"",""1948849""
""focus"",""120"",""2134218""
","""event"",""trial"",""time""
""blur"",""120"",""1948849""
","""event"",""trial"",""time""
""focus"",""120"",""2134218""
","""event"",""trial"",""time""
""fullscreenenter"",""1"",""4331""
""fullscreenenter"",""1"",""4332""
","
","","","-1","","","24","12618","5525","h","elianto","#f73b6a7A","-1","-1","1","0","[]","0","2","","","12618","68","3","4","lose","no-go","0"
"pit-trial","190","2460013","0.0-73.0","battery-v0.2","","""event"",""trial"",""time""
""fullscreenenter"",""1"",""4331""
""fullscreenenter"",""1"",""4332""
""blur"",""120"",""1948849""
""focus"",""120"",""2134218""
","""event"",""trial"",""time""
""blur"",""120"",""1948849""
","""event"",""trial"",""time""
""focus"",""120"",""2134218""
","""event"",""trial"",""time""
""fullscreenenter"",""1"",""4331""
""fullscreenenter"",""1"",""4332""
","
","","","1415","","","24","12618","5525","z","elianto","#3366ff99"," "," ","1","0","[2266]","1","2","","","12618","69","4","1","win","go","1"
"pit-trial","191","2463894","0.0-74.0","battery-v0.2","","""event"",""trial"",""time""
""fullscreenenter"",""1"",""4331""
""fullscreenenter"",""1"",""4332""
""blur"",""120"",""1948849""
""focus"",""120"",""2134218""
","""event"",""trial"",""time""
""blur"",""120"",""1948849""
","""event"",""trial"",""time""
""focus"",""120"",""2134218""
","""event"",""trial"",""time""
""fullscreenenter"",""1"",""4331""
""fullscreenenter"",""1"",""4332""
","
","","","1027","","","24","12618","5525","y","elianto","#f73b6a7A"," "," ","1","-10","[1877]","1","2","","","12618","70","2","3","lose","go","1"
"pit-trial","192","2468058","0.0-75.0","battery-v0.2","","""event"",""trial"",""time""
""fullscreenenter"",""1"",""4331""
""fullscreenenter"",""1"",""4332""
""blur"",""120"",""1948849""
""focus"",""120"",""2134218""
","""event"",""trial"",""time""
""blur"",""120"",""1948849""
","""event"",""trial"",""time""
""focus"",""120"",""2134218""
","""event"",""trial"",""time""
""fullscreenenter"",""1"",""4331""
""fullscreenenter"",""1"",""4332""
","
","","","1309","","","24","12618","5525","c","elianto","#3366ff99","-1"," ","0","0","[2160]","1","2","","","12618","71","5","2","win","no-go","0"
"pit-trial","193","2472912","0.0-76.0","battery-v0.2","","""event"",""trial"",""time""
""fullscreenenter"",""1"",""4331""
""fullscreenenter"",""1"",""4332""
""blur"",""120"",""1948849""
""focus"",""120"",""2134218""
","""event"",""trial"",""time""
""blur"",""120"",""1948849""
","""event"",""trial"",""time""
""focus"",""120"",""2134218""
","""event"",""trial"",""time""
""fullscreenenter"",""1"",""4331""
""fullscreenenter"",""1"",""4332""
","
","","","-1","","","24","12618","5525","r","elianto","#3366ff99","-1","-1","1","+10","[]","0","2","","","12618","72","1","2","win","no-go","0"
"pit-trial","194","2477766","0.0-77.0","battery-v0.2","","""event"",""trial"",""time""
""fullscreenenter"",""1"",""4331""
""fullscreenenter"",""1"",""4332""
""blur"",""120"",""1948849""
""focus"",""120"",""2134218""
","""event"",""trial"",""time""
""blur"",""120"",""1948849""
","""event"",""trial"",""time""
""focus"",""120"",""2134218""
","""event"",""trial"",""time""
""fullscreenenter"",""1"",""4331""
""fullscreenenter"",""1"",""4332""
","
","","","-1","","","24","12618","5525","c","elianto","#3366ff99","-1","-1","1","+10","[]","0","2","","","12618","73","5","2","win","no-go","0"
"pit-trial","195","2482621","0.0-78.0","battery-v0.2","","""event"",""trial"",""time""
""fullscreenenter"",""1"",""4331""
""fullscreenenter"",""1"",""4332""
""blur"",""120"",""1948849""
""focus"",""120"",""2134218""
","""event"",""trial"",""time""
""blur"",""120"",""1948849""
","""event"",""trial"",""time""
""focus"",""120"",""2134218""
","""event"",""trial"",""time""
""fullscreenenter"",""1"",""4331""
""fullscreenenter"",""1"",""4332""
","
","","","-1","","","24","12618","5525","h","elianto","#f73b6a7A","-1","-1","1","-10","[]","0","2","","","12618","74","3","4","lose","no-go","1"
"pit-trial","196","2486530","0.0-79.0","battery-v0.2","","""event"",""trial"",""time""
""fullscreenenter"",""1"",""4331""
""fullscreenenter"",""1"",""4332""
""blur"",""120"",""1948849""
""focus"",""120"",""2134218""
","""event"",""trial"",""time""
""blur"",""120"",""1948849""
","""event"",""trial"",""time""
""focus"",""120"",""2134218""
","""event"",""trial"",""time""
""fullscreenenter"",""1"",""4331""
""fullscreenenter"",""1"",""4332""
","
