"trial_type","trial_index","time_elapsed","internal_node_id","task_version","subject_id","interactions","blur_events","focus_events","fullscreenenter_events","fullscreenexit_events","success","view_history","rt","responses","num_errors","age","subject","participantId","rune","rune_set","hex","correct","choice","accuracy","outcome","keys","total_keys","block","practice","value","sub","trial","stimulus","robot","valence","action","sham"
"pavlovia","0","22","0.0-0.0","battery-v0.2","","""event"",""trial"",""time""
""fullscreenenter"",""1"",""5317""
","
","
","""event"",""trial"",""time""
""fullscreenenter"",""1"",""5317""
","
","","","","","","","","","","","","","","","","","","","","","","","","","","",""
"fullscreen","1","6256","0.0-1.0","battery-v0.2","","""event"",""trial"",""time""
""fullscreenenter"",""1"",""5317""
","
","
","""event"",""trial"",""time""
""fullscreenenter"",""1"",""5317""
","
","true","","","","","","","","","","","","","","","","","","","","","","","","","",""
"pit-instructions","2","11069","0.0-2.0-0.0","battery-v0.2","","""event"",""trial"",""time""
""fullscreenenter"",""1"",""5317""
","
","
","""event"",""trial"",""time""
""fullscreenenter"",""1"",""5317""
","
","","[{""page_index"":0,""viewing_time"":4805.100000023842}]","4805.899999976158","","","","","","","","","","","","","","","","","","","","","","","",""
"pit-comprehension","3","14350","0.0-2.0-1.0-0.0","battery-v0.2","","""event"",""trial"",""time""
""fullscreenenter"",""1"",""5317""
","
","
","""event"",""trial"",""time""
""fullscreenenter"",""1"",""5317""
","
","","","3274.899999976158","[""shark""]","0","24","4642","3192","","","","","","","","","","","","","","","","","","",""
"pit-instructions","4","15606","0.0-2.0-1.0-1.0","battery-v0.2","","""event"",""trial"",""time""
""fullscreenenter"",""1"",""5317""
","
","
","""event"",""trial"",""time""
""fullscreenenter"",""1"",""5317""
","
","","[{""page_index"":0,""viewing_time"":1226.5}]","1227","","","","","","","","","","","","","","","","","","","","","","","",""
"pit-comprehension","5","19119","0.0-2.0-2.0-0.0","battery-v0.2","","""event"",""trial"",""time""
""fullscreenenter"",""1"",""5317""
""fullscreenexit"",""6"",""21789""
""blur"",""6"",""24833""
""focus"",""6"",""25971""
","""event"",""trial"",""time""
""blur"",""6"",""24833""
","""event"",""trial"",""time""
""focus"",""6"",""25971""
","""event"",""trial"",""time""
""fullscreenenter"",""1"",""5317""
","""event"",""trial"",""time""
""fullscreenexit"",""6"",""21789""
","","","3507.100000023842","[""tiger""]","0","24","4642","3192","","","","","","","","","","","","","","","","","","",""
"pit-instructions","6","26084","0.0-2.0-2.0-1.0","battery-v0.2","","""event"",""trial"",""time""
""fullscreenenter"",""1"",""5317""
""fullscreenexit"",""6"",""21789""
""blur"",""6"",""24833""
""focus"",""6"",""25971""
","""event"",""trial"",""time""
""blur"",""6"",""24833""
","""event"",""trial"",""time""
""focus"",""6"",""25971""
","""event"",""trial"",""time""
""fullscreenenter"",""1"",""5317""
","""event"",""trial"",""time""
""fullscreenexit"",""6"",""21789""
","","[{""page_index"":0,""viewing_time"":6959.100000023842}]","6959.800000071526","","","","","","","","","","","","","","","","","","","","","","","",""
"pit-instructions","7","115842","0.0-2.0-3.0","battery-v0.2","","""event"",""trial"",""time""
""fullscreenenter"",""1"",""5317""
""fullscreenexit"",""6"",""21789""
""blur"",""6"",""24833""
""focus"",""6"",""25971""
","""event"",""trial"",""time""
""blur"",""6"",""24833""
","""event"",""trial"",""time""
""focus"",""6"",""25971""
","""event"",""trial"",""time""
""fullscreenenter"",""1"",""5317""
","""event"",""trial"",""time""
""fullscreenexit"",""6"",""21789""
","","[{""page_index"":0,""viewing_time"":12350.600000023842},{""page_index"":1,""viewing_time"":5132.699999928474},{""page_index"":2,""viewing_time"":6108.100000023842},{""page_index"":3,""viewing_time"":5523.899999976158},{""page_index"":4,""viewing_time"":5760.200000047684},{""page_index"":5,""viewing_time"":5124.100000023842},{""page_index"":6,""viewing_time"":5018.699999928474},{""page_index"":7,""viewing_time"":6299.300000071526},{""page_index"":8,""viewing_time"":6880.299999952316},{""page_index"":9,""viewing_time"":7165.299999952316},{""page_index"":10,""viewing_time"":7824.700000047684},{""page_index"":11,""viewing_time"":5773.299999952316},{""page_index"":12,""viewing_time"":6474.600000023842},{""page_index"":13,""viewing_time"":4315.5}]","89751.89999997616","","","","","","","","","","","","","","","","","","","","","","","",""
"pit-trial","8","119202","0.0-2.0-4.0-0.0","battery-v0.2","","""event"",""trial"",""time""
""fullscreenenter"",""1"",""5317""
""fullscreenexit"",""6"",""21789""
""blur"",""6"",""24833""
""focus"",""6"",""25971""
","""event"",""trial"",""time""
""blur"",""6"",""24833""
","""event"",""trial"",""time""
""focus"",""6"",""25971""
","""event"",""trial"",""time""
""fullscreenenter"",""1"",""5317""
","""event"",""trial"",""time""
""fullscreenexit"",""6"",""21789""
","","","480.89999997615814","","","24","4642","3192","&#9784;","elianto","#FFFFF080"," "," ","1","&#10004","[1330.2000000476837]","1","0","0","","","","","","","",""
"pit-trial","9","122224","0.0-2.0-4.1-0.1","battery-v0.2","","""event"",""trial"",""time""
""fullscreenenter"",""1"",""5317""
""fullscreenexit"",""6"",""21789""
""blur"",""6"",""24833""
""focus"",""6"",""25971""
","""event"",""trial"",""time""
""blur"",""6"",""24833""
","""event"",""trial"",""time""
""focus"",""6"",""25971""
","""event"",""trial"",""time""
""fullscreenenter"",""1"",""5317""
","""event"",""trial"",""time""
""fullscreenexit"",""6"",""21789""
","","","158.09999990463257","","","24","4642","3192","&#9784;","elianto","#FFFFF080"," "," ","1","&#10004","[1016.1999999284744,1367.8999999761581]","2","0","0","","","","","","","",""
"pit-trial","10","125616","0.0-2.0-4.2-0.2","battery-v0.2","","""event"",""trial"",""time""
""fullscreenenter"",""1"",""5317""
""fullscreenexit"",""6"",""21789""
""blur"",""6"",""24833""
""focus"",""6"",""25971""
","""event"",""trial"",""time""
""blur"",""6"",""24833""
","""event"",""trial"",""time""
""focus"",""6"",""25971""
","""event"",""trial"",""time""
""fullscreenenter"",""1"",""5317""
","""event"",""trial"",""time""
""fullscreenexit"",""6"",""21789""
","","","518.1000000238419","","","24","4642","3192","&#9784;","elianto","#FFFFF080"," "," ","1","&#10004","[1376.5]","1","0","0","","","","","","","",""
"pit-trial","11","128864","0.0-2.0-4.3-0.3","battery-v0.2","","""event"",""trial"",""time""
""fullscreenenter"",""1"",""5317""
""fullscreenexit"",""6"",""21789""
""blur"",""6"",""24833""
""focus"",""6"",""25971""
","""event"",""trial"",""time""
""blur"",""6"",""24833""
","""event"",""trial"",""time""
""focus"",""6"",""25971""
","""event"",""trial"",""time""
""fullscreenenter"",""1"",""5317""
","""event"",""trial"",""time""
""fullscreenexit"",""6"",""21789""
","","","376.90000009536743","","","24","4642","3192","&#9784;","elianto","#FFFFF080"," "," ","1","&#10004","[1230.8000000715256]","1","0","0","","","","","","","",""
"pit-trial","12","132214","0.0-2.0-4.4-0.4","battery-v0.2","","""event"",""trial"",""time""
""fullscreenenter"",""1"",""5317""
""fullscreenexit"",""6"",""21789""
""blur"",""6"",""24833""
""focus"",""6"",""25971""
","""event"",""trial"",""time""
""blur"",""6"",""24833""
","""event"",""trial"",""time""
""focus"",""6"",""25971""
","""event"",""trial"",""time""
""fullscreenenter"",""1"",""5317""
","""event"",""trial"",""time""
""fullscreenexit"",""6"",""21789""
","","","485.90000009536743","","","24","4642","3192","&#9784;","elianto","#FFFFF080"," "," ","1","&#10004","[1339.2000000476837]","1","0","0","","","","","","","",""
"pit-instructions","13","152210","0.0-2.0-5.0","battery-v0.2","","""event"",""trial"",""time""
""fullscreenenter"",""1"",""5317""
""fullscreenexit"",""6"",""21789""
""blur"",""6"",""24833""
""focus"",""6"",""25971""
","""event"",""trial"",""time""
""blur"",""6"",""24833""
","""event"",""trial"",""time""
""focus"",""6"",""25971""
","""event"",""trial"",""time""
""fullscreenenter"",""1"",""5317""
","""event"",""trial"",""time""
""fullscreenexit"",""6"",""21789""
","","[{""page_index"":0,""viewing_time"":4163.899999976158},{""page_index"":1,""viewing_time"":5271.900000095367},{""page_index"":2,""viewing_time"":4982.299999952316},{""page_index"":3,""viewing_time"":5528}]","19946.399999976158","","","","","","","","","","","","","","","","","","","","","","","",""
"pit-trial","14","155681","0.0-2.0-6.0-0.0","battery-v0.2","","""event"",""trial"",""time""
""fullscreenenter"",""1"",""5317""
""fullscreenexit"",""6"",""21789""
""blur"",""6"",""24833""
""focus"",""6"",""25971""
","""event"",""trial"",""time""
""blur"",""6"",""24833""
","""event"",""trial"",""time""
""focus"",""6"",""25971""
","""event"",""trial"",""time""
""fullscreenenter"",""1"",""5317""
","""event"",""trial"",""time""
""fullscreenexit"",""6"",""21789""
","","","605.7000000476837","","","24","4642","3192","&#9854;","elianto","#FFFFF080","-1"," ","0","&#10060","[1458.3999999761581]","1","0","1","","","","","","","",""
"pit-trial","15","160563","0.0-2.0-6.1-0.1","battery-v0.2","","""event"",""trial"",""time""
""fullscreenenter"",""1"",""5317""
""fullscreenexit"",""6"",""21789""
""blur"",""6"",""24833""
""focus"",""6"",""25971""
","""event"",""trial"",""time""
""blur"",""6"",""24833""
","""event"",""trial"",""time""
""focus"",""6"",""25971""
","""event"",""trial"",""time""
""fullscreenenter"",""1"",""5317""
","""event"",""trial"",""time""
""fullscreenexit"",""6"",""21789""
","","","-1","","","24","4642","3192","&#9854;","elianto","#FFFFF080","-1","-1","1","&#10004","[]","0","0","1","","","","","","","",""
"pit-trial","16","165434","0.0-2.0-6.2-0.2","battery-v0.2","","""event"",""trial"",""time""
""fullscreenenter"",""1"",""5317""
""fullscreenexit"",""6"",""21789""
""blur"",""6"",""24833""
""focus"",""6"",""25971""
","""event"",""trial"",""time""
""blur"",""6"",""24833""
","""event"",""trial"",""time""
""focus"",""6"",""25971""
","""event"",""trial"",""time""
""fullscreenenter"",""1"",""5317""
","""event"",""trial"",""time""
""fullscreenexit"",""6"",""21789""
","","","-1","","","24","4642","3192","&#9854;","elianto","#FFFFF080","-1","-1","1","&#10004","[]","0","0","1","","","","","","","",""
"pit-trial","17","170314","0.0-2.0-6.3-0.3","battery-v0.2","","""event"",""trial"",""time""
""fullscreenenter"",""1"",""5317""
""fullscreenexit"",""6"",""21789""
""blur"",""6"",""24833""
""focus"",""6"",""25971""
","""event"",""trial"",""time""
""blur"",""6"",""24833""
","""event"",""trial"",""time""
""focus"",""6"",""25971""
","""event"",""trial"",""time""
""fullscreenenter"",""1"",""5317""
","""event"",""trial"",""time""
""fullscreenexit"",""6"",""21789""
","","","-1","","","24","4642","3192","&#9854;","elianto","#FFFFF080","-1","-1","1","&#10004","[]","0","0","1","","","","","","","",""
"pit-trial","18","175180","0.0-2.0-6.4-0.4","battery-v0.2","","""event"",""trial"",""time""
""fullscreenenter"",""1"",""5317""
""fullscreenexit"",""6"",""21789""
""blur"",""6"",""24833""
""focus"",""6"",""25971""
","""event"",""trial"",""time""
""blur"",""6"",""24833""
","""event"",""trial"",""time""
""focus"",""6"",""25971""
","""event"",""trial"",""time""
""fullscreenenter"",""1"",""5317""
","""event"",""trial"",""time""
""fullscreenexit"",""6"",""21789""
","","","-1","","","24","4642","3192","&#9854;","elianto","#FFFFF080","-1","-1","1","&#10004","[]","0","0","1","","","","","","","",""
"pit-instructions","19","295951","0.0-2.0-7.0","battery-v0.2","","""event"",""trial"",""time""
""fullscreenenter"",""1"",""5317""
""fullscreenexit"",""6"",""21789""
""blur"",""6"",""24833""
""focus"",""6"",""25971""
","""event"",""trial"",""time""
""blur"",""6"",""24833""
","""event"",""trial"",""time""
""focus"",""6"",""25971""
","""event"",""trial"",""time""
""fullscreenenter"",""1"",""5317""
","""event"",""trial"",""time""
""fullscreenexit"",""6"",""21789""
","","[{""page_index"":0,""viewing_time"":5748.599999904633},{""page_index"":1,""viewing_time"":6446.200000047684},{""page_index"":2,""viewing_time"":5066},{""page_index"":3,""viewing_time"":5375.700000047684},{""page_index"":4,""viewing_time"":5840},{""page_index"":5,""viewing_time"":5293.899999976158},{""page_index"":6,""viewing_time"":5081.100000023842},{""page_index"":7,""viewing_time"":9273.699999928474},{""page_index"":8,""viewing_time"":9261.700000047684},{""page_index"":9,""viewing_time"":8858.199999928474},{""page_index"":10,""viewing_time"":6167.5},{""page_index"":11,""viewing_time"":4164.900000095367},{""page_index"":12,""viewing_time"":6795.099999904633},{""page_index"":13,""viewing_time"":6088},{""page_index"":14,""viewing_time"":6063.900000095367},{""page_index"":15,""viewing_time"":6063.899999976158},{""page_index"":16,""viewing_time"":6744.299999952316},{""page_index"":17,""viewing_time"":12311.600000023842}]","120701","","","","","","","","","","","","","","","","","","","","","","","",""
"pit-trial","20","300194","0.0-2.0-8.0-0.0","battery-v0.2","","""event"",""trial"",""time""
""fullscreenenter"",""1"",""5317""
""fullscreenexit"",""6"",""21789""
""blur"",""6"",""24833""
""focus"",""6"",""25971""
","""event"",""trial"",""time""
""blur"",""6"",""24833""
","""event"",""trial"",""time""
""focus"",""6"",""25971""
","""event"",""trial"",""time""
""fullscreenenter"",""1"",""5317""
","""event"",""trial"",""time""
""fullscreenexit"",""6"",""21789""
","","","1000.5","","","24","4642","3192","&#9776;","elianto","#3366ff99"," "," ","1","+10","[1847.5]","1","0","1","","","","","","","",""
"pit-trial","21","303690","0.0-2.0-8.0-1.0","battery-v0.2","","""event"",""trial"",""time""
""fullscreenenter"",""1"",""5317""
""fullscreenexit"",""6"",""21789""
""blur"",""6"",""24833""
""focus"",""6"",""25971""
","""event"",""trial"",""time""
""blur"",""6"",""24833""
","""event"",""trial"",""time""
""focus"",""6"",""25971""
","""event"",""trial"",""time""
""fullscreenenter"",""1"",""5317""
","""event"",""trial"",""time""
""fullscreenexit"",""6"",""21789""
","","","631.7000000476837","","","24","4642","3192","&#9776;","elianto","#3366ff99"," "," ","1","+10","[1482]","1","0","1","","","","","","","",""
"pit-trial","22","306806","0.0-2.0-8.0-2.0","battery-v0.2","","""event"",""trial"",""time""
""fullscreenenter"",""1"",""5317""
""fullscreenexit"",""6"",""21789""
""blur"",""6"",""24833""
""focus"",""6"",""25971""
","""event"",""trial"",""time""
""blur"",""6"",""24833""
","""event"",""trial"",""time""
""focus"",""6"",""25971""
","""event"",""trial"",""time""
""fullscreenenter"",""1"",""5317""
","""event"",""trial"",""time""
""fullscreenexit"",""6"",""21789""
","","","253","","","24","4642","3192","&#9776;","elianto","#3366ff99"," "," ","1","+10","[1104.7000000476837]","1","0","1","","","","","","","",""
"pit-trial","23","310115","0.0-2.0-8.0-3.0","battery-v0.2","","""event"",""trial"",""time""
""fullscreenenter"",""1"",""5317""
""fullscreenexit"",""6"",""21789""
""blur"",""6"",""24833""
""focus"",""6"",""25971""
","""event"",""trial"",""time""
""blur"",""6"",""24833""
","""event"",""trial"",""time""
""focus"",""6"",""25971""
","""event"",""trial"",""time""
""fullscreenenter"",""1"",""5317""
","""event"",""trial"",""time""
""fullscreenexit"",""6"",""21789""
","","","447.6999999284744","","","24","4642","3192","&#9776;","elianto","#3366ff99"," "," ","1","0","[1302.8999999761581]","1","0","1","","","","","","","",""
"pit-trial","24","313261","0.0-2.0-8.0-4.0","battery-v0.2","","""event"",""trial"",""time""
""fullscreenenter"",""1"",""5317""
""fullscreenexit"",""6"",""21789""
""blur"",""6"",""24833""
""focus"",""6"",""25971""
","""event"",""trial"",""time""
""blur"",""6"",""24833""
","""event"",""trial"",""time""
""focus"",""6"",""25971""
","""event"",""trial"",""time""
""fullscreenenter"",""1"",""5317""
","""event"",""trial"",""time""
""fullscreenexit"",""6"",""21789""
","","","286.59999990463257","","","24","4642","3192","&#9776;","elianto","#3366ff99"," "," ","1","+10","[1137.1999999284744]","1","0","1","","","","","","","",""
"pit-trial","25","316535","0.0-2.0-8.1-0.1","battery-v0.2","","""event"",""trial"",""time""
""fullscreenenter"",""1"",""5317""
""fullscreenexit"",""6"",""21789""
""blur"",""6"",""24833""
""focus"",""6"",""25971""
","""event"",""trial"",""time""
""blur"",""6"",""24833""
","""event"",""trial"",""time""
""focus"",""6"",""25971""
","""event"",""trial"",""time""
""fullscreenenter"",""1"",""5317""
","""event"",""trial"",""time""
""fullscreenexit"",""6"",""21789""
","","","175","","","24","4642","3192","&#9776;","elianto","#3366ff99"," "," ","1","+10","[662.1000000238419,1038.1000000238419,1302.2000000476837,2774.2000000476837]","4","0","1","","","","","","","",""
"pit-trial","26","319841","0.0-2.0-8.1-1.1","battery-v0.2","","""event"",""trial"",""time""
""fullscreenenter"",""1"",""5317""
""fullscreenexit"",""6"",""21789""
""blur"",""6"",""24833""
""focus"",""6"",""25971""
","""event"",""trial"",""time""
""blur"",""6"",""24833""
","""event"",""trial"",""time""
""focus"",""6"",""25971""
","""event"",""trial"",""time""
""fullscreenenter"",""1"",""5317""
","""event"",""trial"",""time""
""fullscreenexit"",""6"",""21789""
","","","443.60000002384186","","","24","4642","3192","&#9776;","elianto","#3366ff99"," "," ","1","+10","[1298.3000000715256]","1","0","1","","","","","","","",""
"pit-trial","27","322824","0.0-2.0-8.1-2.1","battery-v0.2","","""event"",""trial"",""time""
""fullscreenenter"",""1"",""5317""
""fullscreenexit"",""6"",""21789""
""blur"",""6"",""24833""
""focus"",""6"",""25971""
","""event"",""trial"",""time""
""blur"",""6"",""24833""
","""event"",""trial"",""time""
""focus"",""6"",""25971""
","""event"",""trial"",""time""
""fullscreenenter"",""1"",""5317""
","""event"",""trial"",""time""
""fullscreenexit"",""6"",""21789""
","","","125.89999997615814","","","24","4642","3192","&#9776;","elianto","#3366ff99"," "," ","1","+10","[978.6000000238419,1377.5,1961.6000000238419]","3","0","1","","","","","","","",""
"pit-trial","28","326663","0.0-2.0-8.1-3.1","battery-v0.2","","""event"",""trial"",""time""
""fullscreenenter"",""1"",""5317""
""fullscreenexit"",""6"",""21789""
""blur"",""6"",""24833""
""focus"",""6"",""25971""
","""event"",""trial"",""time""
""blur"",""6"",""24833""
","""event"",""trial"",""time""
""focus"",""6"",""25971""
","""event"",""trial"",""time""
""fullscreenenter"",""1"",""5317""
","""event"",""trial"",""time""
""fullscreenexit"",""6"",""21789""
","","","981.3000000715256","","","24","4642","3192","&#9776;","elianto","#3366ff99"," "," ","1","0","[43.10000002384186,482.7000000476837,1834.7000000476837]","3","0","1","","","","","","","",""
"pit-trial","29","329872","0.0-2.0-8.1-4.1","battery-v0.2","","""event"",""trial"",""time""
""fullscreenenter"",""1"",""5317""
""fullscreenexit"",""6"",""21789""
""blur"",""6"",""24833""
""focus"",""6"",""25971""
","""event"",""trial"",""time""
""blur"",""6"",""24833""
","""event"",""trial"",""time""
""focus"",""6"",""25971""
","""event"",""trial"",""time""
""fullscreenenter"",""1"",""5317""
","""event"",""trial"",""time""
""fullscreenexit"",""6"",""21789""
","","","350.89999997615814","","","24","4642","3192","&#9776;","elianto","#3366ff99"," "," ","1","+10","[1205.1000000238419,1779.3999999761581]","2","0","1","","","","","","","",""
"pit-trial","30","333200","0.0-2.0-8.2-0.2","battery-v0.2","","""event"",""trial"",""time""
""fullscreenenter"",""1"",""5317""
""fullscreenexit"",""6"",""21789""
""blur"",""6"",""24833""
""focus"",""6"",""25971""
","""event"",""trial"",""time""
""blur"",""6"",""24833""
","""event"",""trial"",""time""
""focus"",""6"",""25971""
","""event"",""trial"",""time""
""fullscreenenter"",""1"",""5317""
","""event"",""trial"",""time""
""fullscreenexit"",""6"",""21789""
","","","464","","","24","4642","3192","&#9776;","elianto","#3366ff99"," "," ","1","+10","[827,1316.5,1931.1999999284744,2643.0999999046326]","4","0","1","","","","","","","",""
"pit-trial","31","337280","0.0-2.0-8.2-1.2","battery-v0.2","","""event"",""trial"",""time""
""fullscreenenter"",""1"",""5317""
""fullscreenexit"",""6"",""21789""
""blur"",""6"",""24833""
""focus"",""6"",""25971""
","""event"",""trial"",""time""
""blur"",""6"",""24833""
","""event"",""trial"",""time""
""focus"",""6"",""25971""
","""event"",""trial"",""time""
""fullscreenenter"",""1"",""5317""
","""event"",""trial"",""time""
""fullscreenexit"",""6"",""21789""
","","","1221.8999999761581","","","24","4642","3192","&#9776;","elianto","#3366ff99"," "," ","1","+10","[611.5,2074.2000000476837]","2","0","1","","","","","","","",""
"pit-trial","32","340623","0.0-2.0-8.2-2.2","battery-v0.2","","""event"",""trial"",""time""
""fullscreenenter"",""1"",""5317""
""fullscreenexit"",""6"",""21789""
""blur"",""6"",""24833""
""focus"",""6"",""25971""
","""event"",""trial"",""time""
""blur"",""6"",""24833""
","""event"",""trial"",""time""
""focus"",""6"",""25971""
","""event"",""trial"",""time""
""fullscreenenter"",""1"",""5317""
","""event"",""trial"",""time""
""fullscreenexit"",""6"",""21789""
","","","486","","","24","4642","3192","&#9776;","elianto","#3366ff99"," "," ","1","+10","[1339.2999999523163]","1","0","1","","","","","","","",""
"pit-trial","33","343688","0.0-2.0-8.2-3.2","battery-v0.2","","""event"",""trial"",""time""
""fullscreenenter"",""1"",""5317""
""fullscreenexit"",""6"",""21789""
""blur"",""6"",""24833""
""focus"",""6"",""25971""
","""event"",""trial"",""time""
""blur"",""6"",""24833""
","""event"",""trial"",""time""
""focus"",""6"",""25971""
","""event"",""trial"",""time""
""fullscreenenter"",""1"",""5317""
","""event"",""trial"",""time""
""fullscreenexit"",""6"",""21789""
","","","206.5","","","24","4642","3192","&#9776;","elianto","#3366ff99"," "," ","1","0","[1061.6000000238419,2756.100000023842]","2","0","1","","","","","","","",""
"pit-trial","34","347146","0.0-2.0-8.2-4.2","battery-v0.2","","""event"",""trial"",""time""
""fullscreenenter"",""1"",""5317""
""fullscreenexit"",""6"",""21789""
""blur"",""6"",""24833""
""focus"",""6"",""25971""
","""event"",""trial"",""time""
""blur"",""6"",""24833""
","""event"",""trial"",""time""
""focus"",""6"",""25971""
","""event"",""trial"",""time""
""fullscreenenter"",""1"",""5317""
","""event"",""trial"",""time""
""fullscreenexit"",""6"",""21789""
","","","601.1000000238419","","","24","4642","3192","&#9776;","elianto","#3366ff99"," "," ","1","+10","[1451.3999999761581]","1","0","1","","","","","","","",""
"call-function","35","347152","0.0-2.0-9.0","battery-v0.2","","""event"",""trial"",""time""
""fullscreenenter"",""1"",""5317""
""fullscreenexit"",""6"",""21789""
""blur"",""6"",""24833""
""focus"",""6"",""25971""
","""event"",""trial"",""time""
""blur"",""6"",""24833""
","""event"",""trial"",""time""
""focus"",""6"",""25971""
","""event"",""trial"",""time""
""fullscreenenter"",""1"",""5317""
","""event"",""trial"",""time""
""fullscreenexit"",""6"",""21789""
","","","","","","","","","","","","","","","","","","","","","","","","","","",""
"pit-instructions","36","394816","0.0-2.0-10.0","battery-v0.2","","""event"",""trial"",""time""
""fullscreenenter"",""1"",""5317""
""fullscreenexit"",""6"",""21789""
""blur"",""6"",""24833""
""focus"",""6"",""25971""
","""event"",""trial"",""time""
""blur"",""6"",""24833""
","""event"",""trial"",""time""
""focus"",""6"",""25971""
","""event"",""trial"",""time""
""fullscreenenter"",""1"",""5317""
","""event"",""trial"",""time""
""fullscreenexit"",""6"",""21789""
","","[{""page_index"":0,""viewing_time"":9289.5},{""page_index"":1,""viewing_time"":8125.199999928474},{""page_index"":2,""viewing_time"":11632.200000047684},{""page_index"":3,""viewing_time"":10295.699999928474},{""page_index"":4,""viewing_time"":8288.300000071526}]","47632.59999990463","","","","","","","","","","","","","","","","","","","","","","","",""
"pit-trial","37","398438","0.0-2.0-11.0-0.0","battery-v0.2","","""event"",""trial"",""time""
""fullscreenenter"",""1"",""5317""
""fullscreenexit"",""6"",""21789""
""blur"",""6"",""24833""
""focus"",""6"",""25971""
","""event"",""trial"",""time""
""blur"",""6"",""24833""
","""event"",""trial"",""time""
""focus"",""6"",""25971""
","""event"",""trial"",""time""
""fullscreenenter"",""1"",""5317""
","""event"",""trial"",""time""
""fullscreenexit"",""6"",""21789""
","","","749.3999999761581","","","24","4642","3192","&#9761;","elianto","#3366ff99","-1"," ","0","0","[1602.3000000715256]","1","0","2","","","","","","","",""
"pit-trial","38","403347","0.0-2.0-11.0-1.0","battery-v0.2","","""event"",""trial"",""time""
""fullscreenenter"",""1"",""5317""
""fullscreenexit"",""6"",""21789""
""blur"",""6"",""24833""
""focus"",""6"",""25971""
","""event"",""trial"",""time""
""blur"",""6"",""24833""
","""event"",""trial"",""time""
""focus"",""6"",""25971""
","""event"",""trial"",""time""
""fullscreenenter"",""1"",""5317""
","""event"",""trial"",""time""
""fullscreenexit"",""6"",""21789""
","","","-1","","","24","4642","3192","&#9761;","elianto","#3366ff99","-1","-1","1","+10","[]","0","0","2","","","","","","","",""
"pit-trial","39","408236","0.0-2.0-11.0-2.0","battery-v0.2","","""event"",""trial"",""time""
""fullscreenenter"",""1"",""5317""
""fullscreenexit"",""6"",""21789""
""blur"",""6"",""24833""
""focus"",""6"",""25971""
","""event"",""trial"",""time""
""blur"",""6"",""24833""
","""event"",""trial"",""time""
""focus"",""6"",""25971""
","""event"",""trial"",""time""
""fullscreenenter"",""1"",""5317""
","""event"",""trial"",""time""
""fullscreenexit"",""6"",""21789""
","","","-1","","","24","4642","3192","&#9761;","elianto","#3366ff99","-1","-1","1","+10","[]","0","0","2","","","","","","","",""
"pit-trial","40","413120","0.0-2.0-11.0-3.0","battery-v0.2","","""event"",""trial"",""time""
""fullscreenenter"",""1"",""5317""
""fullscreenexit"",""6"",""21789""
""blur"",""6"",""24833""
""focus"",""6"",""25971""
","""event"",""trial"",""time""
""blur"",""6"",""24833""
","""event"",""trial"",""time""
""focus"",""6"",""25971""
","""event"",""trial"",""time""
""fullscreenenter"",""1"",""5317""
","""event"",""trial"",""time""
""fullscreenexit"",""6"",""21789""
","","","-1","","","24","4642","3192","&#9761;","elianto","#3366ff99","-1","-1","1","0","[]","0","0","2","","","","","","","",""
"pit-trial","41","417996","0.0-2.0-11.0-4.0","battery-v0.2","","""event"",""trial"",""time""
""fullscreenenter"",""1"",""5317""
""fullscreenexit"",""6"",""21789""
""blur"",""6"",""24833""
""focus"",""6"",""25971""
","""event"",""trial"",""time""
""blur"",""6"",""24833""
","""event"",""trial"",""time""
""focus"",""6"",""25971""
","""event"",""trial"",""time""
""fullscreenenter"",""1"",""5317""
","""event"",""trial"",""time""
""fullscreenexit"",""6"",""21789""
","","","-1","","","24","4642","3192","&#9761;","elianto","#3366ff99","-1","-1","1","+10","[]","0","0","2","","","","","","","",""
"pit-trial","42","423866","0.0-2.0-11.1-0.1","battery-v0.2","","""event"",""trial"",""time""
""fullscreenenter"",""1"",""5317""
""fullscreenexit"",""6"",""21789""
""blur"",""6"",""24833""
""focus"",""6"",""25971""
","""event"",""trial"",""time""
""blur"",""6"",""24833""
","""event"",""trial"",""time""
""focus"",""6"",""25971""
","""event"",""trial"",""time""
""fullscreenenter"",""1"",""5317""
","""event"",""trial"",""time""
""fullscreenexit"",""6"",""21789""
","","","-1","","","24","4642","3192","&#9761;","elianto","#3366ff99","-1","-1","1","+10","[]","0","0","2","","","","","","","",""
"pit-trial","43","428736","0.0-2.0-11.1-1.1","battery-v0.2","","""event"",""trial"",""time""
""fullscreenenter"",""1"",""5317""
""fullscreenexit"",""6"",""21789""
""blur"",""6"",""24833""
""focus"",""6"",""25971""
","""event"",""trial"",""time""
""blur"",""6"",""24833""
","""event"",""trial"",""time""
""focus"",""6"",""25971""
","""event"",""trial"",""time""
""fullscreenenter"",""1"",""5317""
","""event"",""trial"",""time""
""fullscreenexit"",""6"",""21789""
","","","-1","","","24","4642","3192","&#9761;","elianto","#3366ff99","-1","-1","1","+10","[]","0","0","2","","","","","","","",""
"pit-trial","44","433601","0.0-2.0-11.1-2.1","battery-v0.2","","""event"",""trial"",""time""
""fullscreenenter"",""1"",""5317""
""fullscreenexit"",""6"",""21789""
""blur"",""6"",""24833""
""focus"",""6"",""25971""
","""event"",""trial"",""time""
""blur"",""6"",""24833""
","""event"",""trial"",""time""
""focus"",""6"",""25971""
","""event"",""trial"",""time""
""fullscreenenter"",""1"",""5317""
","""event"",""trial"",""time""
""fullscreenexit"",""6"",""21789""
","","","-1","","","24","4642","3192","&#9761;","elianto","#3366ff99","-1","-1","1","+10","[]","0","0","2","","","","","","","",""
"pit-trial","45","438464","0.0-2.0-11.1-3.1","battery-v0.2","","""event"",""trial"",""time""
""fullscreenenter"",""1"",""5317""
""fullscreenexit"",""6"",""21789""
""blur"",""6"",""24833""
""focus"",""6"",""25971""
","""event"",""trial"",""time""
""blur"",""6"",""24833""
","""event"",""trial"",""time""
""focus"",""6"",""25971""
","""event"",""trial"",""time""
""fullscreenenter"",""1"",""5317""
","""event"",""trial"",""time""
""fullscreenexit"",""6"",""21789""
","","","-1","","","24","4642","3192","&#9761;","elianto","#3366ff99","-1","-1","1","0","[]","0","0","2","","","","","","","",""
"pit-trial","46","443330","0.0-2.0-11.1-4.1","battery-v0.2","","""event"",""trial"",""time""
""fullscreenenter"",""1"",""5317""
""fullscreenexit"",""6"",""21789""
""blur"",""6"",""24833""
""focus"",""6"",""25971""
","""event"",""trial"",""time""
""blur"",""6"",""24833""
","""event"",""trial"",""time""
""focus"",""6"",""25971""
","""event"",""trial"",""time""
""fullscreenenter"",""1"",""5317""
","""event"",""trial"",""time""
""fullscreenexit"",""6"",""21789""
","","","-1","","","24","4642","3192","&#9761;","elianto","#3366ff99","-1","-1","1","+10","[]","0","0","2","","","","","","","",""
"pit-trial","47","448192","0.0-2.0-11.2-0.2","battery-v0.2","","""event"",""trial"",""time""
""fullscreenenter"",""1"",""5317""
""fullscreenexit"",""6"",""21789""
""blur"",""6"",""24833""
""focus"",""6"",""25971""
","""event"",""trial"",""time""
""blur"",""6"",""24833""
","""event"",""trial"",""time""
""focus"",""6"",""25971""
","""event"",""trial"",""time""
""fullscreenenter"",""1"",""5317""
","""event"",""trial"",""time""
""fullscreenexit"",""6"",""21789""
","","","-1","","","24","4642","3192","&#9761;","elianto","#3366ff99","-1","-1","1","+10","[]","0","0","2","","","","","","","",""
"pit-trial","48","453061","0.0-2.0-11.2-1.2","battery-v0.2","","""event"",""trial"",""time""
""fullscreenenter"",""1"",""5317""
""fullscreenexit"",""6"",""21789""
""blur"",""6"",""24833""
""focus"",""6"",""25971""
","""event"",""trial"",""time""
""blur"",""6"",""24833""
","""event"",""trial"",""time""
""focus"",""6"",""25971""
","""event"",""trial"",""time""
""fullscreenenter"",""1"",""5317""
","""event"",""trial"",""time""
""fullscreenexit"",""6"",""21789""
","","","-1","","","24","4642","3192","&#9761;","elianto","#3366ff99","-1","-1","1","+10","[]","0","0","2","","","","","","","",""
"pit-trial","49","457928","0.0-2.0-11.2-2.2","battery-v0.2","","""event"",""trial"",""time""
""fullscreenenter"",""1"",""5317""
""fullscreenexit"",""6"",""21789""
""blur"",""6"",""24833""
""focus"",""6"",""25971""
","""event"",""trial"",""time""
""blur"",""6"",""24833""
","""event"",""trial"",""time""
""focus"",""6"",""25971""
","""event"",""trial"",""time""
""fullscreenenter"",""1"",""5317""
","""event"",""trial"",""time""
""fullscreenexit"",""6"",""21789""
","","","-1","","","24","4642","3192","&#9761;","elianto","#3366ff99","-1","-1","1","+10","[]","0","0","2","","","","","","","",""
"pit-trial","50","462792","0.0-2.0-11.2-3.2","battery-v0.2","","""event"",""trial"",""time""
""fullscreenenter"",""1"",""5317""
""fullscreenexit"",""6"",""21789""
""blur"",""6"",""24833""
""focus"",""6"",""25971""
","""event"",""trial"",""time""
""blur"",""6"",""24833""
","""event"",""trial"",""time""
""focus"",""6"",""25971""
","""event"",""trial"",""time""
""fullscreenenter"",""1"",""5317""
","""event"",""trial"",""time""
""fullscreenexit"",""6"",""21789""
","","","-1","","","24","4642","3192","&#9761;","elianto","#3366ff99","-1","-1","1","0","[]","0","0","2","","","","","","","",""
"pit-trial","51","467664","0.0-2.0-11.2-4.2","battery-v0.2","","""event"",""trial"",""time""
""fullscreenenter"",""1"",""5317""
""fullscreenexit"",""6"",""21789""
""blur"",""6"",""24833""
""focus"",""6"",""25971""
","""event"",""trial"",""time""
""blur"",""6"",""24833""
","""event"",""trial"",""time""
""focus"",""6"",""25971""
","""event"",""trial"",""time""
""fullscreenenter"",""1"",""5317""
","""event"",""trial"",""time""
""fullscreenexit"",""6"",""21789""
","","","-1","","","24","4642","3192","&#9761;","elianto","#3366ff99","-1","-1","1","+10","[]","0","0","2","","","","","","","",""
"pit-trial","52","472528","0.0-2.0-11.3-0.3","battery-v0.2","","""event"",""trial"",""time""
""fullscreenenter"",""1"",""5317""
""fullscreenexit"",""6"",""21789""
""blur"",""6"",""24833""
""focus"",""6"",""25971""
","""event"",""trial"",""time""
""blur"",""6"",""24833""
","""event"",""trial"",""time""
""focus"",""6"",""25971""
","""event"",""trial"",""time""
""fullscreenenter"",""1"",""5317""
","""event"",""trial"",""time""
""fullscreenexit"",""6"",""21789""
","","","-1","","","24","4642","3192","&#9761;","elianto","#3366ff99","-1","-1","1","+10","[]","0","0","2","","","","","","","",""
"pit-trial","53","477392","0.0-2.0-11.3-1.3","battery-v0.2","","""event"",""trial"",""time""
""fullscreenenter"",""1"",""5317""
""fullscreenexit"",""6"",""21789""
""blur"",""6"",""24833""
""focus"",""6"",""25971""
","""event"",""trial"",""time""
""blur"",""6"",""24833""
","""event"",""trial"",""time""
""focus"",""6"",""25971""
","""event"",""trial"",""time""
""fullscreenenter"",""1"",""5317""
","""event"",""trial"",""time""
""fullscreenexit"",""6"",""21789""
","","","-1","","","24","4642","3192","&#9761;","elianto","#3366ff99","-1","-1","1","+10","[]","0","0","2","","","","","","","",""
"pit-trial","54","482266","0.0-2.0-11.3-2.3","battery-v0.2","","""event"",""trial"",""time""
""fullscreenenter"",""1"",""5317""
""fullscreenexit"",""6"",""21789""
""blur"",""6"",""24833""
""focus"",""6"",""25971""
","""event"",""trial"",""time""
""blur"",""6"",""24833""
","""event"",""trial"",""time""
""focus"",""6"",""25971""
","""event"",""trial"",""time""
""fullscreenenter"",""1"",""5317""
","""event"",""trial"",""time""
""fullscreenexit"",""6"",""21789""
","","","-1","","","24","4642","3192","&#9761;","elianto","#3366ff99","-1","-1","1","+10","[]","0","0","2","","","","","","","",""
"pit-trial","55","487128","0.0-2.0-11.3-3.3","battery-v0.2","","""event"",""trial"",""time""
""fullscreenenter"",""1"",""5317""
""fullscreenexit"",""6"",""21789""
""blur"",""6"",""24833""
""focus"",""6"",""25971""
","""event"",""trial"",""time""
""blur"",""6"",""24833""
","""event"",""trial"",""time""
""focus"",""6"",""25971""
","""event"",""trial"",""time""
""fullscreenenter"",""1"",""5317""
","""event"",""trial"",""time""
""fullscreenexit"",""6"",""21789""
","","","-1","","","24","4642","3192","&#9761;","elianto","#3366ff99","-1","-1","1","0","[]","0","0","2","","","","","","","",""
"pit-trial","56","491991","0.0-2.0-11.3-4.3","battery-v0.2","","""event"",""trial"",""time""
""fullscreenenter"",""1"",""5317""
""fullscreenexit"",""6"",""21789""
""blur"",""6"",""24833""
""focus"",""6"",""25971""
","""event"",""trial"",""time""
""blur"",""6"",""24833""
","""event"",""trial"",""time""
""focus"",""6"",""25971""
","""event"",""trial"",""time""
""fullscreenenter"",""1"",""5317""
","""event"",""trial"",""time""
""fullscreenexit"",""6"",""21789""
","","","-1","","","24","4642","3192","&#9761;","elianto","#3366ff99","-1","-1","1","+10","[]","0","0","2","","","","","","","",""
"call-function","57","491993","0.0-2.0-12.0","battery-v0.2","","""event"",""trial"",""time""
""fullscreenenter"",""1"",""5317""
""fullscreenexit"",""6"",""21789""
""blur"",""6"",""24833""
""focus"",""6"",""25971""
","""event"",""trial"",""time""
""blur"",""6"",""24833""
","""event"",""trial"",""time""
""focus"",""6"",""25971""
","""event"",""trial"",""time""
""fullscreenenter"",""1"",""5317""
","""event"",""trial"",""time""
""fullscreenexit"",""6"",""21789""
","","","","","","","","","","","","","","","","","","","","","","","","","","",""
"pit-instructions","58","540125","0.0-2.0-13.0","battery-v0.2","","""event"",""trial"",""time""
""fullscreenenter"",""1"",""5317""
""fullscreenexit"",""6"",""21789""
""blur"",""6"",""24833""
""focus"",""6"",""25971""
","""event"",""trial"",""time""
""blur"",""6"",""24833""
","""event"",""trial"",""time""
""focus"",""6"",""25971""
","""event"",""trial"",""time""
""fullscreenenter"",""1"",""5317""
","""event"",""trial"",""time""
""fullscreenexit"",""6"",""21789""
","","[{""page_index"":0,""viewing_time"":9742.799999952316},{""page_index"":1,""viewing_time"":10802.600000023842},{""page_index"":2,""viewing_time"":6772.5},{""page_index"":3,""viewing_time"":14143.600000023842},{""page_index"":4,""viewing_time"":6632.100000023842}]","48094.60000002384","","","","","","","","","","","","","","","","","","","","","","","",""
"pit-trial","59","543577","0.0-2.0-14.0-0.0","battery-v0.2","","""event"",""trial"",""time""
""fullscreenenter"",""1"",""5317""
""fullscreenexit"",""6"",""21789""
""blur"",""6"",""24833""
""focus"",""6"",""25971""
","""event"",""trial"",""time""
""blur"",""6"",""24833""
","""event"",""trial"",""time""
""focus"",""6"",""25971""
","""event"",""trial"",""time""
""fullscreenenter"",""1"",""5317""
","""event"",""trial"",""time""
""fullscreenexit"",""6"",""21789""
","","","583","","","24","4642","3192","&#9826;","elianto","#f73b6a7A","-1"," ","0","-10","[97.70000004768372,1435.8000000715256]","2","0","3","","","","","","","",""
"pit-trial","60","548442","0.0-2.0-14.0-1.0","battery-v0.2","","""event"",""trial"",""time""
""fullscreenenter"",""1"",""5317""
""fullscreenexit"",""6"",""21789""
""blur"",""6"",""24833""
""focus"",""6"",""25971""
","""event"",""trial"",""time""
""blur"",""6"",""24833""
","""event"",""trial"",""time""
""focus"",""6"",""25971""
","""event"",""trial"",""time""
""fullscreenenter"",""1"",""5317""
","""event"",""trial"",""time""
""fullscreenexit"",""6"",""21789""
","","","-1","","","24","4642","3192","&#9826;","elianto","#f73b6a7A","-1","-1","1","0","[]","0","0","3","","","","","","","",""
"pit-trial","61","553323","0.0-2.0-14.0-2.0","battery-v0.2","","""event"",""trial"",""time""
""fullscreenenter"",""1"",""5317""
""fullscreenexit"",""6"",""21789""
""blur"",""6"",""24833""
""focus"",""6"",""25971""
","""event"",""trial"",""time""
""blur"",""6"",""24833""
","""event"",""trial"",""time""
""focus"",""6"",""25971""
","""event"",""trial"",""time""
""fullscreenenter"",""1"",""5317""
","""event"",""trial"",""time""
""fullscreenexit"",""6"",""21789""
","","","-1","","","24","4642","3192","&#9826;","elianto","#f73b6a7A","-1","-1","1","0","[]","0","0","3","","","","","","","",""
"pit-trial","62","558201","0.0-2.0-14.0-3.0","battery-v0.2","","""event"",""trial"",""time""
""fullscreenenter"",""1"",""5317""
""fullscreenexit"",""6"",""21789""
""blur"",""6"",""24833""
""focus"",""6"",""25971""
","""event"",""trial"",""time""
""blur"",""6"",""24833""
","""event"",""trial"",""time""
""focus"",""6"",""25971""
","""event"",""trial"",""time""
""fullscreenenter"",""1"",""5317""
","""event"",""trial"",""time""
""fullscreenexit"",""6"",""21789""
","","","-1","","","24","4642","3192","&#9826;","elianto","#f73b6a7A","-1","-1","1","-10","[]","0","0","3","","","","","","","",""
"pit-trial","63","563102","0.0-2.0-14.0-4.0","battery-v0.2","","""event"",""trial"",""time""
""fullscreenenter"",""1"",""5317""
""fullscreenexit"",""6"",""21789""
""blur"",""6"",""24833""
""focus"",""6"",""25971""
","""event"",""trial"",""time""
""blur"",""6"",""24833""
","""event"",""trial"",""time""
""focus"",""6"",""25971""
","""event"",""trial"",""time""
""fullscreenenter"",""1"",""5317""
","""event"",""trial"",""time""
""fullscreenexit"",""6"",""21789""
","","","-1","","","24","4642","3192","&#9826;","elianto","#f73b6a7A","-1","-1","1","0","[]","0","0","3","","","","","","","",""
"pit-trial","64","567990","0.0-2.0-14.1-0.1","battery-v0.2","","""event"",""trial"",""time""
""fullscreenenter"",""1"",""5317""
""fullscreenexit"",""6"",""21789""
""blur"",""6"",""24833""
""focus"",""6"",""25971""
","""event"",""trial"",""time""
""blur"",""6"",""24833""
","""event"",""trial"",""time""
""focus"",""6"",""25971""
","""event"",""trial"",""time""
""fullscreenenter"",""1"",""5317""
","""event"",""trial"",""time""
""fullscreenexit"",""6"",""21789""
","","","-1","","","24","4642","3192","&#9826;","elianto","#f73b6a7A","-1","-1","1","0","[]","0","0","3","","","","","","","",""
"pit-trial","65","572858","0.0-2.0-14.1-1.1","battery-v0.2","","""event"",""trial"",""time""
""fullscreenenter"",""1"",""5317""
""fullscreenexit"",""6"",""21789""
""blur"",""6"",""24833""
""focus"",""6"",""25971""
","""event"",""trial"",""time""
""blur"",""6"",""24833""
","""event"",""trial"",""time""
""focus"",""6"",""25971""
","""event"",""trial"",""time""
""fullscreenenter"",""1"",""5317""
","""event"",""trial"",""time""
""fullscreenexit"",""6"",""21789""
","","","-1","","","24","4642","3192","&#9826;","elianto","#f73b6a7A","-1","-1","1","0","[]","0","0","3","","","","","","","",""
"pit-trial","66","577760","0.0-2.0-14.1-2.1","battery-v0.2","","""event"",""trial"",""time""
""fullscreenenter"",""1"",""5317""
""fullscreenexit"",""6"",""21789""
""blur"",""6"",""24833""
""focus"",""6"",""25971""
","""event"",""trial"",""time""
""blur"",""6"",""24833""
","""event"",""trial"",""time""
""focus"",""6"",""25971""
","""event"",""trial"",""time""
""fullscreenenter"",""1"",""5317""
","""event"",""trial"",""time""
""fullscreenexit"",""6"",""21789""
","","","-1","","","24","4642","3192","&#9826;","elianto","#f73b6a7A","-1","-1","1","0","[]","0","0","3","","","","","","","",""
"pit-trial","67","582625","0.0-2.0-14.1-3.1","battery-v0.2","","""event"",""trial"",""time""
""fullscreenenter"",""1"",""5317""
""fullscreenexit"",""6"",""21789""
""blur"",""6"",""24833""
""focus"",""6"",""25971""
","""event"",""trial"",""time""
""blur"",""6"",""24833""
","""event"",""trial"",""time""
""focus"",""6"",""25971""
","""event"",""trial"",""time""
""fullscreenenter"",""1"",""5317""
","""event"",""trial"",""time""
""fullscreenexit"",""6"",""21789""
","","","-1","","","24","4642","3192","&#9826;","elianto","#f73b6a7A","-1","-1","1","-10","[]","0","0","3","","","","","","","",""
"pit-trial","68","587489","0.0-2.0-14.1-4.1","battery-v0.2","","""event"",""trial"",""time""
""fullscreenenter"",""1"",""5317""
""fullscreenexit"",""6"",""21789""
""blur"",""6"",""24833""
""focus"",""6"",""25971""
","""event"",""trial"",""time""
""blur"",""6"",""24833""
","""event"",""trial"",""time""
""focus"",""6"",""25971""
","""event"",""trial"",""time""
""fullscreenenter"",""1"",""5317""
","""event"",""trial"",""time""
""fullscreenexit"",""6"",""21789""
","","","-1","","","24","4642","3192","&#9826;","elianto","#f73b6a7A","-1","-1","1","0","[]","0","0","3","","","","","","","",""
"pit-trial","69","592352","0.0-2.0-14.2-0.2","battery-v0.2","","""event"",""trial"",""time""
""fullscreenenter"",""1"",""5317""
""fullscreenexit"",""6"",""21789""
""blur"",""6"",""24833""
""focus"",""6"",""25971""
","""event"",""trial"",""time""
""blur"",""6"",""24833""
","""event"",""trial"",""time""
""focus"",""6"",""25971""
","""event"",""trial"",""time""
""fullscreenenter"",""1"",""5317""
","""event"",""trial"",""time""
""fullscreenexit"",""6"",""21789""
","","","-1","","","24","4642","3192","&#9826;","elianto","#f73b6a7A","-1","-1","1","0","[]","0","0","3","","","","","","","",""
"pit-trial","70","597216","0.0-2.0-14.2-1.2","battery-v0.2","","""event"",""trial"",""time""
""fullscreenenter"",""1"",""5317""
""fullscreenexit"",""6"",""21789""
""blur"",""6"",""24833""
""focus"",""6"",""25971""
","""event"",""trial"",""time""
""blur"",""6"",""24833""
","""event"",""trial"",""time""
""focus"",""6"",""25971""
","""event"",""trial"",""time""
""fullscreenenter"",""1"",""5317""
","""event"",""trial"",""time""
""fullscreenexit"",""6"",""21789""
","","","-1","","","24","4642","3192","&#9826;","elianto","#f73b6a7A","-1","-1","1","0","[]","0","0","3","","","","","","","",""
"pit-trial","71","602084","0.0-2.0-14.2-2.2","battery-v0.2","","""event"",""trial"",""time""
""fullscreenenter"",""1"",""5317""
""fullscreenexit"",""6"",""21789""
""blur"",""6"",""24833""
""focus"",""6"",""25971""
","""event"",""trial"",""time""
""blur"",""6"",""24833""
","""event"",""trial"",""time""
""focus"",""6"",""25971""
","""event"",""trial"",""time""
""fullscreenenter"",""1"",""5317""
","""event"",""trial"",""time""
""fullscreenexit"",""6"",""21789""
","","","-1","","","24","4642","3192","&#9826;","elianto","#f73b6a7A","-1","-1","1","0","[]","0","0","3","","","","","","","",""
"pit-trial","72","606945","0.0-2.0-14.2-3.2","battery-v0.2","","""event"",""trial"",""time""
""fullscreenenter"",""1"",""5317""
""fullscreenexit"",""6"",""21789""
""blur"",""6"",""24833""
""focus"",""6"",""25971""
","""event"",""trial"",""time""
""blur"",""6"",""24833""
","""event"",""trial"",""time""
""focus"",""6"",""25971""
","""event"",""trial"",""time""
""fullscreenenter"",""1"",""5317""
","""event"",""trial"",""time""
""fullscreenexit"",""6"",""21789""
","","","-1","","","24","4642","3192","&#9826;","elianto","#f73b6a7A","-1","-1","1","-10","[]","0","0","3","","","","","","","",""
"pit-trial","73","611808","0.0-2.0-14.2-4.2","battery-v0.2","","""event"",""trial"",""time""
""fullscreenenter"",""1"",""5317""
""fullscreenexit"",""6"",""21789""
""blur"",""6"",""24833""
""focus"",""6"",""25971""
","""event"",""trial"",""time""
""blur"",""6"",""24833""
","""event"",""trial"",""time""
""focus"",""6"",""25971""
","""event"",""trial"",""time""
""fullscreenenter"",""1"",""5317""
","""event"",""trial"",""time""
""fullscreenexit"",""6"",""21789""
","","","-1","","","24","4642","3192","&#9826;","elianto","#f73b6a7A","-1","-1","1","0","[]","0","0","3","","","","","","","",""
"pit-trial","74","616673","0.0-2.0-14.3-0.3","battery-v0.2","","""event"",""trial"",""time""
""fullscreenenter"",""1"",""5317""
""fullscreenexit"",""6"",""21789""
""blur"",""6"",""24833""
""focus"",""6"",""25971""
","""event"",""trial"",""time""
""blur"",""6"",""24833""
","""event"",""trial"",""time""
""focus"",""6"",""25971""
","""event"",""trial"",""time""
""fullscreenenter"",""1"",""5317""
","""event"",""trial"",""time""
""fullscreenexit"",""6"",""21789""
","","","-1","","","24","4642","3192","&#9826;","elianto","#f73b6a7A","-1","-1","1","0","[]","0","0","3","","","","","","","",""
"pit-trial","75","621536","0.0-2.0-14.3-1.3","battery-v0.2","","""event"",""trial"",""time""
""fullscreenenter"",""1"",""5317""
""fullscreenexit"",""6"",""21789""
""blur"",""6"",""24833""
""focus"",""6"",""25971""
","""event"",""trial"",""time""
""blur"",""6"",""24833""
","""event"",""trial"",""time""
""focus"",""6"",""25971""
","""event"",""trial"",""time""
""fullscreenenter"",""1"",""5317""
","""event"",""trial"",""time""
""fullscreenexit"",""6"",""21789""
","","","-1","","","24","4642","3192","&#9826;","elianto","#f73b6a7A","-1","-1","1","0","[]","0","0","3","","","","","","","",""
"pit-trial","76","626400","0.0-2.0-14.3-2.3","battery-v0.2","","""event"",""trial"",""time""
""fullscreenenter"",""1"",""5317""
""fullscreenexit"",""6"",""21789""
""blur"",""6"",""24833""
""focus"",""6"",""25971""
","""event"",""trial"",""time""
""blur"",""6"",""24833""
","""event"",""trial"",""time""
""focus"",""6"",""25971""
","""event"",""trial"",""time""
""fullscreenenter"",""1"",""5317""
","""event"",""trial"",""time""
""fullscreenexit"",""6"",""21789""
","","","-1","","","24","4642","3192","&#9826;","elianto","#f73b6a7A","-1","-1","1","0","[]","0","0","3","","","","","","","",""
"pit-trial","77","631264","0.0-2.0-14.3-3.3","battery-v0.2","","""event"",""trial"",""time""
""fullscreenenter"",""1"",""5317""
""fullscreenexit"",""6"",""21789""
""blur"",""6"",""24833""
""focus"",""6"",""25971""
","""event"",""trial"",""time""
""blur"",""6"",""24833""
","""event"",""trial"",""time""
""focus"",""6"",""25971""
","""event"",""trial"",""time""
""fullscreenenter"",""1"",""5317""
","""event"",""trial"",""time""
""fullscreenexit"",""6"",""21789""
","","","-1","","","24","4642","3192","&#9826;","elianto","#f73b6a7A","-1","-1","1","-10","[]","0","0","3","","","","","","","",""
"pit-trial","78","636129","0.0-2.0-14.3-4.3","battery-v0.2","","""event"",""trial"",""time""
""fullscreenenter"",""1"",""5317""
""fullscreenexit"",""6"",""21789""
""blur"",""6"",""24833""
""focus"",""6"",""25971""
","""event"",""trial"",""time""
""blur"",""6"",""24833""
","""event"",""trial"",""time""
""focus"",""6"",""25971""
","""event"",""trial"",""time""
""fullscreenenter"",""1"",""5317""
","""event"",""trial"",""time""
""fullscreenexit"",""6"",""21789""
","","","-1","","","24","4642","3192","&#9826;","elianto","#f73b6a7A","-1","-1","1","0","[]","0","0","3","","","","","","","",""
"call-function","79","636133","0.0-2.0-15.0","battery-v0.2","","""event"",""trial"",""time""
""fullscreenenter"",""1"",""5317""
""fullscreenexit"",""6"",""21789""
""blur"",""6"",""24833""
""focus"",""6"",""25971""
","""event"",""trial"",""time""
""blur"",""6"",""24833""
","""event"",""trial"",""time""
""focus"",""6"",""25971""
","""event"",""trial"",""time""
""fullscreenenter"",""1"",""5317""
","""event"",""trial"",""time""
""fullscreenexit"",""6"",""21789""
","","","","","","","","","","","","","","","","","","","","","","","","","","",""
"pit-instructions","80","671577","0.0-2.0-16.0","battery-v0.2","","""event"",""trial"",""time""
""fullscreenenter"",""1"",""5317""
""fullscreenexit"",""6"",""21789""
""blur"",""6"",""24833""
""focus"",""6"",""25971""
","""event"",""trial"",""time""
""blur"",""6"",""24833""
","""event"",""trial"",""time""
""focus"",""6"",""25971""
","""event"",""trial"",""time""
""fullscreenenter"",""1"",""5317""
","""event"",""trial"",""time""
""fullscreenexit"",""6"",""21789""
","","[{""page_index"":0,""viewing_time"":10959.699999928474},{""page_index"":1,""viewing_time"":10780.700000047684},{""page_index"":2,""viewing_time"":7350.5},{""page_index"":3,""viewing_time"":6344.200000047684}]","35439.699999928474","","","","","","","","","","","","","","","","","","","","","","","",""
"pit-trial","81","675053","0.0-2.0-17.0-0.0","battery-v0.2","","""event"",""trial"",""time""
""fullscreenenter"",""1"",""5317""
""fullscreenexit"",""6"",""21789""
""blur"",""6"",""24833""
""focus"",""6"",""25971""
","""event"",""trial"",""time""
""blur"",""6"",""24833""
","""event"",""trial"",""time""
""focus"",""6"",""25971""
","""event"",""trial"",""time""
""fullscreenenter"",""1"",""5317""
","""event"",""trial"",""time""
""fullscreenexit"",""6"",""21789""
","","","566.8000000715256","","","24","4642","3192","&#9789;","elianto","#f73b6a7A"," "," ","1","0","[125.20000004768372,1422.9000000953674]","2","0","4","","","","","","","",""
"pit-trial","82","678092","0.0-2.0-17.0-1.0","battery-v0.2","","""event"",""trial"",""time""
""fullscreenenter"",""1"",""5317""
""fullscreenexit"",""6"",""21789""
""blur"",""6"",""24833""
""focus"",""6"",""25971""
","""event"",""trial"",""time""
""blur"",""6"",""24833""
","""event"",""trial"",""time""
""focus"",""6"",""25971""
","""event"",""trial"",""time""
""fullscreenenter"",""1"",""5317""
","""event"",""trial"",""time""
""fullscreenexit"",""6"",""21789""
","","","164.79999995231628","","","24","4642","3192","&#9789;","elianto","#f73b6a7A"," "," ","1","0","[1022.0999999046326]","1","0","4","","","","","","","",""
"pit-trial","83","681264","0.0-2.0-17.0-2.0","battery-v0.2","","""event"",""trial"",""time""
""fullscreenenter"",""1"",""5317""
""fullscreenexit"",""6"",""21789""
""blur"",""6"",""24833""
""focus"",""6"",""25971""
","""event"",""trial"",""time""
""blur"",""6"",""24833""
","""event"",""trial"",""time""
""focus"",""6"",""25971""
","""event"",""trial"",""time""
""fullscreenenter"",""1"",""5317""
","""event"",""trial"",""time""
""fullscreenexit"",""6"",""21789""
","","","302.59999990463257","","","24","4642","3192","&#9789;","elianto","#f73b6a7A"," "," ","1","0","[1160.7999999523163]","1","0","4","","","","","","","",""
"pit-trial","84","684531","0.0-2.0-17.0-3.0","battery-v0.2","","""event"",""trial"",""time""
""fullscreenenter"",""1"",""5317""
""fullscreenexit"",""6"",""21789""
""blur"",""6"",""24833""
""focus"",""6"",""25971""
","""event"",""trial"",""time""
""blur"",""6"",""24833""
","""event"",""trial"",""time""
""focus"",""6"",""25971""
","""event"",""trial"",""time""
""fullscreenenter"",""1"",""5317""
","""event"",""trial"",""time""
""fullscreenexit"",""6"",""21789""
","","","405.7000000476837","","","24","4642","3192","&#9789;","elianto","#f73b6a7A"," "," ","1","-10","[1260.1000000238419,1482.8999999761581]","2","0","4","","","","","","","",""
"pit-trial","85","687712","0.0-2.0-17.0-4.0","battery-v0.2","","""event"",""trial"",""time""
""fullscreenenter"",""1"",""5317""
""fullscreenexit"",""6"",""21789""
""blur"",""6"",""24833""
""focus"",""6"",""25971""
","""event"",""trial"",""time""
""blur"",""6"",""24833""
","""event"",""trial"",""time""
""focus"",""6"",""25971""
","""event"",""trial"",""time""
""fullscreenenter"",""1"",""5317""
","""event"",""trial"",""time""
""fullscreenexit"",""6"",""21789""
","","","315.89999997615814","","","24","4642","3192","&#9789;","elianto","#f73b6a7A"," "," ","1","0","[1168.6000000238419,1368.8000000715256]","2","0","4","","","","","","","",""
"pit-trial","86","690744","0.0-2.0-17.1-0.1","battery-v0.2","","""event"",""trial"",""time""
""fullscreenenter"",""1"",""5317""
""fullscreenexit"",""6"",""21789""
""blur"",""6"",""24833""
""focus"",""6"",""25971""
","""event"",""trial"",""time""
""blur"",""6"",""24833""
","""event"",""trial"",""time""
""focus"",""6"",""25971""
","""event"",""trial"",""time""
""fullscreenenter"",""1"",""5317""
","""event"",""trial"",""time""
""fullscreenexit"",""6"",""21789""
","","","159.5","","","24","4642","3192","&#9789;","elianto","#f73b6a7A"," "," ","1","0","[1015.5999999046326,1199.7999999523163]","2","0","4","","","","","","","",""
"pit-trial","87","693944","0.0-2.0-17.1-1.1","battery-v0.2","","""event"",""trial"",""time""
""fullscreenenter"",""1"",""5317""
""fullscreenexit"",""6"",""21789""
""blur"",""6"",""24833""
""focus"",""6"",""25971""
","""event"",""trial"",""time""
""blur"",""6"",""24833""
","""event"",""trial"",""time""
""focus"",""6"",""25971""
","""event"",""trial"",""time""
""fullscreenenter"",""1"",""5317""
","""event"",""trial"",""time""
""fullscreenexit"",""6"",""21789""
","","","326.40000009536743","","","24","4642","3192","&#9789;","elianto","#f73b6a7A"," "," ","1","0","[1180.1000000238419,1362.8999999761581]","2","0","4","","","","","","","",""
"pit-trial","88","697343","0.0-2.0-17.1-2.1","battery-v0.2","","""event"",""trial"",""time""
""fullscreenenter"",""1"",""5317""
""fullscreenexit"",""6"",""21789""
""blur"",""6"",""24833""
""focus"",""6"",""25971""
","""event"",""trial"",""time""
""blur"",""6"",""24833""
","""event"",""trial"",""time""
""focus"",""6"",""25971""
","""event"",""trial"",""time""
""fullscreenenter"",""1"",""5317""
","""event"",""trial"",""time""
""fullscreenexit"",""6"",""21789""
","","","529.5","","","24","4642","3192","&#9789;","elianto","#f73b6a7A"," "," ","1","0","[1388.5,1608.2999999523163]","2","0","4","","","","","","","",""
"pit-trial","89","700520","0.0-2.0-17.1-3.1","battery-v0.2","","""event"",""trial"",""time""
""fullscreenenter"",""1"",""5317""
""fullscreenexit"",""6"",""21789""
""blur"",""6"",""24833""
""focus"",""6"",""25971""
","""event"",""trial"",""time""
""blur"",""6"",""24833""
","""event"",""trial"",""time""
""focus"",""6"",""25971""
","""event"",""trial"",""time""
""fullscreenenter"",""1"",""5317""
","""event"",""trial"",""time""
""fullscreenexit"",""6"",""21789""
","","","318.09999990463257","","","24","4642","3192","&#9789;","elianto","#f73b6a7A"," "," ","1","-10","[1172.6999999284744,1323.6999999284744]","2","0","4","","","","","","","",""
"pit-trial","90","703480","0.0-2.0-17.1-4.1","battery-v0.2","","""event"",""trial"",""time""
""fullscreenenter"",""1"",""5317""
""fullscreenexit"",""6"",""21789""
""blur"",""6"",""24833""
""focus"",""6"",""25971""
","""event"",""trial"",""time""
""blur"",""6"",""24833""
","""event"",""trial"",""time""
""focus"",""6"",""25971""
","""event"",""trial"",""time""
""fullscreenenter"",""1"",""5317""
","""event"",""trial"",""time""
""fullscreenexit"",""6"",""21789""
","","","100.79999995231628","","","24","4642","3192","&#9789;","elianto","#f73b6a7A"," "," ","1","0","[451.3000000715256,699.1000000238419,955.1000000238419]","3","0","4","","","","","","","",""
"pit-trial","91","706824","0.0-2.0-17.2-0.2","battery-v0.2","","""event"",""trial"",""time""
""fullscreenenter"",""1"",""5317""
""fullscreenexit"",""6"",""21789""
""blur"",""6"",""24833""
""focus"",""6"",""25971""
","""event"",""trial"",""time""
""blur"",""6"",""24833""
","""event"",""trial"",""time""
""focus"",""6"",""25971""
","""event"",""trial"",""time""
""fullscreenenter"",""1"",""5317""
","""event"",""trial"",""time""
""fullscreenexit"",""6"",""21789""
","","","484.2999999523163","","","24","4642","3192","&#9789;","elianto","#f73b6a7A"," "," ","1","0","[834.2999999523163,1337.5999999046326,1626,1841.5999999046326,2034.6999999284744]","5","0","4","","","","","","","",""
"pit-trial","92","710209","0.0-2.0-17.2-1.2","battery-v0.2","","""event"",""trial"",""time""
""fullscreenenter"",""1"",""5317""
""fullscreenexit"",""6"",""21789""
""blur"",""6"",""24833""
""focus"",""6"",""25971""
","""event"",""trial"",""time""
""blur"",""6"",""24833""
","""event"",""trial"",""time""
""focus"",""6"",""25971""
","""event"",""trial"",""time""
""fullscreenenter"",""1"",""5317""
","""event"",""trial"",""time""
""fullscreenexit"",""6"",""21789""
","","","380","","","24","4642","3192","&#9789;","elianto","#f73b6a7A"," "," ","1","0","[998,1379.5,1587.6000000238419]","3","0","4","","","","","","","",""
"pit-trial","93","713548","0.0-2.0-17.2-2.2","battery-v0.2","","""event"",""trial"",""time""
""fullscreenenter"",""1"",""5317""
""fullscreenexit"",""6"",""21789""
""blur"",""6"",""24833""
""focus"",""6"",""25971""
","""event"",""trial"",""time""
""blur"",""6"",""24833""
","""event"",""trial"",""time""
""focus"",""6"",""25971""
","""event"",""trial"",""time""
""fullscreenenter"",""1"",""5317""
","""event"",""trial"",""time""
""fullscreenexit"",""6"",""21789""
","","","477.3000000715256","","","24","4642","3192","&#9789;","elianto","#f73b6a7A"," "," ","1","0","[330.39999997615814,569.3999999761581,1329.5,1425.2999999523163,1753.6000000238419,2457.6999999284744,2761.600000023842,3001.2999999523163,3233.2999999523163]","9","0","4","","","","","","","",""
"pit-trial","94","716846","0.0-2.0-17.2-3.2","battery-v0.2","","""event"",""trial"",""time""
""fullscreenenter"",""1"",""5317""
""fullscreenexit"",""6"",""21789""
""blur"",""6"",""24833""
""focus"",""6"",""25971""
","""event"",""trial"",""time""
""blur"",""6"",""24833""
","""event"",""trial"",""time""
""focus"",""6"",""25971""
","""event"",""trial"",""time""
""fullscreenenter"",""1"",""5317""
","""event"",""trial"",""time""
""fullscreenexit"",""6"",""21789""
","","","429.89999997615814","","","24","4642","3192","&#9789;","elianto","#f73b6a7A"," "," ","1","-10","[134.69999992847443,393.2999999523163,678.8999999761581,1286.7999999523163,1590.6999999284744,1878.7999999523163,2120.6999999284744,2294.6999999284744,2566.6999999284744,2838.6999999284744,3118.7999999523163]","11","0","4","","","","","","","",""
"pit-trial","95","720152","0.0-2.0-17.2-4.2","battery-v0.2","","""event"",""trial"",""time""
""fullscreenenter"",""1"",""5317""
""fullscreenexit"",""6"",""21789""
""blur"",""6"",""24833""
""focus"",""6"",""25971""
","""event"",""trial"",""time""
""blur"",""6"",""24833""
","""event"",""trial"",""time""
""focus"",""6"",""25971""
","""event"",""trial"",""time""
""fullscreenenter"",""1"",""5317""
","""event"",""trial"",""time""
""fullscreenexit"",""6"",""21789""
","","","444.60000002384186","","","24","4642","3192","&#9789;","elianto","#f73b6a7A"," "," ","1","0","[30.600000023841858,1300.8999999761581,1460.7999999523163]","3","0","4","","","","","","","",""
"pit-trial","96","723336","0.0-2.0-17.3-0.3","battery-v0.2","","""event"",""trial"",""time""
""fullscreenenter"",""1"",""5317""
""fullscreenexit"",""6"",""21789""
""blur"",""6"",""24833""
""focus"",""6"",""25971""
","""event"",""trial"",""time""
""blur"",""6"",""24833""
","""event"",""trial"",""time""
""focus"",""6"",""25971""
","""event"",""trial"",""time""
""fullscreenenter"",""1"",""5317""
","""event"",""trial"",""time""
""fullscreenexit"",""6"",""21789""
","","","316.5","","","24","4642","3192","&#9789;","elianto","#f73b6a7A"," "," ","1","0","[1170.6999999284744,1330.7999999523163,1498.6999999284744,1714.7999999523163,1914.7999999523163,2802.7999999523163,3034.7999999523163]","7","0","4","","","","","","","",""
"pit-trial","97","726616","0.0-2.0-17.3-1.3","battery-v0.2","","""event"",""trial"",""time""
""fullscreenenter"",""1"",""5317""
""fullscreenexit"",""6"",""21789""
""blur"",""6"",""24833""
""focus"",""6"",""25971""
","""event"",""trial"",""time""
""blur"",""6"",""24833""
","""event"",""trial"",""time""
""focus"",""6"",""25971""
","""event"",""trial"",""time""
""fullscreenenter"",""1"",""5317""
","""event"",""trial"",""time""
""fullscreenexit"",""6"",""21789""
","","","420.8000000715256","","","24","4642","3192","&#9789;","elianto","#f73b6a7A"," "," ","1","0","[58.699999928474426,1275,1554.8999999761581,1803.5,2010.6999999284744,2355.5,3164.1999999284744]","7","0","4","","","","","","","",""
"pit-trial","98","729712","0.0-2.0-17.3-2.3","battery-v0.2","","""event"",""trial"",""time""
""fullscreenenter"",""1"",""5317""
""fullscreenexit"",""6"",""21789""
""blur"",""6"",""24833""
""focus"",""6"",""25971""
","""event"",""trial"",""time""
""blur"",""6"",""24833""
","""event"",""trial"",""time""
""focus"",""6"",""25971""
","""event"",""trial"",""time""
""fullscreenenter"",""1"",""5317""
","""event"",""trial"",""time""
""fullscreenexit"",""6"",""21789""
","","","238.59999990463257","","","24","4642","3192","&#9789;","elianto","#f73b6a7A"," "," ","1","0","[187.70000004768372,490.60000002384186,787.8999999761581,1090.3999999761581,1354.6000000238419,1626.6000000238419,1858.3000000715256,2098.399999976158,2346.899999976158,2626.600000023842,2930.5]","11","0","4","","","","","","","",""
"pit-trial","99","732704","0.0-2.0-17.3-3.3","battery-v0.2","","""event"",""trial"",""time""
""fullscreenenter"",""1"",""5317""
""fullscreenexit"",""6"",""21789""
""blur"",""6"",""24833""
""focus"",""6"",""25971""
","""event"",""trial"",""time""
""blur"",""6"",""24833""
","""event"",""trial"",""time""
""focus"",""6"",""25971""
","""event"",""trial"",""time""
""fullscreenenter"",""1"",""5317""
","""event"",""trial"",""time""
""fullscreenexit"",""6"",""21789""
","","","132.5","","","24","4642","3192","&#9789;","elianto","#f73b6a7A"," "," ","1","-10","[211.5,658.8999999761581,986.8999999761581,1386.8999999761581,1659,1962.8999999761581,2155.2000000476837,2362.899999976158,2595.399999976158]","9","0","4","","","","","","","",""
"pit-trial","100","735959","0.0-2.0-17.3-4.3","battery-v0.2","","""event"",""trial"",""time""
""fullscreenenter"",""1"",""5317""
""fullscreenexit"",""6"",""21789""
""blur"",""6"",""24833""
""focus"",""6"",""25971""
","""event"",""trial"",""time""
""blur"",""6"",""24833""
","""event"",""trial"",""time""
""focus"",""6"",""25971""
","""event"",""trial"",""time""
""fullscreenenter"",""1"",""5317""
","""event"",""trial"",""time""
""fullscreenexit"",""6"",""21789""
","","","396.40000009536743","","","24","4642","3192","&#9789;","elianto","#f73b6a7A"," "," ","1","0","[107.10000002384186,355.2000000476837,835.5,1251.3000000715256,1483.1000000238419,1956.1000000238419,2171.3000000715256,2643.100000023842]","8","0","4","","","","","","","",""
"call-function","101","735961","0.0-2.0-18.0","battery-v0.2","","""event"",""trial"",""time""
""fullscreenenter"",""1"",""5317""
""fullscreenexit"",""6"",""21789""
""blur"",""6"",""24833""
""focus"",""6"",""25971""
","""event"",""trial"",""time""
""blur"",""6"",""24833""
","""event"",""trial"",""time""
""focus"",""6"",""25971""
","""event"",""trial"",""time""
""fullscreenenter"",""1"",""5317""
","""event"",""trial"",""time""
""fullscreenexit"",""6"",""21789""
","","","","","","","","","","","","","","","","","","","","","","","","","","",""
"pit-instructions","102","792036","0.0-2.0-19.0","battery-v0.2","","""event"",""trial"",""time""
""fullscreenenter"",""1"",""5317""
""fullscreenexit"",""6"",""21789""
""blur"",""6"",""24833""
""focus"",""6"",""25971""
","""event"",""trial"",""time""
""blur"",""6"",""24833""
","""event"",""trial"",""time""
""focus"",""6"",""25971""
","""event"",""trial"",""time""
""fullscreenenter"",""1"",""5317""
","""event"",""trial"",""time""
""fullscreenexit"",""6"",""21789""
","","[{""page_index"":0,""viewing_time"":6140.300000071526},{""page_index"":1,""viewing_time"":5381.099999904633},{""page_index"":2,""viewing_time"":8448.900000095367},{""page_index"":3,""viewing_time"":5984.699999928474},{""page_index"":4,""viewing_time"":9727.100000023842},{""page_index"":5,""viewing_time"":7951},{""page_index"":4,""viewing_time"":204.39999997615814},{""page_index"":3,""viewing_time"":3238.100000023842},{""page_index"":4,""viewing_time"":806.1000000238419},{""page_index"":5,""viewing_time"":1836.3999999761581},{""page_index"":6,""viewing_time"":3525.600000023842},{""page_index"":7,""viewing_time"":735.8999999761581},{""page_index"":8,""viewing_time"":2008.1000000238419}]","55988.89999997616","","","","","","","","","","","","","","","","","","","","","","","",""
"pit-comprehension","103","796848","0.0-2.0-20.0-0.0","battery-v0.2","","""event"",""trial"",""time""
""fullscreenenter"",""1"",""5317""
""fullscreenexit"",""6"",""21789""
""blur"",""6"",""24833""
""focus"",""6"",""25971""
","""event"",""trial"",""time""
""blur"",""6"",""24833""
","""event"",""trial"",""time""
""focus"",""6"",""25971""
","""event"",""trial"",""time""
""fullscreenenter"",""1"",""5317""
","""event"",""trial"",""time""
""fullscreenexit"",""6"",""21789""
","","","4707","[""SPACE""]","0","24","4642","3192","","","","","","","","","","","","","","","","","","",""
"pit-instructions","104","800480","0.0-2.0-20.0-1.0","battery-v0.2","","""event"",""trial"",""time""
""fullscreenenter"",""1"",""5317""
""fullscreenexit"",""6"",""21789""
""blur"",""6"",""24833""
""focus"",""6"",""25971""
","""event"",""trial"",""time""
""blur"",""6"",""24833""
","""event"",""trial"",""time""
""focus"",""6"",""25971""
","""event"",""trial"",""time""
""fullscreenenter"",""1"",""5317""
","""event"",""trial"",""time""
""fullscreenexit"",""6"",""21789""
","","[{""page_index"":0,""viewing_time"":3540.100000023842}]","3541.600000023842","","","","","","","","","","","","","","","","","","","","","","","",""
"pit-comprehension","105","804993","0.0-2.0-21.0-0.0","battery-v0.2","","""event"",""trial"",""time""
""fullscreenenter"",""1"",""5317""
""fullscreenexit"",""6"",""21789""
""blur"",""6"",""24833""
""focus"",""6"",""25971""
","""event"",""trial"",""time""
""blur"",""6"",""24833""
","""event"",""trial"",""time""
""focus"",""6"",""25971""
","""event"",""trial"",""time""
""fullscreenenter"",""1"",""5317""
","""event"",""trial"",""time""
""fullscreenexit"",""6"",""21789""
","","","4508.399999976158","[""10""]","0","24","4642","3192","","","","","","","","","","","","","","","","","","",""
"pit-instructions","106","809706","0.0-2.0-21.0-1.0","battery-v0.2","","""event"",""trial"",""time""
""fullscreenenter"",""1"",""5317""
""fullscreenexit"",""6"",""21789""
""blur"",""6"",""24833""
""focus"",""6"",""25971""
","""event"",""trial"",""time""
""blur"",""6"",""24833""
","""event"",""trial"",""time""
""focus"",""6"",""25971""
","""event"",""trial"",""time""
""fullscreenenter"",""1"",""5317""
","""event"",""trial"",""time""
""fullscreenexit"",""6"",""21789""
","","[{""page_index"":0,""viewing_time"":4574.5}]","4574.700000047684","","","","","","","","","","","","","","","","","","","","","","","",""
"pit-comprehension","107","816161","0.0-2.0-22.0-0.0","battery-v0.2","","""event"",""trial"",""time""
""fullscreenenter"",""1"",""5317""
""fullscreenexit"",""6"",""21789""
""blur"",""6"",""24833""
""focus"",""6"",""25971""
","""event"",""trial"",""time""
""blur"",""6"",""24833""
","""event"",""trial"",""time""
""focus"",""6"",""25971""
","""event"",""trial"",""time""
""fullscreenenter"",""1"",""5317""
","""event"",""trial"",""time""
""fullscreenexit"",""6"",""21789""
","","","6445.399999976158","[""0""]","0","24","4642","3192","","","","","","","","","","","","","","","","","","",""
"pit-instructions","108","818854","0.0-2.0-22.0-1.0","battery-v0.2","","""event"",""trial"",""time""
""fullscreenenter"",""1"",""5317""
""fullscreenexit"",""6"",""21789""
""blur"",""6"",""24833""
""focus"",""6"",""25971""
","""event"",""trial"",""time""
""blur"",""6"",""24833""
","""event"",""trial"",""time""
""focus"",""6"",""25971""
","""event"",""trial"",""time""
""fullscreenenter"",""1"",""5317""
","""event"",""trial"",""time""
""fullscreenexit"",""6"",""21789""
","","[{""page_index"":0,""viewing_time"":2650.5}]","2650.7999999523163","","","","","","","","","","","","","","","","","","","","","","","",""
"pit-comprehension","109","827220","0.0-2.0-23.0-0.0","battery-v0.2","","""event"",""trial"",""time""
""fullscreenenter"",""1"",""5317""
""fullscreenexit"",""6"",""21789""
""blur"",""6"",""24833""
""focus"",""6"",""25971""
","""event"",""trial"",""time""
""blur"",""6"",""24833""
","""event"",""trial"",""time""
""focus"",""6"",""25971""
","""event"",""trial"",""time""
""fullscreenenter"",""1"",""5317""
","""event"",""trial"",""time""
""fullscreenexit"",""6"",""21789""
","","","8362.900000095367","[""True""]","0","24","4642","3192","","","","","","","","","","","","","","","","","","",""
"pit-instructions","110","829425","0.0-2.0-23.0-1.0","battery-v0.2","","""event"",""trial"",""time""
""fullscreenenter"",""1"",""5317""
""fullscreenexit"",""6"",""21789""
""blur"",""6"",""24833""
""focus"",""6"",""25971""
","""event"",""trial"",""time""
""blur"",""6"",""24833""
","""event"",""trial"",""time""
""focus"",""6"",""25971""
","""event"",""trial"",""time""
""fullscreenenter"",""1"",""5317""
","""event"",""trial"",""time""
""fullscreenexit"",""6"",""21789""
","","[{""page_index"":0,""viewing_time"":2123}]","2123.5","","","","","","","","","","","","","","","","","","","","","","","",""
"pit-comprehension","111","837386","0.0-2.0-24.0-0.0","battery-v0.2","","""event"",""trial"",""time""
""fullscreenenter"",""1"",""5317""
""fullscreenexit"",""6"",""21789""
""blur"",""6"",""24833""
""focus"",""6"",""25971""
","""event"",""trial"",""time""
""blur"",""6"",""24833""
","""event"",""trial"",""time""
""focus"",""6"",""25971""
","""event"",""trial"",""time""
""fullscreenenter"",""1"",""5317""
","""event"",""trial"",""time""
""fullscreenexit"",""6"",""21789""
","","","7951.700000047684","[""True""]","0","24","4642","3192","","","","","","","","","","","","","","","","","","",""
"pit-instructions","112","840493","0.0-2.0-24.0-1.0","battery-v0.2","","""event"",""trial"",""time""
""fullscreenenter"",""1"",""5317""
""fullscreenexit"",""6"",""21789""
""blur"",""6"",""24833""
""focus"",""6"",""25971""
","""event"",""trial"",""time""
""blur"",""6"",""24833""
","""event"",""trial"",""time""
""focus"",""6"",""25971""
","""event"",""trial"",""time""
""fullscreenenter"",""1"",""5317""
","""event"",""trial"",""time""
""fullscreenexit"",""6"",""21789""
","","[{""page_index"":0,""viewing_time"":3010}]","3010.399999976158","","","","","","","","","","","","","","","","","","","","","","","",""
"pit-comprehension","113","847001","0.0-2.0-25.0-0.0","battery-v0.2","","""event"",""trial"",""time""
""fullscreenenter"",""1"",""5317""
""fullscreenexit"",""6"",""21789""
""blur"",""6"",""24833""
""focus"",""6"",""25971""
","""event"",""trial"",""time""
""blur"",""6"",""24833""
","""event"",""trial"",""time""
""focus"",""6"",""25971""
","""event"",""trial"",""time""
""fullscreenenter"",""1"",""5317""
","""event"",""trial"",""time""
""fullscreenexit"",""6"",""21789""
","","","6504","[""True""]","0","24","4642","3192","","","","","","","","","","","","","","","","","","",""
"pit-instructions","114","849554","0.0-2.0-25.0-1.0","battery-v0.2","","""event"",""trial"",""time""
""fullscreenenter"",""1"",""5317""
""fullscreenexit"",""6"",""21789""
""blur"",""6"",""24833""
""focus"",""6"",""25971""
","""event"",""trial"",""time""
""blur"",""6"",""24833""
","""event"",""trial"",""time""
""focus"",""6"",""25971""
","""event"",""trial"",""time""
""fullscreenenter"",""1"",""5317""
","""event"",""trial"",""time""
""fullscreenexit"",""6"",""21789""
","","[{""page_index"":0,""viewing_time"":2498.9000000953674}]","2499.2000000476837","","","","","","","","","","","","","","","","","","","","","","","",""
"pit-comprehension","115","853985","0.0-2.0-26.0-0.0","battery-v0.2","","""event"",""trial"",""time""
""fullscreenenter"",""1"",""5317""
""fullscreenexit"",""6"",""21789""
""blur"",""6"",""24833""
""focus"",""6"",""25971""
","""event"",""trial"",""time""
""blur"",""6"",""24833""
","""event"",""trial"",""time""
""focus"",""6"",""25971""
","""event"",""trial"",""time""
""fullscreenenter"",""1"",""5317""
","""event"",""trial"",""time""
""fullscreenexit"",""6"",""21789""
","","","4427.299999952316","[""False""]","0","24","4642","3192","","","","","","","","","","","","","","","","","","",""
"pit-instructions","116","856185","0.0-2.0-26.0-1.0","battery-v0.2","","""event"",""trial"",""time""
""fullscreenenter"",""1"",""5317""
""fullscreenexit"",""6"",""21789""
""blur"",""6"",""24833""
""focus"",""6"",""25971""
","""event"",""trial"",""time""
""blur"",""6"",""24833""
","""event"",""trial"",""time""
""focus"",""6"",""25971""
","""event"",""trial"",""time""
""fullscreenenter"",""1"",""5317""
","""event"",""trial"",""time""
""fullscreenexit"",""6"",""21789""
","","[{""page_index"":0,""viewing_time"":2143.3000000715256}]","2143.600000023842","","","","","","","","","","","","","","","","","","","","","","","",""
"pit-instructions","117","871931","0.0-3.0","battery-v0.2","","""event"",""trial"",""time""
""fullscreenenter"",""1"",""5317""
""fullscreenexit"",""6"",""21789""
""blur"",""6"",""24833""
""focus"",""6"",""25971""
","""event"",""trial"",""time""
""blur"",""6"",""24833""
","""event"",""trial"",""time""
""focus"",""6"",""25971""
","""event"",""trial"",""time""
""fullscreenenter"",""1"",""5317""
","""event"",""trial"",""time""
""fullscreenexit"",""6"",""21789""
","","[{""page_index"":0,""viewing_time"":3406.0999999046326},{""page_index"":1,""viewing_time"":5136.200000047684},{""page_index"":2,""viewing_time"":7200.299999952316}]","15742.899999976158","","","","","","","","","","","","","","","","","","","","","","","",""
"pit-trial","118","875463","0.0-4.0","battery-v0.2","","""event"",""trial"",""time""
""fullscreenenter"",""1"",""5317""
""fullscreenexit"",""6"",""21789""
""blur"",""6"",""24833""
""focus"",""6"",""25971""
","""event"",""trial"",""time""
""blur"",""6"",""24833""
","""event"",""trial"",""time""
""focus"",""6"",""25971""
","""event"",""trial"",""time""
""fullscreenenter"",""1"",""5317""
","""event"",""trial"",""time""
""fullscreenexit"",""6"",""21789""
","","","644.8999999761581","","","24","4642","3192","&#9730;","elianto","#3366ff99"," "," ","1","0","[1496.5]","1","1","","","4642","1","1","1","win","go","1"
"pit-trial","119","878971","0.0-5.0","battery-v0.2","","""event"",""trial"",""time""
""fullscreenenter"",""1"",""5317""
""fullscreenexit"",""6"",""21789""
""blur"",""6"",""24833""
""focus"",""6"",""25971""
","""event"",""trial"",""time""
""blur"",""6"",""24833""
","""event"",""trial"",""time""
""focus"",""6"",""25971""
","""event"",""trial"",""time""
""fullscreenenter"",""1"",""5317""
","""event"",""trial"",""time""
""fullscreenexit"",""6"",""21789""
","","","638.8999999761581","","","24","4642","3192","&#9733;","elianto","#3366ff99","-1"," ","0","+10","[1492.7000000476837]","1","1","","","4642","2","2","2","win","no-go","1"
"pit-trial","120","882770","0.0-6.0","battery-v0.2","","""event"",""trial"",""time""
""fullscreenenter"",""1"",""5317""
""fullscreenexit"",""6"",""21789""
""blur"",""6"",""24833""
""focus"",""6"",""25971""
","""event"",""trial"",""time""
""blur"",""6"",""24833""
","""event"",""trial"",""time""
""focus"",""6"",""25971""
","""event"",""trial"",""time""
""fullscreenenter"",""1"",""5317""
","""event"",""trial"",""time""
""fullscreenexit"",""6"",""21789""
","","","941.7999999523163","","","24","4642","3192","&#9728;","elianto","#f73b6a7A","-1"," ","0","-10","[1794.3999999761581]","1","1","","","4642","3","0","4","lose","no-go","0"
"pit-trial","121","887652","0.0-7.0","battery-v0.2","","""event"",""trial"",""time""
""fullscreenenter"",""1"",""5317""
""fullscreenexit"",""6"",""21789""
""blur"",""6"",""24833""
""focus"",""6"",""25971""
","""event"",""trial"",""time""
""blur"",""6"",""24833""
","""event"",""trial"",""time""
""focus"",""6"",""25971""
","""event"",""trial"",""time""
""fullscreenenter"",""1"",""5317""
","""event"",""trial"",""time""
""fullscreenexit"",""6"",""21789""
","","","-1","","","24","4642","3192","&#9752;","elianto","#f73b6a7A"," ","-1","0","-10","[]","0","1","","","4642","4","3","3","lose","go","0"
"pit-trial","122","891524","0.0-8.0","battery-v0.2","","""event"",""trial"",""time""
""fullscreenenter"",""1"",""5317""
""fullscreenexit"",""6"",""21789""
""blur"",""6"",""24833""
""focus"",""6"",""25971""
","""event"",""trial"",""time""
""blur"",""6"",""24833""
","""event"",""trial"",""time""
""focus"",""6"",""25971""
","""event"",""trial"",""time""
""fullscreenenter"",""1"",""5317""
","""event"",""trial"",""time""
""fullscreenexit"",""6"",""21789""
","","","997.0999999046326","","","24","4642","3192","&#9752;","elianto","#f73b6a7A"," "," ","1","-10","[1855.2999999523163]","1","1","","","4642","5","3","3","lose","go","1"
"pit-trial","123","896410","0.0-9.0","battery-v0.2","","""event"",""trial"",""time""
""fullscreenenter"",""1"",""5317""
""fullscreenexit"",""6"",""21789""
""blur"",""6"",""24833""
""focus"",""6"",""25971""
","""event"",""trial"",""time""
""blur"",""6"",""24833""
","""event"",""trial"",""time""
""focus"",""6"",""25971""
","""event"",""trial"",""time""
""fullscreenenter"",""1"",""5317""
","""event"",""trial"",""time""
""fullscreenexit"",""6"",""21789""
","","","-1","","","24","4642","3192","&#9728;","elianto","#f73b6a7A","-1","-1","1","0","[]","0","1","","","4642","6","0","4","lose","no-go","0"
"pit-trial","124","900093","0.0-10.0","battery-v0.2","","""event"",""trial"",""time""
""fullscreenenter"",""1"",""5317""
""fullscreenexit"",""6"",""21789""
""blur"",""6"",""24833""
""focus"",""6"",""25971""
","""event"",""trial"",""time""
""blur"",""6"",""24833""
","""event"",""trial"",""time""
""focus"",""6"",""25971""
","""event"",""trial"",""time""
""fullscreenenter"",""1"",""5317""
","""event"",""trial"",""time""
""fullscreenexit"",""6"",""21789""
","","","815.8999999761581","","","24","4642","3192","&#9730;","elianto","#3366ff99"," "," ","1","+10","[1668.5]","1","1","","","4642","7","1","1","win","go","0"
"pit-trial","125","904960","0.0-11.0","battery-v0.2","","""event"",""trial"",""time""
""fullscreenenter"",""1"",""5317""
""fullscreenexit"",""6"",""21789""
""blur"",""6"",""24833""
""focus"",""6"",""25971""
","""event"",""trial"",""time""
""blur"",""6"",""24833""
","""event"",""trial"",""time""
""focus"",""6"",""25971""
","""event"",""trial"",""time""
""fullscreenenter"",""1"",""5317""
","""event"",""trial"",""time""
""fullscreenexit"",""6"",""21789""
","","","-1","","","24","4642","3192","&#9733;","elianto","#3366ff99","-1","-1","1","+10","[]","0","1","","","4642","8","2","2","win","no-go","0"
"pit-trial","126","908810","0.0-12.0","battery-v0.2","","""event"",""trial"",""time""
""fullscreenenter"",""1"",""5317""
""fullscreenexit"",""6"",""21789""
""blur"",""6"",""24833""
""focus"",""6"",""25971""
","""event"",""trial"",""time""
""blur"",""6"",""24833""
","""event"",""trial"",""time""
""focus"",""6"",""25971""
","""event"",""trial"",""time""
""fullscreenenter"",""1"",""5317""
","""event"",""trial"",""time""
""fullscreenexit"",""6"",""21789""
","","","982.7999999523163","","","24","4642","3192","&#9733;","elianto","#3366ff99","-1"," ","0","+10","[1835.7999999523163]","1","1","","","4642","9","2","2","win","no-go","1"
"pit-trial","127","912968","0.0-13.0","battery-v0.2","","""event"",""trial"",""time""
""fullscreenenter"",""1"",""5317""
""fullscreenexit"",""6"",""21789""
""blur"",""6"",""24833""
""focus"",""6"",""25971""
","""event"",""trial"",""time""
""blur"",""6"",""24833""
","""event"",""trial"",""time""
""focus"",""6"",""25971""
","""event"",""trial"",""time""
""fullscreenenter"",""1"",""5317""
","""event"",""trial"",""time""
""fullscreenexit"",""6"",""21789""
","","","1294.3999999761581","","","24","4642","3192","&#9730;","elianto","#3366ff99"," "," ","1","0","[2146.7999999523163]","1","1","","","4642","10","1","1","win","go","1"
"pit-trial","128","916912","0.0-14.0","battery-v0.2","","""event"",""trial"",""time""
""fullscreenenter"",""1"",""5317""
""fullscreenexit"",""6"",""21789""
""blur"",""6"",""24833""
""focus"",""6"",""25971""
","""event"",""trial"",""time""
""blur"",""6"",""24833""
","""event"",""trial"",""time""
""focus"",""6"",""25971""
","""event"",""trial"",""time""
""fullscreenenter"",""1"",""5317""
","""event"",""trial"",""time""
""fullscreenexit"",""6"",""21789""
","","","1086.2999999523163","","","24","4642","3192","&#9728;","elianto","#f73b6a7A","-1"," ","0","-10","[1938.8999999761581]","1","1","","","4642","11","0","4","lose","no-go","0"
"pit-trial","129","921031","0.0-15.0","battery-v0.2","","""event"",""trial"",""time""
""fullscreenenter"",""1"",""5317""
""fullscreenexit"",""6"",""21789""
""blur"",""6"",""24833""
""focus"",""6"",""25971""
","""event"",""trial"",""time""
""blur"",""6"",""24833""
","""event"",""trial"",""time""
""focus"",""6"",""25971""
","""event"",""trial"",""time""
""fullscreenenter"",""1"",""5317""
","""event"",""trial"",""time""
""fullscreenexit"",""6"",""21789""
","","","1261.2999999523163","","","24","4642","3192","&#9752;","elianto","#f73b6a7A"," "," ","1","0","[2115.399999976158]","1","1","","","4642","12","3","3","lose","go","0"
"pit-trial","130","925904","0.0-16.0","battery-v0.2","","""event"",""trial"",""time""
""fullscreenenter"",""1"",""5317""
""fullscreenexit"",""6"",""21789""
""blur"",""6"",""24833""
""focus"",""6"",""25971""
","""event"",""trial"",""time""
""blur"",""6"",""24833""
","""event"",""trial"",""time""
""focus"",""6"",""25971""
","""event"",""trial"",""time""
""fullscreenenter"",""1"",""5317""
","""event"",""trial"",""time""
""fullscreenexit"",""6"",""21789""
","","","-1","","","24","4642","3192","&#9733;","elianto","#3366ff99","-1","-1","1","+10","[]","0","1","","","4642","13","2","2","win","no-go","0"
"pit-trial","131","929585","0.0-17.0","battery-v0.2","","""event"",""trial"",""time""
""fullscreenenter"",""1"",""5317""
""fullscreenexit"",""6"",""21789""
""blur"",""6"",""24833""
""focus"",""6"",""25971""
","""event"",""trial"",""time""
""blur"",""6"",""24833""
","""event"",""trial"",""time""
""focus"",""6"",""25971""
","""event"",""trial"",""time""
""fullscreenenter"",""1"",""5317""
","""event"",""trial"",""time""
""fullscreenexit"",""6"",""21789""
","","","816.2999999523163","","","24","4642","3192","&#9728;","elianto","#f73b6a7A","-1"," ","0","-10","[1669]","1","1","","","4642","14","0","4","lose","no-go","0"
"pit-trial","132","933080","0.0-18.0","battery-v0.2","","""event"",""trial"",""time""
""fullscreenenter"",""1"",""5317""
""fullscreenexit"",""6"",""21789""
""blur"",""6"",""24833""
""focus"",""6"",""25971""
","""event"",""trial"",""time""
""blur"",""6"",""24833""
","""event"",""trial"",""time""
""focus"",""6"",""25971""
","""event"",""trial"",""time""
""fullscreenenter"",""1"",""5317""
","""event"",""trial"",""time""
""fullscreenexit"",""6"",""21789""
","","","637.3999999761581","","","24","4642","3192","&#9752;","elianto","#f73b6a7A"," "," ","1","0","[1489.5]","1","1","","","4642","15","3","3","lose","go","0"
"pit-trial","133","936584","0.0-19.0","battery-v0.2","","""event"",""trial"",""time""
""fullscreenenter"",""1"",""5317""
""fullscreenexit"",""6"",""21789""
""blur"",""6"",""24833""
""focus"",""6"",""25971""
","""event"",""trial"",""time""
""blur"",""6"",""24833""
","""event"",""trial"",""time""
""focus"",""6"",""25971""
","""event"",""trial"",""time""
""fullscreenenter"",""1"",""5317""
","""event"",""trial"",""time""
""fullscreenexit"",""6"",""21789""
","","","644.6000000238419","","","24","4642","3192","&#9730;","elianto","#3366ff99"," "," ","1","+10","[1499]","1","1","","","4642","16","1","1","win","go","0"
"pit-trial","134","940952","0.0-20.0","battery-v0.2","","""event"",""trial"",""time""
""fullscreenenter"",""1"",""5317""
""fullscreenexit"",""6"",""21789""
""blur"",""6"",""24833""
""focus"",""6"",""25971""
","""event"",""trial"",""time""
""blur"",""6"",""24833""
","""event"",""trial"",""time""
""focus"",""6"",""25971""
","""event"",""trial"",""time""
""fullscreenenter"",""1"",""5317""
","""event"",""trial"",""time""
""fullscreenexit"",""6"",""21789""
","","","1510.6999999284744","","","24","4642","3192","&#9728;","elianto","#f73b6a7A","-1"," ","0","-10","[2364.5999999046326]","1","1","","","4642","17","0","4","lose","no-go","0"
"pit-trial","135","944576","0.0-21.0","battery-v0.2","","""event"",""trial"",""time""
""fullscreenenter"",""1"",""5317""
""fullscreenexit"",""6"",""21789""
""blur"",""6"",""24833""
""focus"",""6"",""25971""
","""event"",""trial"",""time""
""blur"",""6"",""24833""
","""event"",""trial"",""time""
""focus"",""6"",""25971""
","""event"",""trial"",""time""
""fullscreenenter"",""1"",""5317""
","""event"",""trial"",""time""
""fullscreenexit"",""6"",""21789""
","","","764.5","","","24","4642","3192","&#9730;","elianto","#3366ff99"," "," ","1","+10","[1618.6000000238419]","1","1","","","4642","18","1","1","win","go","0"
"pit-trial","136","948394","0.0-22.0","battery-v0.2","","""event"",""trial"",""time""
""fullscreenenter"",""1"",""5317""
""fullscreenexit"",""6"",""21789""
""blur"",""6"",""24833""
""focus"",""6"",""25971""
","""event"",""trial"",""time""
""blur"",""6"",""24833""
","""event"",""trial"",""time""
""focus"",""6"",""25971""
","""event"",""trial"",""time""
""fullscreenenter"",""1"",""5317""
","""event"",""trial"",""time""
""fullscreenexit"",""6"",""21789""
","","","957.1000000238419","","","24","4642","3192","&#9752;","elianto","#f73b6a7A"," "," ","1","0","[1810.4000000953674]","1","1","","","4642","19","3","3","lose","go","0"
"pit-trial","137","953257","0.0-23.0","battery-v0.2","","""event"",""trial"",""time""
""fullscreenenter"",""1"",""5317""
""fullscreenexit"",""6"",""21789""
""blur"",""6"",""24833""
""focus"",""6"",""25971""
","""event"",""trial"",""time""
""blur"",""6"",""24833""
","""event"",""trial"",""time""
""focus"",""6"",""25971""
","""event"",""trial"",""time""
""fullscreenenter"",""1"",""5317""
","""event"",""trial"",""time""
""fullscreenexit"",""6"",""21789""
","","","-1","","","24","4642","3192","&#9733;","elianto","#3366ff99","-1","-1","1","+10","[]","0","1","","","4642","20","2","2","win","no-go","0"
"pit-instructions","138","965305","0.0-24.0","battery-v0.2","","""event"",""trial"",""time""
""fullscreenenter"",""1"",""5317""
""fullscreenexit"",""6"",""21789""
""blur"",""6"",""24833""
""focus"",""6"",""25971""
","""event"",""trial"",""time""
""blur"",""6"",""24833""
","""event"",""trial"",""time""
""focus"",""6"",""25971""
","""event"",""trial"",""time""
""fullscreenenter"",""1"",""5317""
","""event"",""trial"",""time""
""fullscreenexit"",""6"",""21789""
","","[{""page_index"":0,""viewing_time"":5855},{""page_index"":1,""viewing_time"":6191.199999928474}]","12046.600000023842","","","","","","","","","","","","","","","","","","","","","","","",""
"pit-trial","139","969127","0.0-25.0","battery-v0.2","","""event"",""trial"",""time""
""fullscreenenter"",""1"",""5317""
""fullscreenexit"",""6"",""21789""
""blur"",""6"",""24833""
""focus"",""6"",""25971""
","""event"",""trial"",""time""
""blur"",""6"",""24833""
","""event"",""trial"",""time""
""focus"",""6"",""25971""
","""event"",""trial"",""time""
""fullscreenenter"",""1"",""5317""
","""event"",""trial"",""time""
""fullscreenexit"",""6"",""21789""
","","","936.2999999523163","","","24","4642","3192","m","elianto","#f73b6a7A"," "," ","1","0","[1788.8999999761581]","1","2","","","4642","21","0","3","lose","go","0"
"pit-trial","140","974007","0.0-26.0","battery-v0.2","","""event"",""trial"",""time""
""fullscreenenter"",""1"",""5317""
""fullscreenexit"",""6"",""21789""
""blur"",""6"",""24833""
""focus"",""6"",""25971""
","""event"",""trial"",""time""
""blur"",""6"",""24833""
","""event"",""trial"",""time""
""focus"",""6"",""25971""
","""event"",""trial"",""time""
""fullscreenenter"",""1"",""5317""
","""event"",""trial"",""time""
""fullscreenexit"",""6"",""21789""
","","","-1","","","24","4642","3192","y","elianto","#f73b6a7A"," ","-1","0","-10","[]","0","2","","","4642","22","2","3","lose","go","0"
"pit-trial","141","977790","0.0-27.0","battery-v0.2","","""event"",""trial"",""time""
""fullscreenenter"",""1"",""5317""
""fullscreenexit"",""6"",""21789""
""blur"",""6"",""24833""
""focus"",""6"",""25971""
","""event"",""trial"",""time""
""blur"",""6"",""24833""
","""event"",""trial"",""time""
""focus"",""6"",""25971""
","""event"",""trial"",""time""
""fullscreenenter"",""1"",""5317""
","""event"",""trial"",""time""
""fullscreenexit"",""6"",""21789""
","","","917.2999999523163","","","24","4642","3192","h","elianto","#f73b6a7A","-1"," ","0","-10","[1772.6999999284744]","1","2","","","4642","23","3","4","lose","no-go","0"
"pit-trial","142","981816","0.0-28.0","battery-v0.2","","""event"",""trial"",""time""
""fullscreenenter"",""1"",""5317""
""fullscreenexit"",""6"",""21789""
""blur"",""6"",""24833""
""focus"",""6"",""25971""
","""event"",""trial"",""time""
""blur"",""6"",""24833""
","""event"",""trial"",""time""
""focus"",""6"",""25971""
","""event"",""trial"",""time""
""fullscreenenter"",""1"",""5317""
","""event"",""trial"",""time""
""fullscreenexit"",""6"",""21789""
","","","1151.6000000238419","","","24","4642","3192","r","elianto","#3366ff99","-1"," ","0","0","[2007.9000000953674]","1","2","","","4642","24","1","2","win","no-go","0"
"pit-trial","143","986683","0.0-29.0","battery-v0.2","","""event"",""trial"",""time""
""fullscreenenter"",""1"",""5317""
""fullscreenexit"",""6"",""21789""
""blur"",""6"",""24833""
""focus"",""6"",""25971""
","""event"",""trial"",""time""
""blur"",""6"",""24833""
","""event"",""trial"",""time""
""focus"",""6"",""25971""
","""event"",""trial"",""time""
""fullscreenenter"",""1"",""5317""
","""event"",""trial"",""time""
""fullscreenexit"",""6"",""21789""
","","","-1","","","24","4642","3192","r","elianto","#3366ff99","-1","-1","1","+10","[]","0","2","","","4642","25","1","2","win","no-go","0"
"pit-trial","144","991562","0.0-30.0","battery-v0.2","","""event"",""trial"",""time""
""fullscreenenter"",""1"",""5317""
""fullscreenexit"",""6"",""21789""
""blur"",""6"",""24833""
""focus"",""6"",""25971""
","""event"",""trial"",""time""
""blur"",""6"",""24833""
","""event"",""trial"",""time""
""focus"",""6"",""25971""
","""event"",""trial"",""time""
""fullscreenenter"",""1"",""5317""
","""event"",""trial"",""time""
""fullscreenexit"",""6"",""21789""
","","","-1","","","24","4642","3192","m","elianto","#f73b6a7A"," ","-1","0","-10","[]","0","2","","","4642","26","0","3","lose","go","0"
"pit-trial","145","995124","0.0-31.0","battery-v0.2","","""event"",""trial"",""time""
""fullscreenenter"",""1"",""5317""
""fullscreenexit"",""6"",""21789""
""blur"",""6"",""24833""
""focus"",""6"",""25971""
","""event"",""trial"",""time""
""blur"",""6"",""24833""
","""event"",""trial"",""time""
""focus"",""6"",""25971""
","""event"",""trial"",""time""
""fullscreenenter"",""1"",""5317""
","""event"",""trial"",""time""
""fullscreenexit"",""6"",""21789""
","","","701.8999999761581","","","24","4642","3192","y","elianto","#f73b6a7A"," "," ","1","-10","[1555.2999999523163]","1","2","","","4642","27","2","3","lose","go","1"
"pit-trial","146","999137","0.0-32.0","battery-v0.2","","""event"",""trial"",""time""
""fullscreenenter"",""1"",""5317""
""fullscreenexit"",""6"",""21789""
""blur"",""6"",""24833""
""focus"",""6"",""25971""
","""event"",""trial"",""time""
""blur"",""6"",""24833""
","""event"",""trial"",""time""
""focus"",""6"",""25971""
","""event"",""trial"",""time""
""fullscreenenter"",""1"",""5317""
","""event"",""trial"",""time""
""fullscreenexit"",""6"",""21789""
","","","1156.6000000238419","","","24","4642","3192","h","elianto","#f73b6a7A","-1"," ","0","-10","[2007]","1","2","","","4642","28","3","4","lose","no-go","0"
"pit-trial","147","1003057","0.0-33.0","battery-v0.2","","""event"",""trial"",""time""
""fullscreenenter"",""1"",""5317""
""fullscreenexit"",""6"",""21789""
""blur"",""6"",""24833""
""focus"",""6"",""25971""
","""event"",""trial"",""time""
""blur"",""6"",""24833""
","""event"",""trial"",""time""
""focus"",""6"",""25971""
","""event"",""trial"",""time""
""fullscreenenter"",""1"",""5317""
","""event"",""trial"",""time""
""fullscreenexit"",""6"",""21789""
","","","1061.5","","","24","4642","3192","r","elianto","#3366ff99","-1"," ","0","0","[1912.3999999761581]","1","2","","","4642","29","1","2","win","no-go","0"
"pit-trial","148","1007416","0.0-34.0","battery-v0.2","","""event"",""trial"",""time""
""fullscreenenter"",""1"",""5317""
""fullscreenexit"",""6"",""21789""
""blur"",""6"",""24833""
""focus"",""6"",""25971""
","""event"",""trial"",""time""
""blur"",""6"",""24833""
","""event"",""trial"",""time""
""focus"",""6"",""25971""
","""event"",""trial"",""time""
""fullscreenenter"",""1"",""5317""
","""event"",""trial"",""time""
""fullscreenexit"",""6"",""21789""
","","","1495.4000000953674","","","24","4642","3192","y","elianto","#f73b6a7A"," "," ","1","0","[2349.3000000715256]","1","2","","","4642","30","2","3","lose","go","0"
"pit-trial","149","1011585","0.0-35.0","battery-v0.2","","""event"",""trial"",""time""
""fullscreenenter"",""1"",""5317""
""fullscreenexit"",""6"",""21789""
""blur"",""6"",""24833""
""focus"",""6"",""25971""
","""event"",""trial"",""time""
""blur"",""6"",""24833""
","""event"",""trial"",""time""
""focus"",""6"",""25971""
","""event"",""trial"",""time""
""fullscreenenter"",""1"",""5317""
","""event"",""trial"",""time""
""fullscreenexit"",""6"",""21789""
","","","1312.1999999284744","","","24","4642","3192","h","elianto","#f73b6a7A","-1"," ","0","-10","[2162.9000000953674]","1","2","","","4642","31","3","4","lose","no-go","0"
"pit-trial","150","1016448","0.0-36.0","battery-v0.2","","""event"",""trial"",""time""
""fullscreenenter"",""1"",""5317""
""fullscreenexit"",""6"",""21789""
""blur"",""6"",""24833""
""focus"",""6"",""25971""
","""event"",""trial"",""time""
""blur"",""6"",""24833""
","""event"",""trial"",""time""
""focus"",""6"",""25971""
","""event"",""trial"",""time""
""fullscreenenter"",""1"",""5317""
","""event"",""trial"",""time""
""fullscreenexit"",""6"",""21789""
","","","-1","","","24","4642","3192","m","elianto","#f73b6a7A"," ","-1","0","-10","[]","0","2","","","4642","32","0","3","lose","go","0"
"pit-trial","151","1020080","0.0-37.0","battery-v0.2","","""event"",""trial"",""time""
""fullscreenenter"",""1"",""5317""
""fullscreenexit"",""6"",""21789""
""blur"",""6"",""24833""
""focus"",""6"",""25971""
","""event"",""trial"",""time""
""blur"",""6"",""24833""
","""event"",""trial"",""time""
""focus"",""6"",""25971""
","""event"",""trial"",""time""
""fullscreenenter"",""1"",""5317""
","""event"",""trial"",""time""
""fullscreenexit"",""6"",""21789""
","","","774.2000000476837","","","24","4642","3192","r","elianto","#3366ff99","-1"," ","0","+10","[1628.6999999284744]","1","2","","","4642","33","1","2","win","no-go","1"
"pit-trial","152","1023944","0.0-38.0","battery-v0.2","","""event"",""trial"",""time""
""fullscreenenter"",""1"",""5317""
""fullscreenexit"",""6"",""21789""
""blur"",""6"",""24833""
""focus"",""6"",""25971""
","""event"",""trial"",""time""
""blur"",""6"",""24833""
","""event"",""trial"",""time""
""focus"",""6"",""25971""
","""event"",""trial"",""time""
""fullscreenenter"",""1"",""5317""
","""event"",""trial"",""time""
""fullscreenexit"",""6"",""21789""
","","","1004.3999999761581","","","24","4642","3192","h","elianto","#f73b6a7A","-1"," ","0","-10","[1858.3999999761581]","1","2","","","4642","34","3","4","lose","no-go","0"
"pit-trial","153","1027786","0.0-39.0","battery-v0.2","","""event"",""trial"",""time""
""fullscreenenter"",""1"",""5317""
""fullscreenexit"",""6"",""21789""
""blur"",""6"",""24833""
""focus"",""6"",""25971""
","""event"",""trial"",""time""
""blur"",""6"",""24833""
","""event"",""trial"",""time""
""focus"",""6"",""25971""
","""event"",""trial"",""time""
""fullscreenenter"",""1"",""5317""
","""event"",""trial"",""time""
""fullscreenexit"",""6"",""21789""
","","","980.1999999284744","","","24","4642","3192","y","elianto","#f73b6a7A"," "," ","1","0","[1832.1999999284744]","1","2","","","4642","35","2","3","lose","go","0"
"pit-trial","154","1031680","0.0-40.0","battery-v0.2","","""event"",""trial"",""time""
""fullscreenenter"",""1"",""5317""
""fullscreenexit"",""6"",""21789""
""blur"",""6"",""24833""
""focus"",""6"",""25971""
","""event"",""trial"",""time""
""blur"",""6"",""24833""
","""event"",""trial"",""time""
""focus"",""6"",""25971""
","""event"",""trial"",""time""
""fullscreenenter"",""1"",""5317""
","""event"",""trial"",""time""
""fullscreenexit"",""6"",""21789""
","","","1038.7000000476837","","","24","4642","3192","m","elianto","#f73b6a7A"," "," ","1","-10","[1889.7000000476837]","1","2","","","4642","36","0","3","lose","go","1"
