"trial_type","trial_index","time_elapsed","internal_node_id","task_version","subject_id","interactions","blur_events","focus_events","fullscreenenter_events","fullscreenexit_events","success","view_history","rt","responses","num_errors","age","subject","participantId","rune","rune_set","hex","correct","choice","accuracy","outcome","keys","total_keys","block","practice","value","sub","trial","stimulus","robot","valence","action","sham"
"pavlovia","0","9","0.0-0.0","battery-v0.2","","""event"",""trial"",""time""
""fullscreenenter"",""1"",""4385""
","
","
","""event"",""trial"",""time""
""fullscreenenter"",""1"",""4385""
","
","","","","","","","","","","","","","","","","","","","","","","","","","","",""
"fullscreen","1","5351","0.0-1.0","battery-v0.2","","""event"",""trial"",""time""
""fullscreenenter"",""1"",""4385""
","
","
","""event"",""trial"",""time""
""fullscreenenter"",""1"",""4385""
","
","true","","","","","","","","","","","","","","","","","","","","","","","","","",""
"pit-instructions","2","16002","0.0-2.0-0.0","battery-v0.2","","""event"",""trial"",""time""
""fullscreenenter"",""1"",""4385""
","
","
","""event"",""trial"",""time""
""fullscreenenter"",""1"",""4385""
","
","","[{""page_index"":0,""viewing_time"":10641.399999976158}]","10643.5","","","","","","","","","","","","","","","","","","","","","","","",""
"pit-comprehension","3","27231","0.0-2.0-1.0-0.0","battery-v0.2","","""event"",""trial"",""time""
""fullscreenenter"",""1"",""4385""
""fullscreenexit"",""4"",""29041""
""blur"",""4"",""30229""
""focus"",""4"",""34995""
""blur"",""4"",""36118""
""focus"",""4"",""46564""
","""event"",""trial"",""time""
""blur"",""4"",""30229""
""blur"",""4"",""36118""
","""event"",""trial"",""time""
""focus"",""4"",""34995""
""focus"",""4"",""46564""
","""event"",""trial"",""time""
""fullscreenenter"",""1"",""4385""
","""event"",""trial"",""time""
""fullscreenexit"",""4"",""29041""
","","","11223.899999976158","[""fish""]","1","18","3004","2762","","","","","","","","","","","","","","","","","","",""
"pit-instructions","4","48652","0.0-2.0-1.0-1.0","battery-v0.2","","""event"",""trial"",""time""
""fullscreenenter"",""1"",""4385""
""fullscreenexit"",""4"",""29041""
""blur"",""4"",""30229""
""focus"",""4"",""34995""
""blur"",""4"",""36118""
""focus"",""4"",""46564""
","""event"",""trial"",""time""
""blur"",""4"",""30229""
""blur"",""4"",""36118""
","""event"",""trial"",""time""
""focus"",""4"",""34995""
""focus"",""4"",""46564""
","""event"",""trial"",""time""
""fullscreenenter"",""1"",""4385""
","""event"",""trial"",""time""
""fullscreenexit"",""4"",""29041""
","","[{""page_index"":0,""viewing_time"":21391.300000071526}]","21391.899999976158","","","","","","","","","","","","","","","","","","","","","","","",""
"pit-instructions","5","54645","0.0-2.0-1.0-2.0-0.0","battery-v0.2","","""event"",""trial"",""time""
""fullscreenenter"",""1"",""4385""
""fullscreenexit"",""4"",""29041""
""blur"",""4"",""30229""
""focus"",""4"",""34995""
""blur"",""4"",""36118""
""focus"",""4"",""46564""
","""event"",""trial"",""time""
""blur"",""4"",""30229""
""blur"",""4"",""36118""
","""event"",""trial"",""time""
""focus"",""4"",""34995""
""focus"",""4"",""46564""
","""event"",""trial"",""time""
""fullscreenenter"",""1"",""4385""
","""event"",""trial"",""time""
""fullscreenexit"",""4"",""29041""
","","[{""page_index"":0,""viewing_time"":5988.300000071526}]","5988.800000071526","","","","","","","","","","","","","","","","","","","","","","","",""
"pit-comprehension","6","58104","0.0-2.0-1.1-0.1","battery-v0.2","","""event"",""trial"",""time""
""fullscreenenter"",""1"",""4385""
""fullscreenexit"",""4"",""29041""
""blur"",""4"",""30229""
""focus"",""4"",""34995""
""blur"",""4"",""36118""
""focus"",""4"",""46564""
","""event"",""trial"",""time""
""blur"",""4"",""30229""
""blur"",""4"",""36118""
","""event"",""trial"",""time""
""focus"",""4"",""34995""
""focus"",""4"",""46564""
","""event"",""trial"",""time""
""fullscreenenter"",""1"",""4385""
","""event"",""trial"",""time""
""fullscreenexit"",""4"",""29041""
","","","3451.5","[""shark""]","0","18","3004","2762","","","","","","","","","","","","","","","","","","",""
"pit-instructions","7","62582","0.0-2.0-1.1-1.1","battery-v0.2","","""event"",""trial"",""time""
""fullscreenenter"",""1"",""4385""
""fullscreenexit"",""4"",""29041""
""blur"",""4"",""30229""
""focus"",""4"",""34995""
""blur"",""4"",""36118""
""focus"",""4"",""46564""
","""event"",""trial"",""time""
""blur"",""4"",""30229""
""blur"",""4"",""36118""
","""event"",""trial"",""time""
""focus"",""4"",""34995""
""focus"",""4"",""46564""
","""event"",""trial"",""time""
""fullscreenenter"",""1"",""4385""
","""event"",""trial"",""time""
""fullscreenexit"",""4"",""29041""
","","[{""page_index"":0,""viewing_time"":4470.600000023842}]","4471.300000071526","","","","","","","","","","","","","","","","","","","","","","","",""
"pit-comprehension","8","65351","0.0-2.0-2.0-0.0","battery-v0.2","","""event"",""trial"",""time""
""fullscreenenter"",""1"",""4385""
""fullscreenexit"",""4"",""29041""
""blur"",""4"",""30229""
""focus"",""4"",""34995""
""blur"",""4"",""36118""
""focus"",""4"",""46564""
","""event"",""trial"",""time""
""blur"",""4"",""30229""
""blur"",""4"",""36118""
","""event"",""trial"",""time""
""focus"",""4"",""34995""
""focus"",""4"",""46564""
","""event"",""trial"",""time""
""fullscreenenter"",""1"",""4385""
","""event"",""trial"",""time""
""fullscreenexit"",""4"",""29041""
","","","2756.399999976158","[""tiger""]","0","18","3004","2762","","","","","","","","","","","","","","","","","","",""
"pit-instructions","9","67719","0.0-2.0-2.0-1.0","battery-v0.2","","""event"",""trial"",""time""
""fullscreenenter"",""1"",""4385""
""fullscreenexit"",""4"",""29041""
""blur"",""4"",""30229""
""focus"",""4"",""34995""
""blur"",""4"",""36118""
""focus"",""4"",""46564""
","""event"",""trial"",""time""
""blur"",""4"",""30229""
""blur"",""4"",""36118""
","""event"",""trial"",""time""
""focus"",""4"",""34995""
""focus"",""4"",""46564""
","""event"",""trial"",""time""
""fullscreenenter"",""1"",""4385""
","""event"",""trial"",""time""
""fullscreenexit"",""4"",""29041""
","","[{""page_index"":0,""viewing_time"":2353.9000000953674}]","2354.600000023842","","","","","","","","","","","","","","","","","","","","","","","",""
"pit-instructions","10","178898","0.0-2.0-3.0","battery-v0.2","","""event"",""trial"",""time""
""fullscreenenter"",""1"",""4385""
""fullscreenexit"",""4"",""29041""
""blur"",""4"",""30229""
""focus"",""4"",""34995""
""blur"",""4"",""36118""
""focus"",""4"",""46564""
","""event"",""trial"",""time""
""blur"",""4"",""30229""
""blur"",""4"",""36118""
","""event"",""trial"",""time""
""focus"",""4"",""34995""
""focus"",""4"",""46564""
","""event"",""trial"",""time""
""fullscreenenter"",""1"",""4385""
","""event"",""trial"",""time""
""fullscreenexit"",""4"",""29041""
","","[{""page_index"":0,""viewing_time"":10243.299999952316},{""page_index"":1,""viewing_time"":7029.799999952316},{""page_index"":2,""viewing_time"":9148.900000095367},{""page_index"":3,""viewing_time"":6536.799999952316},{""page_index"":4,""viewing_time"":6432.5},{""page_index"":5,""viewing_time"":6598.799999952316},{""page_index"":6,""viewing_time"":7800.900000095367},{""page_index"":7,""viewing_time"":8243.699999928474},{""page_index"":8,""viewing_time"":7079.899999976158},{""page_index"":9,""viewing_time"":10249.800000071526},{""page_index"":10,""viewing_time"":7831.399999976158},{""page_index"":11,""viewing_time"":7709.399999976158},{""page_index"":12,""viewing_time"":7323.800000071526},{""page_index"":13,""viewing_time"":8943.199999928474}]","111173","","","","","","","","","","","","","","","","","","","","","","","",""
"pit-trial","11","182397","0.0-2.0-4.0-0.0","battery-v0.2","","""event"",""trial"",""time""
""fullscreenenter"",""1"",""4385""
""fullscreenexit"",""4"",""29041""
""blur"",""4"",""30229""
""focus"",""4"",""34995""
""blur"",""4"",""36118""
""focus"",""4"",""46564""
","""event"",""trial"",""time""
""blur"",""4"",""30229""
""blur"",""4"",""36118""
","""event"",""trial"",""time""
""focus"",""4"",""34995""
""focus"",""4"",""46564""
","""event"",""trial"",""time""
""fullscreenenter"",""1"",""4385""
","""event"",""trial"",""time""
""fullscreenexit"",""4"",""29041""
","","","637.8999999761581","","","18","3004","2762","&#9784;","elianto","#FFFFF080"," "," ","1","&#10004","[1489.7999999523163]","1","0","0","","","","","","","",""
"pit-trial","12","185979","0.0-2.0-4.1-0.1","battery-v0.2","","""event"",""trial"",""time""
""fullscreenenter"",""1"",""4385""
""fullscreenexit"",""4"",""29041""
""blur"",""4"",""30229""
""focus"",""4"",""34995""
""blur"",""4"",""36118""
""focus"",""4"",""46564""
","""event"",""trial"",""time""
""blur"",""4"",""30229""
""blur"",""4"",""36118""
","""event"",""trial"",""time""
""focus"",""4"",""34995""
""focus"",""4"",""46564""
","""event"",""trial"",""time""
""fullscreenenter"",""1"",""4385""
","""event"",""trial"",""time""
""fullscreenexit"",""4"",""29041""
","","","718.7000000476837","","","18","3004","2762","&#9784;","elianto","#FFFFF080"," "," ","1","&#10004","[1570.7999999523163]","1","0","0","","","","","","","",""
"pit-trial","13","189339","0.0-2.0-4.2-0.2","battery-v0.2","","""event"",""trial"",""time""
""fullscreenenter"",""1"",""4385""
""fullscreenexit"",""4"",""29041""
""blur"",""4"",""30229""
""focus"",""4"",""34995""
""blur"",""4"",""36118""
""focus"",""4"",""46564""
","""event"",""trial"",""time""
""blur"",""4"",""30229""
""blur"",""4"",""36118""
","""event"",""trial"",""time""
""focus"",""4"",""34995""
""focus"",""4"",""46564""
","""event"",""trial"",""time""
""fullscreenenter"",""1"",""4385""
","""event"",""trial"",""time""
""fullscreenexit"",""4"",""29041""
","","","499","","","18","3004","2762","&#9784;","elianto","#FFFFF080"," "," ","1","&#10004","[1351]","1","0","0","","","","","","","",""
"pit-trial","14","192764","0.0-2.0-4.3-0.3","battery-v0.2","","""event"",""trial"",""time""
""fullscreenenter"",""1"",""4385""
""fullscreenexit"",""4"",""29041""
""blur"",""4"",""30229""
""focus"",""4"",""34995""
""blur"",""4"",""36118""
""focus"",""4"",""46564""
","""event"",""trial"",""time""
""blur"",""4"",""30229""
""blur"",""4"",""36118""
","""event"",""trial"",""time""
""focus"",""4"",""34995""
""focus"",""4"",""46564""
","""event"",""trial"",""time""
""fullscreenenter"",""1"",""4385""
","""event"",""trial"",""time""
""fullscreenexit"",""4"",""29041""
","","","569.8999999761581","","","18","3004","2762","&#9784;","elianto","#FFFFF080"," "," ","1","&#10004","[1420.1000000238419]","1","0","0","","","","","","","",""
"pit-trial","15","196324","0.0-2.0-4.4-0.4","battery-v0.2","","""event"",""trial"",""time""
""fullscreenenter"",""1"",""4385""
""fullscreenexit"",""4"",""29041""
""blur"",""4"",""30229""
""focus"",""4"",""34995""
""blur"",""4"",""36118""
""focus"",""4"",""46564""
","""event"",""trial"",""time""
""blur"",""4"",""30229""
""blur"",""4"",""36118""
","""event"",""trial"",""time""
""focus"",""4"",""34995""
""focus"",""4"",""46564""
","""event"",""trial"",""time""
""fullscreenenter"",""1"",""4385""
","""event"",""trial"",""time""
""fullscreenexit"",""4"",""29041""
","","","696.5","","","18","3004","2762","&#9784;","elianto","#FFFFF080"," "," ","1","&#10004","[1548]","1","0","0","","","","","","","",""
"pit-instructions","16","224271","0.0-2.0-5.0","battery-v0.2","","""event"",""trial"",""time""
""fullscreenenter"",""1"",""4385""
""fullscreenexit"",""4"",""29041""
""blur"",""4"",""30229""
""focus"",""4"",""34995""
""blur"",""4"",""36118""
""focus"",""4"",""46564""
","""event"",""trial"",""time""
""blur"",""4"",""30229""
""blur"",""4"",""36118""
","""event"",""trial"",""time""
""focus"",""4"",""34995""
""focus"",""4"",""46564""
","""event"",""trial"",""time""
""fullscreenenter"",""1"",""4385""
","""event"",""trial"",""time""
""fullscreenexit"",""4"",""29041""
","","[{""page_index"":0,""viewing_time"":6043.799999952316},{""page_index"":1,""viewing_time"":8407.200000047684},{""page_index"":2,""viewing_time"":6892},{""page_index"":3,""viewing_time"":6597.600000023842}]","27941.5","","","","","","","","","","","","","","","","","","","","","","","",""
"pit-trial","17","229140","0.0-2.0-6.0-0.0","battery-v0.2","","""event"",""trial"",""time""
""fullscreenenter"",""1"",""4385""
""fullscreenexit"",""4"",""29041""
""blur"",""4"",""30229""
""focus"",""4"",""34995""
""blur"",""4"",""36118""
""focus"",""4"",""46564""
","""event"",""trial"",""time""
""blur"",""4"",""30229""
""blur"",""4"",""36118""
","""event"",""trial"",""time""
""focus"",""4"",""34995""
""focus"",""4"",""46564""
","""event"",""trial"",""time""
""fullscreenenter"",""1"",""4385""
","""event"",""trial"",""time""
""fullscreenexit"",""4"",""29041""
","","","-1","","","18","3004","2762","&#9854;","elianto","#FFFFF080","-1","-1","1","&#10004","[]","0","0","1","","","","","","","",""
"pit-trial","18","233999","0.0-2.0-6.1-0.1","battery-v0.2","","""event"",""trial"",""time""
""fullscreenenter"",""1"",""4385""
""fullscreenexit"",""4"",""29041""
""blur"",""4"",""30229""
""focus"",""4"",""34995""
""blur"",""4"",""36118""
""focus"",""4"",""46564""
","""event"",""trial"",""time""
""blur"",""4"",""30229""
""blur"",""4"",""36118""
","""event"",""trial"",""time""
""focus"",""4"",""34995""
""focus"",""4"",""46564""
","""event"",""trial"",""time""
""fullscreenenter"",""1"",""4385""
","""event"",""trial"",""time""
""fullscreenexit"",""4"",""29041""
","","","-1","","","18","3004","2762","&#9854;","elianto","#FFFFF080","-1","-1","1","&#10004","[]","0","0","1","","","","","","","",""
"pit-trial","19","238862","0.0-2.0-6.2-0.2","battery-v0.2","","""event"",""trial"",""time""
""fullscreenenter"",""1"",""4385""
""fullscreenexit"",""4"",""29041""
""blur"",""4"",""30229""
""focus"",""4"",""34995""
""blur"",""4"",""36118""
""focus"",""4"",""46564""
","""event"",""trial"",""time""
""blur"",""4"",""30229""
""blur"",""4"",""36118""
","""event"",""trial"",""time""
""focus"",""4"",""34995""
""focus"",""4"",""46564""
","""event"",""trial"",""time""
""fullscreenenter"",""1"",""4385""
","""event"",""trial"",""time""
""fullscreenexit"",""4"",""29041""
","","","-1","","","18","3004","2762","&#9854;","elianto","#FFFFF080","-1","-1","1","&#10004","[]","0","0","1","","","","","","","",""
"pit-trial","20","243738","0.0-2.0-6.3-0.3","battery-v0.2","","""event"",""trial"",""time""
""fullscreenenter"",""1"",""4385""
""fullscreenexit"",""4"",""29041""
""blur"",""4"",""30229""
""focus"",""4"",""34995""
""blur"",""4"",""36118""
""focus"",""4"",""46564""
","""event"",""trial"",""time""
""blur"",""4"",""30229""
""blur"",""4"",""36118""
","""event"",""trial"",""time""
""focus"",""4"",""34995""
""focus"",""4"",""46564""
","""event"",""trial"",""time""
""fullscreenenter"",""1"",""4385""
","""event"",""trial"",""time""
""fullscreenexit"",""4"",""29041""
","","","-1","","","18","3004","2762","&#9854;","elianto","#FFFFF080","-1","-1","1","&#10004","[]","0","0","1","","","","","","","",""
"pit-trial","21","248603","0.0-2.0-6.4-0.4","battery-v0.2","","""event"",""trial"",""time""
""fullscreenenter"",""1"",""4385""
""fullscreenexit"",""4"",""29041""
""blur"",""4"",""30229""
""focus"",""4"",""34995""
""blur"",""4"",""36118""
""focus"",""4"",""46564""
","""event"",""trial"",""time""
""blur"",""4"",""30229""
""blur"",""4"",""36118""
","""event"",""trial"",""time""
""focus"",""4"",""34995""
""focus"",""4"",""46564""
","""event"",""trial"",""time""
""fullscreenenter"",""1"",""4385""
","""event"",""trial"",""time""
""fullscreenexit"",""4"",""29041""
","","","-1","","","18","3004","2762","&#9854;","elianto","#FFFFF080","-1","-1","1","&#10004","[]","0","0","1","","","","","","","",""
"pit-instructions","22","402737","0.0-2.0-7.0","battery-v0.2","","""event"",""trial"",""time""
""fullscreenenter"",""1"",""4385""
""fullscreenexit"",""4"",""29041""
""blur"",""4"",""30229""
""focus"",""4"",""34995""
""blur"",""4"",""36118""
""focus"",""4"",""46564""
","""event"",""trial"",""time""
""blur"",""4"",""30229""
""blur"",""4"",""36118""
","""event"",""trial"",""time""
""focus"",""4"",""34995""
""focus"",""4"",""46564""
","""event"",""trial"",""time""
""fullscreenenter"",""1"",""4385""
","""event"",""trial"",""time""
""fullscreenexit"",""4"",""29041""
","","[{""page_index"":0,""viewing_time"":8634.099999904633},{""page_index"":1,""viewing_time"":9316.800000071526},{""page_index"":2,""viewing_time"":9421.799999952316},{""page_index"":3,""viewing_time"":9273.600000023842},{""page_index"":4,""viewing_time"":9473.100000023842},{""page_index"":5,""viewing_time"":10101.799999952316},{""page_index"":6,""viewing_time"":5278.5},{""page_index"":7,""viewing_time"":8715.800000071526},{""page_index"":8,""viewing_time"":12183.899999976158},{""page_index"":9,""viewing_time"":6889.899999976158},{""page_index"":10,""viewing_time"":8262.399999976158},{""page_index"":11,""viewing_time"":7437.300000071526},{""page_index"":12,""viewing_time"":8429.199999928474},{""page_index"":13,""viewing_time"":8612.200000047684},{""page_index"":14,""viewing_time"":9799.100000023842},{""page_index"":15,""viewing_time"":6379.199999928474},{""page_index"":16,""viewing_time"":7769.800000071526},{""page_index"":17,""viewing_time"":8148.099999904633}]","154127","","","","","","","","","","","","","","","","","","","","","","","",""
"pit-trial","23","407610","0.0-2.0-8.0-0.0","battery-v0.2","","""event"",""trial"",""time""
""fullscreenenter"",""1"",""4385""
""fullscreenexit"",""4"",""29041""
""blur"",""4"",""30229""
""focus"",""4"",""34995""
""blur"",""4"",""36118""
""focus"",""4"",""46564""
","""event"",""trial"",""time""
""blur"",""4"",""30229""
""blur"",""4"",""36118""
","""event"",""trial"",""time""
""focus"",""4"",""34995""
""focus"",""4"",""46564""
","""event"",""trial"",""time""
""fullscreenenter"",""1"",""4385""
","""event"",""trial"",""time""
""fullscreenexit"",""4"",""29041""
","","","-1","","","18","3004","2762","&#9776;","elianto","#3366ff99"," ","-1","0","0","[]","0","0","1","","","","","","","",""
"pit-trial","24","411005","0.0-2.0-8.0-1.0","battery-v0.2","","""event"",""trial"",""time""
""fullscreenenter"",""1"",""4385""
""fullscreenexit"",""4"",""29041""
""blur"",""4"",""30229""
""focus"",""4"",""34995""
""blur"",""4"",""36118""
""focus"",""4"",""46564""
","""event"",""trial"",""time""
""blur"",""4"",""30229""
""blur"",""4"",""36118""
","""event"",""trial"",""time""
""focus"",""4"",""34995""
""focus"",""4"",""46564""
","""event"",""trial"",""time""
""fullscreenenter"",""1"",""4385""
","""event"",""trial"",""time""
""fullscreenexit"",""4"",""29041""
","","","538.8000000715256","","","18","3004","2762","&#9776;","elianto","#3366ff99"," "," ","1","+10","[1389.8999999761581]","1","0","1","","","","","","","",""
"pit-trial","25","414431","0.0-2.0-8.0-2.0","battery-v0.2","","""event"",""trial"",""time""
""fullscreenenter"",""1"",""4385""
""fullscreenexit"",""4"",""29041""
""blur"",""4"",""30229""
""focus"",""4"",""34995""
""blur"",""4"",""36118""
""focus"",""4"",""46564""
","""event"",""trial"",""time""
""blur"",""4"",""30229""
""blur"",""4"",""36118""
","""event"",""trial"",""time""
""focus"",""4"",""34995""
""focus"",""4"",""46564""
","""event"",""trial"",""time""
""fullscreenenter"",""1"",""4385""
","""event"",""trial"",""time""
""fullscreenexit"",""4"",""29041""
","","","572","","","18","3004","2762","&#9776;","elianto","#3366ff99"," "," ","1","+10","[1423.9000000953674]","1","0","1","","","","","","","",""
"pit-trial","26","417851","0.0-2.0-8.0-3.0","battery-v0.2","","""event"",""trial"",""time""
""fullscreenenter"",""1"",""4385""
""fullscreenexit"",""4"",""29041""
""blur"",""4"",""30229""
""focus"",""4"",""34995""
""blur"",""4"",""36118""
""focus"",""4"",""46564""
","""event"",""trial"",""time""
""blur"",""4"",""30229""
""blur"",""4"",""36118""
","""event"",""trial"",""time""
""focus"",""4"",""34995""
""focus"",""4"",""46564""
","""event"",""trial"",""time""
""fullscreenenter"",""1"",""4385""
","""event"",""trial"",""time""
""fullscreenexit"",""4"",""29041""
","","","563.2999999523163","","","18","3004","2762","&#9776;","elianto","#3366ff99"," "," ","1","0","[1413.1999999284744]","1","0","1","","","","","","","",""
"pit-trial","27","421190","0.0-2.0-8.0-4.0","battery-v0.2","","""event"",""trial"",""time""
""fullscreenenter"",""1"",""4385""
""fullscreenexit"",""4"",""29041""
""blur"",""4"",""30229""
""focus"",""4"",""34995""
""blur"",""4"",""36118""
""focus"",""4"",""46564""
","""event"",""trial"",""time""
""blur"",""4"",""30229""
""blur"",""4"",""36118""
","""event"",""trial"",""time""
""focus"",""4"",""34995""
""focus"",""4"",""46564""
","""event"",""trial"",""time""
""fullscreenenter"",""1"",""4385""
","""event"",""trial"",""time""
""fullscreenexit"",""4"",""29041""
","","","478.5","","","18","3004","2762","&#9776;","elianto","#3366ff99"," "," ","1","+10","[1329]","1","0","1","","","","","","","",""
"call-function","28","421194","0.0-2.0-9.0","battery-v0.2","","""event"",""trial"",""time""
""fullscreenenter"",""1"",""4385""
""fullscreenexit"",""4"",""29041""
""blur"",""4"",""30229""
""focus"",""4"",""34995""
""blur"",""4"",""36118""
""focus"",""4"",""46564""
","""event"",""trial"",""time""
""blur"",""4"",""30229""
""blur"",""4"",""36118""
","""event"",""trial"",""time""
""focus"",""4"",""34995""
""focus"",""4"",""46564""
","""event"",""trial"",""time""
""fullscreenenter"",""1"",""4385""
","""event"",""trial"",""time""
""fullscreenexit"",""4"",""29041""
","","","","","","","","","","","","","","","","","","","","","","","","","","",""
"pit-instructions","29","465462","0.0-2.0-10.0","battery-v0.2","","""event"",""trial"",""time""
""fullscreenenter"",""1"",""4385""
""fullscreenexit"",""4"",""29041""
""blur"",""4"",""30229""
""focus"",""4"",""34995""
""blur"",""4"",""36118""
""focus"",""4"",""46564""
","""event"",""trial"",""time""
""blur"",""4"",""30229""
""blur"",""4"",""36118""
","""event"",""trial"",""time""
""focus"",""4"",""34995""
""focus"",""4"",""46564""
","""event"",""trial"",""time""
""fullscreenenter"",""1"",""4385""
","""event"",""trial"",""time""
""fullscreenexit"",""4"",""29041""
","","[{""page_index"":0,""viewing_time"":6787.799999952316},{""page_index"":1,""viewing_time"":9371.799999952316},{""page_index"":2,""viewing_time"":10401.100000023842},{""page_index"":3,""viewing_time"":9790.600000023842},{""page_index"":4,""viewing_time"":7915.100000023842}]","44266.89999997616","","","","","","","","","","","","","","","","","","","","","","","",""
"pit-trial","30","470341","0.0-2.0-11.0-0.0","battery-v0.2","","""event"",""trial"",""time""
""fullscreenenter"",""1"",""4385""
""fullscreenexit"",""4"",""29041""
""blur"",""4"",""30229""
""focus"",""4"",""34995""
""blur"",""4"",""36118""
""focus"",""4"",""46564""
","""event"",""trial"",""time""
""blur"",""4"",""30229""
""blur"",""4"",""36118""
","""event"",""trial"",""time""
""focus"",""4"",""34995""
""focus"",""4"",""46564""
","""event"",""trial"",""time""
""fullscreenenter"",""1"",""4385""
","""event"",""trial"",""time""
""fullscreenexit"",""4"",""29041""
","","","-1","","","18","3004","2762","&#9761;","elianto","#3366ff99","-1","-1","1","+10","[]","0","0","2","","","","","","","",""
"pit-trial","31","475207","0.0-2.0-11.0-1.0","battery-v0.2","","""event"",""trial"",""time""
""fullscreenenter"",""1"",""4385""
""fullscreenexit"",""4"",""29041""
""blur"",""4"",""30229""
""focus"",""4"",""34995""
""blur"",""4"",""36118""
""focus"",""4"",""46564""
","""event"",""trial"",""time""
""blur"",""4"",""30229""
""blur"",""4"",""36118""
","""event"",""trial"",""time""
""focus"",""4"",""34995""
""focus"",""4"",""46564""
","""event"",""trial"",""time""
""fullscreenenter"",""1"",""4385""
","""event"",""trial"",""time""
""fullscreenexit"",""4"",""29041""
","","","-1","","","18","3004","2762","&#9761;","elianto","#3366ff99","-1","-1","1","+10","[]","0","0","2","","","","","","","",""
"pit-trial","32","480082","0.0-2.0-11.0-2.0","battery-v0.2","","""event"",""trial"",""time""
""fullscreenenter"",""1"",""4385""
""fullscreenexit"",""4"",""29041""
""blur"",""4"",""30229""
""focus"",""4"",""34995""
""blur"",""4"",""36118""
""focus"",""4"",""46564""
","""event"",""trial"",""time""
""blur"",""4"",""30229""
""blur"",""4"",""36118""
","""event"",""trial"",""time""
""focus"",""4"",""34995""
""focus"",""4"",""46564""
","""event"",""trial"",""time""
""fullscreenenter"",""1"",""4385""
","""event"",""trial"",""time""
""fullscreenexit"",""4"",""29041""
","","","-1","","","18","3004","2762","&#9761;","elianto","#3366ff99","-1","-1","1","+10","[]","0","0","2","","","","","","","",""
"pit-trial","33","484950","0.0-2.0-11.0-3.0","battery-v0.2","","""event"",""trial"",""time""
""fullscreenenter"",""1"",""4385""
""fullscreenexit"",""4"",""29041""
""blur"",""4"",""30229""
""focus"",""4"",""34995""
""blur"",""4"",""36118""
""focus"",""4"",""46564""
","""event"",""trial"",""time""
""blur"",""4"",""30229""
""blur"",""4"",""36118""
","""event"",""trial"",""time""
""focus"",""4"",""34995""
""focus"",""4"",""46564""
","""event"",""trial"",""time""
""fullscreenenter"",""1"",""4385""
","""event"",""trial"",""time""
""fullscreenexit"",""4"",""29041""
","","","-1","","","18","3004","2762","&#9761;","elianto","#3366ff99","-1","-1","1","0","[]","0","0","2","","","","","","","",""
"pit-trial","34","489810","0.0-2.0-11.0-4.0","battery-v0.2","","""event"",""trial"",""time""
""fullscreenenter"",""1"",""4385""
""fullscreenexit"",""4"",""29041""
""blur"",""4"",""30229""
""focus"",""4"",""34995""
""blur"",""4"",""36118""
""focus"",""4"",""46564""
","""event"",""trial"",""time""
""blur"",""4"",""30229""
""blur"",""4"",""36118""
","""event"",""trial"",""time""
""focus"",""4"",""34995""
""focus"",""4"",""46564""
","""event"",""trial"",""time""
""fullscreenenter"",""1"",""4385""
","""event"",""trial"",""time""
""fullscreenexit"",""4"",""29041""
","","","-1","","","18","3004","2762","&#9761;","elianto","#3366ff99","-1","-1","1","+10","[]","0","0","2","","","","","","","",""
"call-function","35","489813","0.0-2.0-12.0","battery-v0.2","","""event"",""trial"",""time""
""fullscreenenter"",""1"",""4385""
""fullscreenexit"",""4"",""29041""
""blur"",""4"",""30229""
""focus"",""4"",""34995""
""blur"",""4"",""36118""
""focus"",""4"",""46564""
","""event"",""trial"",""time""
""blur"",""4"",""30229""
""blur"",""4"",""36118""
","""event"",""trial"",""time""
""focus"",""4"",""34995""
""focus"",""4"",""46564""
","""event"",""trial"",""time""
""fullscreenenter"",""1"",""4385""
","""event"",""trial"",""time""
""fullscreenexit"",""4"",""29041""
","","","","","","","","","","","","","","","","","","","","","","","","","","",""
"pit-instructions","36","527057","0.0-2.0-13.0","battery-v0.2","","""event"",""trial"",""time""
""fullscreenenter"",""1"",""4385""
""fullscreenexit"",""4"",""29041""
""blur"",""4"",""30229""
""focus"",""4"",""34995""
""blur"",""4"",""36118""
""focus"",""4"",""46564""
","""event"",""trial"",""time""
""blur"",""4"",""30229""
""blur"",""4"",""36118""
","""event"",""trial"",""time""
""focus"",""4"",""34995""
""focus"",""4"",""46564""
","""event"",""trial"",""time""
""fullscreenenter"",""1"",""4385""
","""event"",""trial"",""time""
""fullscreenexit"",""4"",""29041""
","","[{""page_index"":0,""viewing_time"":6394.800000071526},{""page_index"":1,""viewing_time"":8448.5},{""page_index"":2,""viewing_time"":4552.799999952316},{""page_index"":3,""viewing_time"":11148.5},{""page_index"":4,""viewing_time"":6697.300000071526}]","37242.800000071526","","","","","","","","","","","","","","","","","","","","","","","",""
"pit-trial","37","531936","0.0-2.0-14.0-0.0","battery-v0.2","","""event"",""trial"",""time""
""fullscreenenter"",""1"",""4385""
""fullscreenexit"",""4"",""29041""
""blur"",""4"",""30229""
""focus"",""4"",""34995""
""blur"",""4"",""36118""
""focus"",""4"",""46564""
","""event"",""trial"",""time""
""blur"",""4"",""30229""
""blur"",""4"",""36118""
","""event"",""trial"",""time""
""focus"",""4"",""34995""
""focus"",""4"",""46564""
","""event"",""trial"",""time""
""fullscreenenter"",""1"",""4385""
","""event"",""trial"",""time""
""fullscreenexit"",""4"",""29041""
","","","-1","","","18","3004","2762","&#9826;","elianto","#f73b6a7A","-1","-1","1","0","[]","0","0","3","","","","","","","",""
"pit-trial","38","536809","0.0-2.0-14.0-1.0","battery-v0.2","","""event"",""trial"",""time""
""fullscreenenter"",""1"",""4385""
""fullscreenexit"",""4"",""29041""
""blur"",""4"",""30229""
""focus"",""4"",""34995""
""blur"",""4"",""36118""
""focus"",""4"",""46564""
","""event"",""trial"",""time""
""blur"",""4"",""30229""
""blur"",""4"",""36118""
","""event"",""trial"",""time""
""focus"",""4"",""34995""
""focus"",""4"",""46564""
","""event"",""trial"",""time""
""fullscreenenter"",""1"",""4385""
","""event"",""trial"",""time""
""fullscreenexit"",""4"",""29041""
","","","-1","","","18","3004","2762","&#9826;","elianto","#f73b6a7A","-1","-1","1","0","[]","0","0","3","","","","","","","",""
"pit-trial","39","541678","0.0-2.0-14.0-2.0","battery-v0.2","","""event"",""trial"",""time""
""fullscreenenter"",""1"",""4385""
""fullscreenexit"",""4"",""29041""
""blur"",""4"",""30229""
""focus"",""4"",""34995""
""blur"",""4"",""36118""
""focus"",""4"",""46564""
","""event"",""trial"",""time""
""blur"",""4"",""30229""
""blur"",""4"",""36118""
","""event"",""trial"",""time""
""focus"",""4"",""34995""
""focus"",""4"",""46564""
","""event"",""trial"",""time""
""fullscreenenter"",""1"",""4385""
","""event"",""trial"",""time""
""fullscreenexit"",""4"",""29041""
","","","-1","","","18","3004","2762","&#9826;","elianto","#f73b6a7A","-1","-1","1","0","[]","0","0","3","","","","","","","",""
"pit-trial","40","546551","0.0-2.0-14.0-3.0","battery-v0.2","","""event"",""trial"",""time""
""fullscreenenter"",""1"",""4385""
""fullscreenexit"",""4"",""29041""
""blur"",""4"",""30229""
""focus"",""4"",""34995""
""blur"",""4"",""36118""
""focus"",""4"",""46564""
","""event"",""trial"",""time""
""blur"",""4"",""30229""
""blur"",""4"",""36118""
","""event"",""trial"",""time""
""focus"",""4"",""34995""
""focus"",""4"",""46564""
","""event"",""trial"",""time""
""fullscreenenter"",""1"",""4385""
","""event"",""trial"",""time""
""fullscreenexit"",""4"",""29041""
","","","-1","","","18","3004","2762","&#9826;","elianto","#f73b6a7A","-1","-1","1","-10","[]","0","0","3","","","","","","","",""
"pit-trial","41","551406","0.0-2.0-14.0-4.0","battery-v0.2","","""event"",""trial"",""time""
""fullscreenenter"",""1"",""4385""
""fullscreenexit"",""4"",""29041""
""blur"",""4"",""30229""
""focus"",""4"",""34995""
""blur"",""4"",""36118""
""focus"",""4"",""46564""
","""event"",""trial"",""time""
""blur"",""4"",""30229""
""blur"",""4"",""36118""
","""event"",""trial"",""time""
""focus"",""4"",""34995""
""focus"",""4"",""46564""
","""event"",""trial"",""time""
""fullscreenenter"",""1"",""4385""
","""event"",""trial"",""time""
""fullscreenexit"",""4"",""29041""
","","","-1","","","18","3004","2762","&#9826;","elianto","#f73b6a7A","-1","-1","1","0","[]","0","0","3","","","","","","","",""
"call-function","42","551409","0.0-2.0-15.0","battery-v0.2","","""event"",""trial"",""time""
""fullscreenenter"",""1"",""4385""
""fullscreenexit"",""4"",""29041""
""blur"",""4"",""30229""
""focus"",""4"",""34995""
""blur"",""4"",""36118""
""focus"",""4"",""46564""
","""event"",""trial"",""time""
""blur"",""4"",""30229""
""blur"",""4"",""36118""
","""event"",""trial"",""time""
""focus"",""4"",""34995""
""focus"",""4"",""46564""
","""event"",""trial"",""time""
""fullscreenenter"",""1"",""4385""
","""event"",""trial"",""time""
""fullscreenexit"",""4"",""29041""
","","","","","","","","","","","","","","","","","","","","","","","","","","",""
"pit-instructions","43","581607","0.0-2.0-16.0","battery-v0.2","","""event"",""trial"",""time""
""fullscreenenter"",""1"",""4385""
""fullscreenexit"",""4"",""29041""
""blur"",""4"",""30229""
""focus"",""4"",""34995""
""blur"",""4"",""36118""
""focus"",""4"",""46564""
","""event"",""trial"",""time""
""blur"",""4"",""30229""
""blur"",""4"",""36118""
","""event"",""trial"",""time""
""focus"",""4"",""34995""
""focus"",""4"",""46564""
","""event"",""trial"",""time""
""fullscreenenter"",""1"",""4385""
","""event"",""trial"",""time""
""fullscreenexit"",""4"",""29041""
","","[{""page_index"":0,""viewing_time"":8516.099999904633},{""page_index"":1,""viewing_time"":9490.900000095367},{""page_index"":2,""viewing_time"":4783.5},{""page_index"":3,""viewing_time"":7404.5}]","30195.899999976158","","","","","","","","","","","","","","","","","","","","","","","",""
"pit-trial","44","586478","0.0-2.0-17.0-0.0","battery-v0.2","","""event"",""trial"",""time""
""fullscreenenter"",""1"",""4385""
""fullscreenexit"",""4"",""29041""
""blur"",""4"",""30229""
""focus"",""4"",""34995""
""blur"",""4"",""36118""
""focus"",""4"",""46564""
","""event"",""trial"",""time""
""blur"",""4"",""30229""
""blur"",""4"",""36118""
","""event"",""trial"",""time""
""focus"",""4"",""34995""
""focus"",""4"",""46564""
","""event"",""trial"",""time""
""fullscreenenter"",""1"",""4385""
","""event"",""trial"",""time""
""fullscreenexit"",""4"",""29041""
","","","-1","","","18","3004","2762","&#9789;","elianto","#f73b6a7A"," ","-1","0","-10","[2991.899999976158]","1","0","4","","","","","","","",""
"pit-trial","45","589786","0.0-2.0-17.0-1.0","battery-v0.2","","""event"",""trial"",""time""
""fullscreenenter"",""1"",""4385""
""fullscreenexit"",""4"",""29041""
""blur"",""4"",""30229""
""focus"",""4"",""34995""
""blur"",""4"",""36118""
""focus"",""4"",""46564""
","""event"",""trial"",""time""
""blur"",""4"",""30229""
""blur"",""4"",""36118""
","""event"",""trial"",""time""
""focus"",""4"",""34995""
""focus"",""4"",""46564""
","""event"",""trial"",""time""
""fullscreenenter"",""1"",""4385""
","""event"",""trial"",""time""
""fullscreenexit"",""4"",""29041""
","","","440.2999999523163","","","18","3004","2762","&#9789;","elianto","#f73b6a7A"," "," ","1","0","[1291.8999999761581]","1","0","4","","","","","","","",""
"pit-trial","46","593039","0.0-2.0-17.0-2.0","battery-v0.2","","""event"",""trial"",""time""
""fullscreenenter"",""1"",""4385""
""fullscreenexit"",""4"",""29041""
""blur"",""4"",""30229""
""focus"",""4"",""34995""
""blur"",""4"",""36118""
""focus"",""4"",""46564""
","""event"",""trial"",""time""
""blur"",""4"",""30229""
""blur"",""4"",""36118""
","""event"",""trial"",""time""
""focus"",""4"",""34995""
""focus"",""4"",""46564""
","""event"",""trial"",""time""
""fullscreenenter"",""1"",""4385""
","""event"",""trial"",""time""
""fullscreenexit"",""4"",""29041""
","","","386.89999997615814","","","18","3004","2762","&#9789;","elianto","#f73b6a7A"," "," ","1","0","[1241.2999999523163]","1","0","4","","","","","","","",""
"pit-trial","47","596335","0.0-2.0-17.0-3.0","battery-v0.2","","""event"",""trial"",""time""
""fullscreenenter"",""1"",""4385""
""fullscreenexit"",""4"",""29041""
""blur"",""4"",""30229""
""focus"",""4"",""34995""
""blur"",""4"",""36118""
""focus"",""4"",""46564""
","""event"",""trial"",""time""
""blur"",""4"",""30229""
""blur"",""4"",""36118""
","""event"",""trial"",""time""
""focus"",""4"",""34995""
""focus"",""4"",""46564""
","""event"",""trial"",""time""
""fullscreenenter"",""1"",""4385""
","""event"",""trial"",""time""
""fullscreenexit"",""4"",""29041""
","","","427.2999999523163","","","18","3004","2762","&#9789;","elianto","#f73b6a7A"," "," ","1","-10","[1277.7999999523163]","1","0","4","","","","","","","",""
"pit-trial","48","599613","0.0-2.0-17.0-4.0","battery-v0.2","","""event"",""trial"",""time""
""fullscreenenter"",""1"",""4385""
""fullscreenexit"",""4"",""29041""
""blur"",""4"",""30229""
""focus"",""4"",""34995""
""blur"",""4"",""36118""
""focus"",""4"",""46564""
","""event"",""trial"",""time""
""blur"",""4"",""30229""
""blur"",""4"",""36118""
","""event"",""trial"",""time""
""focus"",""4"",""34995""
""focus"",""4"",""46564""
","""event"",""trial"",""time""
""fullscreenenter"",""1"",""4385""
","""event"",""trial"",""time""
""fullscreenexit"",""4"",""29041""
","","","417.3000000715256","","","18","3004","2762","&#9789;","elianto","#f73b6a7A"," "," ","1","0","[1271.4000000953674]","1","0","4","","","","","","","",""
"call-function","49","599614","0.0-2.0-18.0","battery-v0.2","","""event"",""trial"",""time""
""fullscreenenter"",""1"",""4385""
""fullscreenexit"",""4"",""29041""
""blur"",""4"",""30229""
""focus"",""4"",""34995""
""blur"",""4"",""36118""
""focus"",""4"",""46564""
","""event"",""trial"",""time""
""blur"",""4"",""30229""
""blur"",""4"",""36118""
","""event"",""trial"",""time""
""focus"",""4"",""34995""
""focus"",""4"",""46564""
","""event"",""trial"",""time""
""fullscreenenter"",""1"",""4385""
","""event"",""trial"",""time""
""fullscreenexit"",""4"",""29041""
","","","","","","","","","","","","","","","","","","","","","","","","","","",""
"pit-instructions","50","681829","0.0-2.0-19.0","battery-v0.2","","""event"",""trial"",""time""
""fullscreenenter"",""1"",""4385""
""fullscreenexit"",""4"",""29041""
""blur"",""4"",""30229""
""focus"",""4"",""34995""
""blur"",""4"",""36118""
""focus"",""4"",""46564""
","""event"",""trial"",""time""
""blur"",""4"",""30229""
""blur"",""4"",""36118""
","""event"",""trial"",""time""
""focus"",""4"",""34995""
""focus"",""4"",""46564""
","""event"",""trial"",""time""
""fullscreenenter"",""1"",""4385""
","""event"",""trial"",""time""
""fullscreenexit"",""4"",""29041""
","","[{""page_index"":0,""viewing_time"":8447.400000095367},{""page_index"":1,""viewing_time"":8282},{""page_index"":2,""viewing_time"":16984.399999976158},{""page_index"":3,""viewing_time"":8814.5},{""page_index"":4,""viewing_time"":7099.5},{""page_index"":5,""viewing_time"":9204.199999928474},{""page_index"":6,""viewing_time"":9187.100000023842},{""page_index"":7,""viewing_time"":7207.800000071526},{""page_index"":8,""viewing_time"":6986.299999952316}]","82214","","","","","","","","","","","","","","","","","","","","","","","",""
"pit-comprehension","51","686806","0.0-2.0-20.0-0.0","battery-v0.2","","""event"",""trial"",""time""
""fullscreenenter"",""1"",""4385""
""fullscreenexit"",""4"",""29041""
""blur"",""4"",""30229""
""focus"",""4"",""34995""
""blur"",""4"",""36118""
""focus"",""4"",""46564""
","""event"",""trial"",""time""
""blur"",""4"",""30229""
""blur"",""4"",""36118""
","""event"",""trial"",""time""
""focus"",""4"",""34995""
""focus"",""4"",""46564""
","""event"",""trial"",""time""
""fullscreenenter"",""1"",""4385""
","""event"",""trial"",""time""
""fullscreenexit"",""4"",""29041""
","","","4969.200000047684","[""SPACE""]","0","18","3004","2762","","","","","","","","","","","","","","","","","","",""
"pit-instructions","52","692727","0.0-2.0-20.0-1.0","battery-v0.2","","""event"",""trial"",""time""
""fullscreenenter"",""1"",""4385""
""fullscreenexit"",""4"",""29041""
""blur"",""4"",""30229""
""focus"",""4"",""34995""
""blur"",""4"",""36118""
""focus"",""4"",""46564""
","""event"",""trial"",""time""
""blur"",""4"",""30229""
""blur"",""4"",""36118""
","""event"",""trial"",""time""
""focus"",""4"",""34995""
""focus"",""4"",""46564""
","""event"",""trial"",""time""
""fullscreenenter"",""1"",""4385""
","""event"",""trial"",""time""
""fullscreenexit"",""4"",""29041""
","","[{""page_index"":0,""viewing_time"":5876.5}]","5877.300000071526","","","","","","","","","","","","","","","","","","","","","","","",""
"pit-comprehension","53","700765","0.0-2.0-21.0-0.0","battery-v0.2","","""event"",""trial"",""time""
""fullscreenenter"",""1"",""4385""
""fullscreenexit"",""4"",""29041""
""blur"",""4"",""30229""
""focus"",""4"",""34995""
""blur"",""4"",""36118""
""focus"",""4"",""46564""
","""event"",""trial"",""time""
""blur"",""4"",""30229""
""blur"",""4"",""36118""
","""event"",""trial"",""time""
""focus"",""4"",""34995""
""focus"",""4"",""46564""
","""event"",""trial"",""time""
""fullscreenenter"",""1"",""4385""
","""event"",""trial"",""time""
""fullscreenexit"",""4"",""29041""
","","","8031.400000095367","[""10""]","0","18","3004","2762","","","","","","","","","","","","","","","","","","",""
"pit-instructions","54","703044","0.0-2.0-21.0-1.0","battery-v0.2","","""event"",""trial"",""time""
""fullscreenenter"",""1"",""4385""
""fullscreenexit"",""4"",""29041""
""blur"",""4"",""30229""
""focus"",""4"",""34995""
""blur"",""4"",""36118""
""focus"",""4"",""46564""
","""event"",""trial"",""time""
""blur"",""4"",""30229""
""blur"",""4"",""36118""
","""event"",""trial"",""time""
""focus"",""4"",""34995""
""focus"",""4"",""46564""
","""event"",""trial"",""time""
""fullscreenenter"",""1"",""4385""
","""event"",""trial"",""time""
""fullscreenexit"",""4"",""29041""
","","[{""page_index"":0,""viewing_time"":2232.9000000953674}]","2233.100000023842","","","","","","","","","","","","","","","","","","","","","","","",""
"pit-comprehension","55","710336","0.0-2.0-22.0-0.0","battery-v0.2","","""event"",""trial"",""time""
""fullscreenenter"",""1"",""4385""
""fullscreenexit"",""4"",""29041""
""blur"",""4"",""30229""
""focus"",""4"",""34995""
""blur"",""4"",""36118""
""focus"",""4"",""46564""
","""event"",""trial"",""time""
""blur"",""4"",""30229""
""blur"",""4"",""36118""
","""event"",""trial"",""time""
""focus"",""4"",""34995""
""focus"",""4"",""46564""
","""event"",""trial"",""time""
""fullscreenenter"",""1"",""4385""
","""event"",""trial"",""time""
""fullscreenexit"",""4"",""29041""
","","","7288.399999976158","[""0""]","0","18","3004","2762","","","","","","","","","","","","","","","","","","",""
"pit-instructions","56","712639","0.0-2.0-22.0-1.0","battery-v0.2","","""event"",""trial"",""time""
""fullscreenenter"",""1"",""4385""
""fullscreenexit"",""4"",""29041""
""blur"",""4"",""30229""
""focus"",""4"",""34995""
""blur"",""4"",""36118""
""focus"",""4"",""46564""
","""event"",""trial"",""time""
""blur"",""4"",""30229""
""blur"",""4"",""36118""
","""event"",""trial"",""time""
""focus"",""4"",""34995""
""focus"",""4"",""46564""
","""event"",""trial"",""time""
""fullscreenenter"",""1"",""4385""
","""event"",""trial"",""time""
""fullscreenexit"",""4"",""29041""
","","[{""page_index"":0,""viewing_time"":2259.5}]","2260.5","","","","","","","","","","","","","","","","","","","","","","","",""
"pit-comprehension","57","721604","0.0-2.0-23.0-0.0","battery-v0.2","","""event"",""trial"",""time""
""fullscreenenter"",""1"",""4385""
""fullscreenexit"",""4"",""29041""
""blur"",""4"",""30229""
""focus"",""4"",""34995""
""blur"",""4"",""36118""
""focus"",""4"",""46564""
","""event"",""trial"",""time""
""blur"",""4"",""30229""
""blur"",""4"",""36118""
","""event"",""trial"",""time""
""focus"",""4"",""34995""
""focus"",""4"",""46564""
","""event"",""trial"",""time""
""fullscreenenter"",""1"",""4385""
","""event"",""trial"",""time""
""fullscreenexit"",""4"",""29041""
","","","8959.100000023842","[""False""]","1","18","3004","2762","","","","","","","","","","","","","","","","","","",""
"pit-instructions","58","725823","0.0-2.0-23.0-1.0","battery-v0.2","","""event"",""trial"",""time""
""fullscreenenter"",""1"",""4385""
""fullscreenexit"",""4"",""29041""
""blur"",""4"",""30229""
""focus"",""4"",""34995""
""blur"",""4"",""36118""
""focus"",""4"",""46564""
","""event"",""trial"",""time""
""blur"",""4"",""30229""
""blur"",""4"",""36118""
","""event"",""trial"",""time""
""focus"",""4"",""34995""
""focus"",""4"",""46564""
","""event"",""trial"",""time""
""fullscreenenter"",""1"",""4385""
","""event"",""trial"",""time""
""fullscreenexit"",""4"",""29041""
","","[{""page_index"":0,""viewing_time"":4195}]","4195.600000023842","","","","","","","","","","","","","","","","","","","","","","","",""
"pit-instructions","59","727318","0.0-2.0-23.0-2.0-0.0","battery-v0.2","","""event"",""trial"",""time""
""fullscreenenter"",""1"",""4385""
""fullscreenexit"",""4"",""29041""
""blur"",""4"",""30229""
""focus"",""4"",""34995""
""blur"",""4"",""36118""
""focus"",""4"",""46564""
","""event"",""trial"",""time""
""blur"",""4"",""30229""
""blur"",""4"",""36118""
","""event"",""trial"",""time""
""focus"",""4"",""34995""
""focus"",""4"",""46564""
","""event"",""trial"",""time""
""fullscreenenter"",""1"",""4385""
","""event"",""trial"",""time""
""fullscreenexit"",""4"",""29041""
","","[{""page_index"":0,""viewing_time"":1490.5999999046326}]","1491.1999999284744","","","","","","","","","","","","","","","","","","","","","","","",""
"pit-comprehension","60","735734","0.0-2.0-23.1-0.1","battery-v0.2","","""event"",""trial"",""time""
""fullscreenenter"",""1"",""4385""
""fullscreenexit"",""4"",""29041""
""blur"",""4"",""30229""
""focus"",""4"",""34995""
""blur"",""4"",""36118""
""focus"",""4"",""46564""
","""event"",""trial"",""time""
""blur"",""4"",""30229""
""blur"",""4"",""36118""
","""event"",""trial"",""time""
""focus"",""4"",""34995""
""focus"",""4"",""46564""
","""event"",""trial"",""time""
""fullscreenenter"",""1"",""4385""
","""event"",""trial"",""time""
""fullscreenexit"",""4"",""29041""
","","","8411.200000047684","[""True""]","0","18","3004","2762","","","","","","","","","","","","","","","","","","",""
"pit-instructions","61","737931","0.0-2.0-23.1-1.1","battery-v0.2","","""event"",""trial"",""time""
""fullscreenenter"",""1"",""4385""
""fullscreenexit"",""4"",""29041""
""blur"",""4"",""30229""
""focus"",""4"",""34995""
""blur"",""4"",""36118""
""focus"",""4"",""46564""
","""event"",""trial"",""time""
""blur"",""4"",""30229""
""blur"",""4"",""36118""
","""event"",""trial"",""time""
""focus"",""4"",""34995""
""focus"",""4"",""46564""
","""event"",""trial"",""time""
""fullscreenenter"",""1"",""4385""
","""event"",""trial"",""time""
""fullscreenexit"",""4"",""29041""
","","[{""page_index"":0,""viewing_time"":2167.5}]","2168.100000023842","","","","","","","","","","","","","","","","","","","","","","","",""
"pit-comprehension","62","745560","0.0-2.0-24.0-0.0","battery-v0.2","","""event"",""trial"",""time""
""fullscreenenter"",""1"",""4385""
""fullscreenexit"",""4"",""29041""
""blur"",""4"",""30229""
""focus"",""4"",""34995""
""blur"",""4"",""36118""
""focus"",""4"",""46564""
","""event"",""trial"",""time""
""blur"",""4"",""30229""
""blur"",""4"",""36118""
","""event"",""trial"",""time""
""focus"",""4"",""34995""
""focus"",""4"",""46564""
","""event"",""trial"",""time""
""fullscreenenter"",""1"",""4385""
","""event"",""trial"",""time""
""fullscreenexit"",""4"",""29041""
","","","7622.800000071526","[""True""]","0","18","3004","2762","","","","","","","","","","","","","","","","","","",""
"pit-instructions","63","747662","0.0-2.0-24.0-1.0","battery-v0.2","","""event"",""trial"",""time""
""fullscreenenter"",""1"",""4385""
""fullscreenexit"",""4"",""29041""
""blur"",""4"",""30229""
""focus"",""4"",""34995""
""blur"",""4"",""36118""
""focus"",""4"",""46564""
""blur"",""64"",""755367""
""focus"",""64"",""756078""
","""event"",""trial"",""time""
""blur"",""4"",""30229""
""blur"",""4"",""36118""
""blur"",""64"",""755367""
","""event"",""trial"",""time""
""focus"",""4"",""34995""
""focus"",""4"",""46564""
""focus"",""64"",""756078""
","""event"",""trial"",""time""
""fullscreenenter"",""1"",""4385""
","""event"",""trial"",""time""
""fullscreenexit"",""4"",""29041""
","","[{""page_index"":0,""viewing_time"":2075.899999976158}]","2076.8000000715256","","","","","","","","","","","","","","","","","","","","","","","",""
"pit-comprehension","64","756121","0.0-2.0-25.0-0.0","battery-v0.2","","""event"",""trial"",""time""
""fullscreenenter"",""1"",""4385""
""fullscreenexit"",""4"",""29041""
""blur"",""4"",""30229""
""focus"",""4"",""34995""
""blur"",""4"",""36118""
""focus"",""4"",""46564""
""blur"",""64"",""755367""
""focus"",""64"",""756078""
""blur"",""65"",""758693""
""focus"",""65"",""758841""
","""event"",""trial"",""time""
""blur"",""4"",""30229""
""blur"",""4"",""36118""
""blur"",""64"",""755367""
""blur"",""65"",""758693""
","""event"",""trial"",""time""
""focus"",""4"",""34995""
""focus"",""4"",""46564""
""focus"",""64"",""756078""
""focus"",""65"",""758841""
","""event"",""trial"",""time""
""fullscreenenter"",""1"",""4385""
","""event"",""trial"",""time""
""fullscreenexit"",""4"",""29041""
","","","8452.299999952316","[""True""]","0","18","3004","2762","","","","","","","","","","","","","","","","","","",""
"pit-instructions","65","762620","0.0-2.0-25.0-1.0","battery-v0.2","","""event"",""trial"",""time""
""fullscreenenter"",""1"",""4385""
""fullscreenexit"",""4"",""29041""
""blur"",""4"",""30229""
""focus"",""4"",""34995""
""blur"",""4"",""36118""
""focus"",""4"",""46564""
""blur"",""64"",""755367""
""focus"",""64"",""756078""
""blur"",""65"",""758693""
""focus"",""65"",""758841""
","""event"",""trial"",""time""
""blur"",""4"",""30229""
""blur"",""4"",""36118""
""blur"",""64"",""755367""
""blur"",""65"",""758693""
","""event"",""trial"",""time""
""focus"",""4"",""34995""
""focus"",""4"",""46564""
""focus"",""64"",""756078""
""focus"",""65"",""758841""
","""event"",""trial"",""time""
""fullscreenenter"",""1"",""4385""
","""event"",""trial"",""time""
""fullscreenexit"",""4"",""29041""
","","[{""page_index"":0,""viewing_time"":6457.900000095367}]","6458.400000095367","","","","","","","","","","","","","","","","","","","","","","","",""
"pit-comprehension","66","769048","0.0-2.0-26.0-0.0","battery-v0.2","","""event"",""trial"",""time""
""fullscreenenter"",""1"",""4385""
""fullscreenexit"",""4"",""29041""
""blur"",""4"",""30229""
""focus"",""4"",""34995""
""blur"",""4"",""36118""
""focus"",""4"",""46564""
""blur"",""64"",""755367""
""focus"",""64"",""756078""
""blur"",""65"",""758693""
""focus"",""65"",""758841""
","""event"",""trial"",""time""
""blur"",""4"",""30229""
""blur"",""4"",""36118""
""blur"",""64"",""755367""
""blur"",""65"",""758693""
","""event"",""trial"",""time""
""focus"",""4"",""34995""
""focus"",""4"",""46564""
""focus"",""64"",""756078""
""focus"",""65"",""758841""
","""event"",""trial"",""time""
""fullscreenenter"",""1"",""4385""
","""event"",""trial"",""time""
""fullscreenexit"",""4"",""29041""
","","","6421.299999952316","[""False""]","0","18","3004","2762","","","","","","","","","","","","","","","","","","",""
"pit-instructions","67","770571","0.0-2.0-26.0-1.0","battery-v0.2","","""event"",""trial"",""time""
""fullscreenenter"",""1"",""4385""
""fullscreenexit"",""4"",""29041""
""blur"",""4"",""30229""
""focus"",""4"",""34995""
""blur"",""4"",""36118""
""focus"",""4"",""46564""
""blur"",""64"",""755367""
""focus"",""64"",""756078""
""blur"",""65"",""758693""
""focus"",""65"",""758841""
","""event"",""trial"",""time""
""blur"",""4"",""30229""
""blur"",""4"",""36118""
""blur"",""64"",""755367""
""blur"",""65"",""758693""
","""event"",""trial"",""time""
""focus"",""4"",""34995""
""focus"",""4"",""46564""
""focus"",""64"",""756078""
""focus"",""65"",""758841""
","""event"",""trial"",""time""
""fullscreenenter"",""1"",""4385""
","""event"",""trial"",""time""
""fullscreenexit"",""4"",""29041""
","","[{""page_index"":0,""viewing_time"":1475.1000000238419}]","1475.7000000476837","","","","","","","","","","","","","","","","","","","","","","","",""
"pit-instructions","68","792733","0.0-3.0","battery-v0.2","","""event"",""trial"",""time""
""fullscreenenter"",""1"",""4385""
""fullscreenexit"",""4"",""29041""
""blur"",""4"",""30229""
""focus"",""4"",""34995""
""blur"",""4"",""36118""
""focus"",""4"",""46564""
""blur"",""64"",""755367""
""focus"",""64"",""756078""
""blur"",""65"",""758693""
""focus"",""65"",""758841""
","""event"",""trial"",""time""
""blur"",""4"",""30229""
""blur"",""4"",""36118""
""blur"",""64"",""755367""
""blur"",""65"",""758693""
","""event"",""trial"",""time""
""focus"",""4"",""34995""
""focus"",""4"",""46564""
""focus"",""64"",""756078""
""focus"",""65"",""758841""
","""event"",""trial"",""time""
""fullscreenenter"",""1"",""4385""
","""event"",""trial"",""time""
""fullscreenexit"",""4"",""29041""
","","[{""page_index"":0,""viewing_time"":5554},{""page_index"":1,""viewing_time"":8535.600000023842},{""page_index"":2,""viewing_time"":8068.699999928474}]","22159","","","","","","","","","","","","","","","","","","","","","","","",""
"pit-trial","69","797603","0.0-4.0","battery-v0.2","","""event"",""trial"",""time""
""fullscreenenter"",""1"",""4385""
""fullscreenexit"",""4"",""29041""
""blur"",""4"",""30229""
""focus"",""4"",""34995""
""blur"",""4"",""36118""
""focus"",""4"",""46564""
""blur"",""64"",""755367""
""focus"",""64"",""756078""
""blur"",""65"",""758693""
""focus"",""65"",""758841""
","""event"",""trial"",""time""
""blur"",""4"",""30229""
""blur"",""4"",""36118""
""blur"",""64"",""755367""
""blur"",""65"",""758693""
","""event"",""trial"",""time""
""focus"",""4"",""34995""
""focus"",""4"",""46564""
""focus"",""64"",""756078""
""focus"",""65"",""758841""
","""event"",""trial"",""time""
""fullscreenenter"",""1"",""4385""
","""event"",""trial"",""time""
""fullscreenexit"",""4"",""29041""
","","","-1","","","18","3004","2762","&#9752;","elianto","#f73b6a7A"," ","-1","0","-10","[]","0","1","","","3004","1","3","3","lose","go","0"
"pit-trial","70","801417","0.0-5.0","battery-v0.2","","""event"",""trial"",""time""
""fullscreenenter"",""1"",""4385""
""fullscreenexit"",""4"",""29041""
""blur"",""4"",""30229""
""focus"",""4"",""34995""
""blur"",""4"",""36118""
""focus"",""4"",""46564""
""blur"",""64"",""755367""
""focus"",""64"",""756078""
""blur"",""65"",""758693""
""focus"",""65"",""758841""
","""event"",""trial"",""time""
""blur"",""4"",""30229""
""blur"",""4"",""36118""
""blur"",""64"",""755367""
""blur"",""65"",""758693""
","""event"",""trial"",""time""
""focus"",""4"",""34995""
""focus"",""4"",""46564""
""focus"",""64"",""756078""
""focus"",""65"",""758841""
","""event"",""trial"",""time""
""fullscreenenter"",""1"",""4385""
","""event"",""trial"",""time""
""fullscreenexit"",""4"",""29041""
","","","945.8000000715256","","","18","3004","2762","&#9733;","elianto","#3366ff99","-1"," ","0","0","[1796.7000000476837]","1","1","","","3004","2","2","2","win","no-go","0"
"pit-trial","71","805082","0.0-6.0","battery-v0.2","","""event"",""trial"",""time""
""fullscreenenter"",""1"",""4385""
""fullscreenexit"",""4"",""29041""
""blur"",""4"",""30229""
""focus"",""4"",""34995""
""blur"",""4"",""36118""
""focus"",""4"",""46564""
""blur"",""64"",""755367""
""focus"",""64"",""756078""
""blur"",""65"",""758693""
""focus"",""65"",""758841""
","""event"",""trial"",""time""
""blur"",""4"",""30229""
""blur"",""4"",""36118""
""blur"",""64"",""755367""
""blur"",""65"",""758693""
","""event"",""trial"",""time""
""focus"",""4"",""34995""
""focus"",""4"",""46564""
""focus"",""64"",""756078""
""focus"",""65"",""758841""
","""event"",""trial"",""time""
""fullscreenenter"",""1"",""4385""
","""event"",""trial"",""time""
""fullscreenexit"",""4"",""29041""
","","","806.5999999046326","","","18","3004","2762","&#9728;","elianto","#f73b6a7A","-1"," ","0","0","[1657.6999999284744]","1","1","","","3004","3","0","4","lose","no-go","1"
"pit-trial","72","808724","0.0-7.0","battery-v0.2","","""event"",""trial"",""time""
""fullscreenenter"",""1"",""4385""
""fullscreenexit"",""4"",""29041""
""blur"",""4"",""30229""
""focus"",""4"",""34995""
""blur"",""4"",""36118""
""focus"",""4"",""46564""
""blur"",""64"",""755367""
""focus"",""64"",""756078""
""blur"",""65"",""758693""
""focus"",""65"",""758841""
","""event"",""trial"",""time""
""blur"",""4"",""30229""
""blur"",""4"",""36118""
""blur"",""64"",""755367""
""blur"",""65"",""758693""
","""event"",""trial"",""time""
""focus"",""4"",""34995""
""focus"",""4"",""46564""
""focus"",""64"",""756078""
""focus"",""65"",""758841""
","""event"",""trial"",""time""
""fullscreenenter"",""1"",""4385""
","""event"",""trial"",""time""
""fullscreenexit"",""4"",""29041""
","","","771.1000000238419","","","18","3004","2762","&#9730;","elianto","#3366ff99"," "," ","1","+10","[1624.1000000238419]","1","1","","","3004","4","1","1","win","go","0"
"pit-trial","73","812975","0.0-8.0","battery-v0.2","","""event"",""trial"",""time""
""fullscreenenter"",""1"",""4385""
""fullscreenexit"",""4"",""29041""
""blur"",""4"",""30229""
""focus"",""4"",""34995""
""blur"",""4"",""36118""
""focus"",""4"",""46564""
""blur"",""64"",""755367""
""focus"",""64"",""756078""
""blur"",""65"",""758693""
""focus"",""65"",""758841""
","""event"",""trial"",""time""
""blur"",""4"",""30229""
""blur"",""4"",""36118""
""blur"",""64"",""755367""
""blur"",""65"",""758693""
","""event"",""trial"",""time""
""focus"",""4"",""34995""
""focus"",""4"",""46564""
""focus"",""64"",""756078""
""focus"",""65"",""758841""
","""event"",""trial"",""time""
""fullscreenenter"",""1"",""4385""
","""event"",""trial"",""time""
""fullscreenexit"",""4"",""29041""
","","","1388.9000000953674","","","18","3004","2762","&#9752;","elianto","#f73b6a7A"," "," ","1","0","[2239.3000000715256]","1","1","","","3004","5","3","3","lose","go","0"
"pit-trial","74","816748","0.0-9.0","battery-v0.2","","""event"",""trial"",""time""
""fullscreenenter"",""1"",""4385""
""fullscreenexit"",""4"",""29041""
""blur"",""4"",""30229""
""focus"",""4"",""34995""
""blur"",""4"",""36118""
""focus"",""4"",""46564""
""blur"",""64"",""755367""
""focus"",""64"",""756078""
""blur"",""65"",""758693""
""focus"",""65"",""758841""
","""event"",""trial"",""time""
""blur"",""4"",""30229""
""blur"",""4"",""36118""
""blur"",""64"",""755367""
""blur"",""65"",""758693""
","""event"",""trial"",""time""
""focus"",""4"",""34995""
""focus"",""4"",""46564""
""focus"",""64"",""756078""
""focus"",""65"",""758841""
","""event"",""trial"",""time""
""fullscreenenter"",""1"",""4385""
","""event"",""trial"",""time""
""fullscreenexit"",""4"",""29041""
","","","905.3000000715256","","","18","3004","2762","&#9730;","elianto","#3366ff99"," "," ","1","+10","[1756]","1","1","","","3004","6","1","1","win","go","0"
"pit-trial","75","820559","0.0-10.0","battery-v0.2","","""event"",""trial"",""time""
""fullscreenenter"",""1"",""4385""
""fullscreenexit"",""4"",""29041""
""blur"",""4"",""30229""
""focus"",""4"",""34995""
""blur"",""4"",""36118""
""focus"",""4"",""46564""
""blur"",""64"",""755367""
""focus"",""64"",""756078""
""blur"",""65"",""758693""
""focus"",""65"",""758841""
","""event"",""trial"",""time""
""blur"",""4"",""30229""
""blur"",""4"",""36118""
""blur"",""64"",""755367""
""blur"",""65"",""758693""
","""event"",""trial"",""time""
""focus"",""4"",""34995""
""focus"",""4"",""46564""
""focus"",""64"",""756078""
""focus"",""65"",""758841""
","""event"",""trial"",""time""
""fullscreenenter"",""1"",""4385""
","""event"",""trial"",""time""
""fullscreenexit"",""4"",""29041""
","","","947","","","18","3004","2762","&#9728;","elianto","#f73b6a7A","-1"," ","0","-10","[1797.1000000238419]","1","1","","","3004","7","0","4","lose","no-go","0"
"pit-trial","76","825413","0.0-11.0","battery-v0.2","","""event"",""trial"",""time""
""fullscreenenter"",""1"",""4385""
""fullscreenexit"",""4"",""29041""
""blur"",""4"",""30229""
""focus"",""4"",""34995""
""blur"",""4"",""36118""
""focus"",""4"",""46564""
""blur"",""64"",""755367""
""focus"",""64"",""756078""
""blur"",""65"",""758693""
""focus"",""65"",""758841""
","""event"",""trial"",""time""
""blur"",""4"",""30229""
""blur"",""4"",""36118""
""blur"",""64"",""755367""
""blur"",""65"",""758693""
","""event"",""trial"",""time""
""focus"",""4"",""34995""
""focus"",""4"",""46564""
""focus"",""64"",""756078""
""focus"",""65"",""758841""
","""event"",""trial"",""time""
""fullscreenenter"",""1"",""4385""
","""event"",""trial"",""time""
""fullscreenexit"",""4"",""29041""
","","","-1","","","18","3004","2762","&#9733;","elianto","#3366ff99","-1","-1","1","+10","[]","0","1","","","3004","8","2","2","win","no-go","0"
"pit-trial","77","828996","0.0-12.0","battery-v0.2","","""event"",""trial"",""time""
""fullscreenenter"",""1"",""4385""
""fullscreenexit"",""4"",""29041""
""blur"",""4"",""30229""
""focus"",""4"",""34995""
""blur"",""4"",""36118""
""focus"",""4"",""46564""
""blur"",""64"",""755367""
""focus"",""64"",""756078""
""blur"",""65"",""758693""
""focus"",""65"",""758841""
","""event"",""trial"",""time""
""blur"",""4"",""30229""
""blur"",""4"",""36118""
""blur"",""64"",""755367""
""blur"",""65"",""758693""
","""event"",""trial"",""time""
""focus"",""4"",""34995""
""focus"",""4"",""46564""
""focus"",""64"",""756078""
""focus"",""65"",""758841""
","""event"",""trial"",""time""
""fullscreenenter"",""1"",""4385""
","""event"",""trial"",""time""
""fullscreenexit"",""4"",""29041""
","","","728.8000000715256","","","18","3004","2762","&#9728;","elianto","#f73b6a7A","-1"," ","0","-10","[1579.2000000476837]","1","1","","","3004","9","0","4","lose","no-go","0"
"pit-trial","78","833803","0.0-13.0","battery-v0.2","","""event"",""trial"",""time""
""fullscreenenter"",""1"",""4385""
""fullscreenexit"",""4"",""29041""
""blur"",""4"",""30229""
""focus"",""4"",""34995""
""blur"",""4"",""36118""
""focus"",""4"",""46564""
""blur"",""64"",""755367""
""focus"",""64"",""756078""
""blur"",""65"",""758693""
""focus"",""65"",""758841""
","""event"",""trial"",""time""
""blur"",""4"",""30229""
""blur"",""4"",""36118""
""blur"",""64"",""755367""
""blur"",""65"",""758693""
","""event"",""trial"",""time""
""focus"",""4"",""34995""
""focus"",""4"",""46564""
""focus"",""64"",""756078""
""focus"",""65"",""758841""
","""event"",""trial"",""time""
""fullscreenenter"",""1"",""4385""
","""event"",""trial"",""time""
""fullscreenexit"",""4"",""29041""
","","","1949.7000000476837","","","18","3004","2762","&#9733;","elianto","#3366ff99","-1"," ","0","+10","[2803.3000000715256]","1","1","","","3004","10","2","2","win","no-go","1"
"pit-trial","79","837422","0.0-14.0","battery-v0.2","","""event"",""trial"",""time""
""fullscreenenter"",""1"",""4385""
""fullscreenexit"",""4"",""29041""
""blur"",""4"",""30229""
""focus"",""4"",""34995""
""blur"",""4"",""36118""
""focus"",""4"",""46564""
""blur"",""64"",""755367""
""focus"",""64"",""756078""
""blur"",""65"",""758693""
""focus"",""65"",""758841""
","""event"",""trial"",""time""
""blur"",""4"",""30229""
""blur"",""4"",""36118""
""blur"",""64"",""755367""
""blur"",""65"",""758693""
","""event"",""trial"",""time""
""focus"",""4"",""34995""
""focus"",""4"",""46564""
""focus"",""64"",""756078""
""focus"",""65"",""758841""
","""event"",""trial"",""time""
""fullscreenenter"",""1"",""4385""
","""event"",""trial"",""time""
""fullscreenexit"",""4"",""29041""
","","","764.7000000476837","","","18","3004","2762","&#9730;","elianto","#3366ff99"," "," ","1","+10","[1614.8999999761581]","1","1","","","3004","11","1","1","win","go","0"
"pit-trial","80","840873","0.0-15.0","battery-v0.2","","""event"",""trial"",""time""
""fullscreenenter"",""1"",""4385""
""fullscreenexit"",""4"",""29041""
""blur"",""4"",""30229""
""focus"",""4"",""34995""
""blur"",""4"",""36118""
""focus"",""4"",""46564""
""blur"",""64"",""755367""
""focus"",""64"",""756078""
""blur"",""65"",""758693""
""focus"",""65"",""758841""
","""event"",""trial"",""time""
""blur"",""4"",""30229""
""blur"",""4"",""36118""
""blur"",""64"",""755367""
""blur"",""65"",""758693""
","""event"",""trial"",""time""
""focus"",""4"",""34995""
""focus"",""4"",""46564""
""focus"",""64"",""756078""
""focus"",""65"",""758841""
","""event"",""trial"",""time""
""fullscreenenter"",""1"",""4385""
","""event"",""trial"",""time""
""fullscreenexit"",""4"",""29041""
","","","598.5","","","18","3004","2762","&#9752;","elianto","#f73b6a7A"," "," ","1","0","[1448.7999999523163]","1","1","","","3004","12","3","3","lose","go","0"
"pit-trial","81","844369","0.0-16.0","battery-v0.2","","""event"",""trial"",""time""
""fullscreenenter"",""1"",""4385""
""fullscreenexit"",""4"",""29041""
""blur"",""4"",""30229""
""focus"",""4"",""34995""
""blur"",""4"",""36118""
""focus"",""4"",""46564""
""blur"",""64"",""755367""
""focus"",""64"",""756078""
""blur"",""65"",""758693""
""focus"",""65"",""758841""
","""event"",""trial"",""time""
""blur"",""4"",""30229""
""blur"",""4"",""36118""
""blur"",""64"",""755367""
""blur"",""65"",""758693""
","""event"",""trial"",""time""
""focus"",""4"",""34995""
""focus"",""4"",""46564""
""focus"",""64"",""756078""
""focus"",""65"",""758841""
","""event"",""trial"",""time""
""fullscreenenter"",""1"",""4385""
","""event"",""trial"",""time""
""fullscreenexit"",""4"",""29041""
","","","641","","","18","3004","2762","&#9730;","elianto","#3366ff99"," "," ","1","0","[1491.6999999284744]","1","1","","","3004","13","1","1","win","go","1"
"pit-trial","82","848632","0.0-17.0","battery-v0.2","","""event"",""trial"",""time""
""fullscreenenter"",""1"",""4385""
""fullscreenexit"",""4"",""29041""
""blur"",""4"",""30229""
""focus"",""4"",""34995""
""blur"",""4"",""36118""
""focus"",""4"",""46564""
""blur"",""64"",""755367""
""focus"",""64"",""756078""
""blur"",""65"",""758693""
""focus"",""65"",""758841""
","""event"",""trial"",""time""
""blur"",""4"",""30229""
""blur"",""4"",""36118""
""blur"",""64"",""755367""
""blur"",""65"",""758693""
","""event"",""trial"",""time""
""focus"",""4"",""34995""
""focus"",""4"",""46564""
""focus"",""64"",""756078""
""focus"",""65"",""758841""
","""event"",""trial"",""time""
""fullscreenenter"",""1"",""4385""
","""event"",""trial"",""time""
""fullscreenexit"",""4"",""29041""
","","","1408.3999999761581","","","18","3004","2762","&#9728;","elianto","#f73b6a7A","-1"," ","0","-10","[2258.600000023842]","1","1","","","3004","14","0","4","lose","no-go","0"
"pit-trial","83","852174","0.0-18.0","battery-v0.2","","""event"",""trial"",""time""
""fullscreenenter"",""1"",""4385""
""fullscreenexit"",""4"",""29041""
""blur"",""4"",""30229""
""focus"",""4"",""34995""
""blur"",""4"",""36118""
""focus"",""4"",""46564""
""blur"",""64"",""755367""
""focus"",""64"",""756078""
""blur"",""65"",""758693""
""focus"",""65"",""758841""
","""event"",""trial"",""time""
""blur"",""4"",""30229""
""blur"",""4"",""36118""
""blur"",""64"",""755367""
""blur"",""65"",""758693""
","""event"",""trial"",""time""
""focus"",""4"",""34995""
""focus"",""4"",""46564""
""focus"",""64"",""756078""
""focus"",""65"",""758841""
","""event"",""trial"",""time""
""fullscreenenter"",""1"",""4385""
","""event"",""trial"",""time""
""fullscreenexit"",""4"",""29041""
","","","688","","","18","3004","2762","&#9733;","elianto","#3366ff99","-1"," ","0","0","[1538]","1","1","","","3004","15","2","2","win","no-go","0"
"pit-trial","84","855992","0.0-19.0","battery-v0.2","","""event"",""trial"",""time""
""fullscreenenter"",""1"",""4385""
""fullscreenexit"",""4"",""29041""
""blur"",""4"",""30229""
""focus"",""4"",""34995""
""blur"",""4"",""36118""
""focus"",""4"",""46564""
""blur"",""64"",""755367""
""focus"",""64"",""756078""
""blur"",""65"",""758693""
""focus"",""65"",""758841""
","""event"",""trial"",""time""
""blur"",""4"",""30229""
""blur"",""4"",""36118""
""blur"",""64"",""755367""
""blur"",""65"",""758693""
","""event"",""trial"",""time""
""focus"",""4"",""34995""
""focus"",""4"",""46564""
""focus"",""64"",""756078""
""focus"",""65"",""758841""
","""event"",""trial"",""time""
""fullscreenenter"",""1"",""4385""
","""event"",""trial"",""time""
""fullscreenexit"",""4"",""29041""
","","","962.8999999761581","","","18","3004","2762","&#9752;","elianto","#f73b6a7A"," "," ","1","-10","[1813.3999999761581]","1","1","","","3004","16","3","3","lose","go","1"
"pit-trial","85","859470","0.0-20.0","battery-v0.2","","""event"",""trial"",""time""
""fullscreenenter"",""1"",""4385""
""fullscreenexit"",""4"",""29041""
""blur"",""4"",""30229""
""focus"",""4"",""34995""
""blur"",""4"",""36118""
""focus"",""4"",""46564""
""blur"",""64"",""755367""
""focus"",""64"",""756078""
""blur"",""65"",""758693""
""focus"",""65"",""758841""
","""event"",""trial"",""time""
""blur"",""4"",""30229""
""blur"",""4"",""36118""
""blur"",""64"",""755367""
""blur"",""65"",""758693""
","""event"",""trial"",""time""
""focus"",""4"",""34995""
""focus"",""4"",""46564""
""focus"",""64"",""756078""
""focus"",""65"",""758841""
","""event"",""trial"",""time""
""fullscreenenter"",""1"",""4385""
","""event"",""trial"",""time""
""fullscreenexit"",""4"",""29041""
","","","624","","","18","3004","2762","&#9730;","elianto","#3366ff99"," "," ","1","+10","[1473.8999999761581]","1","1","","","3004","17","1","1","win","go","0"
"pit-trial","86","863173","0.0-21.0","battery-v0.2","","""event"",""trial"",""time""
""fullscreenenter"",""1"",""4385""
""fullscreenexit"",""4"",""29041""
""blur"",""4"",""30229""
""focus"",""4"",""34995""
""blur"",""4"",""36118""
""focus"",""4"",""46564""
""blur"",""64"",""755367""
""focus"",""64"",""756078""
""blur"",""65"",""758693""
""focus"",""65"",""758841""
","""event"",""trial"",""time""
""blur"",""4"",""30229""
""blur"",""4"",""36118""
""blur"",""64"",""755367""
""blur"",""65"",""758693""
","""event"",""trial"",""time""
""focus"",""4"",""34995""
""focus"",""4"",""46564""
""focus"",""64"",""756078""
""focus"",""65"",""758841""
","""event"",""trial"",""time""
""fullscreenenter"",""1"",""4385""
","""event"",""trial"",""time""
""fullscreenexit"",""4"",""29041""
","","","847.6000000238419","","","18","3004","2762","&#9733;","elianto","#3366ff99","-1"," ","0","0","[1698.3000000715256]","1","1","","","3004","18","2","2","win","no-go","0"
"pit-trial","87","867093","0.0-22.0","battery-v0.2","","""event"",""trial"",""time""
""fullscreenenter"",""1"",""4385""
""fullscreenexit"",""4"",""29041""
""blur"",""4"",""30229""
""focus"",""4"",""34995""
""blur"",""4"",""36118""
""focus"",""4"",""46564""
""blur"",""64"",""755367""
""focus"",""64"",""756078""
""blur"",""65"",""758693""
""focus"",""65"",""758841""
","""event"",""trial"",""time""
""blur"",""4"",""30229""
""blur"",""4"",""36118""
""blur"",""64"",""755367""
""blur"",""65"",""758693""
","""event"",""trial"",""time""
""focus"",""4"",""34995""
""focus"",""4"",""46564""
""focus"",""64"",""756078""
""focus"",""65"",""758841""
","""event"",""trial"",""time""
""fullscreenenter"",""1"",""4385""
","""event"",""trial"",""time""
""fullscreenexit"",""4"",""29041""
","","","1065.1000000238419","","","18","3004","2762","&#9752;","elianto","#f73b6a7A"," "," ","1","0","[1915.3999999761581]","1","1","","","3004","19","3","3","lose","go","0"
"pit-trial","88","871947","0.0-23.0","battery-v0.2","","""event"",""trial"",""time""
""fullscreenenter"",""1"",""4385""
""fullscreenexit"",""4"",""29041""
""blur"",""4"",""30229""
""focus"",""4"",""34995""
""blur"",""4"",""36118""
""focus"",""4"",""46564""
""blur"",""64"",""755367""
""focus"",""64"",""756078""
""blur"",""65"",""758693""
""focus"",""65"",""758841""
","""event"",""trial"",""time""
""blur"",""4"",""30229""
""blur"",""4"",""36118""
""blur"",""64"",""755367""
""blur"",""65"",""758693""
","""event"",""trial"",""time""
""focus"",""4"",""34995""
""focus"",""4"",""46564""
""focus"",""64"",""756078""
""focus"",""65"",""758841""
","""event"",""trial"",""time""
""fullscreenenter"",""1"",""4385""
","""event"",""trial"",""time""
""fullscreenexit"",""4"",""29041""
","","","-1","","","18","3004","2762","&#9728;","elianto","#f73b6a7A","-1","-1","1","0","[]","0","1","","","3004","20","0","4","lose","no-go","0"
"pit-instructions","89","886644","0.0-24.0","battery-v0.2","","""event"",""trial"",""time""
""fullscreenenter"",""1"",""4385""
""fullscreenexit"",""4"",""29041""
""blur"",""4"",""30229""
""focus"",""4"",""34995""
""blur"",""4"",""36118""
""focus"",""4"",""46564""
""blur"",""64"",""755367""
""focus"",""64"",""756078""
""blur"",""65"",""758693""
""focus"",""65"",""758841""
","""event"",""trial"",""time""
""blur"",""4"",""30229""
""blur"",""4"",""36118""
""blur"",""64"",""755367""
""blur"",""65"",""758693""
","""event"",""trial"",""time""
""focus"",""4"",""34995""
""focus"",""4"",""46564""
""focus"",""64"",""756078""
""focus"",""65"",""758841""
","""event"",""trial"",""time""
""fullscreenenter"",""1"",""4385""
","""event"",""trial"",""time""
""fullscreenexit"",""4"",""29041""
","","[{""page_index"":0,""viewing_time"":6870},{""page_index"":1,""viewing_time"":7823.700000047684}]","14694.200000047684","","","","","","","","","","","","","","","","","","","","","","","",""
"pit-trial","90","890491","0.0-25.0","battery-v0.2","","""event"",""trial"",""time""
""fullscreenenter"",""1"",""4385""
""fullscreenexit"",""4"",""29041""
""blur"",""4"",""30229""
""focus"",""4"",""34995""
""blur"",""4"",""36118""
""focus"",""4"",""46564""
""blur"",""64"",""755367""
""focus"",""64"",""756078""
""blur"",""65"",""758693""
""focus"",""65"",""758841""
","""event"",""trial"",""time""
""blur"",""4"",""30229""
""blur"",""4"",""36118""
""blur"",""64"",""755367""
""blur"",""65"",""758693""
","""event"",""trial"",""time""
""focus"",""4"",""34995""
""focus"",""4"",""46564""
""focus"",""64"",""756078""
""focus"",""65"",""758841""
","""event"",""trial"",""time""
""fullscreenenter"",""1"",""4385""
","""event"",""trial"",""time""
""fullscreenexit"",""4"",""29041""
","","","975.1000000238419","","","18","3004","2762","b","elianto","#f73b6a7A","-1"," ","0","0","[1825.8999999761581]","1","2","","","3004","21","3","4","lose","no-go","1"
"pit-trial","91","894991","0.0-26.0","battery-v0.2","","""event"",""trial"",""time""
""fullscreenenter"",""1"",""4385""
""fullscreenexit"",""4"",""29041""
""blur"",""4"",""30229""
""focus"",""4"",""34995""
""blur"",""4"",""36118""
""focus"",""4"",""46564""
""blur"",""64"",""755367""
""focus"",""64"",""756078""
""blur"",""65"",""758693""
""focus"",""65"",""758841""
","""event"",""trial"",""time""
""blur"",""4"",""30229""
""blur"",""4"",""36118""
""blur"",""64"",""755367""
""blur"",""65"",""758693""
","""event"",""trial"",""time""
""focus"",""4"",""34995""
""focus"",""4"",""46564""
""focus"",""64"",""756078""
""focus"",""65"",""758841""
","""event"",""trial"",""time""
""fullscreenenter"",""1"",""4385""
","""event"",""trial"",""time""
""fullscreenexit"",""4"",""29041""
","","","1634","","","18","3004","2762","n","elianto","#f73b6a7A"," "," ","1","0","[2486.9000000953674]","1","2","","","3004","22","0","3","lose","go","0"
"pit-trial","92","898630","0.0-27.0","battery-v0.2","","""event"",""trial"",""time""
""fullscreenenter"",""1"",""4385""
""fullscreenexit"",""4"",""29041""
""blur"",""4"",""30229""
""focus"",""4"",""34995""
""blur"",""4"",""36118""
""focus"",""4"",""46564""
""blur"",""64"",""755367""
""focus"",""64"",""756078""
""blur"",""65"",""758693""
""focus"",""65"",""758841""
","""event"",""trial"",""time""
""blur"",""4"",""30229""
""blur"",""4"",""36118""
""blur"",""64"",""755367""
""blur"",""65"",""758693""
","""event"",""trial"",""time""
""focus"",""4"",""34995""
""focus"",""4"",""46564""
""focus"",""64"",""756078""
""focus"",""65"",""758841""
","""event"",""trial"",""time""
""fullscreenenter"",""1"",""4385""
","""event"",""trial"",""time""
""fullscreenexit"",""4"",""29041""
","","","780.1000000238419","","","18","3004","2762","f","elianto","#3366ff99","-1"," ","0","0","[1632.7000000476837]","1","2","","","3004","23","1","2","win","no-go","0"
"pit-trial","93","902873","0.0-28.0","battery-v0.2","","""event"",""trial"",""time""
""fullscreenenter"",""1"",""4385""
""fullscreenexit"",""4"",""29041""
""blur"",""4"",""30229""
""focus"",""4"",""34995""
""blur"",""4"",""36118""
""focus"",""4"",""46564""
""blur"",""64"",""755367""
""focus"",""64"",""756078""
""blur"",""65"",""758693""
""focus"",""65"",""758841""
","""event"",""trial"",""time""
""blur"",""4"",""30229""
""blur"",""4"",""36118""
""blur"",""64"",""755367""
""blur"",""65"",""758693""
","""event"",""trial"",""time""
""focus"",""4"",""34995""
""focus"",""4"",""46564""
""focus"",""64"",""756078""
""focus"",""65"",""758841""
","""event"",""trial"",""time""
""fullscreenenter"",""1"",""4385""
","""event"",""trial"",""time""
""fullscreenexit"",""4"",""29041""
","","","1373","","","18","3004","2762","t","elianto","#f73b6a7A"," "," ","1","0","[2224.3000000715256]","1","2","","","3004","24","2","3","lose","go","0"
"pit-trial","94","906625","0.0-29.0","battery-v0.2","","""event"",""trial"",""time""
""fullscreenenter"",""1"",""4385""
""fullscreenexit"",""4"",""29041""
""blur"",""4"",""30229""
""focus"",""4"",""34995""
""blur"",""4"",""36118""
""focus"",""4"",""46564""
""blur"",""64"",""755367""
""focus"",""64"",""756078""
""blur"",""65"",""758693""
""focus"",""65"",""758841""
","""event"",""trial"",""time""
""blur"",""4"",""30229""
""blur"",""4"",""36118""
""blur"",""64"",""755367""
""blur"",""65"",""758693""
","""event"",""trial"",""time""
""focus"",""4"",""34995""
""focus"",""4"",""46564""
""focus"",""64"",""756078""
""focus"",""65"",""758841""
","""event"",""trial"",""time""
""fullscreenenter"",""1"",""4385""
","""event"",""trial"",""time""
""fullscreenexit"",""4"",""29041""
","","","882.6999999284744","","","18","3004","2762","b","elianto","#f73b6a7A","-1"," ","0","-10","[1735.2999999523163]","1","2","","","3004","25","3","4","lose","no-go","0"
"pit-trial","95","910735","0.0-30.0","battery-v0.2","","""event"",""trial"",""time""
""fullscreenenter"",""1"",""4385""
""fullscreenexit"",""4"",""29041""
""blur"",""4"",""30229""
""focus"",""4"",""34995""
""blur"",""4"",""36118""
""focus"",""4"",""46564""
""blur"",""64"",""755367""
""focus"",""64"",""756078""
""blur"",""65"",""758693""
""focus"",""65"",""758841""
","""event"",""trial"",""time""
""blur"",""4"",""30229""
""blur"",""4"",""36118""
""blur"",""64"",""755367""
""blur"",""65"",""758693""
","""event"",""trial"",""time""
""focus"",""4"",""34995""
""focus"",""4"",""46564""
""focus"",""64"",""756078""
""focus"",""65"",""758841""
","""event"",""trial"",""time""
""fullscreenenter"",""1"",""4385""
","""event"",""trial"",""time""
""fullscreenexit"",""4"",""29041""
","","","1247.6999999284744","","","18","3004","2762","n","elianto","#f73b6a7A"," "," ","1","0","[2098.399999976158]","1","2","","","3004","26","0","3","lose","go","0"
"pit-trial","96","914365","0.0-31.0","battery-v0.2","","""event"",""trial"",""time""
""fullscreenenter"",""1"",""4385""
""fullscreenexit"",""4"",""29041""
""blur"",""4"",""30229""
""focus"",""4"",""34995""
""blur"",""4"",""36118""
""focus"",""4"",""46564""
""blur"",""64"",""755367""
""focus"",""64"",""756078""
""blur"",""65"",""758693""
""focus"",""65"",""758841""
","""event"",""trial"",""time""
""blur"",""4"",""30229""
""blur"",""4"",""36118""
""blur"",""64"",""755367""
""blur"",""65"",""758693""
","""event"",""trial"",""time""
""focus"",""4"",""34995""
""focus"",""4"",""46564""
""focus"",""64"",""756078""
""focus"",""65"",""758841""
","""event"",""trial"",""time""
""fullscreenenter"",""1"",""4385""
","""event"",""trial"",""time""
""fullscreenexit"",""4"",""29041""
","","","765.7000000476837","","","18","3004","2762","t","elianto","#f73b6a7A"," "," ","1","-10","[1616]","1","2","","","3004","27","2","3","lose","go","1"
"pit-trial","97","917753","0.0-32.0","battery-v0.2","","""event"",""trial"",""time""
""fullscreenenter"",""1"",""4385""
""fullscreenexit"",""4"",""29041""
""blur"",""4"",""30229""
""focus"",""4"",""34995""
""blur"",""4"",""36118""
""focus"",""4"",""46564""
""blur"",""64"",""755367""
""focus"",""64"",""756078""
""blur"",""65"",""758693""
""focus"",""65"",""758841""
","""event"",""trial"",""time""
""blur"",""4"",""30229""
""blur"",""4"",""36118""
""blur"",""64"",""755367""
""blur"",""65"",""758693""
","""event"",""trial"",""time""
""focus"",""4"",""34995""
""focus"",""4"",""46564""
""focus"",""64"",""756078""
""focus"",""65"",""758841""
","""event"",""trial"",""time""
""fullscreenenter"",""1"",""4385""
","""event"",""trial"",""time""
""fullscreenexit"",""4"",""29041""
","","","533.5","","","18","3004","2762","f","elianto","#3366ff99","-1"," ","0","0","[1383.3999999761581]","1","2","","","3004","28","1","2","win","no-go","0"
"pit-trial","98","922608","0.0-33.0","battery-v0.2","","""event"",""trial"",""time""
""fullscreenenter"",""1"",""4385""
""fullscreenexit"",""4"",""29041""
""blur"",""4"",""30229""
""focus"",""4"",""34995""
""blur"",""4"",""36118""
""focus"",""4"",""46564""
""blur"",""64"",""755367""
""focus"",""64"",""756078""
""blur"",""65"",""758693""
""focus"",""65"",""758841""
","""event"",""trial"",""time""
""blur"",""4"",""30229""
""blur"",""4"",""36118""
""blur"",""64"",""755367""
""blur"",""65"",""758693""
","""event"",""trial"",""time""
""focus"",""4"",""34995""
""focus"",""4"",""46564""
""focus"",""64"",""756078""
""focus"",""65"",""758841""
","""event"",""trial"",""time""
""fullscreenenter"",""1"",""4385""
","""event"",""trial"",""time""
""fullscreenexit"",""4"",""29041""
","","","-1","","","18","3004","2762","f","elianto","#3366ff99","-1","-1","1","+10","[]","0","2","","","3004","29","1","2","win","no-go","0"
"pit-trial","99","926619","0.0-34.0","battery-v0.2","","""event"",""trial"",""time""
""fullscreenenter"",""1"",""4385""
""fullscreenexit"",""4"",""29041""
""blur"",""4"",""30229""
""focus"",""4"",""34995""
""blur"",""4"",""36118""
""focus"",""4"",""46564""
""blur"",""64"",""755367""
""focus"",""64"",""756078""
""blur"",""65"",""758693""
""focus"",""65"",""758841""
","""event"",""trial"",""time""
""blur"",""4"",""30229""
""blur"",""4"",""36118""
""blur"",""64"",""755367""
""blur"",""65"",""758693""
","""event"",""trial"",""time""
""focus"",""4"",""34995""
""focus"",""4"",""46564""
""focus"",""64"",""756078""
""focus"",""65"",""758841""
","""event"",""trial"",""time""
""fullscreenenter"",""1"",""4385""
","""event"",""trial"",""time""
""fullscreenexit"",""4"",""29041""
","","","1158.2999999523163","","","18","3004","2762","b","elianto","#f73b6a7A","-1"," ","0","-10","[2008.7000000476837]","1","2","","","3004","30","3","4","lose","no-go","0"
"pit-trial","100","931474","0.0-35.0","battery-v0.2","","""event"",""trial"",""time""
""fullscreenenter"",""1"",""4385""
""fullscreenexit"",""4"",""29041""
""blur"",""4"",""30229""
""focus"",""4"",""34995""
""blur"",""4"",""36118""
""focus"",""4"",""46564""
""blur"",""64"",""755367""
""focus"",""64"",""756078""
""blur"",""65"",""758693""
""focus"",""65"",""758841""
","""event"",""trial"",""time""
""blur"",""4"",""30229""
""blur"",""4"",""36118""
""blur"",""64"",""755367""
""blur"",""65"",""758693""
","""event"",""trial"",""time""
""focus"",""4"",""34995""
""focus"",""4"",""46564""
""focus"",""64"",""756078""
""focus"",""65"",""758841""
","""event"",""trial"",""time""
""fullscreenenter"",""1"",""4385""
","""event"",""trial"",""time""
""fullscreenexit"",""4"",""29041""
","","","-1","","","18","3004","2762","t","elianto","#f73b6a7A"," ","-1","0","-10","[]","0","2","","","3004","31","2","3","lose","go","0"
"pit-trial","101","935086","0.0-36.0","battery-v0.2","","""event"",""trial"",""time""
""fullscreenenter"",""1"",""4385""
""fullscreenexit"",""4"",""29041""
""blur"",""4"",""30229""
""focus"",""4"",""34995""
""blur"",""4"",""36118""
""focus"",""4"",""46564""
""blur"",""64"",""755367""
""focus"",""64"",""756078""
""blur"",""65"",""758693""
""focus"",""65"",""758841""
","""event"",""trial"",""time""
""blur"",""4"",""30229""
""blur"",""4"",""36118""
""blur"",""64"",""755367""
""blur"",""65"",""758693""
","""event"",""trial"",""time""
""focus"",""4"",""34995""
""focus"",""4"",""46564""
""focus"",""64"",""756078""
""focus"",""65"",""758841""
","""event"",""trial"",""time""
""fullscreenenter"",""1"",""4385""
","""event"",""trial"",""time""
""fullscreenexit"",""4"",""29041""
","","","756.2999999523163","","","18","3004","2762","n","elianto","#f73b6a7A"," "," ","1","-10","[1607.6999999284744]","1","2","","","3004","32","0","3","lose","go","1"
"pit-trial","102","938724","0.0-37.0","battery-v0.2","","""event"",""trial"",""time""
""fullscreenenter"",""1"",""4385""
""fullscreenexit"",""4"",""29041""
""blur"",""4"",""30229""
""focus"",""4"",""34995""
""blur"",""4"",""36118""
""focus"",""4"",""46564""
""blur"",""64"",""755367""
""focus"",""64"",""756078""
""blur"",""65"",""758693""
""focus"",""65"",""758841""
","""event"",""trial"",""time""
""blur"",""4"",""30229""
""blur"",""4"",""36118""
""blur"",""64"",""755367""
""blur"",""65"",""758693""
","""event"",""trial"",""time""
""focus"",""4"",""34995""
""focus"",""4"",""46564""
""focus"",""64"",""756078""
""focus"",""65"",""758841""
","""event"",""trial"",""time""
""fullscreenenter"",""1"",""4385""
","""event"",""trial"",""time""
""fullscreenexit"",""4"",""29041""
","","","783.7999999523163","","","18","3004","2762","f","elianto","#3366ff99","-1"," ","0","0","[1633.8000000715256]","1","2","","","3004","33","1","2","win","no-go","0"
"pit-trial","103","943578","0.0-38.0","battery-v0.2","","""event"",""trial"",""time""
""fullscreenenter"",""1"",""4385""
""fullscreenexit"",""4"",""29041""
""blur"",""4"",""30229""
""focus"",""4"",""34995""
""blur"",""4"",""36118""
""focus"",""4"",""46564""
""blur"",""64"",""755367""
""focus"",""64"",""756078""
""blur"",""65"",""758693""
""focus"",""65"",""758841""
","""event"",""trial"",""time""
""blur"",""4"",""30229""
""blur"",""4"",""36118""
""blur"",""64"",""755367""
""blur"",""65"",""758693""
","""event"",""trial"",""time""
""focus"",""4"",""34995""
""focus"",""4"",""46564""
""focus"",""64"",""756078""
""focus"",""65"",""758841""
","""event"",""trial"",""time""
""fullscreenenter"",""1"",""4385""
","""event"",""trial"",""time""
""fullscreenexit"",""4"",""29041""
","","","-1","","","18","3004","2762","t","elianto","#f73b6a7A"," ","-1","0","-10","[]","0","2","","","3004","34","2","3","lose","go","0"
"pit-trial","104","948383","0.0-39.0","battery-v0.2","","""event"",""trial"",""time""
""fullscreenenter"",""1"",""4385""
""fullscreenexit"",""4"",""29041""
""blur"",""4"",""30229""
""focus"",""4"",""34995""
""blur"",""4"",""36118""
""focus"",""4"",""46564""
""blur"",""64"",""755367""
""focus"",""64"",""756078""
""blur"",""65"",""758693""
""focus"",""65"",""758841""
","""event"",""trial"",""time""
""blur"",""4"",""30229""
""blur"",""4"",""36118""
""blur"",""64"",""755367""
""blur"",""65"",""758693""
","""event"",""trial"",""time""
""focus"",""4"",""34995""
""focus"",""4"",""46564""
""focus"",""64"",""756078""
""focus"",""65"",""758841""
","""event"",""trial"",""time""
""fullscreenenter"",""1"",""4385""
","""event"",""trial"",""time""
""fullscreenexit"",""4"",""29041""
","","","1951.2999999523163","","","18","3004","2762","n","elianto","#f73b6a7A"," "," ","1","0","[2801.2999999523163]","1","2","","","3004","35","0","3","lose","go","0"
"pit-trial","105","953237","0.0-40.0","battery-v0.2","","""event"",""trial"",""time""
""fullscreenenter"",""1"",""4385""
""fullscreenexit"",""4"",""29041""
""blur"",""4"",""30229""
""focus"",""4"",""34995""
""blur"",""4"",""36118""
""focus"",""4"",""46564""
""blur"",""64"",""755367""
""focus"",""64"",""756078""
""blur"",""65"",""758693""
""focus"",""65"",""758841""
","""event"",""trial"",""time""
""blur"",""4"",""30229""
""blur"",""4"",""36118""
""blur"",""64"",""755367""
""blur"",""65"",""758693""
","""event"",""trial"",""time""
""focus"",""4"",""34995""
""focus"",""4"",""46564""
""focus"",""64"",""756078""
""focus"",""65"",""758841""
","""event"",""trial"",""time""
""fullscreenenter"",""1"",""4385""
","""event"",""trial"",""time""
""fullscreenexit"",""4"",""29041""
","","","-1","","","18","3004","2762","b","elianto","#f73b6a7A","-1","-1","1","0","[]","0","2","","","3004","36","3","4","lose","no-go","0"
"pit-trial","106","958091","0.0-41.0","battery-v0.2","","""event"",""trial"",""time""
""fullscreenenter"",""1"",""4385""
""fullscreenexit"",""4"",""29041""
""blur"",""4"",""30229""
""focus"",""4"",""34995""
""blur"",""4"",""36118""
""focus"",""4"",""46564""
""blur"",""64"",""755367""
""focus"",""64"",""756078""
""blur"",""65"",""758693""
""focus"",""65"",""758841""
","""event"",""trial"",""time""
""blur"",""4"",""30229""
""blur"",""4"",""36118""
""blur"",""64"",""755367""
""blur"",""65"",""758693""
","""event"",""trial"",""time""
""focus"",""4"",""34995""
""focus"",""4"",""46564""
""focus"",""64"",""756078""
""focus"",""65"",""758841""
","""event"",""trial"",""time""
""fullscreenenter"",""1"",""4385""
","""event"",""trial"",""time""
""fullscreenexit"",""4"",""29041""
","","","-1","","","18","3004","2762","b","elianto","#f73b6a7A","-1","-1","1","0","[]","0","2","","","3004","37","3","4","lose","no-go","0"
"pit-trial","107","962145","0.0-42.0","battery-v0.2","","""event"",""trial"",""time""
""fullscreenenter"",""1"",""4385""
""fullscreenexit"",""4"",""29041""
""blur"",""4"",""30229""
""focus"",""4"",""34995""
""blur"",""4"",""36118""
""focus"",""4"",""46564""
""blur"",""64"",""755367""
""focus"",""64"",""756078""
""blur"",""65"",""758693""
""focus"",""65"",""758841""
","""event"",""trial"",""time""
""blur"",""4"",""30229""
""blur"",""4"",""36118""
""blur"",""64"",""755367""
""blur"",""65"",""758693""
","""event"",""trial"",""time""
""focus"",""4"",""34995""
""focus"",""4"",""46564""
""focus"",""64"",""756078""
""focus"",""65"",""758841""
","""event"",""trial"",""time""
""fullscreenenter"",""1"",""4385""
","""event"",""trial"",""time""
""fullscreenexit"",""4"",""29041""
","","","1200.2999999523163","","","18","3004","2762","t","elianto","#f73b6a7A"," "," ","1","-10","[2050.600000023842]","1","2","","","3004","38","2","3","lose","go","1"
"pit-trial","108","967000","0.0-43.0","battery-v0.2","","""event"",""trial"",""time""
""fullscreenenter"",""1"",""4385""
""fullscreenexit"",""4"",""29041""
""blur"",""4"",""30229""
""focus"",""4"",""34995""
""blur"",""4"",""36118""
""focus"",""4"",""46564""
""blur"",""64"",""755367""
""focus"",""64"",""756078""
""blur"",""65"",""758693""
""focus"",""65"",""758841""
","""event"",""trial"",""time""
""blur"",""4"",""30229""
""blur"",""4"",""36118""
""blur"",""64"",""755367""
""blur"",""65"",""758693""
","""event"",""trial"",""time""
""focus"",""4"",""34995""
""focus"",""4"",""46564""
""focus"",""64"",""756078""
""focus"",""65"",""758841""
","""event"",""trial"",""time""
""fullscreenenter"",""1"",""4385""
","""event"",""trial"",""time""
""fullscreenexit"",""4"",""29041""
","","","-1","","","18","3004","2762","n","elianto","#f73b6a7A"," ","-1","0","-10","[]","0","2","","","3004","39","0","3","lose","go","0"
"pit-trial","109","970589","0.0-44.0","battery-v0.2","","""event"",""trial"",""time""
""fullscreenenter"",""1"",""4385""
""fullscreenexit"",""4"",""29041""
""blur"",""4"",""30229""
""focus"",""4"",""34995""
""blur"",""4"",""36118""
""focus"",""4"",""46564""
""blur"",""64"",""755367""
""focus"",""64"",""756078""
""blur"",""65"",""758693""
""focus"",""65"",""758841""
","""event"",""trial"",""time""
""blur"",""4"",""30229""
""blur"",""4"",""36118""
""blur"",""64"",""755367""
""blur"",""65"",""758693""
","""event"",""trial"",""time""
""focus"",""4"",""34995""
""focus"",""4"",""46564""
""focus"",""64"",""756078""
""focus"",""65"",""758841""
","""event"",""trial"",""time""
""fullscreenenter"",""1"",""4385""
","""event"",""trial"",""time""
""fullscreenexit"",""4"",""29041""
","","","735.2999999523163","","","18","3004","2762","f","elianto","#3366ff99","-1"," ","0","0","[1585.5]","1","2","","","3004","40","1","2","win","no-go","0"
"pit-trial","110","975443","0.0-45.0","battery-v0.2","","""event"",""trial"",""time""
""fullscreenenter"",""1"",""4385""
""fullscreenexit"",""4"",""29041""
""blur"",""4"",""30229""
""focus"",""4"",""34995""
""blur"",""4"",""36118""
""focus"",""4"",""46564""
""blur"",""64"",""755367""
""focus"",""64"",""756078""
""blur"",""65"",""758693""
""focus"",""65"",""758841""
","""event"",""trial"",""time""
""blur"",""4"",""30229""
""blur"",""4"",""36118""
""blur"",""64"",""755367""
""blur"",""65"",""758693""
","""event"",""trial"",""time""
""focus"",""4"",""34995""
""focus"",""4"",""46564""
""focus"",""64"",""756078""
""focus"",""65"",""758841""
","""event"",""trial"",""time""
""fullscreenenter"",""1"",""4385""
","""event"",""trial"",""time""
""fullscreenexit"",""4"",""29041""
","","","-1","","","18","3004","2762","n","elianto","#f73b6a7A"," ","-1","0","-10","[]","0","2","","","3004","41","0","3","lose","go","0"
"pit-trial","111","980225","0.0-46.0","battery-v0.2","","""event"",""trial"",""time""
""fullscreenenter"",""1"",""4385""
""fullscreenexit"",""4"",""29041""
""blur"",""4"",""30229""
""focus"",""4"",""34995""
""blur"",""4"",""36118""
""focus"",""4"",""46564""
""blur"",""64"",""755367""
""focus"",""64"",""756078""
""blur"",""65"",""758693""
""focus"",""65"",""758841""
","""event"",""trial"",""time""
""blur"",""4"",""30229""
""blur"",""4"",""36118""
""blur"",""64"",""755367""
""blur"",""65"",""758693""
","""event"",""trial"",""time""
""focus"",""4"",""34995""
""focus"",""4"",""46564""
""focus"",""64"",""756078""
""focus"",""65"",""758841""
","""event"",""trial"",""time""
""fullscreenenter"",""1"",""4385""
","""event"",""trial"",""time""
""fullscreenexit"",""4"",""29041""
","","","1927.2999999523163","","","18","3004","2762","t","elianto","#f73b6a7A"," "," ","1","0","[2777.5]","1","2","","","3004","42","2","3","lose","go","0"
"pit-trial","112","985079","0.0-47.0","battery-v0.2","","""event"",""trial"",""time""
""fullscreenenter"",""1"",""4385""
""fullscreenexit"",""4"",""29041""
""blur"",""4"",""30229""
""focus"",""4"",""34995""
""blur"",""4"",""36118""
""focus"",""4"",""46564""
""blur"",""64"",""755367""
""focus"",""64"",""756078""
""blur"",""65"",""758693""
""focus"",""65"",""758841""
","""event"",""trial"",""time""
""blur"",""4"",""30229""
""blur"",""4"",""36118""
""blur"",""64"",""755367""
""blur"",""65"",""758693""
","""event"",""trial"",""time""
""focus"",""4"",""34995""
""focus"",""4"",""46564""
""focus"",""64"",""756078""
""focus"",""65"",""758841""
","""event"",""trial"",""time""
""fullscreenenter"",""1"",""4385""
","""event"",""trial"",""time""
""fullscreenexit"",""4"",""29041""
","","","-1","","","18","3004","2762","f","elianto","#3366ff99","-1","-1","1","+10","[]","0","2","","","3004","43","1","2","win","no-go","0"
"pit-trial","113","989295","0.0-48.0","battery-v0.2","","""event"",""trial"",""time""
""fullscreenenter"",""1"",""4385""
""fullscreenexit"",""4"",""29041""
""blur"",""4"",""30229""
""focus"",""4"",""34995""
""blur"",""4"",""36118""
""focus"",""4"",""46564""
""blur"",""64"",""755367""
""focus"",""64"",""756078""
""blur"",""65"",""758693""
""focus"",""65"",""758841""
","""event"",""trial"",""time""
""blur"",""4"",""30229""
""blur"",""4"",""36118""
""blur"",""64"",""755367""
""blur"",""65"",""758693""
","""event"",""trial"",""time""
""focus"",""4"",""34995""
""focus"",""4"",""46564""
""focus"",""64"",""756078""
""focus"",""65"",""758841""
","""event"",""trial"",""time""
""fullscreenenter"",""1"",""4385""
","""event"",""trial"",""time""
""fullscreenexit"",""4"",""29041""
","","","1360.6000000238419","","","18","3004","2762","b","elianto","#f73b6a7A","-1"," ","0","-10","[2211.5]","1","2","","","3004","44","3","4","lose","no-go","0"
"pit-trial","114","992943","0.0-49.0","battery-v0.2","","""event"",""trial"",""time""
""fullscreenenter"",""1"",""4385""
""fullscreenexit"",""4"",""29041""
""blur"",""4"",""30229""
""focus"",""4"",""34995""
""blur"",""4"",""36118""
""focus"",""4"",""46564""
""blur"",""64"",""755367""
""focus"",""64"",""756078""
""blur"",""65"",""758693""
""focus"",""65"",""758841""
","""event"",""trial"",""time""
""blur"",""4"",""30229""
""blur"",""4"",""36118""
""blur"",""64"",""755367""
""blur"",""65"",""758693""
","""event"",""trial"",""time""
""focus"",""4"",""34995""
""focus"",""4"",""46564""
""focus"",""64"",""756078""
""focus"",""65"",""758841""
","""event"",""trial"",""time""
""fullscreenenter"",""1"",""4385""
","""event"",""trial"",""time""
""fullscreenexit"",""4"",""29041""
","","","794.1000000238419","","","18","3004","2762","b","elianto","#f73b6a7A","-1"," ","0","-10","[1644.1999999284744]","1","2","","","3004","45","3","4","lose","no-go","0"
"pit-trial","115","997798","0.0-50.0","battery-v0.2","","""event"",""trial"",""time""
""fullscreenenter"",""1"",""4385""
""fullscreenexit"",""4"",""29041""
""blur"",""4"",""30229""
""focus"",""4"",""34995""
""blur"",""4"",""36118""
""focus"",""4"",""46564""
""blur"",""64"",""755367""
""focus"",""64"",""756078""
""blur"",""65"",""758693""
""focus"",""65"",""758841""
","""event"",""trial"",""time""
""blur"",""4"",""30229""
""blur"",""4"",""36118""
""blur"",""64"",""755367""
""blur"",""65"",""758693""
","""event"",""trial"",""time""
""focus"",""4"",""34995""
""focus"",""4"",""46564""
""focus"",""64"",""756078""
""focus"",""65"",""758841""
","""event"",""trial"",""time""
""fullscreenenter"",""1"",""4385""
","""event"",""trial"",""time""
""fullscreenexit"",""4"",""29041""
","","","-1","","","18","3004","2762","n","elianto","#f73b6a7A"," ","-1","0","0","[]","0","2","","","3004","46","0","3","lose","go","1"
"pit-trial","116","1002652","0.0-51.0","battery-v0.2","","""event"",""trial"",""time""
""fullscreenenter"",""1"",""4385""
""fullscreenexit"",""4"",""29041""
""blur"",""4"",""30229""
""focus"",""4"",""34995""
""blur"",""4"",""36118""
""focus"",""4"",""46564""
""blur"",""64"",""755367""
""focus"",""64"",""756078""
""blur"",""65"",""758693""
""focus"",""65"",""758841""
","""event"",""trial"",""time""
""blur"",""4"",""30229""
""blur"",""4"",""36118""
""blur"",""64"",""755367""
""blur"",""65"",""758693""
","""event"",""trial"",""time""
""focus"",""4"",""34995""
""focus"",""4"",""46564""
""focus"",""64"",""756078""
""focus"",""65"",""758841""
","""event"",""trial"",""time""
""fullscreenenter"",""1"",""4385""
","""event"",""trial"",""time""
""fullscreenexit"",""4"",""29041""
","","","-1","","","18","3004","2762","t","elianto","#f73b6a7A"," ","-1","0","-10","[]","0","2","","","3004","47","2","3","lose","go","0"
"pit-trial","117","1007506","0.0-52.0","battery-v0.2","","""event"",""trial"",""time""
""fullscreenenter"",""1"",""4385""
""fullscreenexit"",""4"",""29041""
""blur"",""4"",""30229""
""focus"",""4"",""34995""
""blur"",""4"",""36118""
""focus"",""4"",""46564""
""blur"",""64"",""755367""
""focus"",""64"",""756078""
""blur"",""65"",""758693""
""focus"",""65"",""758841""
","""event"",""trial"",""time""
""blur"",""4"",""30229""
""blur"",""4"",""36118""
""blur"",""64"",""755367""
""blur"",""65"",""758693""
