"trial_type","trial_index","time_elapsed","internal_node_id","task_version","subject_id","interactions","blur_events","focus_events","fullscreenenter_events","fullscreenexit_events","success","view_history","rt","responses","num_errors","age","subject","participantId","rune","rune_set","hex","correct","choice","accuracy","outcome","keys","total_keys","block","practice","value","sub","trial","stimulus","robot","valence","action","sham"
"pavlovia","0","7","0.0-0.0","battery-v0.2","","""event"",""trial"",""time""
""fullscreenenter"",""1"",""1598""
","
","
","""event"",""trial"",""time""
""fullscreenenter"",""1"",""1598""
","
","","","","","","","","","","","","","","","","","","","","","","","","","","",""
"fullscreen","1","2586","0.0-1.0","battery-v0.2","","""event"",""trial"",""time""
""fullscreenenter"",""1"",""1598""
","
","
","""event"",""trial"",""time""
""fullscreenenter"",""1"",""1598""
","
","true","","","","","","","","","","","","","","","","","","","","","","","","","",""
"pit-instructions","2","6241","0.0-2.0-0.0","battery-v0.2","","""event"",""trial"",""time""
""fullscreenenter"",""1"",""1598""
","
","
","""event"",""trial"",""time""
""fullscreenenter"",""1"",""1598""
","
","","[{""page_index"":0,""viewing_time"":3652.600000000559}]","3653.100000000559","","","","","","","","","","","","","","","","","","","","","","","",""
"pit-comprehension","3","8693","0.0-2.0-1.0-0.0","battery-v0.2","","""event"",""trial"",""time""
""fullscreenenter"",""1"",""1598""
","
","
","""event"",""trial"",""time""
""fullscreenenter"",""1"",""1598""
","
","","","2444.9000000003725","[""shark""]","0","20","10934","1701","","","","","","","","","","","","","","","","","","",""
"pit-instructions","4","11958","0.0-2.0-1.0-1.0","battery-v0.2","","""event"",""trial"",""time""
""fullscreenenter"",""1"",""1598""
","
","
","""event"",""trial"",""time""
""fullscreenenter"",""1"",""1598""
","
","","[{""page_index"":0,""viewing_time"":3247.9000000003725}]","3248.300000000745","","","","","","","","","","","","","","","","","","","","","","","",""
"pit-comprehension","5","15009","0.0-2.0-2.0-0.0","battery-v0.2","","""event"",""trial"",""time""
""fullscreenenter"",""1"",""1598""
","
","
","""event"",""trial"",""time""
""fullscreenenter"",""1"",""1598""
","
","","","3045.7000000001863","[""tiger""]","0","20","10934","1701","","","","","","","","","","","","","","","","","","",""
"pit-instructions","6","16009","0.0-2.0-2.0-1.0","battery-v0.2","","""event"",""trial"",""time""
""fullscreenenter"",""1"",""1598""
","
","
","""event"",""trial"",""time""
""fullscreenenter"",""1"",""1598""
","
","","[{""page_index"":0,""viewing_time"":993.5999999996275}]","993.8999999994412","","","","","","","","","","","","","","","","","","","","","","","",""
"pit-instructions","7","104537","0.0-2.0-3.0","battery-v0.2","","""event"",""trial"",""time""
""fullscreenenter"",""1"",""1598""
","
","
","""event"",""trial"",""time""
""fullscreenenter"",""1"",""1598""
","
","","[{""page_index"":0,""viewing_time"":8543.399999999441},{""page_index"":1,""viewing_time"":6895.700000000186},{""page_index"":2,""viewing_time"":6119.799999999814},{""page_index"":3,""viewing_time"":5036.4000000003725},{""page_index"":4,""viewing_time"":5945.5},{""page_index"":5,""viewing_time"":5189.799999999814},{""page_index"":6,""viewing_time"":6678.799999999814},{""page_index"":7,""viewing_time"":6085.9000000003725},{""page_index"":8,""viewing_time"":6020.5},{""page_index"":9,""viewing_time"":6319.200000000186},{""page_index"":10,""viewing_time"":7152},{""page_index"":11,""viewing_time"":4894.5},{""page_index"":12,""viewing_time"":6669.200000000186},{""page_index"":13,""viewing_time"":6972.399999999441}]","88523.79999999981","","","","","","","","","","","","","","","","","","","","","","","",""
"pit-trial","8","108313","0.0-2.0-4.0-0.0","battery-v0.2","","""event"",""trial"",""time""
""fullscreenenter"",""1"",""1598""
","
","
","""event"",""trial"",""time""
""fullscreenenter"",""1"",""1598""
","
","","","911.2000000001863","","","20","10934","1701","&#9784;","elianto","#FFFFF080"," "," ","1","&#10004","[1765.6000000005588]","1","0","0","","","","","","","",""
"pit-trial","9","112876","0.0-2.0-4.1-0.1","battery-v0.2","","""event"",""trial"",""time""
""fullscreenenter"",""1"",""1598""
","
","
","""event"",""trial"",""time""
""fullscreenenter"",""1"",""1598""
","
","","","1695.7999999998137","","","20","10934","1701","&#9784;","elianto","#FFFFF080"," "," ","1","&#10004","[2553.9000000003725]","1","0","0","","","","","","","",""
"pit-trial","10","116776","0.0-2.0-4.2-0.2","battery-v0.2","","""event"",""trial"",""time""
""fullscreenenter"",""1"",""1598""
","
","
","""event"",""trial"",""time""
""fullscreenenter"",""1"",""1598""
","
","","","1036.3999999994412","","","20","10934","1701","&#9784;","elianto","#FFFFF080"," "," ","1","&#10004","[1886.7000000001863]","1","0","0","","","","","","","",""
"pit-trial","11","120653","0.0-2.0-4.3-0.3","battery-v0.2","","""event"",""trial"",""time""
""fullscreenenter"",""1"",""1598""
","
","
","""event"",""trial"",""time""
""fullscreenenter"",""1"",""1598""
","
","","","1013.5","","","20","10934","1701","&#9784;","elianto","#FFFFF080"," "," ","1","&#10004","[1863.5]","1","0","0","","","","","","","",""
"pit-trial","12","124397","0.0-2.0-4.4-0.4","battery-v0.2","","""event"",""trial"",""time""
""fullscreenenter"",""1"",""1598""
","
","
","""event"",""trial"",""time""
""fullscreenenter"",""1"",""1598""
","
","","","871.7999999998137","","","20","10934","1701","&#9784;","elianto","#FFFFF080"," "," ","1","&#10004","[1726.199999999255]","1","0","0","","","","","","","",""
"pit-instructions","13","146891","0.0-2.0-5.0","battery-v0.2","","""event"",""trial"",""time""
""fullscreenenter"",""1"",""1598""
","
","
","""event"",""trial"",""time""
""fullscreenenter"",""1"",""1598""
","
","","[{""page_index"":0,""viewing_time"":4873.799999999814},{""page_index"":1,""viewing_time"":5194},{""page_index"":2,""viewing_time"":5331.299999999814},{""page_index"":3,""viewing_time"":7090.700000000186}]","22490.200000000186","","","","","","","","","","","","","","","","","","","","","","","",""
"pit-trial","14","151763","0.0-2.0-6.0-0.0","battery-v0.2","","""event"",""trial"",""time""
""fullscreenenter"",""1"",""1598""
","
","
","""event"",""trial"",""time""
""fullscreenenter"",""1"",""1598""
","
","","","-1","","","20","10934","1701","&#9854;","elianto","#FFFFF080","-1","-1","1","&#10004","[]","0","0","1","","","","","","","",""
"pit-trial","15","156632","0.0-2.0-6.1-0.1","battery-v0.2","","""event"",""trial"",""time""
""fullscreenenter"",""1"",""1598""
","
","
","""event"",""trial"",""time""
""fullscreenenter"",""1"",""1598""
","
","","","-1","","","20","10934","1701","&#9854;","elianto","#FFFFF080","-1","-1","1","&#10004","[]","0","0","1","","","","","","","",""
"pit-trial","16","161499","0.0-2.0-6.2-0.2","battery-v0.2","","""event"",""trial"",""time""
""fullscreenenter"",""1"",""1598""
","
","
","""event"",""trial"",""time""
""fullscreenenter"",""1"",""1598""
","
","","","-1","","","20","10934","1701","&#9854;","elianto","#FFFFF080","-1","-1","1","&#10004","[]","0","0","1","","","","","","","",""
"pit-trial","17","166379","0.0-2.0-6.3-0.3","battery-v0.2","","""event"",""trial"",""time""
""fullscreenenter"",""1"",""1598""
","
","
","""event"",""trial"",""time""
""fullscreenenter"",""1"",""1598""
","
","","","-1","","","20","10934","1701","&#9854;","elianto","#FFFFF080","-1","-1","1","&#10004","[]","0","0","1","","","","","","","",""
"pit-trial","18","171252","0.0-2.0-6.4-0.4","battery-v0.2","","""event"",""trial"",""time""
""fullscreenenter"",""1"",""1598""
","
","
","""event"",""trial"",""time""
""fullscreenenter"",""1"",""1598""
","
","","","-1","","","20","10934","1701","&#9854;","elianto","#FFFFF080","-1","-1","1","&#10004","[]","0","0","1","","","","","","","",""
"pit-instructions","19","282435","0.0-2.0-7.0","battery-v0.2","","""event"",""trial"",""time""
""fullscreenenter"",""1"",""1598""
","
","
","""event"",""trial"",""time""
""fullscreenenter"",""1"",""1598""
","
","","[{""page_index"":0,""viewing_time"":5698.700000000186},{""page_index"":1,""viewing_time"":7089.700000000186},{""page_index"":2,""viewing_time"":7768.899999999441},{""page_index"":3,""viewing_time"":6377},{""page_index"":4,""viewing_time"":5134.100000000559},{""page_index"":5,""viewing_time"":5238.5999999996275},{""page_index"":6,""viewing_time"":4017.4000000003725},{""page_index"":7,""viewing_time"":7083.0999999996275},{""page_index"":8,""viewing_time"":6877.5},{""page_index"":9,""viewing_time"":5005.100000000559},{""page_index"":10,""viewing_time"":6134.299999999814},{""page_index"":11,""viewing_time"":4055.2999999998137},{""page_index"":12,""viewing_time"":6006.4000000003725},{""page_index"":13,""viewing_time"":6020.899999999441},{""page_index"":14,""viewing_time"":6215.100000000559},{""page_index"":15,""viewing_time"":7809},{""page_index"":16,""viewing_time"":7787.699999999255},{""page_index"":17,""viewing_time"":6861}]","111180.20000000019","","","","","","","","","","","","","","","","","","","","","","","",""
"pit-trial","20","285988","0.0-2.0-8.0-0.0","battery-v0.2","","""event"",""trial"",""time""
""fullscreenenter"",""1"",""1598""
","
","
","""event"",""trial"",""time""
""fullscreenenter"",""1"",""1598""
","
","","","695.1000000005588","","","20","10934","1701","&#9776;","elianto","#3366ff99"," "," ","1","+10","[1545.7999999998137]","1","0","1","","","","","","","",""
"pit-trial","21","289664","0.0-2.0-8.0-1.0","battery-v0.2","","""event"",""trial"",""time""
""fullscreenenter"",""1"",""1598""
","
","
","""event"",""trial"",""time""
""fullscreenenter"",""1"",""1598""
","
","","","802.2999999998137","","","20","10934","1701","&#9776;","elianto","#3366ff99"," "," ","1","+10","[1660.7999999998137]","1","0","1","","","","","","","",""
"pit-trial","22","293069","0.0-2.0-8.0-2.0","battery-v0.2","","""event"",""trial"",""time""
""fullscreenenter"",""1"",""1598""
","
","
","""event"",""trial"",""time""
""fullscreenenter"",""1"",""1598""
","
","","","537.9000000003725","","","20","10934","1701","&#9776;","elianto","#3366ff99"," "," ","1","+10","[1389.7000000001863]","1","0","1","","","","","","","",""
"pit-trial","23","296514","0.0-2.0-8.0-3.0","battery-v0.2","","""event"",""trial"",""time""
""fullscreenenter"",""1"",""1598""
","
","
","""event"",""trial"",""time""
""fullscreenenter"",""1"",""1598""
","
","","","577.3999999994412","","","20","10934","1701","&#9776;","elianto","#3366ff99"," "," ","1","0","[1427.7000000001863]","1","0","1","","","","","","","",""
"pit-trial","24","299883","0.0-2.0-8.0-4.0","battery-v0.2","","""event"",""trial"",""time""
""fullscreenenter"",""1"",""1598""
","
","
","""event"",""trial"",""time""
""fullscreenenter"",""1"",""1598""
","
","","","507.20000000018626","","","20","10934","1701","&#9776;","elianto","#3366ff99"," "," ","1","+10","[1357.2999999998137]","1","0","1","","","","","","","",""
"pit-trial","25","303361","0.0-2.0-8.1-0.1","battery-v0.2","","""event"",""trial"",""time""
""fullscreenenter"",""1"",""1598""
","
","
","""event"",""trial"",""time""
""fullscreenenter"",""1"",""1598""
","
","","","617.6999999992549","","","20","10934","1701","&#9776;","elianto","#3366ff99"," "," ","1","+10","[1468.3999999994412]","1","0","1","","","","","","","",""
"pit-trial","26","306767","0.0-2.0-8.1-1.1","battery-v0.2","","""event"",""trial"",""time""
""fullscreenenter"",""1"",""1598""
","
","
","""event"",""trial"",""time""
""fullscreenenter"",""1"",""1598""
","
","","","538.5999999996275","","","20","10934","1701","&#9776;","elianto","#3366ff99"," "," ","1","+10","[1389.4000000003725]","1","0","1","","","","","","","",""
"pit-trial","27","310156","0.0-2.0-8.1-2.1","battery-v0.2","","""event"",""trial"",""time""
""fullscreenenter"",""1"",""1598""
","
","
","""event"",""trial"",""time""
""fullscreenenter"",""1"",""1598""
","
","","","520","","","20","10934","1701","&#9776;","elianto","#3366ff99"," "," ","1","+10","[1370.800000000745]","1","0","1","","","","","","","",""
"pit-trial","28","313762","0.0-2.0-8.1-3.1","battery-v0.2","","""event"",""trial"",""time""
""fullscreenenter"",""1"",""1598""
","
","
","""event"",""trial"",""time""
""fullscreenenter"",""1"",""1598""
","
","","","739.7999999998137","","","20","10934","1701","&#9776;","elianto","#3366ff99"," "," ","1","0","[1599.1000000005588]","1","0","1","","","","","","","",""
"pit-trial","29","317060","0.0-2.0-8.1-4.1","battery-v0.2","","""event"",""trial"",""time""
""fullscreenenter"",""1"",""1598""
","
","
","""event"",""trial"",""time""
""fullscreenenter"",""1"",""1598""
","
","","","437","","","20","10934","1701","&#9776;","elianto","#3366ff99"," "," ","1","+10","[1290]","1","0","1","","","","","","","",""
"pit-trial","30","320360","0.0-2.0-8.2-0.2","battery-v0.2","","""event"",""trial"",""time""
""fullscreenenter"",""1"",""1598""
","
","
","""event"",""trial"",""time""
""fullscreenenter"",""1"",""1598""
","
","","","443","","","20","10934","1701","&#9776;","elianto","#3366ff99"," "," ","1","+10","[1295.3999999994412]","1","0","1","","","","","","","",""
"pit-trial","31","323600","0.0-2.0-8.2-1.2","battery-v0.2","","""event"",""trial"",""time""
""fullscreenenter"",""1"",""1598""
","
","
","""event"",""trial"",""time""
""fullscreenenter"",""1"",""1598""
","
","","","374.5","","","20","10934","1701","&#9776;","elianto","#3366ff99"," "," ","1","+10","[1230.5999999996275]","1","0","1","","","","","","","",""
"pit-trial","32","327046","0.0-2.0-8.2-2.2","battery-v0.2","","""event"",""trial"",""time""
""fullscreenenter"",""1"",""1598""
","
","
","""event"",""trial"",""time""
""fullscreenenter"",""1"",""1598""
","
","","","586.7999999998137","","","20","10934","1701","&#9776;","elianto","#3366ff99"," "," ","1","+10","[1440.2000000001863]","1","0","1","","","","","","","",""
"pit-trial","33","330430","0.0-2.0-8.2-3.2","battery-v0.2","","""event"",""trial"",""time""
""fullscreenenter"",""1"",""1598""
","
","
","""event"",""trial"",""time""
""fullscreenenter"",""1"",""1598""
","
","","","524","","","20","10934","1701","&#9776;","elianto","#3366ff99"," "," ","1","0","[1377.0999999996275]","1","0","1","","","","","","","",""
"pit-trial","34","333739","0.0-2.0-8.2-4.2","battery-v0.2","","""event"",""trial"",""time""
""fullscreenenter"",""1"",""1598""
","
","
","""event"",""trial"",""time""
""fullscreenenter"",""1"",""1598""
","
","","","451.1000000005588","","","20","10934","1701","&#9776;","elianto","#3366ff99"," "," ","1","+10","[1303.5999999996275]","1","0","1","","","","","","","",""
"call-function","35","333741","0.0-2.0-9.0","battery-v0.2","","""event"",""trial"",""time""
""fullscreenenter"",""1"",""1598""
","
","
","""event"",""trial"",""time""
""fullscreenenter"",""1"",""1598""
","
","","","","","","","","","","","","","","","","","","","","","","","","","","",""
"pit-instructions","36","369469","0.0-2.0-10.0","battery-v0.2","","""event"",""trial"",""time""
""fullscreenenter"",""1"",""1598""
","
","
","""event"",""trial"",""time""
""fullscreenenter"",""1"",""1598""
","
","","[{""page_index"":0,""viewing_time"":5131.5999999996275},{""page_index"":1,""viewing_time"":6152.200000000186},{""page_index"":2,""viewing_time"":9142.700000000186},{""page_index"":3,""viewing_time"":8271.399999999441},{""page_index"":4,""viewing_time"":7028.700000000186}]","35727","","","","","","","","","","","","","","","","","","","","","","","",""
"pit-trial","37","373426","0.0-2.0-11.0-0.0","battery-v0.2","","""event"",""trial"",""time""
""fullscreenenter"",""1"",""1598""
","
","
","""event"",""trial"",""time""
""fullscreenenter"",""1"",""1598""
","
","","","1088.0999999996275","","","20","10934","1701","&#9761;","elianto","#3366ff99","-1"," ","0","0","[1940]","1","0","2","","","","","","","",""
"pit-trial","38","376825","0.0-2.0-11.0-1.0","battery-v0.2","","""event"",""trial"",""time""
""fullscreenenter"",""1"",""1598""
","
","
","""event"",""trial"",""time""
""fullscreenenter"",""1"",""1598""
","
","","","538","","","20","10934","1701","&#9761;","elianto","#3366ff99","-1"," ","0","0","[1395.0999999996275]","1","0","2","","","","","","","",""
"pit-trial","39","381701","0.0-2.0-11.0-2.0","battery-v0.2","","""event"",""trial"",""time""
""fullscreenenter"",""1"",""1598""
","
","
","""event"",""trial"",""time""
""fullscreenenter"",""1"",""1598""
","
","","","-1","","","20","10934","1701","&#9761;","elianto","#3366ff99","-1","-1","1","+10","[]","0","0","2","","","","","","","",""
"pit-trial","40","386577","0.0-2.0-11.0-3.0","battery-v0.2","","""event"",""trial"",""time""
""fullscreenenter"",""1"",""1598""
","
","
","""event"",""trial"",""time""
""fullscreenenter"",""1"",""1598""
","
","","","-1","","","20","10934","1701","&#9761;","elianto","#3366ff99","-1","-1","1","0","[]","0","0","2","","","","","","","",""
"pit-trial","41","391434","0.0-2.0-11.0-4.0","battery-v0.2","","""event"",""trial"",""time""
""fullscreenenter"",""1"",""1598""
","
","
","""event"",""trial"",""time""
""fullscreenenter"",""1"",""1598""
","
","","","-1","","","20","10934","1701","&#9761;","elianto","#3366ff99","-1","-1","1","+10","[]","0","0","2","","","","","","","",""
"pit-trial","42","396305","0.0-2.0-11.1-0.1","battery-v0.2","","""event"",""trial"",""time""
""fullscreenenter"",""1"",""1598""
","
","
","""event"",""trial"",""time""
""fullscreenenter"",""1"",""1598""
","
","","","-1","","","20","10934","1701","&#9761;","elianto","#3366ff99","-1","-1","1","+10","[]","0","0","2","","","","","","","",""
"pit-trial","43","401171","0.0-2.0-11.1-1.1","battery-v0.2","","""event"",""trial"",""time""
""fullscreenenter"",""1"",""1598""
","
","
","""event"",""trial"",""time""
""fullscreenenter"",""1"",""1598""
","
","","","-1","","","20","10934","1701","&#9761;","elianto","#3366ff99","-1","-1","1","+10","[]","0","0","2","","","","","","","",""
"pit-trial","44","406041","0.0-2.0-11.1-2.1","battery-v0.2","","""event"",""trial"",""time""
""fullscreenenter"",""1"",""1598""
","
","
","""event"",""trial"",""time""
""fullscreenenter"",""1"",""1598""
","
","","","-1","","","20","10934","1701","&#9761;","elianto","#3366ff99","-1","-1","1","+10","[]","0","0","2","","","","","","","",""
"pit-trial","45","410900","0.0-2.0-11.1-3.1","battery-v0.2","","""event"",""trial"",""time""
""fullscreenenter"",""1"",""1598""
","
","
","""event"",""trial"",""time""
""fullscreenenter"",""1"",""1598""
","
","","","-1","","","20","10934","1701","&#9761;","elianto","#3366ff99","-1","-1","1","0","[]","0","0","2","","","","","","","",""
"pit-trial","46","415770","0.0-2.0-11.1-4.1","battery-v0.2","","""event"",""trial"",""time""
""fullscreenenter"",""1"",""1598""
","
","
","""event"",""trial"",""time""
""fullscreenenter"",""1"",""1598""
","
","","","-1","","","20","10934","1701","&#9761;","elianto","#3366ff99","-1","-1","1","+10","[]","0","0","2","","","","","","","",""
"pit-trial","47","420629","0.0-2.0-11.2-0.2","battery-v0.2","","""event"",""trial"",""time""
""fullscreenenter"",""1"",""1598""
","
","
","""event"",""trial"",""time""
""fullscreenenter"",""1"",""1598""
","
","","","-1","","","20","10934","1701","&#9761;","elianto","#3366ff99","-1","-1","1","+10","[]","0","0","2","","","","","","","",""
"pit-trial","48","425493","0.0-2.0-11.2-1.2","battery-v0.2","","""event"",""trial"",""time""
""fullscreenenter"",""1"",""1598""
","
","
","""event"",""trial"",""time""
""fullscreenenter"",""1"",""1598""
","
","","","-1","","","20","10934","1701","&#9761;","elianto","#3366ff99","-1","-1","1","+10","[]","0","0","2","","","","","","","",""
"pit-trial","49","430364","0.0-2.0-11.2-2.2","battery-v0.2","","""event"",""trial"",""time""
""fullscreenenter"",""1"",""1598""
","
","
","""event"",""trial"",""time""
""fullscreenenter"",""1"",""1598""
","
","","","-1","","","20","10934","1701","&#9761;","elianto","#3366ff99","-1","-1","1","+10","[]","0","0","2","","","","","","","",""
"pit-trial","50","435225","0.0-2.0-11.2-3.2","battery-v0.2","","""event"",""trial"",""time""
""fullscreenenter"",""1"",""1598""
","
","
","""event"",""trial"",""time""
""fullscreenenter"",""1"",""1598""
","
","","","-1","","","20","10934","1701","&#9761;","elianto","#3366ff99","-1","-1","1","0","[]","0","0","2","","","","","","","",""
"pit-trial","51","440087","0.0-2.0-11.2-4.2","battery-v0.2","","""event"",""trial"",""time""
""fullscreenenter"",""1"",""1598""
","
","
","""event"",""trial"",""time""
""fullscreenenter"",""1"",""1598""
","
","","","-1","","","20","10934","1701","&#9761;","elianto","#3366ff99","-1","-1","1","+10","[]","0","0","2","","","","","","","",""
"pit-trial","52","443579","0.0-2.0-11.3-0.3","battery-v0.2","","""event"",""trial"",""time""
""fullscreenenter"",""1"",""1598""
","
","
","""event"",""trial"",""time""
""fullscreenenter"",""1"",""1598""
","
","","","629.7999999998137","","","20","10934","1701","&#9761;","elianto","#3366ff99","-1"," ","0","0","[1480.7999999998137,2474.7000000001863]","2","0","2","","","","","","","",""
"pit-trial","53","447972","0.0-2.0-11.3-1.3","battery-v0.2","","""event"",""trial"",""time""
""fullscreenenter"",""1"",""1598""
","
","
","""event"",""trial"",""time""
""fullscreenenter"",""1"",""1598""
","
","","","1531.2000000001863","","","20","10934","1701","&#9761;","elianto","#3366ff99","-1"," ","0","0","[2387.5999999996275]","1","0","2","","","","","","","",""
"pit-trial","54","452833","0.0-2.0-11.3-2.3","battery-v0.2","","""event"",""trial"",""time""
""fullscreenenter"",""1"",""1598""
","
","
","""event"",""trial"",""time""
""fullscreenenter"",""1"",""1598""
","
","","","-1","","","20","10934","1701","&#9761;","elianto","#3366ff99","-1","-1","1","+10","[]","0","0","2","","","","","","","",""
"pit-trial","55","457693","0.0-2.0-11.3-3.3","battery-v0.2","","""event"",""trial"",""time""
""fullscreenenter"",""1"",""1598""
","
","
","""event"",""trial"",""time""
""fullscreenenter"",""1"",""1598""
","
","","","-1","","","20","10934","1701","&#9761;","elianto","#3366ff99","-1","-1","1","0","[]","0","0","2","","","","","","","",""
"pit-trial","56","462550","0.0-2.0-11.3-4.3","battery-v0.2","","""event"",""trial"",""time""
""fullscreenenter"",""1"",""1598""
","
","
","""event"",""trial"",""time""
""fullscreenenter"",""1"",""1598""
","
","","","-1","","","20","10934","1701","&#9761;","elianto","#3366ff99","-1","-1","1","+10","[]","0","0","2","","","","","","","",""
"call-function","57","462552","0.0-2.0-12.0","battery-v0.2","","""event"",""trial"",""time""
""fullscreenenter"",""1"",""1598""
","
","
","""event"",""trial"",""time""
""fullscreenenter"",""1"",""1598""
","
","","","","","","","","","","","","","","","","","","","","","","","","","","",""
"pit-instructions","58","495117","0.0-2.0-13.0","battery-v0.2","","""event"",""trial"",""time""
""fullscreenenter"",""1"",""1598""
","
","
","""event"",""trial"",""time""
""fullscreenenter"",""1"",""1598""
","
","","[{""page_index"":0,""viewing_time"":6143.5},{""page_index"":1,""viewing_time"":8387.299999999814},{""page_index"":2,""viewing_time"":3117.0999999996275},{""page_index"":3,""viewing_time"":10690.900000000373},{""page_index"":4,""viewing_time"":4224.4000000003725}]","32563.599999999627","","","","","","","","","","","","","","","","","","","","","","","",""
"pit-trial","59","498701","0.0-2.0-14.0-0.0","battery-v0.2","","""event"",""trial"",""time""
""fullscreenenter"",""1"",""1598""
","
","
","""event"",""trial"",""time""
""fullscreenenter"",""1"",""1598""
","
","","","716.2000000001863","","","20","10934","1701","&#9826;","elianto","#f73b6a7A","-1"," ","0","-10","[1568.7999999998137]","1","0","3","","","","","","","",""
"pit-trial","60","503561","0.0-2.0-14.0-1.0","battery-v0.2","","""event"",""trial"",""time""
""fullscreenenter"",""1"",""1598""
","
","
","""event"",""trial"",""time""
""fullscreenenter"",""1"",""1598""
","
","","","-1","","","20","10934","1701","&#9826;","elianto","#f73b6a7A","-1","-1","1","0","[]","0","0","3","","","","","","","",""
"pit-trial","61","508436","0.0-2.0-14.0-2.0","battery-v0.2","","""event"",""trial"",""time""
""fullscreenenter"",""1"",""1598""
","
","
","""event"",""trial"",""time""
""fullscreenenter"",""1"",""1598""
","
","","","-1","","","20","10934","1701","&#9826;","elianto","#f73b6a7A","-1","-1","1","0","[]","0","0","3","","","","","","","",""
"pit-trial","62","511975","0.0-2.0-14.0-3.0","battery-v0.2","","""event"",""trial"",""time""
""fullscreenenter"",""1"",""1598""
","
","
","""event"",""trial"",""time""
""fullscreenenter"",""1"",""1598""
","
","","","677.5","","","20","10934","1701","&#9826;","elianto","#f73b6a7A","-1"," ","0","0","[1528.7999999998137]","1","0","3","","","","","","","",""
"pit-trial","63","515461","0.0-2.0-14.0-4.0","battery-v0.2","","""event"",""trial"",""time""
""fullscreenenter"",""1"",""1598""
","
","
","""event"",""trial"",""time""
""fullscreenenter"",""1"",""1598""
","
","","","621.2000000001863","","","20","10934","1701","&#9826;","elianto","#f73b6a7A","-1"," ","0","-10","[1481.7999999998137]","1","0","3","","","","","","","",""
"pit-trial","64","520343","0.0-2.0-14.1-0.1","battery-v0.2","","""event"",""trial"",""time""
""fullscreenenter"",""1"",""1598""
","
","
","""event"",""trial"",""time""
""fullscreenenter"",""1"",""1598""
","
","","","-1","","","20","10934","1701","&#9826;","elianto","#f73b6a7A","-1","-1","1","0","[]","0","0","3","","","","","","","",""
"pit-trial","65","525206","0.0-2.0-14.1-1.1","battery-v0.2","","""event"",""trial"",""time""
""fullscreenenter"",""1"",""1598""
","
","
","""event"",""trial"",""time""
""fullscreenenter"",""1"",""1598""
","
","","","-1","","","20","10934","1701","&#9826;","elianto","#f73b6a7A","-1","-1","1","0","[]","0","0","3","","","","","","","",""
"pit-trial","66","530070","0.0-2.0-14.1-2.1","battery-v0.2","","""event"",""trial"",""time""
""fullscreenenter"",""1"",""1598""
","
","
","""event"",""trial"",""time""
""fullscreenenter"",""1"",""1598""
","
","","","-1","","","20","10934","1701","&#9826;","elianto","#f73b6a7A","-1","-1","1","0","[]","0","0","3","","","","","","","",""
"pit-trial","67","534941","0.0-2.0-14.1-3.1","battery-v0.2","","""event"",""trial"",""time""
""fullscreenenter"",""1"",""1598""
","
","
","""event"",""trial"",""time""
""fullscreenenter"",""1"",""1598""
","
","","","-1","","","20","10934","1701","&#9826;","elianto","#f73b6a7A","-1","-1","1","-10","[]","0","0","3","","","","","","","",""
"pit-trial","68","539811","0.0-2.0-14.1-4.1","battery-v0.2","","""event"",""trial"",""time""
""fullscreenenter"",""1"",""1598""
","
","
","""event"",""trial"",""time""
""fullscreenenter"",""1"",""1598""
","
","","","-1","","","20","10934","1701","&#9826;","elianto","#f73b6a7A","-1","-1","1","0","[]","0","0","3","","","","","","","",""
"pit-trial","69","544674","0.0-2.0-14.2-0.2","battery-v0.2","","""event"",""trial"",""time""
""fullscreenenter"",""1"",""1598""
","
","
","""event"",""trial"",""time""
""fullscreenenter"",""1"",""1598""
","
","","","-1","","","20","10934","1701","&#9826;","elianto","#f73b6a7A","-1","-1","1","0","[]","0","0","3","","","","","","","",""
"pit-trial","70","549538","0.0-2.0-14.2-1.2","battery-v0.2","","""event"",""trial"",""time""
""fullscreenenter"",""1"",""1598""
","
","
","""event"",""trial"",""time""
""fullscreenenter"",""1"",""1598""
","
","","","-1","","","20","10934","1701","&#9826;","elianto","#f73b6a7A","-1","-1","1","0","[]","0","0","3","","","","","","","",""
"pit-trial","71","554401","0.0-2.0-14.2-2.2","battery-v0.2","","""event"",""trial"",""time""
""fullscreenenter"",""1"",""1598""
","
","
","""event"",""trial"",""time""
""fullscreenenter"",""1"",""1598""
","
","","","-1","","","20","10934","1701","&#9826;","elianto","#f73b6a7A","-1","-1","1","0","[]","0","0","3","","","","","","","",""
"pit-trial","72","559267","0.0-2.0-14.2-3.2","battery-v0.2","","""event"",""trial"",""time""
""fullscreenenter"",""1"",""1598""
","
","
","""event"",""trial"",""time""
""fullscreenenter"",""1"",""1598""
","
","","","-1","","","20","10934","1701","&#9826;","elianto","#f73b6a7A","-1","-1","1","-10","[]","0","0","3","","","","","","","",""
"pit-trial","73","564135","0.0-2.0-14.2-4.2","battery-v0.2","","""event"",""trial"",""time""
""fullscreenenter"",""1"",""1598""
","
","
","""event"",""trial"",""time""
""fullscreenenter"",""1"",""1598""
","
","","","-1","","","20","10934","1701","&#9826;","elianto","#f73b6a7A","-1","-1","1","0","[]","0","0","3","","","","","","","",""
"pit-trial","74","569004","0.0-2.0-14.3-0.3","battery-v0.2","","""event"",""trial"",""time""
""fullscreenenter"",""1"",""1598""
","
","
","""event"",""trial"",""time""
""fullscreenenter"",""1"",""1598""
","
","","","-1","","","20","10934","1701","&#9826;","elianto","#f73b6a7A","-1","-1","1","0","[]","0","0","3","","","","","","","",""
"pit-trial","75","573864","0.0-2.0-14.3-1.3","battery-v0.2","","""event"",""trial"",""time""
""fullscreenenter"",""1"",""1598""
","
","
","""event"",""trial"",""time""
""fullscreenenter"",""1"",""1598""
","
","","","-1","","","20","10934","1701","&#9826;","elianto","#f73b6a7A","-1","-1","1","0","[]","0","0","3","","","","","","","",""
"pit-trial","76","578729","0.0-2.0-14.3-2.3","battery-v0.2","","""event"",""trial"",""time""
""fullscreenenter"",""1"",""1598""
","
","
","""event"",""trial"",""time""
""fullscreenenter"",""1"",""1598""
","
","","","-1","","","20","10934","1701","&#9826;","elianto","#f73b6a7A","-1","-1","1","0","[]","0","0","3","","","","","","","",""
"pit-trial","77","583589","0.0-2.0-14.3-3.3","battery-v0.2","","""event"",""trial"",""time""
""fullscreenenter"",""1"",""1598""
","
","
","""event"",""trial"",""time""
""fullscreenenter"",""1"",""1598""
","
","","","-1","","","20","10934","1701","&#9826;","elianto","#f73b6a7A","-1","-1","1","-10","[]","0","0","3","","","","","","","",""
"pit-trial","78","586645","0.0-2.0-14.3-4.3","battery-v0.2","","""event"",""trial"",""time""
""fullscreenenter"",""1"",""1598""
","
","
","""event"",""trial"",""time""
""fullscreenenter"",""1"",""1598""
","
","","","198","","","20","10934","1701","&#9826;","elianto","#f73b6a7A","-1"," ","0","-10","[105,1049.4000000003725]","2","0","3","","","","","","","",""
"call-function","79","586647","0.0-2.0-15.0","battery-v0.2","","""event"",""trial"",""time""
""fullscreenenter"",""1"",""1598""
","
","
","""event"",""trial"",""time""
""fullscreenenter"",""1"",""1598""
","
","","","","","","","","","","","","","","","","","","","","","","","","","","",""
"pit-instructions","80","610222","0.0-2.0-16.0","battery-v0.2","","""event"",""trial"",""time""
""fullscreenenter"",""1"",""1598""
","
","
","""event"",""trial"",""time""
""fullscreenenter"",""1"",""1598""
","
","","[{""page_index"":0,""viewing_time"":7156},{""page_index"":1,""viewing_time"":8224.800000000745},{""page_index"":2,""viewing_time"":4184.299999999814},{""page_index"":3,""viewing_time"":4006.2999999998137}]","23571.800000000745","","","","","","","","","","","","","","","","","","","","","","","",""
"pit-trial","81","613753","0.0-2.0-17.0-0.0","battery-v0.2","","""event"",""trial"",""time""
""fullscreenenter"",""1"",""1598""
","
","
","""event"",""trial"",""time""
""fullscreenenter"",""1"",""1598""
","
","","","664.2000000001863","","","20","10934","1701","&#9789;","elianto","#f73b6a7A"," "," ","1","0","[1515.9000000003725]","1","0","4","","","","","","","",""
"pit-trial","82","617055","0.0-2.0-17.0-1.0","battery-v0.2","","""event"",""trial"",""time""
""fullscreenenter"",""1"",""1598""
","
","
","""event"",""trial"",""time""
""fullscreenenter"",""1"",""1598""
","
","","","428.20000000018626","","","20","10934","1701","&#9789;","elianto","#f73b6a7A"," "," ","1","0","[1284.5]","1","0","4","","","","","","","",""
"pit-trial","83","620421","0.0-2.0-17.0-2.0","battery-v0.2","","""event"",""trial"",""time""
""fullscreenenter"",""1"",""1598""
","
","
","""event"",""trial"",""time""
""fullscreenenter"",""1"",""1598""
","
","","","497.1000000005588","","","20","10934","1701","&#9789;","elianto","#f73b6a7A"," "," ","1","0","[1351.2000000001863]","1","0","4","","","","","","","",""
"pit-trial","84","623525","0.0-2.0-17.0-3.0","battery-v0.2","","""event"",""trial"",""time""
""fullscreenenter"",""1"",""1598""
","
","
","""event"",""trial"",""time""
""fullscreenenter"",""1"",""1598""
","
","","","237.70000000018626","","","20","10934","1701","&#9789;","elianto","#f73b6a7A"," "," ","1","-10","[1089.7999999998137]","1","0","4","","","","","","","",""
"pit-trial","85","627324","0.0-2.0-17.0-4.0","battery-v0.2","","""event"",""trial"",""time""
""fullscreenenter"",""1"",""1598""
","
","
","""event"",""trial"",""time""
""fullscreenenter"",""1"",""1598""
","
","","","943.7999999998137","","","20","10934","1701","&#9789;","elianto","#f73b6a7A"," "," ","1","0","[1794.5]","1","0","4","","","","","","","",""
"pit-trial","86","630655","0.0-2.0-17.1-0.1","battery-v0.2","","""event"",""trial"",""time""
""fullscreenenter"",""1"",""1598""
","
","
","""event"",""trial"",""time""
""fullscreenenter"",""1"",""1598""
","
","","","474.30000000074506","","","20","10934","1701","&#9789;","elianto","#f73b6a7A"," "," ","1","0","[1326.0999999996275]","1","0","4","","","","","","","",""
"pit-trial","87","634043","0.0-2.0-17.1-1.1","battery-v0.2","","""event"",""trial"",""time""
""fullscreenenter"",""1"",""1598""
","
","
","""event"",""trial"",""time""
""fullscreenenter"",""1"",""1598""
","
","","","519.6000000005588","","","20","10934","1701","&#9789;","elianto","#f73b6a7A"," "," ","1","0","[1371.5]","1","0","4","","","","","","","",""
"pit-trial","88","637541","0.0-2.0-17.1-2.1","battery-v0.2","","""event"",""trial"",""time""
""fullscreenenter"",""1"",""1598""
","
","
","""event"",""trial"",""time""
""fullscreenenter"",""1"",""1598""
","
","","","629.9000000003725","","","20","10934","1701","&#9789;","elianto","#f73b6a7A"," "," ","1","0","[1481.1000000005588]","1","0","4","","","","","","","",""
"pit-trial","89","641122","0.0-2.0-17.1-3.1","battery-v0.2","","""event"",""trial"",""time""
""fullscreenenter"",""1"",""1598""
","
","
","""event"",""trial"",""time""
""fullscreenenter"",""1"",""1598""
","
","","","721.2999999998137","","","20","10934","1701","&#9789;","elianto","#f73b6a7A"," "," ","1","-10","[1574.2000000001863]","1","0","4","","","","","","","",""
"pit-trial","90","644209","0.0-2.0-17.1-4.1","battery-v0.2","","""event"",""trial"",""time""
""fullscreenenter"",""1"",""1598""
","
","
","""event"",""trial"",""time""
""fullscreenenter"",""1"",""1598""
","
","","","225.69999999925494","","","20","10934","1701","&#9789;","elianto","#f73b6a7A"," "," ","1","0","[1076.5]","1","0","4","","","","","","","",""
"pit-trial","91","647812","0.0-2.0-17.2-0.2","battery-v0.2","","""event"",""trial"",""time""
""fullscreenenter"",""1"",""1598""
","
","
","""event"",""trial"",""time""
""fullscreenenter"",""1"",""1598""
","
","","","742.9000000003725","","","20","10934","1701","&#9789;","elianto","#f73b6a7A"," "," ","1","0","[1593.5]","1","0","4","","","","","","","",""
"pit-trial","92","651157","0.0-2.0-17.2-1.2","battery-v0.2","","""event"",""trial"",""time""
""fullscreenenter"",""1"",""1598""
","
","
","""event"",""trial"",""time""
""fullscreenenter"",""1"",""1598""
","
","","","486.20000000018626","","","20","10934","1701","&#9789;","elianto","#f73b6a7A"," "," ","1","0","[1339.199999999255]","1","0","4","","","","","","","",""
"pit-trial","93","654516","0.0-2.0-17.2-2.2","battery-v0.2","","""event"",""trial"",""time""
""fullscreenenter"",""1"",""1598""
","
","
","""event"",""trial"",""time""
""fullscreenenter"",""1"",""1598""
","
","","","499.29999999981374","","","20","10934","1701","&#9789;","elianto","#f73b6a7A"," "," ","1","0","[1350]","1","0","4","","","","","","","",""
"pit-trial","94","657878","0.0-2.0-17.2-3.2","battery-v0.2","","""event"",""trial"",""time""
""fullscreenenter"",""1"",""1598""
","
","
","""event"",""trial"",""time""
""fullscreenenter"",""1"",""1598""
","
","","","503.5","","","20","10934","1701","&#9789;","elianto","#f73b6a7A"," "," ","1","-10","[1359.2999999998137]","1","0","4","","","","","","","",""
"pit-trial","95","661288","0.0-2.0-17.2-4.2","battery-v0.2","","""event"",""trial"",""time""
""fullscreenenter"",""1"",""1598""
","
","
","""event"",""trial"",""time""
""fullscreenenter"",""1"",""1598""
","
","","","550.7000000001863","","","20","10934","1701","&#9789;","elianto","#f73b6a7A"," "," ","1","0","[1401]","1","0","4","","","","","","","",""
"pit-trial","96","664527","0.0-2.0-17.3-0.3","battery-v0.2","","""event"",""trial"",""time""
""fullscreenenter"",""1"",""1598""
","
","
","""event"",""trial"",""time""
""fullscreenenter"",""1"",""1598""
","
","","","382.79999999981374","","","20","10934","1701","&#9789;","elianto","#f73b6a7A"," "," ","1","0","[1235]","1","0","4","","","","","","","",""
"pit-trial","97","667419","0.0-2.0-17.3-1.3","battery-v0.2","","""event"",""trial"",""time""
""fullscreenenter"",""1"",""1598""
","
","
","""event"",""trial"",""time""
""fullscreenenter"",""1"",""1598""
","
","","","31.799999999813735","","","20","10934","1701","&#9789;","elianto","#f73b6a7A"," "," ","1","0","[884.2000000001863]","1","0","4","","","","","","","",""
"pit-trial","98","670820","0.0-2.0-17.3-2.3","battery-v0.2","","""event"",""trial"",""time""
""fullscreenenter"",""1"",""1598""
","
","
","""event"",""trial"",""time""
""fullscreenenter"",""1"",""1598""
","
","","","540.2999999998137","","","20","10934","1701","&#9789;","elianto","#f73b6a7A"," "," ","1","0","[1391.0999999996275]","1","0","4","","","","","","","",""
"pit-trial","99","674073","0.0-2.0-17.3-3.3","battery-v0.2","","""event"",""trial"",""time""
""fullscreenenter"",""1"",""1598""
","
","
","""event"",""trial"",""time""
""fullscreenenter"",""1"",""1598""
","
","","","398.20000000018626","","","20","10934","1701","&#9789;","elianto","#f73b6a7A"," "," ","1","-10","[1250.300000000745]","1","0","4","","","","","","","",""
"pit-trial","100","677230","0.0-2.0-17.3-4.3","battery-v0.2","","""event"",""trial"",""time""
""fullscreenenter"",""1"",""1598""
","
","
","""event"",""trial"",""time""
""fullscreenenter"",""1"",""1598""
","
","","","297.20000000018626","","","20","10934","1701","&#9789;","elianto","#f73b6a7A"," "," ","1","0","[1148.7999999998137]","1","0","4","","","","","","","",""
"call-function","101","677232","0.0-2.0-18.0","battery-v0.2","","""event"",""trial"",""time""
""fullscreenenter"",""1"",""1598""
","
","
","""event"",""trial"",""time""
""fullscreenenter"",""1"",""1598""
","
","","","","","","","","","","","","","","","","","","","","","","","","","","",""
"pit-instructions","102","727234","0.0-2.0-19.0","battery-v0.2","","""event"",""trial"",""time""
""fullscreenenter"",""1"",""1598""
","
","
","""event"",""trial"",""time""
""fullscreenenter"",""1"",""1598""
","
","","[{""page_index"":0,""viewing_time"":6306.5999999996275},{""page_index"":1,""viewing_time"":4058.100000000559},{""page_index"":2,""viewing_time"":8043.799999999814},{""page_index"":3,""viewing_time"":5616.0999999996275},{""page_index"":4,""viewing_time"":6195.600000000559},{""page_index"":5,""viewing_time"":8118.5},{""page_index"":6,""viewing_time"":4011.399999999441},{""page_index"":7,""viewing_time"":4538.9000000003725},{""page_index"":8,""viewing_time"":3109.9000000003725}]","49999.40000000037","","","","","","","","","","","","","","","","","","","","","","","",""
"pit-comprehension","103","731313","0.0-2.0-20.0-0.0","battery-v0.2","","""event"",""trial"",""time""
""fullscreenenter"",""1"",""1598""
","
","
","""event"",""trial"",""time""
""fullscreenenter"",""1"",""1598""
","
","","","4073.5","[""SPACE""]","0","20","10934","1701","","","","","","","","","","","","","","","","","","",""
"pit-instructions","104","733402","0.0-2.0-20.0-1.0","battery-v0.2","","""event"",""trial"",""time""
""fullscreenenter"",""1"",""1598""
","
","
","""event"",""trial"",""time""
""fullscreenenter"",""1"",""1598""
","
","","[{""page_index"":0,""viewing_time"":2031}]","2031.0999999996275","","","","","","","","","","","","","","","","","","","","","","","",""
"pit-comprehension","105","738383","0.0-2.0-21.0-0.0","battery-v0.2","","""event"",""trial"",""time""
""fullscreenenter"",""1"",""1598""
","
","
","""event"",""trial"",""time""
""fullscreenenter"",""1"",""1598""
","
","","","4977.5999999996275","[""10""]","0","20","10934","1701","","","","","","","","","","","","","","","","","","",""
"pit-instructions","106","744386","0.0-2.0-21.0-1.0","battery-v0.2","","""event"",""trial"",""time""
""fullscreenenter"",""1"",""1598""
","
","
","""event"",""trial"",""time""
""fullscreenenter"",""1"",""1598""
","
","","[{""page_index"":0,""viewing_time"":5941}]","5941.399999999441","","","","","","","","","","","","","","","","","","","","","","","",""
"pit-comprehension","107","751063","0.0-2.0-22.0-0.0","battery-v0.2","","""event"",""trial"",""time""
""fullscreenenter"",""1"",""1598""
","
","
","""event"",""trial"",""time""
""fullscreenenter"",""1"",""1598""
","
","","","6670.700000000186","[""0""]","0","20","10934","1701","","","","","","","","","","","","","","","","","","",""
"pit-instructions","108","758722","0.0-2.0-22.0-1.0","battery-v0.2","","""event"",""trial"",""time""
""fullscreenenter"",""1"",""1598""
","
","
","""event"",""trial"",""time""
""fullscreenenter"",""1"",""1598""
","
","","[{""page_index"":0,""viewing_time"":7607.200000000186}]","7607.5","","","","","","","","","","","","","","","","","","","","","","","",""
"pit-comprehension","109","766972","0.0-2.0-23.0-0.0","battery-v0.2","","""event"",""trial"",""time""
""fullscreenenter"",""1"",""1598""
","
","
","""event"",""trial"",""time""
""fullscreenenter"",""1"",""1598""
","
","","","8245.700000000186","[""True""]","0","20","10934","1701","","","","","","","","","","","","","","","","","","",""
"pit-instructions","110","768238","0.0-2.0-23.0-1.0","battery-v0.2","","""event"",""trial"",""time""
""fullscreenenter"",""1"",""1598""
","
","
","""event"",""trial"",""time""
""fullscreenenter"",""1"",""1598""
","
","","[{""page_index"":0,""viewing_time"":1222.7000000001863}]","1223.0999999996275","","","","","","","","","","","","","","","","","","","","","","","",""
"pit-comprehension","111","775303","0.0-2.0-24.0-0.0","battery-v0.2","","""event"",""trial"",""time""
""fullscreenenter"",""1"",""1598""
","
","
","""event"",""trial"",""time""
""fullscreenenter"",""1"",""1598""
","
","","","7060.699999999255","[""True""]","0","20","10934","1701","","","","","","","","","","","","","","","","","","",""
"pit-instructions","112","776548","0.0-2.0-24.0-1.0","battery-v0.2","","""event"",""trial"",""time""
""fullscreenenter"",""1"",""1598""
","
","
","""event"",""trial"",""time""
""fullscreenenter"",""1"",""1598""
","
","","[{""page_index"":0,""viewing_time"":1191.5999999996275}]","1191.8999999994412","","","","","","","","","","","","","","","","","","","","","","","",""
"pit-comprehension","113","782813","0.0-2.0-25.0-0.0","battery-v0.2","","""event"",""trial"",""time""
""fullscreenenter"",""1"",""1598""
","
","
","""event"",""trial"",""time""
""fullscreenenter"",""1"",""1598""
","
","","","6260.5999999996275","[""True""]","0","20","10934","1701","","","","","","","","","","","","","","","","","","",""
"pit-instructions","114","783969","0.0-2.0-25.0-1.0","battery-v0.2","","""event"",""trial"",""time""
""fullscreenenter"",""1"",""1598""
","
","
","""event"",""trial"",""time""
""fullscreenenter"",""1"",""1598""
","
","","[{""page_index"":0,""viewing_time"":1088.7999999998137}]","1089.0999999996275","","","","","","","","","","","","","","","","","","","","","","","",""
"pit-comprehension","115","788434","0.0-2.0-26.0-0.0","battery-v0.2","","""event"",""trial"",""time""
""fullscreenenter"",""1"",""1598""
","
","
","""event"",""trial"",""time""
""fullscreenenter"",""1"",""1598""
","
","","","4460.5","[""False""]","0","20","10934","1701","","","","","","","","","","","","","","","","","","",""
"pit-instructions","116","789992","0.0-2.0-26.0-1.0","battery-v0.2","","""event"",""trial"",""time""
""fullscreenenter"",""1"",""1598""
","
","
","""event"",""trial"",""time""
""fullscreenenter"",""1"",""1598""
","
","","[{""page_index"":0,""viewing_time"":1500.5}]","1500.7999999998137","","","","","","","","","","","","","","","","","","","","","","","",""
"pit-instructions","117","805178","0.0-3.0","battery-v0.2","","""event"",""trial"",""time""
""fullscreenenter"",""1"",""1598""
","
","
","""event"",""trial"",""time""
""fullscreenenter"",""1"",""1598""
","
","","[{""page_index"":0,""viewing_time"":3962.4000000003725},{""page_index"":1,""viewing_time"":5066},{""page_index"":2,""viewing_time"":6156.199999999255}]","15185.099999999627","","","","","","","","","","","","","","","","","","","","","","","",""
"pit-trial","118","809122","0.0-4.0","battery-v0.2","","""event"",""trial"",""time""
""fullscreenenter"",""1"",""1598""
","
","
","""event"",""trial"",""time""
""fullscreenenter"",""1"",""1598""
","
","","","1064.5999999996275","","","20","10934","1701","&#9752;","elianto","#f73b6a7A"," "," ","1","0","[1924.9000000003725]","1","1","","","10934","1","3","3","lose","go","0"
"pit-trial","119","813131","0.0-5.0","battery-v0.2","","""event"",""trial"",""time""
""fullscreenenter"",""1"",""1598""
","
","
","""event"",""trial"",""time""
""fullscreenenter"",""1"",""1598""
","
","","","1144.2999999998137","","","20","10934","1701","&#9730;","elianto","#3366ff99"," "," ","1","+10","[1998.0999999996275]","1","1","","","10934","2","1","1","win","go","0"
"pit-trial","120","817032","0.0-6.0","battery-v0.2","","""event"",""trial"",""time""
""fullscreenenter"",""1"",""1598""
","
","
","""event"",""trial"",""time""
""fullscreenenter"",""1"",""1598""
","
","","","1033.7999999998137","","","20","10934","1701","&#9733;","elianto","#3366ff99","-1"," ","0","0","[1884.6000000005588]","1","1","","","10934","3","2","2","win","no-go","0"
"pit-trial","121","821911","0.0-7.0","battery-v0.2","","""event"",""trial"",""time""
""fullscreenenter"",""1"",""1598""
","
","
","""event"",""trial"",""time""
""fullscreenenter"",""1"",""1598""
","
","","","-1","","","20","10934","1701","&#9728;","elianto","#f73b6a7A","-1","-1","1","0","[3097.2999999998137]","1","1","","","10934","4","0","4","lose","no-go","0"
"pit-trial","122","826782","0.0-8.0","battery-v0.2","","""event"",""trial"",""time""
""fullscreenenter"",""1"",""1598""
","
","
","""event"",""trial"",""time""
""fullscreenenter"",""1"",""1598""
","
","","","-1","","","20","10934","1701","&#9730;","elianto","#3366ff99"," ","-1","0","0","[3260.7999999998137]","1","1","","","10934","5","1","1","win","go","0"
"pit-trial","123","830613","0.0-9.0","battery-v0.2","","""event"",""trial"",""time""
""fullscreenenter"",""1"",""1598""
","
","
","""event"",""trial"",""time""
""fullscreenenter"",""1"",""1598""
","
","","","976.7999999998137","","","20","10934","1701","&#9752;","elianto","#f73b6a7A"," "," ","1","0","[1827]","1","1","","","10934","6","3","3","lose","go","0"
"pit-trial","124","834408","0.0-10.0","battery-v0.2","","""event"",""trial"",""time""
""fullscreenenter"",""1"",""1598""
","
","
","""event"",""trial"",""time""
""fullscreenenter"",""1"",""1598""
","
","","","927.1999999992549","","","20","10934","1701","&#9733;","elianto","#3366ff99","-1"," ","0","+10","[1777.7999999998137]","1","1","","","10934","7","2","2","win","no-go","1"
"pit-trial","125","838513","0.0-11.0","battery-v0.2","","""event"",""trial"",""time""
""fullscreenenter"",""1"",""1598""
","
","
","""event"",""trial"",""time""
""fullscreenenter"",""1"",""1598""
","
","","","1248.7000000001863","","","20","10934","1701","&#9728;","elianto","#f73b6a7A","-1"," ","0","-10","[2100.2000000001863]","1","1","","","10934","8","0","4","lose","no-go","0"
"pit-trial","126","842214","0.0-12.0","battery-v0.2","","""event"",""trial"",""time""
""fullscreenenter"",""1"",""1598""
","
","
","""event"",""trial"",""time""
""fullscreenenter"",""1"",""1598""
","
","","","845.9000000003725","","","20","10934","1701","&#9730;","elianto","#3366ff99"," "," ","1","0","[1696.3999999994412]","1","1","","","10934","9","1","1","win","go","1"
"pit-trial","127","847081","0.0-13.0","battery-v0.2","","""event"",""trial"",""time""
""fullscreenenter"",""1"",""1598""
","
","
","""event"",""trial"",""time""
""fullscreenenter"",""1"",""1598""
","
","","","-1","","","20","10934","1701","&#9728;","elianto","#f73b6a7A","-1","-1","1","0","[]","0","1","","","10934","10","0","4","lose","no-go","0"
"pit-trial","128","851952","0.0-14.0","battery-v0.2","","""event"",""trial"",""time""
""fullscreenenter"",""1"",""1598""
","
","
","""event"",""trial"",""time""
""fullscreenenter"",""1"",""1598""
","
","","","-1","","","20","10934","1701","&#9733;","elianto","#3366ff99","-1","-1","1","+10","[]","0","1","","","10934","11","2","2","win","no-go","0"
"pit-trial","129","855733","0.0-15.0","battery-v0.2","","""event"",""trial"",""time""
""fullscreenenter"",""1"",""1598""
","
","
","""event"",""trial"",""time""
""fullscreenenter"",""1"",""1598""
","
","","","927.1000000005588","","","20","10934","1701","&#9752;","elianto","#f73b6a7A"," "," ","1","0","[1777.7000000001863]","1","1","","","10934","12","3","3","lose","go","0"
"pit-trial","130","859505","0.0-16.0","battery-v0.2","","""event"",""trial"",""time""
""fullscreenenter"",""1"",""1598""
","
","
","""event"",""trial"",""time""
""fullscreenenter"",""1"",""1598""
","
","","","918","","","20","10934","1701","&#9752;","elianto","#f73b6a7A"," "," ","1","0","[1768.2000000001863]","1","1","","","10934","13","3","3","lose","go","0"
"pit-trial","131","864371","0.0-17.0","battery-v0.2","","""event"",""trial"",""time""
""fullscreenenter"",""1"",""1598""
","
","
","""event"",""trial"",""time""
""fullscreenenter"",""1"",""1598""
","
","","","-1","","","20","10934","1701","&#9728;","elianto","#f73b6a7A","-1","-1","1","-10","[]","0","1","","","10934","14","0","4","lose","no-go","1"
"pit-trial","132","869233","0.0-18.0","battery-v0.2","","""event"",""trial"",""time""
""fullscreenenter"",""1"",""1598""
","
","
","""event"",""trial"",""time""
""fullscreenenter"",""1"",""1598""
","
","","","-1","","","20","10934","1701","&#9733;","elianto","#3366ff99","-1","-1","1","+10","[]","0","1","","","10934","15","2","2","win","no-go","0"
"pit-trial","133","872757","0.0-19.0","battery-v0.2","","""event"",""trial"",""time""
""fullscreenenter"",""1"",""1598""
","
","
","""event"",""trial"",""time""
""fullscreenenter"",""1"",""1598""
","
","","","661.0999999996275","","","20","10934","1701","&#9730;","elianto","#3366ff99"," "," ","1","+10","[1516.3999999994412]","1","1","","","10934","16","1","1","win","go","0"
"pit-trial","134","876264","0.0-20.0","battery-v0.2","","""event"",""trial"",""time""
""fullscreenenter"",""1"",""1598""
","
","
","""event"",""trial"",""time""
""fullscreenenter"",""1"",""1598""
","
","","","643.4000000003725","","","20","10934","1701","&#9752;","elianto","#f73b6a7A"," "," ","1","0","[1498.4000000003725]","1","1","","","10934","17","3","3","lose","go","0"
"pit-trial","135","881125","0.0-21.0","battery-v0.2","","""event"",""trial"",""time""
""fullscreenenter"",""1"",""1598""
","
","
","""event"",""trial"",""time""
""fullscreenenter"",""1"",""1598""
","
","","","-1","","","20","10934","1701","&#9728;","elianto","#f73b6a7A","-1","-1","1","0","[]","0","1","","","10934","18","0","4","lose","no-go","0"
"pit-trial","136","885481","0.0-22.0","battery-v0.2","","""event"",""trial"",""time""
""fullscreenenter"",""1"",""1598""
","
","
","""event"",""trial"",""time""
""fullscreenenter"",""1"",""1598""
","
","","","1493.9000000003725","","","20","10934","1701","&#9730;","elianto","#3366ff99"," "," ","1","+10","[2347.5999999996275]","1","1","","","10934","19","1","1","win","go","0"
"pit-trial","137","890020","0.0-23.0","battery-v0.2","","""event"",""trial"",""time""
""fullscreenenter"",""1"",""1598""
","
","
","""event"",""trial"",""time""
""fullscreenenter"",""1"",""1598""
","
","","","1674.3999999994412","","","20","10934","1701","&#9733;","elianto","#3366ff99","-1"," ","0","0","[2525]","1","1","","","10934","20","2","2","win","no-go","0"
"pit-instructions","138","901691","0.0-24.0","battery-v0.2","","""event"",""trial"",""time""
""fullscreenenter"",""1"",""1598""
","
","
","""event"",""trial"",""time""
""fullscreenenter"",""1"",""1598""
","
","","[{""page_index"":0,""viewing_time"":5107.0999999996275},{""page_index"":1,""viewing_time"":6561.5}]","11669","","","","","","","","","","","","","","","","","","","","","","","",""
"pit-trial","139","905539","0.0-25.0","battery-v0.2","","""event"",""trial"",""time""
""fullscreenenter"",""1"",""1598""
","
","
","""event"",""trial"",""time""
""fullscreenenter"",""1"",""1598""
","
","","","976.8000000007451","","","20","10934","1701","j","elianto","#f73b6a7A","-1"," ","0","0","[1830.2000000001863]","1","2","","","10934","21","0","4","lose","no-go","1"
"pit-trial","140","909298","0.0-26.0","battery-v0.2","","""event"",""trial"",""time""
""fullscreenenter"",""1"",""1598""
","
","
","""event"",""trial"",""time""
""fullscreenenter"",""1"",""1598""
","
","","","900.4000000003725","","","20","10934","1701","w","elianto","#f73b6a7A"," "," ","1","0","[1755.2000000001863]","1","2","","","10934","22","3","3","lose","go","0"
"pit-trial","141","913476","0.0-27.0","battery-v0.2","","""event"",""trial"",""time""
""fullscreenenter"",""1"",""1598""
","
","
","""event"",""trial"",""time""
""fullscreenenter"",""1"",""1598""
","
","","","1312.1000000005588","","","20","10934","1701","d","elianto","#3366ff99"," "," ","1","+10","[2163.2999999998137]","1","2","","","10934","23","1","1","win","go","0"
"pit-trial","142","917436","0.0-28.0","battery-v0.2","","""event"",""trial"",""time""
""fullscreenenter"",""1"",""1598""
","
","
","""event"",""trial"",""time""
""fullscreenenter"",""1"",""1598""
","
","","","1098.6000000005588","","","20","10934","1701","e","elianto","#f73b6a7A","-1"," ","0","0","[1951.8999999994412]","1","2","","","10934","24","2","4","lose","no-go","1"
"pit-trial","143","921602","0.0-29.0","battery-v0.2","","""event"",""trial"",""time""
""fullscreenenter"",""1"",""1598""
","
","
","""event"",""trial"",""time""
""fullscreenenter"",""1"",""1598""
","
","","","1299.8999999994412","","","20","10934","1701","w","elianto","#f73b6a7A"," "," ","1","0","[2159.4000000003725]","1","2","","","10934","25","3","3","lose","go","0"
"pit-trial","144","925931","0.0-30.0","battery-v0.2","","""event"",""trial"",""time""
""fullscreenenter"",""1"",""1598""
","
","
","""event"",""trial"",""time""
""fullscreenenter"",""1"",""1598""
","
","","","1461","","","20","10934","1701","e","elianto","#f73b6a7A","-1"," ","0","0","[2320.600000000559]","1","2","","","10934","26","2","4","lose","no-go","1"
"pit-trial","145","929736","0.0-31.0","battery-v0.2","","""event"",""trial"",""time""
""fullscreenenter"",""1"",""1598""
","
","
","""event"",""trial"",""time""
""fullscreenenter"",""1"",""1598""
","
","","","945","","","20","10934","1701","j","elianto","#f73b6a7A","-1"," ","0","-10","[1797.6000000005588]","1","2","","","10934","27","0","4","lose","no-go","0"
"pit-trial","146","933469","0.0-32.0","battery-v0.2","","""event"",""trial"",""time""
""fullscreenenter"",""1"",""1598""
","
","
","""event"",""trial"",""time""
""fullscreenenter"",""1"",""1598""
","
","","","867.7999999998137","","","20","10934","1701","d","elianto","#3366ff99"," "," ","1","+10","[1726.2000000001863]","1","2","","","10934","28","1","1","win","go","0"
"pit-trial","147","937240","0.0-33.0","battery-v0.2","","""event"",""trial"",""time""
""fullscreenenter"",""1"",""1598""
","
","
","""event"",""trial"",""time""
""fullscreenenter"",""1"",""1598""
","
","","","912.9000000003725","","","20","10934","1701","e","elianto","#f73b6a7A","-1"," ","0","-10","[1765.2000000001863]","1","2","","","10934","29","2","4","lose","no-go","0"
"pit-trial","148","941431","0.0-34.0","battery-v0.2","","""event"",""trial"",""time""
""fullscreenenter"",""1"",""1598""
","
","
","""event"",""trial"",""time""
""fullscreenenter"",""1"",""1598""
","
","","","1330.800000000745","","","20","10934","1701","w","elianto","#f73b6a7A"," "," ","1","0","[2186.5]","1","2","","","10934","30","3","3","lose","go","0"
"pit-trial","149","945627","0.0-35.0","battery-v0.2","","""event"",""trial"",""time""
""fullscreenenter"",""1"",""1598""
","
","
","""event"",""trial"",""time""
""fullscreenenter"",""1"",""1598""
","
","","","1334.6000000005588","","","20","10934","1701","d","elianto","#3366ff99"," "," ","1","+10","[2186.7999999998137]","1","2","","","10934","31","1","1","win","go","0"
"pit-trial","150","950484","0.0-36.0","battery-v0.2","","""event"",""trial"",""time""
""fullscreenenter"",""1"",""1598""
","
","
","""event"",""trial"",""time""
""fullscreenenter"",""1"",""1598""
","
","","","-1","","","20","10934","1701","j","elianto","#f73b6a7A","-1","-1","1","0","[]","0","2","","","10934","32","0","4","lose","no-go","0"
"pit-trial","151","954373","0.0-37.0","battery-v0.2","","""event"",""trial"",""time""
""fullscreenenter"",""1"",""1598""
","
","
","""event"",""trial"",""time""
""fullscreenenter"",""1"",""1598""
","
","","","1028.5999999996275","","","20","10934","1701","w","elianto","#f73b6a7A"," "," ","1","0","[1882.5]","1","2","","","10934","33","3","3","lose","go","0"
"pit-trial","152","957931","0.0-38.0","battery-v0.2","","""event"",""trial"",""time""
""fullscreenenter"",""1"",""1598""
","
","
","""event"",""trial"",""time""
""fullscreenenter"",""1"",""1598""
","
","","","691.1000000005588","","","20","10934","1701","d","elianto","#3366ff99"," "," ","1","+10","[1547.6000000005588]","1","2","","","10934","34","1","1","win","go","0"
"pit-trial","153","961451","0.0-39.0","battery-v0.2","","""event"",""trial"",""time""
""fullscreenenter"",""1"",""1598""
","
","
","""event"",""trial"",""time""
""fullscreenenter"",""1"",""1598""
","
","","","661.2999999998137","","","20","10934","1701","e","elianto","#f73b6a7A","-1"," ","0","-10","[1514.7000000001863]","1","2","","","10934","35","2","4","lose","no-go","0"
"pit-trial","154","966321","0.0-40.0","battery-v0.2","","""event"",""trial"",""time""
""fullscreenenter"",""1"",""1598""
","
","
","""event"",""trial"",""time""
""fullscreenenter"",""1"",""1598""
","
","","","-1","","","20","10934","1701","j","elianto","#f73b6a7A","-1","-1","1","0","[]","0","2","","","10934","36","0","4","lose","no-go","0"
"pit-trial","155","971182","0.0-41.0","battery-v0.2","","""event"",""trial"",""time""
""fullscreenenter"",""1"",""1598""
","
","
","""event"",""trial"",""time""
""fullscreenenter"",""1"",""1598""
","
","","","-1","","","20","10934","1701","j","elianto","#f73b6a7A","-1","-1","1","0","[]","0","2","","","10934","37","0","4","lose","no-go","0"
"pit-trial","156","976047","0.0-42.0","battery-v0.2","","""event"",""trial"",""time""
""fullscreenenter"",""1"",""1598""
","
","
","""event"",""trial"",""time""
""fullscreenenter"",""1"",""1598""
","
","","","-1","","","20","10934","1701","e","elianto","#f73b6a7A","-1","-1","1","0","[]","0","2","","","10934","38","2","4","lose","no-go","0"
"pit-trial","157","979673","0.0-43.0","battery-v0.2","","""event"",""trial"",""time""
""fullscreenenter"",""1"",""1598""
","
","
","""event"",""trial"",""time""
""fullscreenenter"",""1"",""1598""
","
","","","763.5999999996275","","","20","10934","1701","w","elianto","#f73b6a7A"," "," ","1","0","[1613.7000000001863]","1","2","","","10934","39","3","3","lose","go","0"
"pit-trial","158","983053","0.0-44.0","battery-v0.2","","""event"",""trial"",""time""
""fullscreenenter"",""1"",""1598""
","
","
","""event"",""trial"",""time""
""fullscreenenter"",""1"",""1598""
","
","","","518.5","","","20","10934","1701","d","elianto","#3366ff99"," "," ","1","+10","[1375.2999999998137]","1","2","","","10934","40","1","1","win","go","0"
"pit-trial","159","986725","0.0-45.0","battery-v0.2","","""event"",""trial"",""time""
""fullscreenenter"",""1"",""1598""
","
","
","""event"",""trial"",""time""
""fullscreenenter"",""1"",""1598""
","
","","","806.7000000001863","","","20","10934","1701","d","elianto","#3366ff99"," "," ","1","+10","[1665]","1","2","","","10934","41","1","1","win","go","0"
"pit-trial","160","990131","0.0-46.0","battery-v0.2","","""event"",""trial"",""time""
""fullscreenenter"",""1"",""1598""
","
","
","""event"",""trial"",""time""
""fullscreenenter"",""1"",""1598""
","
","","","540.0999999996275","","","20","10934","1701","w","elianto","#f73b6a7A"," "," ","1","0","[1395.9000000003725]","1","2","","","10934","42","3","3","lose","go","0"
"pit-trial","161","994991","0.0-47.0","battery-v0.2","","""event"",""trial"",""time""
""fullscreenenter"",""1"",""1598""
","
","
","""event"",""trial"",""time""
""fullscreenenter"",""1"",""1598""
","
","","","-1","","","20","10934","1701","j","elianto","#f73b6a7A","-1","-1","1","-10","[]","0","2","","","10934","43","0","4","lose","no-go","1"
"pit-trial","162","999857","0.0-48.0","battery-v0.2","","""event"",""trial"",""time""
""fullscreenenter"",""1"",""1598""
","
","
","""event"",""trial"",""time""
""fullscreenenter"",""1"",""1598""
","
","","","-1","","","20","10934","1701","e","elianto","#f73b6a7A","-1","-1","1","-10","[]","0","2","","","10934","44","2","4","lose","no-go","1"
"pit-trial","163","1004345","0.0-49.0","battery-v0.2","","""event"",""trial"",""time""
""fullscreenenter"",""1"",""1598""
","
","
","""event"",""trial"",""time""
""fullscreenenter"",""1"",""1598""
","
","","","1628.5","","","20","10934","1701","s","elianto","#3366ff99","-1"," ","0","0","[2484.300000000745]","1","2","","","10934","45","4","2","win","no-go","0"
"pit-trial","164","1009205","0.0-50.0","battery-v0.2","","""event"",""trial"",""time""
""fullscreenenter"",""1"",""1598""
","
","
","""event"",""trial"",""time""
""fullscreenenter"",""1"",""1598""
","
","","","-1","","","20","10934","1701","j","elianto","#f73b6a7A","-1","-1","1","0","[]","0","2","","","10934","46","0","4","lose","no-go","0"
"pit-trial","165","1012846","0.0-51.0","battery-v0.2","","""event"",""trial"",""time""
""fullscreenenter"",""1"",""1598""
","
","
","""event"",""trial"",""time""
""fullscreenenter"",""1"",""1598""
","
","","","773.8000000007451","","","20","10934","1701","w","elianto","#f73b6a7A"," "," ","1","0","[1627.800000000745]","1","2","","","10934","47","3","3","lose","go","0"
"pit-trial","166","1017716","0.0-52.0","battery-v0.2","","""event"",""trial"",""time""
""fullscreenenter"",""1"",""1598""
","
","
","""event"",""trial"",""time""
""fullscreenenter"",""1"",""1598""
","
","","","-1","","","20","10934","1701","e","elianto","#f73b6a7A","-1","-1","1","0","[]","0","2","","","10934","48","2","4","lose","no-go","0"
"pit-trial","167","1021416","0.0-53.0","battery-v0.2","","""event"",""trial"",""time""
""fullscreenenter"",""1"",""1598""
","
","
","""event"",""trial"",""time""
""fullscreenenter"",""1"",""1598""
","
","","","834.2000000001863","","","20","10934","1701","w","elianto","#f73b6a7A"," "," ","1","0","[1685.4000000003725]","1","2","","","10934","49","3","3","lose","go","0"
"pit-trial","168","1024875","0.0-54.0","battery-v0.2","","""event"",""trial"",""time""
""fullscreenenter"",""1"",""1598""
","
","
","""event"",""trial"",""time""
""fullscreenenter"",""1"",""1598""
","
","","","601.6000000005588","","","20","10934","1701","d","elianto","#3366ff99"," "," ","1","0","[1451.7999999998137]","1","2","","","10934","50","1","1","win","go","1"
"pit-trial","169","1029745","0.0-55.0","battery-v0.2","","""event"",""trial"",""time""
""fullscreenenter"",""1"",""1598""
","
","
","""event"",""trial"",""time""
""fullscreenenter"",""1"",""1598""
","
","","","-1","","","20","10934","1701","j","elianto","#f73b6a7A","-1","-1","1","0","[]","0","2","","","10934","51","0","4","lose","no-go","0"
"pit-trial","170","1033432","0.0-56.0","battery-v0.2","","""event"",""trial"",""time""
""fullscreenenter"",""1"",""1598""
","
","
","""event"",""trial"",""time""
""fullscreenenter"",""1"",""1598""
","
","","","826.2999999998137","","","20","10934","1701","s","elianto","#3366ff99","-1"," ","0","0","[1678.0999999996275]","1","2","","","10934","52","4","2","win","no-go","0"
"pit-trial","171","1038296","0.0-57.0","battery-v0.2","","""event"",""trial"",""time""
""fullscreenenter"",""1"",""1598""
","
","
","""event"",""trial"",""time""
""fullscreenenter"",""1"",""1598""
","
","","","-1","","","20","10934","1701","j","elianto","#f73b6a7A","-1","-1","1","0","[]","0","2","","","10934","53","0","4","lose","no-go","0"
"pit-trial","172","1043154","0.0-58.0","battery-v0.2","","""event"",""trial"",""time""
""fullscreenenter"",""1"",""1598""
","
","
","""event"",""trial"",""time""
""fullscreenenter"",""1"",""1598""
","
","","","-1","","","20","10934","1701","e","elianto","#f73b6a7A","-1","-1","1","0","[]","0","2","","","10934","54","2","4","lose","no-go","0"
"pit-trial","173","1047149","0.0-59.0","battery-v0.2","","""event"",""trial"",""time""
""fullscreenenter"",""1"",""1598""
","
","
","""event"",""trial"",""time""
""fullscreenenter"",""1"",""1598""
","
","","","1127.7999999998137","","","20","10934","1701","d","elianto","#3366ff99"," "," ","1","+10","[1978]","1","2","","","10934","55","1","1","win","go","0"
"pit-trial","174","1051429","0.0-60.0","battery-v0.2","","""event"",""trial"",""time""
""fullscreenenter"",""1"",""1598""
","
","
","""event"",""trial"",""time""
""fullscreenenter"",""1"",""1598""
","
","","","1418.4000000003725","","","20","10934","1701","s","elianto","#3366ff99","-1"," ","0","0","[2269.2000000001863]","1","2","","","10934","56","4","2","win","no-go","0"
"pit-trial","175","1056291","0.0-61.0","battery-v0.2","","""event"",""trial"",""time""
""fullscreenenter"",""1"",""1598""
","
","
","""event"",""trial"",""time""
""fullscreenenter"",""1"",""1598""
","
","","","-1","","","20","10934","1701","j","elianto","#f73b6a7A","-1","-1","1","0","[]","0","2","","","10934","57","0","4","lose","no-go","0"
"pit-trial","176","1061159","0.0-62.0","battery-v0.2","","""event"",""trial"",""time""
""fullscreenenter"",""1"",""1598""
","
","
","""event"",""trial"",""time""
""fullscreenenter"",""1"",""1598""
","
","","","-1","","","20","10934","1701","s","elianto","#3366ff99","-1","-1","1","+10","[]","0","2","","","10934","58","4","2","win","no-go","0"
"pit-trial","177","1064686","0.0-63.0","battery-v0.2","","""event"",""trial"",""time""
""fullscreenenter"",""1"",""1598""
","
","
","""event"",""trial"",""time""
""fullscreenenter"",""1"",""1598""
","
","","","662.2999999998137","","","20","10934","1701","w","elianto","#f73b6a7A"," "," ","1","-10","[1518.1000000005588]","1","2","","","10934","59","3","3","lose","go","1"
"pit-trial","178","1068204","0.0-64.0","battery-v0.2","","""event"",""trial"",""time""
""fullscreenenter"",""1"",""1598""
","
","
","""event"",""trial"",""time""
""fullscreenenter"",""1"",""1598""
","
","","","658","","","20","10934","1701","d","elianto","#3366ff99"," "," ","1","0","[1510.5]","1","2","","","10934","60","1","1","win","go","1"
"pit-trial","179","1073067","0.0-65.0","battery-v0.2","","""event"",""trial"",""time""
""fullscreenenter"",""1"",""1598""
","
","
","""event"",""trial"",""time""
""fullscreenenter"",""1"",""1598""
","
","","","-1","","","20","10934","1701","s","elianto","#3366ff99","-1","-1","1","+10","[]","0","2","","","10934","61","4","2","win","no-go","0"
"pit-trial","180","1077927","0.0-66.0","battery-v0.2","","""event"",""trial"",""time""
""fullscreenenter"",""1"",""1598""
","
","
","""event"",""trial"",""time""
""fullscreenenter"",""1"",""1598""
","
","","","-1","","","20","10934","1701","e","elianto","#f73b6a7A","-1","-1","1","0","[]","0","2","","","10934","62","2","4","lose","no-go","0"
"pit-trial","181","1081479","0.0-67.0","battery-v0.2","","""event"",""trial"",""time""
""fullscreenenter"",""1"",""1598""
","
","
","""event"",""trial"",""time""
""fullscreenenter"",""1"",""1598""
","
","","","689.7000000001863","","","20","10934","1701","d","elianto","#3366ff99"," "," ","1","+10","[1544.9000000003725]","1","2","","","10934","63","1","1","win","go","0"
"pit-trial","182","1085123","0.0-68.0","battery-v0.2","","""event"",""trial"",""time""
""fullscreenenter"",""1"",""1598""
","
","
","""event"",""trial"",""time""
""fullscreenenter"",""1"",""1598""
","
","","","785.1999999992549","","","20","10934","1701","w","elianto","#f73b6a7A"," "," ","1","-10","[1639.199999999255]","1","2","","","10934","64","3","3","lose","go","1"
"pit-trial","183","1089993","0.0-69.0","battery-v0.2","","""event"",""trial"",""time""
""fullscreenenter"",""1"",""1598""
","
","
","""event"",""trial"",""time""
""fullscreenenter"",""1"",""1598""
","
","","","-1","","","20","10934","1701","e","elianto","#f73b6a7A","-1","-1","1","0","[]","0","2","","","10934","65","2","4","lose","no-go","0"
"pit-trial","184","1093722","0.0-70.0","battery-v0.2","","""event"",""trial"",""time""
""fullscreenenter"",""1"",""1598""
","
","
","""event"",""trial"",""time""
""fullscreenenter"",""1"",""1598""
","
","","","861.4000000003725","","","20","10934","1701","w","elianto","#f73b6a7A"," "," ","1","0","[1718.2000000001863]","1","2","","","10934","66","3","3","lose","go","0"
"pit-trial","185","1097207","0.0-71.0","battery-v0.2","","""event"",""trial"",""time""
""fullscreenenter"",""1"",""1598""
","
","
","""event"",""trial"",""time""
""fullscreenenter"",""1"",""1598""
","
","","","620.7000000001863","","","20","10934","1701","d","elianto","#3366ff99"," "," ","1","+10","[1473.1000000005588]","1","2","","","10934","67","1","1","win","go","0"
"pit-trial","186","1102070","0.0-72.0","battery-v0.2","","""event"",""trial"",""time""
""fullscreenenter"",""1"",""1598""
","
","
","""event"",""trial"",""time""
""fullscreenenter"",""1"",""1598""
","
","","","-1","","","20","10934","1701","s","elianto","#3366ff99","-1","-1","1","0","[]","0","2","","","10934","68","4","2","win","no-go","1"
"pit-trial","187","1105750","0.0-73.0","battery-v0.2","","""event"",""trial"",""time""
""fullscreenenter"",""1"",""1598""
","
","
","""event"",""trial"",""time""
""fullscreenenter"",""1"",""1598""
","
","","","824","","","20","10934","1701","w","elianto","#f73b6a7A"," "," ","1","0","[1674.3999999994412]","1","2","","","10934","69","3","3","lose","go","0"
"pit-trial","188","1110175","0.0-74.0","battery-v0.2","","""event"",""trial"",""time""
""fullscreenenter"",""1"",""1598""
","
","
","""event"",""trial"",""time""
""fullscreenenter"",""1"",""1598""
","
","","","1562.5","","","20","10934","1701","p","elianto","#3366ff99"," "," ","1","0","[2415.800000000745]","1","2","","","10934","70","5","1","win","go","1"
"pit-trial","189","1114574","0.0-75.0","battery-v0.2","","""event"",""trial"",""time""
""fullscreenenter"",""1"",""1598""
","
","
","""event"",""trial"",""time""
""fullscreenenter"",""1"",""1598""
","
","","","1536.2999999998137","","","20","10934","1701","d","elianto","#3366ff99"," "," ","1","+10","[2389.7000000001863]","1","2","","","10934","71","1","1","win","go","0"
"pit-trial","190","1119429","0.0-76.0","battery-v0.2","","""event"",""trial"",""time""
""fullscreenenter"",""1"",""1598""
","
","
","""event"",""trial"",""time""
""fullscreenenter"",""1"",""1598""
","
","","","-1","","","20","10934","1701","s","elianto","#3366ff99","-1","-1","1","0","[]","0","2","","","10934","72","4","2","win","no-go","1"
"pit-trial","191","1124296","0.0-77.0","battery-v0.2","","""event"",""trial"",""time""
""fullscreenenter"",""1"",""1598""
","
","
","""event"",""trial"",""time""
""fullscreenenter"",""1"",""1598""
","
","","","-1","","","20","10934","1701","p","elianto","#3366ff99"," ","-1","0","0","[]","0","2","","","10934","73","5","1","win","go","0"
"pit-trial","192","1127965","0.0-78.0","battery-v0.2","","""event"",""trial"",""time""
""fullscreenenter"",""1"",""1598""
","
","
","""event"",""trial"",""time""
""fullscreenenter"",""1"",""1598""
","
","","","809.5999999996275","","","20","10934","1701","w","elianto","#f73b6a7A"," "," ","1","-10","[1664.4000000003725]","1","2","","","10934","74","3","3","lose","go","1"
"pit-trial","193","1132832","0.0-79.0","battery-v0.2","","""event"",""trial"",""time""
""fullscreenenter"",""1"",""1598""
","
","
","""event"",""trial"",""time""
""fullscreenenter"",""1"",""1598""
","
","","","-1","","","20","10934","1701","s","elianto","#3366ff99","-1","-1","1","0","[]","0","2","","","10934","75","4","2","win","no-go","1"
"pit-trial","194","1136431","0.0-80.0","battery-v0.2","","""event"",""trial"",""time""
""fullscreenenter"",""1"",""1598""
","
","
","""event"",""trial"",""time""
""fullscreenenter"",""1"",""1598""
","
","","","737","","","20","10934","1701","d","elianto","#3366ff99"," "," ","1","+10","[1589.3999999994412]","1","2","","","10934","76","1","1","win","go","0"
"pit-trial","195","1141292","0.0-81.0","battery-v0.2","","""event"",""trial"",""time""
""fullscreenenter"",""1"",""1598""
","
","
","""event"",""trial"",""time""
""fullscreenenter"",""1"",""1598""
","
","","","-1","","","20","10934","1701","g","elianto","#f73b6a7A","-1","-1","1","-10","[]","0","2","","","10934","77","6","4","lose","no-go","1"
"pit-trial","196","1146162","0.0-82.0","battery-v0.2","","""event"",""trial"",""time""
""fullscreenenter"",""1"",""1598""
","
","
","""event"",""trial"",""time""
""fullscreenenter"",""1"",""1598""
","
","","","-1","","","20","10934","1701","s","elianto","#3366ff99","-1","-1","1","+10","[]","0","2","","","10934","78","4","2","win","no-go","0"
"pit-trial","197","1151034","0.0-83.0","battery-v0.2","","""event"",""trial"",""time""
""fullscreenenter"",""1"",""1598""
","
","
","""event"",""trial"",""time""
""fullscreenenter"",""1"",""1598""
","
","","","-1","","","20","10934","1701","p","elianto","#3366ff99"," ","-1","0","+10","[]","0","2","","","10934","79","5","1","win","go","1"
"pit-trial","198","1155461","0.0-84.0","battery-v0.2","","""event"",""trial"",""time""
""fullscreenenter"",""1"",""1598""
","
","
","""event"",""trial"",""time""
""fullscreenenter"",""1"",""1598""
","
","","","1561.2000000001863","","","20","10934","1701","w","elianto","#f73b6a7A"," "," ","1","-10","[2411.4000000003725]","1","2","","","10934","80","3","3","lose","go","1"
"pit-trial","199","1160325","0.0-85.0","battery-v0.2","","""event"",""trial"",""time""
""fullscreenenter"",""1"",""1598""
","
","
","""event"",""trial"",""time""
""fullscreenenter"",""1"",""1598""
","
","","","-1","","","20","10934","1701","a","elianto","#f73b6a7A"," ","-1","0","-10","[]","0","2","","","10934","81","7","3","lose","go","0"
"pit-trial","200","1165085","0.0-86.0","battery-v0.2","","""event"",""trial"",""time""
""fullscreenenter"",""1"",""1598""
","
","
","""event"",""trial"",""time""
""fullscreenenter"",""1"",""1598""
","
","","","1900.7000000001863","","","20","10934","1701","g","elianto","#f73b6a7A","-1"," ","0","-10","[2752.7999999998137]","1","2","","","10934","82","6","4","lose","no-go","0"
"pit-trial","201","1169264","0.0-87.0","battery-v0.2","","""event"",""trial"",""time""
""fullscreenenter"",""1"",""1598""
","
","
","""event"",""trial"",""time""
""fullscreenenter"",""1"",""1598""
","
","","","1321.8999999994412","","","20","10934","1701","p","elianto","#3366ff99"," "," ","1","+10","[2175]","1","2","","","10934","83","5","1","win","go","0"
"pit-trial","202","1174129","0.0-88.0","battery-v0.2","","""event"",""trial"",""time""
""fullscreenenter"",""1"",""1598""
","
","
","""event"",""trial"",""time""
""fullscreenenter"",""1"",""1598""
","
","","","-1","","","20","10934","1701","s","elianto","#3366ff99","-1","-1","1","0","[]","0","2","","","10934","84","4","2","win","no-go","1"
"pit-trial","203","1178024","0.0-89.0","battery-v0.2","","""event"",""trial"",""time""
""fullscreenenter"",""1"",""1598""
","
","
","""event"",""trial"",""time""
""fullscreenenter"",""1"",""1598""
","
","","","1032.5999999996275","","","20","10934","1701","a","elianto","#f73b6a7A"," "," ","1","0","[1883]","1","2","","","10934","85","7","3","lose","go","0"
"pit-trial","204","1182885","0.0-90.0","battery-v0.2","","""event"",""trial"",""time""
""fullscreenenter"",""1"",""1598""
","
","
","""event"",""trial"",""time""
""fullscreenenter"",""1"",""1598""
","
","","","-1","","","20","10934","1701","p","elianto","#3366ff99"," ","-1","0","0","[]","0","2","","","10934","86","5","1","win","go","0"
"pit-trial","205","1187753","0.0-91.0","battery-v0.2","","""event"",""trial"",""time""
""fullscreenenter"",""1"",""1598""
","
","
","""event"",""trial"",""time""
""fullscreenenter"",""1"",""1598""
","
","","","-1","","","20","10934","1701","s","elianto","#3366ff99","-1","-1","1","+10","[]","0","2","","","10934","87","4","2","win","no-go","0"
"pit-trial","206","1191107","0.0-92.0","battery-v0.2","","""event"",""trial"",""time""
""fullscreenenter"",""1"",""1598""
","
","
","""event"",""trial"",""time""
""fullscreenenter"",""1"",""1598""
","
","","","489.29999999981374","","","20","10934","1701","g","elianto","#f73b6a7A","-1"," ","0","-10","[1341.4000000003725]","1","2","","","10934","88","6","4","lose","no-go","0"
"pit-trial","207","1194827","0.0-93.0","battery-v0.2","","""event"",""trial"",""time""
""fullscreenenter"",""1"",""1598""
","
","
","""event"",""trial"",""time""
""fullscreenenter"",""1"",""1598""
","
","","","857.6000000005588","","","20","10934","1701","a","elianto","#f73b6a7A"," "," ","1","0","[1710.6000000005588]","1","2","","","10934","89","7","3","lose","go","0"
"pit-trial","208","1199697","0.0-94.0","battery-v0.2","","""event"",""trial"",""time""
""fullscreenenter"",""1"",""1598""
","
","
","""event"",""trial"",""time""
""fullscreenenter"",""1"",""1598""
","
","","","-1","","","20","10934","1701","p","elianto","#3366ff99"," ","-1","0","0","[]","0","2","","","10934","90","5","1","win","go","0"
"pit-trial","209","1204555","0.0-95.0","battery-v0.2","","""event"",""trial"",""time""
""fullscreenenter"",""1"",""1598""
","
","
","""event"",""trial"",""time""
""fullscreenenter"",""1"",""1598""
","
","","","-1","","","20","10934","1701","g","elianto","#f73b6a7A","-1","-1","1","0","[]","0","2","","","10934","91","6","4","lose","no-go","0"
"pit-trial","210","1209436","0.0-96.0","battery-v0.2","","""event"",""trial"",""time""
""fullscreenenter"",""1"",""1598""
","
","
","""event"",""trial"",""time""
""fullscreenenter"",""1"",""1598""
","
","","","-1","","","20","10934","1701","s","elianto","#3366ff99","-1","-1","1","0","[]","0","2","","","10934","92","4","2","win","no-go","1"
"pit-trial","211","1213317","0.0-97.0","battery-v0.2","","""event"",""trial"",""time""
""fullscreenenter"",""1"",""1598""
","
","
","""event"",""trial"",""time""
""fullscreenenter"",""1"",""1598""
","
","","","1020.5","","","20","10934","1701","a","elianto","#f73b6a7A"," "," ","1","0","[1871]","1","2","","","10934","93","7","3","lose","go","0"
"pit-trial","212","1218178","0.0-98.0","battery-v0.2","","""event"",""trial"",""time""
""fullscreenenter"",""1"",""1598""
","
","
","""event"",""trial"",""time""
""fullscreenenter"",""1"",""1598""
","
","","","-1","","","20","10934","1701","p","elianto","#3366ff99"," ","-1","0","0","[]","0","2","","","10934","94","5","1","win","go","0"
"pit-trial","213","1222640","0.0-99.0","battery-v0.2","","""event"",""trial"",""time""
""fullscreenenter"",""1"",""1598""
","
","
","""event"",""trial"",""time""
""fullscreenenter"",""1"",""1598""
","
","","","1596.5999999996275","","","20","10934","1701","l","elianto","#3366ff99","-1"," ","0","0","[2455.4000000003725]","1","2","","","10934","95","8","2","win","no-go","0"
"pit-trial","214","1227501","0.0-100.0","battery-v0.2","","""event"",""trial"",""time""
""fullscreenenter"",""1"",""1598""
","
","
","""event"",""trial"",""time""
""fullscreenenter"",""1"",""1598""
","
","","","-1","","","20","10934","1701","g","elianto","#f73b6a7A","-1","-1","1","0","[]","0","2","","","10934","96","6","4","lose","no-go","0"
"pit-trial","215","1231717","0.0-101.0","battery-v0.2","","""event"",""trial"",""time""
""fullscreenenter"",""1"",""1598""
","
","
","""event"",""trial"",""time""
""fullscreenenter"",""1"",""1598""
","
","","","1354.5","","","20","10934","1701","p","elianto","#3366ff99"," "," ","1","+10","[2207.0999999996275]","1","2","","","10934","97","5","1","win","go","0"
"pit-trial","216","1236578","0.0-102.0","battery-v0.2","","""event"",""trial"",""time""
""fullscreenenter"",""1"",""1598""
","
","
","""event"",""trial"",""time""
""fullscreenenter"",""1"",""1598""
","
","","","-1","","","20","10934","1701","l","elianto","#3366ff99","-1","-1","1","+10","[]","0","2","","","10934","98","8","2","win","no-go","0"
"pit-trial","217","1240754","0.0-103.0","battery-v0.2","","""event"",""trial"",""time""
""fullscreenenter"",""1"",""1598""
","
","
","""event"",""trial"",""time""
""fullscreenenter"",""1"",""1598""
","
","","","1306.7000000001863","","","20","10934","1701","a","elianto","#f73b6a7A"," "," ","1","-10","[2164.5]","1","2","","","10934","99","7","3","lose","go","1"
"pit-trial","218","1245622","0.0-104.0","battery-v0.2","","""event"",""trial"",""time""
""fullscreenenter"",""1"",""1598""
","
","
","""event"",""trial"",""time""
""fullscreenenter"",""1"",""1598""
","
","","","-1","","","20","10934","1701","g","elianto","#f73b6a7A","-1","-1","1","0","[]","0","2","","","10934","100","6","4","lose","no-go","0"
"pit-trial","219","1250496","0.0-105.0","battery-v0.2","","""event"",""trial"",""time""
""fullscreenenter"",""1"",""1598""
","
","
","""event"",""trial"",""time""
""fullscreenenter"",""1"",""1598""
","
","","","-1","","","20","10934","1701","g","elianto","#f73b6a7A","-1","-1","1","0","[]","0","2","","","10934","101","6","4","lose","no-go","0"
"pit-trial","220","1254764","0.0-106.0","battery-v0.2","","""event"",""trial"",""time""
""fullscreenenter"",""1"",""1598""
","
","
","""event"",""trial"",""time""
""fullscreenenter"",""1"",""1598""
","
","","","1403.2999999998137","","","20","10934","1701","u","elianto","#3366ff99","-1"," ","0","0","[2261]","1","2","","","10934","102","9","2","win","no-go","0"
"pit-trial","221","1258446","0.0-107.0","battery-v0.2","","""event"",""trial"",""time""
""fullscreenenter"",""1"",""1598""
","
","
","""event"",""trial"",""time""
""fullscreenenter"",""1"",""1598""
","
","","","820.9000000003725","","","20","10934","1701","p","elianto","#3366ff99"," "," ","1","+10","[1677.5]","1","2","","","10934","103","5","1","win","go","0"
"pit-trial","222","1263310","0.0-108.0","battery-v0.2","","""event"",""trial"",""time""
""fullscreenenter"",""1"",""1598""
","
","
","""event"",""trial"",""time""
""fullscreenenter"",""1"",""1598""
","
","","","-1","","","20","10934","1701","l","elianto","#3366ff99","-1","-1","1","+10","[]","0","2","","","10934","104","8","2","win","no-go","0"
"pit-trial","223","1268173","0.0-109.0","battery-v0.2","","""event"",""trial"",""time""
""fullscreenenter"",""1"",""1598""
","
","
","""event"",""trial"",""time""
""fullscreenenter"",""1"",""1598""
","
","","","-1","","","20","10934","1701","u","elianto","#3366ff99","-1","-1","1","+10","[]","0","2","","","10934","105","9","2","win","no-go","0"
"pit-trial","224","1273031","0.0-110.0","battery-v0.2","","""event"",""trial"",""time""
""fullscreenenter"",""1"",""1598""
","
","
","""event"",""trial"",""time""
""fullscreenenter"",""1"",""1598""
","
","","","-1","","","20","10934","1701","g","elianto","#f73b6a7A","-1","-1","1","0","[]","0","2","","","10934","106","6","4","lose","no-go","0"
"pit-trial","225","1277897","0.0-111.0","battery-v0.2","","""event"",""trial"",""time""
""fullscreenenter"",""1"",""1598""
","
","
","""event"",""trial"",""time""
""fullscreenenter"",""1"",""1598""
","
","","","-1","","","20","10934","1701","l","elianto","#3366ff99","-1","-1","1","+10","[]","0","2","","","10934","107","8","2","win","no-go","0"
"pit-trial","226","1281815","0.0-112.0","battery-v0.2","","""event"",""trial"",""time""
""fullscreenenter"",""1"",""1598""
","
","
","""event"",""trial"",""time""
""fullscreenenter"",""1"",""1598""
","
","","","1044.2000000001863","","","20","10934","1701","p","elianto","#3366ff99"," "," ","1","+10","[1898.5999999996275]","1","2","","","10934","108","5","1","win","go","0"
"pit-trial","227","1286675","0.0-113.0","battery-v0.2","","""event"",""trial"",""time""
""fullscreenenter"",""1"",""1598""
","
","
","""event"",""trial"",""time""
""fullscreenenter"",""1"",""1598""
","
","","","-1","","","20","10934","1701","u","elianto","#3366ff99","-1","-1","1","+10","[]","0","2","","","10934","109","9","2","win","no-go","0"
"pit-trial","228","1291534","0.0-114.0","battery-v0.2","","""event"",""trial"",""time""
""fullscreenenter"",""1"",""1598""
","
","
","""event"",""trial"",""time""
""fullscreenenter"",""1"",""1598""
","
","","","-1","","","20","10934","1701","l","elianto","#3366ff99","-1","-1","1","+10","[]","0","2","","","10934","110","8","2","win","no-go","0"
"pit-trial","229","1295478","0.0-115.0","battery-v0.2","","""event"",""trial"",""time""
""fullscreenenter"",""1"",""1598""
","
","
","""event"",""trial"",""time""
""fullscreenenter"",""1"",""1598""
","
","","","1087.1000000005588","","","20","10934","1701","p","elianto","#3366ff99"," "," ","1","+10","[1937.5999999996275]","1","2","","","10934","111","5","1","win","go","0"
"pit-trial","230","1300342","0.0-116.0","battery-v0.2","","""event"",""trial"",""time""
""fullscreenenter"",""1"",""1598""
","
","
","""event"",""trial"",""time""
""fullscreenenter"",""1"",""1598""
","
","","","-1","","","20","10934","1701","g","elianto","#f73b6a7A","-1","-1","1","0","[]","0","2","","","10934","112","6","4","lose","no-go","0"
"pit-trial","231","1305210","0.0-117.0","battery-v0.2","","""event"",""trial"",""time""
""fullscreenenter"",""1"",""1598""
","
","
","""event"",""trial"",""time""
""fullscreenenter"",""1"",""1598""
","
","","","-1","","","20","10934","1701","u","elianto","#3366ff99","-1","-1","1","0","[]","0","2","","","10934","113","9","2","win","no-go","1"
"pit-trial","232","1309214","0.0-118.0","battery-v0.2","","""event"",""trial"",""time""
""fullscreenenter"",""1"",""1598""
","
","
","""event"",""trial"",""time""
""fullscreenenter"",""1"",""1598""
","
","","","1141.5","","","20","10934","1701","p","elianto","#3366ff99"," "," ","1","+10","[1995.5]","1","2","","","10934","114","5","1","win","go","0"
"pit-trial","233","1314083","0.0-119.0","battery-v0.2","","""event"",""trial"",""time""
""fullscreenenter"",""1"",""1598""
","
","
","""event"",""trial"",""time""
""fullscreenenter"",""1"",""1598""
","
","","","-1","","","20","10934","1701","l","elianto","#3366ff99","-1","-1","1","+10","[]","0","2","","","10934","115","8","2","win","no-go","0"
"pit-trial","234","1317978","0.0-120.0","battery-v0.2","","""event"",""trial"",""time""
""fullscreenenter"",""1"",""1598""
","
","
","""event"",""trial"",""time""
""fullscreenenter"",""1"",""1598""
","
","","","1024.4000000003725","","","20","10934","1701","a","elianto","#f73b6a7A"," "," ","1","-10","[1877.5]","1","2","","","10934","116","7","3","lose","go","1"
"pit-trial","235","1321530","0.0-121.0","battery-v0.2","","""event"",""trial"",""time""
""fullscreenenter"",""1"",""1598""
","
","
","""event"",""trial"",""time""
""fullscreenenter"",""1"",""1598""
","
","","","692.5","","","20","10934","1701","p","elianto","#3366ff99"," "," ","1","0","[1546.2000000001863]","1","2","","","10934","117","5","1","win","go","1"
"pit-trial","236","1326414","0.0-122.0","battery-v0.2","","""event"",""trial"",""time""
""fullscreenenter"",""1"",""1598""
","
","
","""event"",""trial"",""time""
""fullscreenenter"",""1"",""1598""
","
","","","-1","","","20","10934","1701","l","elianto","#3366ff99","-1","-1","1","+10","[]","0","2","","","10934","118","8","2","win","no-go","0"
"pit-trial","237","1331275","0.0-123.0","battery-v0.2","","""event"",""trial"",""time""
""fullscreenenter"",""1"",""1598""
","
","
","""event"",""trial"",""time""
""fullscreenenter"",""1"",""1598""
","
","","","-1","","","20","10934","1701","g","elianto","#f73b6a7A","-1","-1","1","-10","[]","0","2","","","10934","119","6","4","lose","no-go","1"
"pit-trial","238","1336135","0.0-124.0","battery-v0.2","","""event"",""trial"",""time""
""fullscreenenter"",""1"",""1598""
","
","
","""event"",""trial"",""time""
""fullscreenenter"",""1"",""1598""
","
","","","-1","","","20","10934","1701","u","elianto","#3366ff99","-1","-1","1","+10","[]","0","2","","","10934","120","9","2","win","no-go","0"
"pit-trial","239","1341002","0.0-125.0","battery-v0.2","","""event"",""trial"",""time""
""fullscreenenter"",""1"",""1598""
","
","
","""event"",""trial"",""time""
""fullscreenenter"",""1"",""1598""
","
","","","-1","","","20","10934","1701","u","elianto","#3366ff99","-1","-1","1","0","[]","0","2","","","10934","121","9","2","win","no-go","1"
"pit-trial","240","1344879","0.0-126.0","battery-v0.2","","""event"",""trial"",""time""
""fullscreenenter"",""1"",""1598""
","
","
","""event"",""trial"",""time""
""fullscreenenter"",""1"",""1598""
","
","","","1023.2999999998137","","","20","10934","1701","a","elianto","#f73b6a7A"," "," ","1","-10","[1874.7999999998137]","1","2","","","10934","122","7","3","lose","go","1"
"pit-trial","241","1349748","0.0-127.0","battery-v0.2","","""event"",""trial"",""time""
""fullscreenenter"",""1"",""1598""
","
","
","""event"",""trial"",""time""
""fullscreenenter"",""1"",""1598""
","
","","","-1","","","20","10934","1701","l","elianto","#3366ff99","-1","-1","1","+10","[]","0","2","","","10934","123","8","2","win","no-go","0"
"pit-trial","242","1353724","0.0-128.0","battery-v0.2","","""event"",""trial"",""time""
""fullscreenenter"",""1"",""1598""
","
","
","""event"",""trial"",""time""
""fullscreenenter"",""1"",""1598""
","
","","","1115.300000000745","","","20","10934","1701","p","elianto","#3366ff99"," "," ","1","+10","[1970.5]","1","2","","","10934","124","5","1","win","go","0"
"pit-trial","243","1358589","0.0-129.0","battery-v0.2","","""event"",""trial"",""time""
""fullscreenenter"",""1"",""1598""
","
","
","""event"",""trial"",""time""
""fullscreenenter"",""1"",""1598""
","
","","","-1","","","20","10934","1701","l","elianto","#3366ff99","-1","-1","1","+10","[]","0","2","","","10934","125","8","2","win","no-go","0"
"pit-trial","244","1363458","0.0-130.0","battery-v0.2","","""event"",""trial"",""time""
""fullscreenenter"",""1"",""1598""
","
","
","""event"",""trial"",""time""
""fullscreenenter"",""1"",""1598""
","
","","","-1","","","20","10934","1701","a","elianto","#f73b6a7A"," ","-1","0","-10","[]","0","2","","","10934","126","7","3","lose","go","0"
"pit-trial","245","1368320","0.0-131.0","battery-v0.2","","""event"",""trial"",""time""
""fullscreenenter"",""1"",""1598""
","
","
","""event"",""trial"",""time""
""fullscreenenter"",""1"",""1598""
","
","","","-1","","","20","10934","1701","u","elianto","#3366ff99","-1","-1","1","0","[]","0","2","","","10934","127","9","2","win","no-go","1"
"pit-trial","246","1373191","0.0-132.0","battery-v0.2","","""event"",""trial"",""time""
""fullscreenenter"",""1"",""1598""
","
","
","""event"",""trial"",""time""
""fullscreenenter"",""1"",""1598""
","
","","","-1","","","20","10934","1701","g","elianto","#f73b6a7A","-1","-1","1","0","[]","0","2","","","10934","128","6","4","lose","no-go","0"
"pit-trial","247","1378052","0.0-133.0","battery-v0.2","","""event"",""trial"",""time""
""fullscreenenter"",""1"",""1598""
","
","
","""event"",""trial"",""time""
""fullscreenenter"",""1"",""1598""
","
","","","-1","","","20","10934","1701","g","elianto","#f73b6a7A","-1","-1","1","0","[]","0","2","","","10934","129","6","4","lose","no-go","0"
"pit-trial","248","1382923","0.0-134.0","battery-v0.2","","""event"",""trial"",""time""
""fullscreenenter"",""1"",""1598""
","
","
","""event"",""trial"",""time""
""fullscreenenter"",""1"",""1598""
","
","","","-1","","","20","10934","1701","u","elianto","#3366ff99","-1","-1","1","0","[]","0","2","","","10934","130","9","2","win","no-go","1"
"pit-trial","249","1386660","0.0-135.0","battery-v0.2","","""event"",""trial"",""time""
""fullscreenenter"",""1"",""1598""
","
","
","""event"",""trial"",""time""
""fullscreenenter"",""1"",""1598""
","
","","","871.3000000007451","","","20","10934","1701","a","elianto","#f73b6a7A"," "," ","1","-10","[1721.9000000003725]","1","2","","","10934","131","7","3","lose","go","1"
"pit-trial","250","1391529","0.0-136.0","battery-v0.2","","""event"",""trial"",""time""
""fullscreenenter"",""1"",""1598""
","
","
","""event"",""trial"",""time""
""fullscreenenter"",""1"",""1598""
","
","","","-1","","","20","10934","1701","l","elianto","#3366ff99","-1","-1","1","+10","[]","0","2","","","10934","132","8","2","win","no-go","0"
"pit-trial","251","1396400","0.0-137.0","battery-v0.2","","""event"",""trial"",""time""
""fullscreenenter"",""1"",""1598""
","
","
","""event"",""trial"",""time""
""fullscreenenter"",""1"",""1598""
","
","","","-1","","","20","10934","1701","l","elianto","#3366ff99","-1","-1","1","+10","[]","0","2","","","10934","133","8","2","win","no-go","0"
"pit-trial","252","1401265","0.0-138.0","battery-v0.2","","""event"",""trial"",""time""
""fullscreenenter"",""1"",""1598""
","
","
","""event"",""trial"",""time""
""fullscreenenter"",""1"",""1598""
","
","","","-1","","","20","10934","1701","g","elianto","#f73b6a7A","-1","-1","1","-10","[]","0","2","","","10934","134","6","4","lose","no-go","1"
"pit-trial","253","1404889","0.0-139.0","battery-v0.2","","""event"",""trial"",""time""
""fullscreenenter"",""1"",""1598""
","
","
","""event"",""trial"",""time""
""fullscreenenter"",""1"",""1598""
","
","","","758.2999999998137","","","20","10934","1701","a","elianto","#f73b6a7A"," "," ","1","-10","[1613.4000000003725]","1","2","","","10934","135","7","3","lose","go","1"
"pit-trial","254","1409747","0.0-140.0","battery-v0.2","","""event"",""trial"",""time""
""fullscreenenter"",""1"",""1598""
","
","
","""event"",""trial"",""time""
""fullscreenenter"",""1"",""1598""
","
","","","-1","","","20","10934","1701","u","elianto","#3366ff99","-1","-1","1","+10","[]","0","2","","","10934","136","9","2","win","no-go","0"
"pit-trial","255","1414611","0.0-141.0","battery-v0.2","","""event"",""trial"",""time""
""fullscreenenter"",""1"",""1598""
","
","
","""event"",""trial"",""time""
""fullscreenenter"",""1"",""1598""
","
","","","-1","","","20","10934","1701","u","elianto","#3366ff99","-1","-1","1","+10","[]","0","2","","","10934","137","9","2","win","no-go","0"
"pit-trial","256","1419469","0.0-142.0","battery-v0.2","","""event"",""trial"",""time""
""fullscreenenter"",""1"",""1598""
","
","
","""event"",""trial"",""time""
""fullscreenenter"",""1"",""1598""
","
","","","-1","","","20","10934","1701","g","elianto","#f73b6a7A","-1","-1","1","0","[]","0","2","","","10934","138","6","4","lose","no-go","0"
"pit-trial","257","1424333","0.0-143.0","battery-v0.2","","""event"",""trial"",""time""
""fullscreenenter"",""1"",""1598""
","
","
","""event"",""trial"",""time""
""fullscreenenter"",""1"",""1598""
","
","","","-1","","","20","10934","1701","a","elianto","#f73b6a7A"," ","-1","0","-10","[]","0","2","","","10934","139","7","3","lose","go","0"
"pit-trial","258","1429195","0.0-144.0","battery-v0.2","","""event"",""trial"",""time""
""fullscreenenter"",""1"",""1598""
","
","
","""event"",""trial"",""time""
""fullscreenenter"",""1"",""1598""
","
","","","-1","","","20","10934","1701","l","elianto","#3366ff99","-1","-1","1","+10","[]","0","2","","","10934","140","8","2","win","no-go","0"
"pit-instructions","259","1442356","0.0-145.0","battery-v0.2","","""event"",""trial"",""time""
""fullscreenenter"",""1"",""1598""
","
","
","""event"",""trial"",""time""
""fullscreenenter"",""1"",""1598""
","
","","[{""page_index"":0,""viewing_time"":5117},{""page_index"":1,""viewing_time"":8040.5}]","13157.799999999814","","","","","","","","","","","","","","","","","","","","","","","",""
"pit-trial","260","1446327","0.0-146.0","battery-v0.2","","""event"",""trial"",""time""
""fullscreenenter"",""1"",""1598""
","
","
","""event"",""trial"",""time""
""fullscreenenter"",""1"",""1598""
","
","","","1106.1000000005588","","","20","10934","1701","f","elianto","#3366ff99","-1"," ","0","+10","[1957.1000000005588]","1","3","","","10934","141","1","2","win","no-go","1"
"pit-trial","261","1450646","0.0-147.0","battery-v0.2","","""event"",""trial"",""time""
""fullscreenenter"",""1"",""1598""
","
","
","""event"",""trial"",""time""
""fullscreenenter"",""1"",""1598""
","
","","","1464.7999999998137","","","20","10934","1701","n","elianto","#f73b6a7A"," "," ","1","0","[2316]","1","3","","","10934","142","0","3","lose","go","0"
"pit-trial","262","1454388","0.0-148.0","battery-v0.2","","""event"",""trial"",""time""
""fullscreenenter"",""1"",""1598""
","
","
","""event"",""trial"",""time""
""fullscreenenter"",""1"",""1598""
","
","","","869.4000000003725","","","20","10934","1701","t","elianto","#f73b6a7A"," "," ","1","0","[1727.5]","1","3","","","10934","143","2","3","lose","go","0"
"pit-trial","263","1458221","0.0-149.0","battery-v0.2","","""event"",""trial"",""time""
""fullscreenenter"",""1"",""1598""
","
","
","""event"",""trial"",""time""
""fullscreenenter"",""1"",""1598""
","
","","","964.9000000003725","","","20","10934","1701","b","elianto","#f73b6a7A","-1"," ","0","-10","[1818]","1","3","","","10934","144","3","4","lose","no-go","0"
"pit-trial","264","1462325","0.0-150.0","battery-v0.2","","""event"",""trial"",""time""
""fullscreenenter"",""1"",""1598""
","
","
","""event"",""trial"",""time""
""fullscreenenter"",""1"",""1598""
","
","","","1231.8999999994412","","","20","10934","1701","n","elianto","#f73b6a7A"," "," ","1","-10","[2086.2999999998137]","1","3","","","10934","145","0","3","lose","go","1"
"pit-trial","265","1466345","0.0-151.0","battery-v0.2","","""event"",""trial"",""time""
""fullscreenenter"",""1"",""1598""
","
","
","""event"",""trial"",""time""
""fullscreenenter"",""1"",""1598""
","
","","","1162.1000000005588","","","20","10934","1701","t","elianto","#f73b6a7A"," "," ","1","0","[2012.800000000745]","1","3","","","10934","146","2","3","lose","go","0"
"pit-trial","266","1470642","0.0-152.0","battery-v0.2","","""event"",""trial"",""time""
""fullscreenenter"",""1"",""1598""
","
","
","""event"",""trial"",""time""
""fullscreenenter"",""1"",""1598""
","
","","","1429.8999999994412","","","20","10934","1701","b","elianto","#f73b6a7A","-1"," ","0","0","[2280.7000000001863]","1","3","","","10934","147","3","4","lose","no-go","1"
