"trial_type","trial_index","time_elapsed","internal_node_id","task_version","subject_id","interactions","blur_events","focus_events","fullscreenenter_events","fullscreenexit_events","success","view_history","rt","responses","num_errors","age","subject","participantId","rune","rune_set","hex","correct","choice","accuracy","outcome","keys","total_keys","block","practice","value","sub","trial","stimulus","robot","valence","action","sham"
"pavlovia","0","5","0.0-0.0","battery-v0.2","","""event"",""trial"",""time""
""blur"",""1"",""274""
""focus"",""1"",""3853""
""fullscreenenter"",""1"",""5915""
","""event"",""trial"",""time""
""blur"",""1"",""274""
","""event"",""trial"",""time""
""focus"",""1"",""3853""
","""event"",""trial"",""time""
""fullscreenenter"",""1"",""5915""
","
","","","","","","","","","","","","","","","","","","","","","","","","","","",""
"fullscreen","1","6916","0.0-1.0","battery-v0.2","","""event"",""trial"",""time""
""blur"",""1"",""274""
""focus"",""1"",""3853""
""fullscreenenter"",""1"",""5915""
","""event"",""trial"",""time""
""blur"",""1"",""274""
","""event"",""trial"",""time""
""focus"",""1"",""3853""
","""event"",""trial"",""time""
""fullscreenenter"",""1"",""5915""
","
","true","","","","","","","","","","","","","","","","","","","","","","","","","",""
"pit-instructions","2","11581","0.0-2.0-0.0","battery-v0.2","","""event"",""trial"",""time""
""blur"",""1"",""274""
""focus"",""1"",""3853""
""fullscreenenter"",""1"",""5915""
","""event"",""trial"",""time""
""blur"",""1"",""274""
","""event"",""trial"",""time""
""focus"",""1"",""3853""
","""event"",""trial"",""time""
""fullscreenenter"",""1"",""5915""
","
","","[{""page_index"":0,""viewing_time"":4663.0999999940395}]","4663.29999999702","","","","","","","","","","","","","","","","","","","","","","","",""
"pit-comprehension","3","14885","0.0-2.0-1.0-0.0","battery-v0.2","","""event"",""trial"",""time""
""blur"",""1"",""274""
""focus"",""1"",""3853""
""fullscreenenter"",""1"",""5915""
","""event"",""trial"",""time""
""blur"",""1"",""274""
","""event"",""trial"",""time""
""focus"",""1"",""3853""
","""event"",""trial"",""time""
""fullscreenenter"",""1"",""5915""
","
","","","3301.2999999970198","[""shark""]","0","21","10668","5158","","","","","","","","","","","","","","","","","","",""
"pit-instructions","4","18578","0.0-2.0-1.0-1.0","battery-v0.2","","""event"",""trial"",""time""
""blur"",""1"",""274""
""focus"",""1"",""3853""
""fullscreenenter"",""1"",""5915""
","""event"",""trial"",""time""
""blur"",""1"",""274""
","""event"",""trial"",""time""
""focus"",""1"",""3853""
","""event"",""trial"",""time""
""fullscreenenter"",""1"",""5915""
","
","","[{""page_index"":0,""viewing_time"":3687.7000000029802}]","3687.7999999970198","","","","","","","","","","","","","","","","","","","","","","","",""
"pit-comprehension","5","20837","0.0-2.0-2.0-0.0","battery-v0.2","","""event"",""trial"",""time""
""blur"",""1"",""274""
""focus"",""1"",""3853""
""fullscreenenter"",""1"",""5915""
","""event"",""trial"",""time""
""blur"",""1"",""274""
","""event"",""trial"",""time""
""focus"",""1"",""3853""
","""event"",""trial"",""time""
""fullscreenenter"",""1"",""5915""
","
","","","2257.6000000089407","[""tiger""]","0","21","10668","5158","","","","","","","","","","","","","","","","","","",""
"pit-instructions","6","21500","0.0-2.0-2.0-1.0","battery-v0.2","","""event"",""trial"",""time""
""blur"",""1"",""274""
""focus"",""1"",""3853""
""fullscreenenter"",""1"",""5915""
","""event"",""trial"",""time""
""blur"",""1"",""274""
","""event"",""trial"",""time""
""focus"",""1"",""3853""
","""event"",""trial"",""time""
""fullscreenenter"",""1"",""5915""
","
","","[{""page_index"":0,""viewing_time"":660.7999999970198}]","660.8999999910593","","","","","","","","","","","","","","","","","","","","","","","",""
"pit-instructions","7","128482","0.0-2.0-3.0","battery-v0.2","","""event"",""trial"",""time""
""blur"",""1"",""274""
""focus"",""1"",""3853""
""fullscreenenter"",""1"",""5915""
","""event"",""trial"",""time""
""blur"",""1"",""274""
","""event"",""trial"",""time""
""focus"",""1"",""3853""
","""event"",""trial"",""time""
""fullscreenenter"",""1"",""5915""
","
","","[{""page_index"":0,""viewing_time"":13974.59999999404},{""page_index"":1,""viewing_time"":7435.100000008941},{""page_index"":2,""viewing_time"":7093},{""page_index"":3,""viewing_time"":5127},{""page_index"":4,""viewing_time"":5963.899999991059},{""page_index"":5,""viewing_time"":5950.100000008941},{""page_index"":6,""viewing_time"":7574},{""page_index"":7,""viewing_time"":6705.0999999940395},{""page_index"":8,""viewing_time"":8394.20000000298},{""page_index"":9,""viewing_time"":10172.09999999404},{""page_index"":10,""viewing_time"":7809.4000000059605},{""page_index"":11,""viewing_time"":8250.40000000596},{""page_index"":12,""viewing_time"":7176},{""page_index"":13,""viewing_time"":5351.0999999940395}]","106976.20000000298","","","","","","","","","","","","","","","","","","","","","","","",""
"pit-trial","8","132405","0.0-2.0-4.0-0.0","battery-v0.2","","""event"",""trial"",""time""
""blur"",""1"",""274""
""focus"",""1"",""3853""
""fullscreenenter"",""1"",""5915""
","""event"",""trial"",""time""
""blur"",""1"",""274""
","""event"",""trial"",""time""
""focus"",""1"",""3853""
","""event"",""trial"",""time""
""fullscreenenter"",""1"",""5915""
","
","","","1060","","","21","10668","5158","&#9784;","elianto","#FFFFF080"," "," ","1","&#10004","[1914.2000000029802]","1","0","0","","","","","","","",""
"pit-trial","9","135765","0.0-2.0-4.1-0.1","battery-v0.2","","""event"",""trial"",""time""
""blur"",""1"",""274""
""focus"",""1"",""3853""
""fullscreenenter"",""1"",""5915""
","""event"",""trial"",""time""
""blur"",""1"",""274""
","""event"",""trial"",""time""
""focus"",""1"",""3853""
","""event"",""trial"",""time""
""fullscreenenter"",""1"",""5915""
","
","","","496","","","21","10668","5158","&#9784;","elianto","#FFFFF080"," "," ","1","&#10004","[1346.2000000029802]","1","0","0","","","","","","","",""
"pit-trial","10","139231","0.0-2.0-4.2-0.2","battery-v0.2","","""event"",""trial"",""time""
""blur"",""1"",""274""
""focus"",""1"",""3853""
""fullscreenenter"",""1"",""5915""
","""event"",""trial"",""time""
""blur"",""1"",""274""
","""event"",""trial"",""time""
""focus"",""1"",""3853""
","""event"",""trial"",""time""
""fullscreenenter"",""1"",""5915""
","
","","","600.6999999880791","","","21","10668","5158","&#9784;","elianto","#FFFFF080"," "," ","1","&#10004","[1460.5999999940395]","1","0","0","","","","","","","",""
"pit-trial","11","142672","0.0-2.0-4.3-0.3","battery-v0.2","","""event"",""trial"",""time""
""blur"",""1"",""274""
""focus"",""1"",""3853""
""fullscreenenter"",""1"",""5915""
","""event"",""trial"",""time""
""blur"",""1"",""274""
","""event"",""trial"",""time""
""focus"",""1"",""3853""
","""event"",""trial"",""time""
""fullscreenenter"",""1"",""5915""
","
","","","567","","","21","10668","5158","&#9784;","elianto","#FFFFF080"," "," ","1","&#10004","[1430.6000000089407]","1","0","0","","","","","","","",""
"pit-trial","12","146042","0.0-2.0-4.4-0.4","battery-v0.2","","""event"",""trial"",""time""
""blur"",""1"",""274""
""focus"",""1"",""3853""
""fullscreenenter"",""1"",""5915""
","""event"",""trial"",""time""
""blur"",""1"",""274""
","""event"",""trial"",""time""
""focus"",""1"",""3853""
","""event"",""trial"",""time""
""fullscreenenter"",""1"",""5915""
","
","","","505","","","21","10668","5158","&#9784;","elianto","#FFFFF080"," "," ","1","&#10004","[1363.7999999970198]","1","0","0","","","","","","","",""
"pit-instructions","13","166967","0.0-2.0-5.0","battery-v0.2","","""event"",""trial"",""time""
""blur"",""1"",""274""
""focus"",""1"",""3853""
""fullscreenenter"",""1"",""5915""
","""event"",""trial"",""time""
""blur"",""1"",""274""
","""event"",""trial"",""time""
""focus"",""1"",""3853""
","""event"",""trial"",""time""
""fullscreenenter"",""1"",""5915""
","
","","[{""page_index"":0,""viewing_time"":4872.100000008941},{""page_index"":1,""viewing_time"":5817},{""page_index"":2,""viewing_time"":5098.20000000298},{""page_index"":3,""viewing_time"":5134.79999999702}]","20922.30000001192","","","","","","","","","","","","","","","","","","","","","","","",""
"pit-trial","14","171831","0.0-2.0-6.0-0.0","battery-v0.2","","""event"",""trial"",""time""
""blur"",""1"",""274""
""focus"",""1"",""3853""
""fullscreenenter"",""1"",""5915""
","""event"",""trial"",""time""
""blur"",""1"",""274""
","""event"",""trial"",""time""
""focus"",""1"",""3853""
","""event"",""trial"",""time""
""fullscreenenter"",""1"",""5915""
","
","","","-1","","","21","10668","5158","&#9854;","elianto","#FFFFF080","-1","-1","1","&#10004","[]","0","0","1","","","","","","","",""
"pit-trial","15","176699","0.0-2.0-6.1-0.1","battery-v0.2","","""event"",""trial"",""time""
""blur"",""1"",""274""
""focus"",""1"",""3853""
""fullscreenenter"",""1"",""5915""
","""event"",""trial"",""time""
""blur"",""1"",""274""
","""event"",""trial"",""time""
""focus"",""1"",""3853""
","""event"",""trial"",""time""
""fullscreenenter"",""1"",""5915""
","
","","","-1","","","21","10668","5158","&#9854;","elianto","#FFFFF080","-1","-1","1","&#10004","[]","0","0","1","","","","","","","",""
"pit-trial","16","181575","0.0-2.0-6.2-0.2","battery-v0.2","","""event"",""trial"",""time""
""blur"",""1"",""274""
""focus"",""1"",""3853""
""fullscreenenter"",""1"",""5915""
","""event"",""trial"",""time""
""blur"",""1"",""274""
","""event"",""trial"",""time""
""focus"",""1"",""3853""
","""event"",""trial"",""time""
""fullscreenenter"",""1"",""5915""
","
","","","-1","","","21","10668","5158","&#9854;","elianto","#FFFFF080","-1","-1","1","&#10004","[]","0","0","1","","","","","","","",""
"pit-trial","17","186442","0.0-2.0-6.3-0.3","battery-v0.2","","""event"",""trial"",""time""
""blur"",""1"",""274""
""focus"",""1"",""3853""
""fullscreenenter"",""1"",""5915""
","""event"",""trial"",""time""
""blur"",""1"",""274""
","""event"",""trial"",""time""
""focus"",""1"",""3853""
","""event"",""trial"",""time""
""fullscreenenter"",""1"",""5915""
","
","","","-1","","","21","10668","5158","&#9854;","elianto","#FFFFF080","-1","-1","1","&#10004","[]","0","0","1","","","","","","","",""
"pit-trial","18","191310","0.0-2.0-6.4-0.4","battery-v0.2","","""event"",""trial"",""time""
""blur"",""1"",""274""
""focus"",""1"",""3853""
""fullscreenenter"",""1"",""5915""
""blur"",""19"",""195861""
""focus"",""19"",""197836""
""blur"",""19"",""202965""
""focus"",""19"",""204361""
","""event"",""trial"",""time""
""blur"",""1"",""274""
""blur"",""19"",""195861""
""blur"",""19"",""202965""
","""event"",""trial"",""time""
""focus"",""1"",""3853""
""focus"",""19"",""197836""
""focus"",""19"",""204361""
","""event"",""trial"",""time""
""fullscreenenter"",""1"",""5915""
","
","","","-1","","","21","10668","5158","&#9854;","elianto","#FFFFF080","-1","-1","1","&#10004","[]","0","0","1","","","","","","","",""
"pit-instructions","19","304903","0.0-2.0-7.0","battery-v0.2","","""event"",""trial"",""time""
""blur"",""1"",""274""
""focus"",""1"",""3853""
""fullscreenenter"",""1"",""5915""
""blur"",""19"",""195861""
""focus"",""19"",""197836""
""blur"",""19"",""202965""
""focus"",""19"",""204361""
","""event"",""trial"",""time""
""blur"",""1"",""274""
""blur"",""19"",""195861""
""blur"",""19"",""202965""
","""event"",""trial"",""time""
""focus"",""1"",""3853""
""focus"",""19"",""197836""
""focus"",""19"",""204361""
","""event"",""trial"",""time""
""fullscreenenter"",""1"",""5915""
","
","","[{""page_index"":0,""viewing_time"":6572.29999999702},{""page_index"":1,""viewing_time"":6527.29999999702},{""page_index"":2,""viewing_time"":5680.9000000059605},{""page_index"":3,""viewing_time"":9518},{""page_index"":4,""viewing_time"":5767},{""page_index"":5,""viewing_time"":5468.0999999940395},{""page_index"":6,""viewing_time"":4213.300000011921},{""page_index"":7,""viewing_time"":7401.79999999702},{""page_index"":8,""viewing_time"":6364},{""page_index"":9,""viewing_time"":5546.0999999940395},{""page_index"":10,""viewing_time"":6354},{""page_index"":11,""viewing_time"":4141.9000000059605},{""page_index"":12,""viewing_time"":6711.0999999940395},{""page_index"":13,""viewing_time"":7003.100000008941},{""page_index"":14,""viewing_time"":6558},{""page_index"":15,""viewing_time"":6207.0999999940395},{""page_index"":16,""viewing_time"":6231},{""page_index"":17,""viewing_time"":7326.20000000298}]","113591.29999999702","","","","","","","","","","","","","","","","","","","","","","","",""
"pit-trial","20","308448","0.0-2.0-8.0-0.0","battery-v0.2","","""event"",""trial"",""time""
""blur"",""1"",""274""
""focus"",""1"",""3853""
""fullscreenenter"",""1"",""5915""
""blur"",""19"",""195861""
""focus"",""19"",""197836""
""blur"",""19"",""202965""
""focus"",""19"",""204361""
","""event"",""trial"",""time""
""blur"",""1"",""274""
""blur"",""19"",""195861""
""blur"",""19"",""202965""
","""event"",""trial"",""time""
""focus"",""1"",""3853""
""focus"",""19"",""197836""
""focus"",""19"",""204361""
","""event"",""trial"",""time""
""fullscreenenter"",""1"",""5915""
","
","","","673.8999999910593","","","21","10668","5158","&#9776;","elianto","#3366ff99"," "," ","1","+10","[1534.699999988079]","1","0","1","","","","","","","",""
"pit-trial","21","311811","0.0-2.0-8.0-1.0","battery-v0.2","","""event"",""trial"",""time""
""blur"",""1"",""274""
""focus"",""1"",""3853""
""fullscreenenter"",""1"",""5915""
""blur"",""19"",""195861""
""focus"",""19"",""197836""
""blur"",""19"",""202965""
""focus"",""19"",""204361""
","""event"",""trial"",""time""
""blur"",""1"",""274""
""blur"",""19"",""195861""
""blur"",""19"",""202965""
","""event"",""trial"",""time""
""focus"",""1"",""3853""
""focus"",""19"",""197836""
""focus"",""19"",""204361""
","""event"",""trial"",""time""
""fullscreenenter"",""1"",""5915""
","
","","","500.6000000089407","","","21","10668","5158","&#9776;","elianto","#3366ff99"," "," ","1","+10","[1353]","1","0","1","","","","","","","",""
"pit-trial","22","315195","0.0-2.0-8.0-2.0","battery-v0.2","","""event"",""trial"",""time""
""blur"",""1"",""274""
""focus"",""1"",""3853""
""fullscreenenter"",""1"",""5915""
""blur"",""19"",""195861""
""focus"",""19"",""197836""
""blur"",""19"",""202965""
""focus"",""19"",""204361""
","""event"",""trial"",""time""
""blur"",""1"",""274""
""blur"",""19"",""195861""
""blur"",""19"",""202965""
","""event"",""trial"",""time""
""focus"",""1"",""3853""
""focus"",""19"",""197836""
""focus"",""19"",""204361""
","""event"",""trial"",""time""
""fullscreenenter"",""1"",""5915""
","
","","","513.0999999940395","","","21","10668","5158","&#9776;","elianto","#3366ff99"," "," ","1","+10","[1371.9000000059605]","1","0","1","","","","","","","",""
"pit-trial","23","318569","0.0-2.0-8.0-3.0","battery-v0.2","","""event"",""trial"",""time""
""blur"",""1"",""274""
""focus"",""1"",""3853""
""fullscreenenter"",""1"",""5915""
""blur"",""19"",""195861""
""focus"",""19"",""197836""
""blur"",""19"",""202965""
""focus"",""19"",""204361""
","""event"",""trial"",""time""
""blur"",""1"",""274""
""blur"",""19"",""195861""
""blur"",""19"",""202965""
","""event"",""trial"",""time""
""focus"",""1"",""3853""
""focus"",""19"",""197836""
""focus"",""19"",""204361""
","""event"",""trial"",""time""
""fullscreenenter"",""1"",""5915""
","
","","","496","","","21","10668","5158","&#9776;","elianto","#3366ff99"," "," ","1","0","[1356.9000000059605]","1","0","1","","","","","","","",""
"pit-trial","24","322070","0.0-2.0-8.0-4.0","battery-v0.2","","""event"",""trial"",""time""
""blur"",""1"",""274""
""focus"",""1"",""3853""
""fullscreenenter"",""1"",""5915""
""blur"",""19"",""195861""
""focus"",""19"",""197836""
""blur"",""19"",""202965""
""focus"",""19"",""204361""
","""event"",""trial"",""time""
""blur"",""1"",""274""
""blur"",""19"",""195861""
""blur"",""19"",""202965""
","""event"",""trial"",""time""
""focus"",""1"",""3853""
""focus"",""19"",""197836""
""focus"",""19"",""204361""
","""event"",""trial"",""time""
""fullscreenenter"",""1"",""5915""
","
","","","627.7999999970198","","","21","10668","5158","&#9776;","elianto","#3366ff99"," "," ","1","+10","[1484.4000000059605]","1","0","1","","","","","","","",""
"pit-trial","25","325425","0.0-2.0-8.1-0.1","battery-v0.2","","""event"",""trial"",""time""
""blur"",""1"",""274""
""focus"",""1"",""3853""
""fullscreenenter"",""1"",""5915""
""blur"",""19"",""195861""
""focus"",""19"",""197836""
""blur"",""19"",""202965""
""focus"",""19"",""204361""
","""event"",""trial"",""time""
""blur"",""1"",""274""
""blur"",""19"",""195861""
""blur"",""19"",""202965""
","""event"",""trial"",""time""
""focus"",""1"",""3853""
""focus"",""19"",""197836""
""focus"",""19"",""204361""
","""event"",""trial"",""time""
""fullscreenenter"",""1"",""5915""
","
","","","494.90000000596046","","","21","10668","5158","&#9776;","elianto","#3366ff99"," "," ","1","+10","[1353.2000000029802]","1","0","1","","","","","","","",""
"pit-trial","26","329092","0.0-2.0-8.1-1.1","battery-v0.2","","""event"",""trial"",""time""
""blur"",""1"",""274""
""focus"",""1"",""3853""
""fullscreenenter"",""1"",""5915""
""blur"",""19"",""195861""
""focus"",""19"",""197836""
""blur"",""19"",""202965""
""focus"",""19"",""204361""
","""event"",""trial"",""time""
""blur"",""1"",""274""
""blur"",""19"",""195861""
""blur"",""19"",""202965""
","""event"",""trial"",""time""
""focus"",""1"",""3853""
""focus"",""19"",""197836""
""focus"",""19"",""204361""
","""event"",""trial"",""time""
""fullscreenenter"",""1"",""5915""
","
","","","806.0999999940395","","","21","10668","5158","&#9776;","elianto","#3366ff99"," "," ","1","+10","[1661.699999988079]","1","0","1","","","","","","","",""
"pit-trial","27","332498","0.0-2.0-8.1-2.1","battery-v0.2","","""event"",""trial"",""time""
""blur"",""1"",""274""
""focus"",""1"",""3853""
""fullscreenenter"",""1"",""5915""
""blur"",""19"",""195861""
""focus"",""19"",""197836""
""blur"",""19"",""202965""
""focus"",""19"",""204361""
","""event"",""trial"",""time""
""blur"",""1"",""274""
""blur"",""19"",""195861""
""blur"",""19"",""202965""
","""event"",""trial"",""time""
""focus"",""1"",""3853""
""focus"",""19"",""197836""
""focus"",""19"",""204361""
","""event"",""trial"",""time""
""fullscreenenter"",""1"",""5915""
","
","","","534.8000000119209","","","21","10668","5158","&#9776;","elianto","#3366ff99"," "," ","1","+10","[1393.300000011921]","1","0","1","","","","","","","",""
"pit-trial","28","335897","0.0-2.0-8.1-3.1","battery-v0.2","","""event"",""trial"",""time""
""blur"",""1"",""274""
""focus"",""1"",""3853""
""fullscreenenter"",""1"",""5915""
""blur"",""19"",""195861""
""focus"",""19"",""197836""
""blur"",""19"",""202965""
""focus"",""19"",""204361""
","""event"",""trial"",""time""
""blur"",""1"",""274""
""blur"",""19"",""195861""
""blur"",""19"",""202965""
","""event"",""trial"",""time""
""focus"",""1"",""3853""
""focus"",""19"",""197836""
""focus"",""19"",""204361""
","""event"",""trial"",""time""
""fullscreenenter"",""1"",""5915""
","
","","","542.7999999970198","","","21","10668","5158","&#9776;","elianto","#3366ff99"," "," ","1","0","[1397.3999999910593]","1","0","1","","","","","","","",""
"pit-trial","29","339226","0.0-2.0-8.1-4.1","battery-v0.2","","""event"",""trial"",""time""
""blur"",""1"",""274""
""focus"",""1"",""3853""
""fullscreenenter"",""1"",""5915""
""blur"",""19"",""195861""
""focus"",""19"",""197836""
""blur"",""19"",""202965""
""focus"",""19"",""204361""
","""event"",""trial"",""time""
""blur"",""1"",""274""
""blur"",""19"",""195861""
""blur"",""19"",""202965""
","""event"",""trial"",""time""
""focus"",""1"",""3853""
""focus"",""19"",""197836""
""focus"",""19"",""204361""
","""event"",""trial"",""time""
""fullscreenenter"",""1"",""5915""
","
","","","476.29999999701977","","","21","10668","5158","&#9776;","elianto","#3366ff99"," "," ","1","+10","[1326.7000000029802]","1","0","1","","","","","","","",""
"pit-trial","30","342659","0.0-2.0-8.2-0.2","battery-v0.2","","""event"",""trial"",""time""
""blur"",""1"",""274""
""focus"",""1"",""3853""
""fullscreenenter"",""1"",""5915""
""blur"",""19"",""195861""
""focus"",""19"",""197836""
""blur"",""19"",""202965""
""focus"",""19"",""204361""
","""event"",""trial"",""time""
""blur"",""1"",""274""
""blur"",""19"",""195861""
""blur"",""19"",""202965""
","""event"",""trial"",""time""
""focus"",""1"",""3853""
""focus"",""19"",""197836""
""focus"",""19"",""204361""
","""event"",""trial"",""time""
""fullscreenenter"",""1"",""5915""
","
","","","581.5","","","21","10668","5158","&#9776;","elianto","#3366ff99"," "," ","1","+10","[1431.7999999970198]","1","0","1","","","","","","","",""
"pit-trial","31","346033","0.0-2.0-8.2-1.2","battery-v0.2","","""event"",""trial"",""time""
""blur"",""1"",""274""
""focus"",""1"",""3853""
""fullscreenenter"",""1"",""5915""
""blur"",""19"",""195861""
""focus"",""19"",""197836""
""blur"",""19"",""202965""
""focus"",""19"",""204361""
","""event"",""trial"",""time""
""blur"",""1"",""274""
""blur"",""19"",""195861""
""blur"",""19"",""202965""
","""event"",""trial"",""time""
""focus"",""1"",""3853""
""focus"",""19"",""197836""
""focus"",""19"",""204361""
","""event"",""trial"",""time""
""fullscreenenter"",""1"",""5915""
","
","","","522.1999999880791","","","21","10668","5158","&#9776;","elianto","#3366ff99"," "," ","1","+10","[1372.7999999970198]","1","0","1","","","","","","","",""
"pit-trial","32","349322","0.0-2.0-8.2-2.2","battery-v0.2","","""event"",""trial"",""time""
""blur"",""1"",""274""
""focus"",""1"",""3853""
""fullscreenenter"",""1"",""5915""
""blur"",""19"",""195861""
""focus"",""19"",""197836""
""blur"",""19"",""202965""
""focus"",""19"",""204361""
","""event"",""trial"",""time""
""blur"",""1"",""274""
""blur"",""19"",""195861""
""blur"",""19"",""202965""
","""event"",""trial"",""time""
""focus"",""1"",""3853""
""focus"",""19"",""197836""
""focus"",""19"",""204361""
","""event"",""trial"",""time""
""fullscreenenter"",""1"",""5915""
","
","","","436.90000000596046","","","21","10668","5158","&#9776;","elianto","#3366ff99"," "," ","1","+10","[1287.7000000029802]","1","0","1","","","","","","","",""
"pit-trial","33","352568","0.0-2.0-8.2-3.2","battery-v0.2","","""event"",""trial"",""time""
""blur"",""1"",""274""
""focus"",""1"",""3853""
""fullscreenenter"",""1"",""5915""
""blur"",""19"",""195861""
""focus"",""19"",""197836""
""blur"",""19"",""202965""
""focus"",""19"",""204361""
","""event"",""trial"",""time""
""blur"",""1"",""274""
""blur"",""19"",""195861""
""blur"",""19"",""202965""
","""event"",""trial"",""time""
""focus"",""1"",""3853""
""focus"",""19"",""197836""
""focus"",""19"",""204361""
","""event"",""trial"",""time""
""fullscreenenter"",""1"",""5915""
","
","","","394.6000000089407","","","21","10668","5158","&#9776;","elianto","#3366ff99"," "," ","1","0","[1244.8999999910593]","1","0","1","","","","","","","",""
"pit-trial","34","355841","0.0-2.0-8.2-4.2","battery-v0.2","","""event"",""trial"",""time""
""blur"",""1"",""274""
""focus"",""1"",""3853""
""fullscreenenter"",""1"",""5915""
""blur"",""19"",""195861""
""focus"",""19"",""197836""
""blur"",""19"",""202965""
""focus"",""19"",""204361""
","""event"",""trial"",""time""
""blur"",""1"",""274""
""blur"",""19"",""195861""
""blur"",""19"",""202965""
","""event"",""trial"",""time""
""focus"",""1"",""3853""
""focus"",""19"",""197836""
""focus"",""19"",""204361""
","""event"",""trial"",""time""
""fullscreenenter"",""1"",""5915""
","
","","","420.3999999910593","","","21","10668","5158","&#9776;","elianto","#3366ff99"," "," ","1","+10","[1271]","1","0","1","","","","","","","",""
"call-function","35","355842","0.0-2.0-9.0","battery-v0.2","","""event"",""trial"",""time""
""blur"",""1"",""274""
""focus"",""1"",""3853""
""fullscreenenter"",""1"",""5915""
""blur"",""19"",""195861""
""focus"",""19"",""197836""
""blur"",""19"",""202965""
""focus"",""19"",""204361""
","""event"",""trial"",""time""
""blur"",""1"",""274""
""blur"",""19"",""195861""
""blur"",""19"",""202965""
","""event"",""trial"",""time""
""focus"",""1"",""3853""
""focus"",""19"",""197836""
""focus"",""19"",""204361""
","""event"",""trial"",""time""
""fullscreenenter"",""1"",""5915""
","
","","","","","","","","","","","","","","","","","","","","","","","","","","",""
"pit-instructions","36","401035","0.0-2.0-10.0","battery-v0.2","","""event"",""trial"",""time""
""blur"",""1"",""274""
""focus"",""1"",""3853""
""fullscreenenter"",""1"",""5915""
""blur"",""19"",""195861""
""focus"",""19"",""197836""
""blur"",""19"",""202965""
""focus"",""19"",""204361""
","""event"",""trial"",""time""
""blur"",""1"",""274""
""blur"",""19"",""195861""
""blur"",""19"",""202965""
","""event"",""trial"",""time""
""focus"",""1"",""3853""
""focus"",""19"",""197836""
""focus"",""19"",""204361""
","""event"",""trial"",""time""
""fullscreenenter"",""1"",""5915""
","
","","[{""page_index"":0,""viewing_time"":5619.5},{""page_index"":1,""viewing_time"":6680.20000000298},{""page_index"":2,""viewing_time"":9730.09999999404},{""page_index"":3,""viewing_time"":11791.09999999404},{""page_index"":4,""viewing_time"":11372}]","45193","","","","","","","","","","","","","","","","","","","","","","","",""
"pit-trial","37","404569","0.0-2.0-11.0-0.0","battery-v0.2","","""event"",""trial"",""time""
""blur"",""1"",""274""
""focus"",""1"",""3853""
""fullscreenenter"",""1"",""5915""
""blur"",""19"",""195861""
""focus"",""19"",""197836""
""blur"",""19"",""202965""
""focus"",""19"",""204361""
","""event"",""trial"",""time""
""blur"",""1"",""274""
""blur"",""19"",""195861""
""blur"",""19"",""202965""
","""event"",""trial"",""time""
""focus"",""1"",""3853""
""focus"",""19"",""197836""
""focus"",""19"",""204361""
","""event"",""trial"",""time""
""fullscreenenter"",""1"",""5915""
","
","","","672.8999999910593","","","21","10668","5158","&#9761;","elianto","#3366ff99","-1"," ","0","0","[1530]","1","0","2","","","","","","","",""
"pit-trial","38","408155","0.0-2.0-11.0-1.0","battery-v0.2","","""event"",""trial"",""time""
""blur"",""1"",""274""
""focus"",""1"",""3853""
""fullscreenenter"",""1"",""5915""
""blur"",""19"",""195861""
""focus"",""19"",""197836""
""blur"",""19"",""202965""
""focus"",""19"",""204361""
","""event"",""trial"",""time""
""blur"",""1"",""274""
""blur"",""19"",""195861""
""blur"",""19"",""202965""
","""event"",""trial"",""time""
""focus"",""1"",""3853""
""focus"",""19"",""197836""
""focus"",""19"",""204361""
","""event"",""trial"",""time""
""fullscreenenter"",""1"",""5915""
","
","","","722.7999999970198","","","21","10668","5158","&#9761;","elianto","#3366ff99","-1"," ","0","0","[1582]","1","0","2","","","","","","","",""
"pit-trial","39","413028","0.0-2.0-11.0-2.0","battery-v0.2","","""event"",""trial"",""time""
""blur"",""1"",""274""
""focus"",""1"",""3853""
""fullscreenenter"",""1"",""5915""
""blur"",""19"",""195861""
""focus"",""19"",""197836""
""blur"",""19"",""202965""
""focus"",""19"",""204361""
","""event"",""trial"",""time""
""blur"",""1"",""274""
""blur"",""19"",""195861""
""blur"",""19"",""202965""
","""event"",""trial"",""time""
""focus"",""1"",""3853""
""focus"",""19"",""197836""
""focus"",""19"",""204361""
","""event"",""trial"",""time""
""fullscreenenter"",""1"",""5915""
","
","","","-1","","","21","10668","5158","&#9761;","elianto","#3366ff99","-1","-1","1","+10","[]","0","0","2","","","","","","","",""
"pit-trial","40","417898","0.0-2.0-11.0-3.0","battery-v0.2","","""event"",""trial"",""time""
""blur"",""1"",""274""
""focus"",""1"",""3853""
""fullscreenenter"",""1"",""5915""
""blur"",""19"",""195861""
""focus"",""19"",""197836""
""blur"",""19"",""202965""
""focus"",""19"",""204361""
","""event"",""trial"",""time""
""blur"",""1"",""274""
""blur"",""19"",""195861""
""blur"",""19"",""202965""
","""event"",""trial"",""time""
""focus"",""1"",""3853""
""focus"",""19"",""197836""
""focus"",""19"",""204361""
","""event"",""trial"",""time""
""fullscreenenter"",""1"",""5915""
","
","","","-1","","","21","10668","5158","&#9761;","elianto","#3366ff99","-1","-1","1","0","[]","0","0","2","","","","","","","",""
"pit-trial","41","422766","0.0-2.0-11.0-4.0","battery-v0.2","","""event"",""trial"",""time""
""blur"",""1"",""274""
""focus"",""1"",""3853""
""fullscreenenter"",""1"",""5915""
""blur"",""19"",""195861""
""focus"",""19"",""197836""
""blur"",""19"",""202965""
""focus"",""19"",""204361""
","""event"",""trial"",""time""
""blur"",""1"",""274""
""blur"",""19"",""195861""
""blur"",""19"",""202965""
","""event"",""trial"",""time""
""focus"",""1"",""3853""
""focus"",""19"",""197836""
""focus"",""19"",""204361""
","""event"",""trial"",""time""
""fullscreenenter"",""1"",""5915""
","
","","","-1","","","21","10668","5158","&#9761;","elianto","#3366ff99","-1","-1","1","+10","[]","0","0","2","","","","","","","",""
"pit-trial","42","426475","0.0-2.0-11.1-0.1","battery-v0.2","","""event"",""trial"",""time""
""blur"",""1"",""274""
""focus"",""1"",""3853""
""fullscreenenter"",""1"",""5915""
""blur"",""19"",""195861""
""focus"",""19"",""197836""
""blur"",""19"",""202965""
""focus"",""19"",""204361""
","""event"",""trial"",""time""
""blur"",""1"",""274""
""blur"",""19"",""195861""
""blur"",""19"",""202965""
","""event"",""trial"",""time""
""focus"",""1"",""3853""
""focus"",""19"",""197836""
""focus"",""19"",""204361""
","""event"",""trial"",""time""
""fullscreenenter"",""1"",""5915""
","
","","","836","","","21","10668","5158","&#9761;","elianto","#3366ff99","-1"," ","0","0","[1695.7000000029802]","1","0","2","","","","","","","",""
"pit-trial","43","430063","0.0-2.0-11.1-1.1","battery-v0.2","","""event"",""trial"",""time""
""blur"",""1"",""274""
""focus"",""1"",""3853""
""fullscreenenter"",""1"",""5915""
""blur"",""19"",""195861""
""focus"",""19"",""197836""
""blur"",""19"",""202965""
""focus"",""19"",""204361""
","""event"",""trial"",""time""
""blur"",""1"",""274""
""blur"",""19"",""195861""
""blur"",""19"",""202965""
","""event"",""trial"",""time""
""focus"",""1"",""3853""
""focus"",""19"",""197836""
""focus"",""19"",""204361""
","""event"",""trial"",""time""
""fullscreenenter"",""1"",""5915""
","
","","","734.9000000059605","","","21","10668","5158","&#9761;","elianto","#3366ff99","-1"," ","0","0","[1585.9000000059605]","1","0","2","","","","","","","",""
"pit-trial","44","434916","0.0-2.0-11.1-2.1","battery-v0.2","","""event"",""trial"",""time""
""blur"",""1"",""274""
""focus"",""1"",""3853""
""fullscreenenter"",""1"",""5915""
""blur"",""19"",""195861""
""focus"",""19"",""197836""
""blur"",""19"",""202965""
""focus"",""19"",""204361""
","""event"",""trial"",""time""
""blur"",""1"",""274""
""blur"",""19"",""195861""
""blur"",""19"",""202965""
","""event"",""trial"",""time""
""focus"",""1"",""3853""
""focus"",""19"",""197836""
""focus"",""19"",""204361""
","""event"",""trial"",""time""
""fullscreenenter"",""1"",""5915""
","
","","","-1","","","21","10668","5158","&#9761;","elianto","#3366ff99","-1","-1","1","+10","[]","0","0","2","","","","","","","",""
"pit-trial","45","439769","0.0-2.0-11.1-3.1","battery-v0.2","","""event"",""trial"",""time""
""blur"",""1"",""274""
""focus"",""1"",""3853""
""fullscreenenter"",""1"",""5915""
""blur"",""19"",""195861""
""focus"",""19"",""197836""
""blur"",""19"",""202965""
""focus"",""19"",""204361""
","""event"",""trial"",""time""
""blur"",""1"",""274""
""blur"",""19"",""195861""
""blur"",""19"",""202965""
","""event"",""trial"",""time""
""focus"",""1"",""3853""
""focus"",""19"",""197836""
""focus"",""19"",""204361""
","""event"",""trial"",""time""
""fullscreenenter"",""1"",""5915""
","
","","","-1","","","21","10668","5158","&#9761;","elianto","#3366ff99","-1","-1","1","0","[]","0","0","2","","","","","","","",""
"pit-trial","46","444623","0.0-2.0-11.1-4.1","battery-v0.2","","""event"",""trial"",""time""
""blur"",""1"",""274""
""focus"",""1"",""3853""
""fullscreenenter"",""1"",""5915""
""blur"",""19"",""195861""
""focus"",""19"",""197836""
""blur"",""19"",""202965""
""focus"",""19"",""204361""
","""event"",""trial"",""time""
""blur"",""1"",""274""
""blur"",""19"",""195861""
""blur"",""19"",""202965""
","""event"",""trial"",""time""
""focus"",""1"",""3853""
""focus"",""19"",""197836""
""focus"",""19"",""204361""
","""event"",""trial"",""time""
""fullscreenenter"",""1"",""5915""
","
","","","-1","","","21","10668","5158","&#9761;","elianto","#3366ff99","-1","-1","1","+10","[]","0","0","2","","","","","","","",""
"pit-trial","47","449476","0.0-2.0-11.2-0.2","battery-v0.2","","""event"",""trial"",""time""
""blur"",""1"",""274""
""focus"",""1"",""3853""
""fullscreenenter"",""1"",""5915""
""blur"",""19"",""195861""
""focus"",""19"",""197836""
""blur"",""19"",""202965""
""focus"",""19"",""204361""
","""event"",""trial"",""time""
""blur"",""1"",""274""
""blur"",""19"",""195861""
""blur"",""19"",""202965""
","""event"",""trial"",""time""
""focus"",""1"",""3853""
""focus"",""19"",""197836""
""focus"",""19"",""204361""
","""event"",""trial"",""time""
""fullscreenenter"",""1"",""5915""
","
","","","-1","","","21","10668","5158","&#9761;","elianto","#3366ff99","-1","-1","1","+10","[]","0","0","2","","","","","","","",""
"pit-trial","48","454328","0.0-2.0-11.2-1.2","battery-v0.2","","""event"",""trial"",""time""
""blur"",""1"",""274""
""focus"",""1"",""3853""
""fullscreenenter"",""1"",""5915""
""blur"",""19"",""195861""
""focus"",""19"",""197836""
""blur"",""19"",""202965""
""focus"",""19"",""204361""
","""event"",""trial"",""time""
""blur"",""1"",""274""
""blur"",""19"",""195861""
""blur"",""19"",""202965""
","""event"",""trial"",""time""
""focus"",""1"",""3853""
""focus"",""19"",""197836""
""focus"",""19"",""204361""
","""event"",""trial"",""time""
""fullscreenenter"",""1"",""5915""
","
","","","-1","","","21","10668","5158","&#9761;","elianto","#3366ff99","-1","-1","1","+10","[]","0","0","2","","","","","","","",""
"pit-trial","49","459180","0.0-2.0-11.2-2.2","battery-v0.2","","""event"",""trial"",""time""
""blur"",""1"",""274""
""focus"",""1"",""3853""
""fullscreenenter"",""1"",""5915""
""blur"",""19"",""195861""
""focus"",""19"",""197836""
""blur"",""19"",""202965""
""focus"",""19"",""204361""
","""event"",""trial"",""time""
""blur"",""1"",""274""
""blur"",""19"",""195861""
""blur"",""19"",""202965""
","""event"",""trial"",""time""
""focus"",""1"",""3853""
""focus"",""19"",""197836""
""focus"",""19"",""204361""
","""event"",""trial"",""time""
""fullscreenenter"",""1"",""5915""
","
","","","-1","","","21","10668","5158","&#9761;","elianto","#3366ff99","-1","-1","1","+10","[]","0","0","2","","","","","","","",""
"pit-trial","50","464032","0.0-2.0-11.2-3.2","battery-v0.2","","""event"",""trial"",""time""
""blur"",""1"",""274""
""focus"",""1"",""3853""
""fullscreenenter"",""1"",""5915""
""blur"",""19"",""195861""
""focus"",""19"",""197836""
""blur"",""19"",""202965""
""focus"",""19"",""204361""
","""event"",""trial"",""time""
""blur"",""1"",""274""
""blur"",""19"",""195861""
""blur"",""19"",""202965""
","""event"",""trial"",""time""
""focus"",""1"",""3853""
""focus"",""19"",""197836""
""focus"",""19"",""204361""
","""event"",""trial"",""time""
""fullscreenenter"",""1"",""5915""
","
","","","-1","","","21","10668","5158","&#9761;","elianto","#3366ff99","-1","-1","1","0","[]","0","0","2","","","","","","","",""
"pit-trial","51","468884","0.0-2.0-11.2-4.2","battery-v0.2","","""event"",""trial"",""time""
""blur"",""1"",""274""
""focus"",""1"",""3853""
""fullscreenenter"",""1"",""5915""
""blur"",""19"",""195861""
""focus"",""19"",""197836""
""blur"",""19"",""202965""
""focus"",""19"",""204361""
","""event"",""trial"",""time""
""blur"",""1"",""274""
""blur"",""19"",""195861""
""blur"",""19"",""202965""
","""event"",""trial"",""time""
""focus"",""1"",""3853""
""focus"",""19"",""197836""
""focus"",""19"",""204361""
","""event"",""trial"",""time""
""fullscreenenter"",""1"",""5915""
","
","","","-1","","","21","10668","5158","&#9761;","elianto","#3366ff99","-1","-1","1","+10","[]","0","0","2","","","","","","","",""
"pit-trial","52","473736","0.0-2.0-11.3-0.3","battery-v0.2","","""event"",""trial"",""time""
""blur"",""1"",""274""
""focus"",""1"",""3853""
""fullscreenenter"",""1"",""5915""
""blur"",""19"",""195861""
""focus"",""19"",""197836""
""blur"",""19"",""202965""
""focus"",""19"",""204361""
","""event"",""trial"",""time""
""blur"",""1"",""274""
""blur"",""19"",""195861""
""blur"",""19"",""202965""
","""event"",""trial"",""time""
""focus"",""1"",""3853""
""focus"",""19"",""197836""
""focus"",""19"",""204361""
","""event"",""trial"",""time""
""fullscreenenter"",""1"",""5915""
","
","","","-1","","","21","10668","5158","&#9761;","elianto","#3366ff99","-1","-1","1","+10","[]","0","0","2","","","","","","","",""
"pit-trial","53","478589","0.0-2.0-11.3-1.3","battery-v0.2","","""event"",""trial"",""time""
""blur"",""1"",""274""
""focus"",""1"",""3853""
""fullscreenenter"",""1"",""5915""
""blur"",""19"",""195861""
""focus"",""19"",""197836""
""blur"",""19"",""202965""
""focus"",""19"",""204361""
","""event"",""trial"",""time""
""blur"",""1"",""274""
""blur"",""19"",""195861""
""blur"",""19"",""202965""
","""event"",""trial"",""time""
""focus"",""1"",""3853""
""focus"",""19"",""197836""
""focus"",""19"",""204361""
","""event"",""trial"",""time""
""fullscreenenter"",""1"",""5915""
","
","","","-1","","","21","10668","5158","&#9761;","elianto","#3366ff99","-1","-1","1","+10","[]","0","0","2","","","","","","","",""
"pit-trial","54","483441","0.0-2.0-11.3-2.3","battery-v0.2","","""event"",""trial"",""time""
""blur"",""1"",""274""
""focus"",""1"",""3853""
""fullscreenenter"",""1"",""5915""
""blur"",""19"",""195861""
""focus"",""19"",""197836""
""blur"",""19"",""202965""
""focus"",""19"",""204361""
","""event"",""trial"",""time""
""blur"",""1"",""274""
""blur"",""19"",""195861""
""blur"",""19"",""202965""
","""event"",""trial"",""time""
""focus"",""1"",""3853""
""focus"",""19"",""197836""
""focus"",""19"",""204361""
","""event"",""trial"",""time""
""fullscreenenter"",""1"",""5915""
","
","","","-1","","","21","10668","5158","&#9761;","elianto","#3366ff99","-1","-1","1","+10","[]","0","0","2","","","","","","","",""
"pit-trial","55","488293","0.0-2.0-11.3-3.3","battery-v0.2","","""event"",""trial"",""time""
""blur"",""1"",""274""
""focus"",""1"",""3853""
""fullscreenenter"",""1"",""5915""
""blur"",""19"",""195861""
""focus"",""19"",""197836""
""blur"",""19"",""202965""
""focus"",""19"",""204361""
","""event"",""trial"",""time""
""blur"",""1"",""274""
""blur"",""19"",""195861""
""blur"",""19"",""202965""
","""event"",""trial"",""time""
""focus"",""1"",""3853""
""focus"",""19"",""197836""
""focus"",""19"",""204361""
","""event"",""trial"",""time""
""fullscreenenter"",""1"",""5915""
","
","","","-1","","","21","10668","5158","&#9761;","elianto","#3366ff99","-1","-1","1","0","[]","0","0","2","","","","","","","",""
"pit-trial","56","493147","0.0-2.0-11.3-4.3","battery-v0.2","","""event"",""trial"",""time""
""blur"",""1"",""274""
""focus"",""1"",""3853""
""fullscreenenter"",""1"",""5915""
""blur"",""19"",""195861""
""focus"",""19"",""197836""
""blur"",""19"",""202965""
""focus"",""19"",""204361""
","""event"",""trial"",""time""
""blur"",""1"",""274""
""blur"",""19"",""195861""
""blur"",""19"",""202965""
","""event"",""trial"",""time""
""focus"",""1"",""3853""
""focus"",""19"",""197836""
""focus"",""19"",""204361""
","""event"",""trial"",""time""
""fullscreenenter"",""1"",""5915""
","
","","","-1","","","21","10668","5158","&#9761;","elianto","#3366ff99","-1","-1","1","+10","[]","0","0","2","","","","","","","",""
"call-function","57","493148","0.0-2.0-12.0","battery-v0.2","","""event"",""trial"",""time""
""blur"",""1"",""274""
""focus"",""1"",""3853""
""fullscreenenter"",""1"",""5915""
""blur"",""19"",""195861""
""focus"",""19"",""197836""
""blur"",""19"",""202965""
""focus"",""19"",""204361""
","""event"",""trial"",""time""
""blur"",""1"",""274""
""blur"",""19"",""195861""
""blur"",""19"",""202965""
","""event"",""trial"",""time""
""focus"",""1"",""3853""
""focus"",""19"",""197836""
""focus"",""19"",""204361""
","""event"",""trial"",""time""
""fullscreenenter"",""1"",""5915""
","
","","","","","","","","","","","","","","","","","","","","","","","","","","",""
"pit-instructions","58","543787","0.0-2.0-13.0","battery-v0.2","","""event"",""trial"",""time""
""blur"",""1"",""274""
""focus"",""1"",""3853""
""fullscreenenter"",""1"",""5915""
""blur"",""19"",""195861""
""focus"",""19"",""197836""
""blur"",""19"",""202965""
""focus"",""19"",""204361""
","""event"",""trial"",""time""
""blur"",""1"",""274""
""blur"",""19"",""195861""
""blur"",""19"",""202965""
","""event"",""trial"",""time""
""focus"",""1"",""3853""
""focus"",""19"",""197836""
""focus"",""19"",""204361""
","""event"",""trial"",""time""
""fullscreenenter"",""1"",""5915""
","
","","[{""page_index"":0,""viewing_time"":7593.0999999940395},{""page_index"":1,""viewing_time"":13676.20000000298},{""page_index"":2,""viewing_time"":8442},{""page_index"":3,""viewing_time"":13115.10000000894},{""page_index"":4,""viewing_time"":7813}]","50639.59999999404","","","","","","","","","","","","","","","","","","","","","","","",""
"pit-trial","59","548655","0.0-2.0-14.0-0.0","battery-v0.2","","""event"",""trial"",""time""
""blur"",""1"",""274""
""focus"",""1"",""3853""
""fullscreenenter"",""1"",""5915""
""blur"",""19"",""195861""
""focus"",""19"",""197836""
""blur"",""19"",""202965""
""focus"",""19"",""204361""
","""event"",""trial"",""time""
""blur"",""1"",""274""
""blur"",""19"",""195861""
""blur"",""19"",""202965""
","""event"",""trial"",""time""
""focus"",""1"",""3853""
""focus"",""19"",""197836""
""focus"",""19"",""204361""
","""event"",""trial"",""time""
""fullscreenenter"",""1"",""5915""
","
","","","-1","","","21","10668","5158","&#9826;","elianto","#f73b6a7A","-1","-1","1","0","[]","0","0","3","","","","","","","",""
"pit-trial","60","553527","0.0-2.0-14.0-1.0","battery-v0.2","","""event"",""trial"",""time""
""blur"",""1"",""274""
""focus"",""1"",""3853""
""fullscreenenter"",""1"",""5915""
""blur"",""19"",""195861""
""focus"",""19"",""197836""
""blur"",""19"",""202965""
""focus"",""19"",""204361""
","""event"",""trial"",""time""
""blur"",""1"",""274""
""blur"",""19"",""195861""
""blur"",""19"",""202965""
","""event"",""trial"",""time""
""focus"",""1"",""3853""
""focus"",""19"",""197836""
""focus"",""19"",""204361""
","""event"",""trial"",""time""
""fullscreenenter"",""1"",""5915""
","
","","","-1","","","21","10668","5158","&#9826;","elianto","#f73b6a7A","-1","-1","1","0","[]","0","0","3","","","","","","","",""
"pit-trial","61","557977","0.0-2.0-14.0-2.0","battery-v0.2","","""event"",""trial"",""time""
""blur"",""1"",""274""
""focus"",""1"",""3853""
""fullscreenenter"",""1"",""5915""
""blur"",""19"",""195861""
""focus"",""19"",""197836""
""blur"",""19"",""202965""
""focus"",""19"",""204361""
","""event"",""trial"",""time""
""blur"",""1"",""274""
""blur"",""19"",""195861""
""blur"",""19"",""202965""
","""event"",""trial"",""time""
""focus"",""1"",""3853""
""focus"",""19"",""197836""
""focus"",""19"",""204361""
","""event"",""trial"",""time""
""fullscreenenter"",""1"",""5915""
","
","","","1580.2999999970198","","","21","10668","5158","&#9826;","elianto","#f73b6a7A","-1"," ","0","-10","[2436.2000000029802]","1","0","3","","","","","","","",""
"pit-trial","62","562847","0.0-2.0-14.0-3.0","battery-v0.2","","""event"",""trial"",""time""
""blur"",""1"",""274""
""focus"",""1"",""3853""
""fullscreenenter"",""1"",""5915""
""blur"",""19"",""195861""
""focus"",""19"",""197836""
""blur"",""19"",""202965""
""focus"",""19"",""204361""
","""event"",""trial"",""time""
""blur"",""1"",""274""
""blur"",""19"",""195861""
""blur"",""19"",""202965""
","""event"",""trial"",""time""
""focus"",""1"",""3853""
""focus"",""19"",""197836""
""focus"",""19"",""204361""
","""event"",""trial"",""time""
""fullscreenenter"",""1"",""5915""
","
","","","-1","","","21","10668","5158","&#9826;","elianto","#f73b6a7A","-1","-1","1","-10","[]","0","0","3","","","","","","","",""
"pit-trial","63","567717","0.0-2.0-14.0-4.0","battery-v0.2","","""event"",""trial"",""time""
""blur"",""1"",""274""
""focus"",""1"",""3853""
""fullscreenenter"",""1"",""5915""
""blur"",""19"",""195861""
""focus"",""19"",""197836""
""blur"",""19"",""202965""
""focus"",""19"",""204361""
","""event"",""trial"",""time""
""blur"",""1"",""274""
""blur"",""19"",""195861""
""blur"",""19"",""202965""
","""event"",""trial"",""time""
""focus"",""1"",""3853""
""focus"",""19"",""197836""
""focus"",""19"",""204361""
","""event"",""trial"",""time""
""fullscreenenter"",""1"",""5915""
","
","","","-1","","","21","10668","5158","&#9826;","elianto","#f73b6a7A","-1","-1","1","0","[]","0","0","3","","","","","","","",""
"pit-trial","64","572578","0.0-2.0-14.1-0.1","battery-v0.2","","""event"",""trial"",""time""
""blur"",""1"",""274""
""focus"",""1"",""3853""
""fullscreenenter"",""1"",""5915""
""blur"",""19"",""195861""
""focus"",""19"",""197836""
""blur"",""19"",""202965""
""focus"",""19"",""204361""
","""event"",""trial"",""time""
""blur"",""1"",""274""
""blur"",""19"",""195861""
""blur"",""19"",""202965""
","""event"",""trial"",""time""
""focus"",""1"",""3853""
""focus"",""19"",""197836""
""focus"",""19"",""204361""
","""event"",""trial"",""time""
""fullscreenenter"",""1"",""5915""
","
","","","-1","","","21","10668","5158","&#9826;","elianto","#f73b6a7A","-1","-1","1","0","[]","0","0","3","","","","","","","",""
"pit-trial","65","577431","0.0-2.0-14.1-1.1","battery-v0.2","","""event"",""trial"",""time""
""blur"",""1"",""274""
""focus"",""1"",""3853""
""fullscreenenter"",""1"",""5915""
""blur"",""19"",""195861""
""focus"",""19"",""197836""
""blur"",""19"",""202965""
""focus"",""19"",""204361""
","""event"",""trial"",""time""
""blur"",""1"",""274""
""blur"",""19"",""195861""
""blur"",""19"",""202965""
","""event"",""trial"",""time""
""focus"",""1"",""3853""
""focus"",""19"",""197836""
""focus"",""19"",""204361""
","""event"",""trial"",""time""
""fullscreenenter"",""1"",""5915""
","
","","","-1","","","21","10668","5158","&#9826;","elianto","#f73b6a7A","-1","-1","1","0","[]","0","0","3","","","","","","","",""
"pit-trial","66","582283","0.0-2.0-14.1-2.1","battery-v0.2","","""event"",""trial"",""time""
""blur"",""1"",""274""
""focus"",""1"",""3853""
""fullscreenenter"",""1"",""5915""
""blur"",""19"",""195861""
""focus"",""19"",""197836""
""blur"",""19"",""202965""
""focus"",""19"",""204361""
","""event"",""trial"",""time""
""blur"",""1"",""274""
""blur"",""19"",""195861""
""blur"",""19"",""202965""
","""event"",""trial"",""time""
""focus"",""1"",""3853""
""focus"",""19"",""197836""
""focus"",""19"",""204361""
","""event"",""trial"",""time""
""fullscreenenter"",""1"",""5915""
","
","","","-1","","","21","10668","5158","&#9826;","elianto","#f73b6a7A","-1","-1","1","0","[]","0","0","3","","","","","","","",""
"pit-trial","67","587136","0.0-2.0-14.1-3.1","battery-v0.2","","""event"",""trial"",""time""
""blur"",""1"",""274""
""focus"",""1"",""3853""
""fullscreenenter"",""1"",""5915""
""blur"",""19"",""195861""
""focus"",""19"",""197836""
""blur"",""19"",""202965""
""focus"",""19"",""204361""
","""event"",""trial"",""time""
""blur"",""1"",""274""
""blur"",""19"",""195861""
""blur"",""19"",""202965""
","""event"",""trial"",""time""
""focus"",""1"",""3853""
""focus"",""19"",""197836""
""focus"",""19"",""204361""
","""event"",""trial"",""time""
""fullscreenenter"",""1"",""5915""
","
","","","-1","","","21","10668","5158","&#9826;","elianto","#f73b6a7A","-1","-1","1","-10","[]","0","0","3","","","","","","","",""
"pit-trial","68","591990","0.0-2.0-14.1-4.1","battery-v0.2","","""event"",""trial"",""time""
""blur"",""1"",""274""
""focus"",""1"",""3853""
""fullscreenenter"",""1"",""5915""
""blur"",""19"",""195861""
""focus"",""19"",""197836""
""blur"",""19"",""202965""
""focus"",""19"",""204361""
","""event"",""trial"",""time""
""blur"",""1"",""274""
""blur"",""19"",""195861""
""blur"",""19"",""202965""
","""event"",""trial"",""time""
""focus"",""1"",""3853""
""focus"",""19"",""197836""
""focus"",""19"",""204361""
","""event"",""trial"",""time""
""fullscreenenter"",""1"",""5915""
","
","","","-1","","","21","10668","5158","&#9826;","elianto","#f73b6a7A","-1","-1","1","0","[]","0","0","3","","","","","","","",""
"pit-trial","69","596843","0.0-2.0-14.2-0.2","battery-v0.2","","""event"",""trial"",""time""
""blur"",""1"",""274""
""focus"",""1"",""3853""
""fullscreenenter"",""1"",""5915""
""blur"",""19"",""195861""
""focus"",""19"",""197836""
""blur"",""19"",""202965""
""focus"",""19"",""204361""
","""event"",""trial"",""time""
""blur"",""1"",""274""
""blur"",""19"",""195861""
""blur"",""19"",""202965""
","""event"",""trial"",""time""
""focus"",""1"",""3853""
""focus"",""19"",""197836""
""focus"",""19"",""204361""
","""event"",""trial"",""time""
""fullscreenenter"",""1"",""5915""
","
","","","-1","","","21","10668","5158","&#9826;","elianto","#f73b6a7A","-1","-1","1","0","[]","0","0","3","","","","","","","",""
"pit-trial","70","601696","0.0-2.0-14.2-1.2","battery-v0.2","","""event"",""trial"",""time""
""blur"",""1"",""274""
""focus"",""1"",""3853""
""fullscreenenter"",""1"",""5915""
""blur"",""19"",""195861""
""focus"",""19"",""197836""
""blur"",""19"",""202965""
""focus"",""19"",""204361""
","""event"",""trial"",""time""
""blur"",""1"",""274""
""blur"",""19"",""195861""
""blur"",""19"",""202965""
","""event"",""trial"",""time""
""focus"",""1"",""3853""
""focus"",""19"",""197836""
""focus"",""19"",""204361""
","""event"",""trial"",""time""
""fullscreenenter"",""1"",""5915""
","
","","","-1","","","21","10668","5158","&#9826;","elianto","#f73b6a7A","-1","-1","1","0","[]","0","0","3","","","","","","","",""
"pit-trial","71","606548","0.0-2.0-14.2-2.2","battery-v0.2","","""event"",""trial"",""time""
""blur"",""1"",""274""
""focus"",""1"",""3853""
""fullscreenenter"",""1"",""5915""
""blur"",""19"",""195861""
""focus"",""19"",""197836""
""blur"",""19"",""202965""
""focus"",""19"",""204361""
","""event"",""trial"",""time""
""blur"",""1"",""274""
""blur"",""19"",""195861""
""blur"",""19"",""202965""
","""event"",""trial"",""time""
""focus"",""1"",""3853""
""focus"",""19"",""197836""
""focus"",""19"",""204361""
","""event"",""trial"",""time""
""fullscreenenter"",""1"",""5915""
","
","","","-1","","","21","10668","5158","&#9826;","elianto","#f73b6a7A","-1","-1","1","0","[]","0","0","3","","","","","","","",""
"pit-trial","72","611401","0.0-2.0-14.2-3.2","battery-v0.2","","""event"",""trial"",""time""
""blur"",""1"",""274""
""focus"",""1"",""3853""
""fullscreenenter"",""1"",""5915""
""blur"",""19"",""195861""
""focus"",""19"",""197836""
""blur"",""19"",""202965""
""focus"",""19"",""204361""
","""event"",""trial"",""time""
""blur"",""1"",""274""
""blur"",""19"",""195861""
""blur"",""19"",""202965""
","""event"",""trial"",""time""
""focus"",""1"",""3853""
""focus"",""19"",""197836""
""focus"",""19"",""204361""
","""event"",""trial"",""time""
""fullscreenenter"",""1"",""5915""
","
","","","-1","","","21","10668","5158","&#9826;","elianto","#f73b6a7A","-1","-1","1","-10","[]","0","0","3","","","","","","","",""
"pit-trial","73","616253","0.0-2.0-14.2-4.2","battery-v0.2","","""event"",""trial"",""time""
""blur"",""1"",""274""
""focus"",""1"",""3853""
""fullscreenenter"",""1"",""5915""
""blur"",""19"",""195861""
""focus"",""19"",""197836""
""blur"",""19"",""202965""
""focus"",""19"",""204361""
","""event"",""trial"",""time""
""blur"",""1"",""274""
""blur"",""19"",""195861""
""blur"",""19"",""202965""
","""event"",""trial"",""time""
""focus"",""1"",""3853""
""focus"",""19"",""197836""
""focus"",""19"",""204361""
","""event"",""trial"",""time""
""fullscreenenter"",""1"",""5915""
","
","","","-1","","","21","10668","5158","&#9826;","elianto","#f73b6a7A","-1","-1","1","0","[]","0","0","3","","","","","","","",""
"pit-trial","74","621107","0.0-2.0-14.3-0.3","battery-v0.2","","""event"",""trial"",""time""
""blur"",""1"",""274""
""focus"",""1"",""3853""
""fullscreenenter"",""1"",""5915""
""blur"",""19"",""195861""
""focus"",""19"",""197836""
""blur"",""19"",""202965""
""focus"",""19"",""204361""
","""event"",""trial"",""time""
""blur"",""1"",""274""
""blur"",""19"",""195861""
""blur"",""19"",""202965""
","""event"",""trial"",""time""
""focus"",""1"",""3853""
""focus"",""19"",""197836""
""focus"",""19"",""204361""
","""event"",""trial"",""time""
""fullscreenenter"",""1"",""5915""
","
","","","-1","","","21","10668","5158","&#9826;","elianto","#f73b6a7A","-1","-1","1","0","[]","0","0","3","","","","","","","",""
"pit-trial","75","625959","0.0-2.0-14.3-1.3","battery-v0.2","","""event"",""trial"",""time""
""blur"",""1"",""274""
""focus"",""1"",""3853""
""fullscreenenter"",""1"",""5915""
""blur"",""19"",""195861""
""focus"",""19"",""197836""
""blur"",""19"",""202965""
""focus"",""19"",""204361""
","""event"",""trial"",""time""
""blur"",""1"",""274""
""blur"",""19"",""195861""
""blur"",""19"",""202965""
","""event"",""trial"",""time""
""focus"",""1"",""3853""
""focus"",""19"",""197836""
""focus"",""19"",""204361""
","""event"",""trial"",""time""
""fullscreenenter"",""1"",""5915""
","
","","","-1","","","21","10668","5158","&#9826;","elianto","#f73b6a7A","-1","-1","1","0","[]","0","0","3","","","","","","","",""
"pit-trial","76","630811","0.0-2.0-14.3-2.3","battery-v0.2","","""event"",""trial"",""time""
""blur"",""1"",""274""
""focus"",""1"",""3853""
""fullscreenenter"",""1"",""5915""
""blur"",""19"",""195861""
""focus"",""19"",""197836""
""blur"",""19"",""202965""
""focus"",""19"",""204361""
","""event"",""trial"",""time""
""blur"",""1"",""274""
""blur"",""19"",""195861""
""blur"",""19"",""202965""
","""event"",""trial"",""time""
""focus"",""1"",""3853""
""focus"",""19"",""197836""
""focus"",""19"",""204361""
","""event"",""trial"",""time""
""fullscreenenter"",""1"",""5915""
","
","","","-1","","","21","10668","5158","&#9826;","elianto","#f73b6a7A","-1","-1","1","0","[]","0","0","3","","","","","","","",""
"pit-trial","77","635663","0.0-2.0-14.3-3.3","battery-v0.2","","""event"",""trial"",""time""
""blur"",""1"",""274""
""focus"",""1"",""3853""
""fullscreenenter"",""1"",""5915""
""blur"",""19"",""195861""
""focus"",""19"",""197836""
""blur"",""19"",""202965""
""focus"",""19"",""204361""
","""event"",""trial"",""time""
""blur"",""1"",""274""
""blur"",""19"",""195861""
""blur"",""19"",""202965""
","""event"",""trial"",""time""
""focus"",""1"",""3853""
""focus"",""19"",""197836""
""focus"",""19"",""204361""
","""event"",""trial"",""time""
""fullscreenenter"",""1"",""5915""
","
","","","-1","","","21","10668","5158","&#9826;","elianto","#f73b6a7A","-1","-1","1","-10","[]","0","0","3","","","","","","","",""
"pit-trial","78","640515","0.0-2.0-14.3-4.3","battery-v0.2","","""event"",""trial"",""time""
""blur"",""1"",""274""
""focus"",""1"",""3853""
""fullscreenenter"",""1"",""5915""
""blur"",""19"",""195861""
""focus"",""19"",""197836""
""blur"",""19"",""202965""
""focus"",""19"",""204361""
","""event"",""trial"",""time""
""blur"",""1"",""274""
""blur"",""19"",""195861""
""blur"",""19"",""202965""
","""event"",""trial"",""time""
""focus"",""1"",""3853""
""focus"",""19"",""197836""
""focus"",""19"",""204361""
","""event"",""trial"",""time""
""fullscreenenter"",""1"",""5915""
","
","","","-1","","","21","10668","5158","&#9826;","elianto","#f73b6a7A","-1","-1","1","0","[]","0","0","3","","","","","","","",""
"call-function","79","640516","0.0-2.0-15.0","battery-v0.2","","""event"",""trial"",""time""
""blur"",""1"",""274""
""focus"",""1"",""3853""
""fullscreenenter"",""1"",""5915""
""blur"",""19"",""195861""
""focus"",""19"",""197836""
""blur"",""19"",""202965""
""focus"",""19"",""204361""
","""event"",""trial"",""time""
""blur"",""1"",""274""
""blur"",""19"",""195861""
""blur"",""19"",""202965""
","""event"",""trial"",""time""
""focus"",""1"",""3853""
""focus"",""19"",""197836""
""focus"",""19"",""204361""
","""event"",""trial"",""time""
""fullscreenenter"",""1"",""5915""
","
","","","","","","","","","","","","","","","","","","","","","","","","","","",""
"pit-instructions","80","677172","0.0-2.0-16.0","battery-v0.2","","""event"",""trial"",""time""
""blur"",""1"",""274""
""focus"",""1"",""3853""
""fullscreenenter"",""1"",""5915""
""blur"",""19"",""195861""
""focus"",""19"",""197836""
""blur"",""19"",""202965""
""focus"",""19"",""204361""
","""event"",""trial"",""time""
""blur"",""1"",""274""
""blur"",""19"",""195861""
""blur"",""19"",""202965""
","""event"",""trial"",""time""
""focus"",""1"",""3853""
""focus"",""19"",""197836""
""focus"",""19"",""204361""
","""event"",""trial"",""time""
""fullscreenenter"",""1"",""5915""
","
","","[{""page_index"":0,""viewing_time"":8784.29999999702},{""page_index"":1,""viewing_time"":15271},{""page_index"":2,""viewing_time"":6656.100000008941},{""page_index"":3,""viewing_time"":5944}]","36655.60000000894","","","","","","","","","","","","","","","","","","","","","","","",""
"pit-trial","81","681526","0.0-2.0-17.0-0.0","battery-v0.2","","""event"",""trial"",""time""
""blur"",""1"",""274""
""focus"",""1"",""3853""
""fullscreenenter"",""1"",""5915""
""blur"",""19"",""195861""
""focus"",""19"",""197836""
""blur"",""19"",""202965""
""focus"",""19"",""204361""
","""event"",""trial"",""time""
""blur"",""1"",""274""
""blur"",""19"",""195861""
""blur"",""19"",""202965""
","""event"",""trial"",""time""
""focus"",""1"",""3853""
""focus"",""19"",""197836""
""focus"",""19"",""204361""
","""event"",""trial"",""time""
""fullscreenenter"",""1"",""5915""
","
","","","1480.2000000029802","","","21","10668","5158","&#9789;","elianto","#f73b6a7A"," "," ","1","0","[2342.2000000029802]","1","0","4","","","","","","","",""
"pit-trial","82","686394","0.0-2.0-17.0-1.0","battery-v0.2","","""event"",""trial"",""time""
""blur"",""1"",""274""
""focus"",""1"",""3853""
""fullscreenenter"",""1"",""5915""
""blur"",""19"",""195861""
""focus"",""19"",""197836""
""blur"",""19"",""202965""
""focus"",""19"",""204361""
","""event"",""trial"",""time""
""blur"",""1"",""274""
""blur"",""19"",""195861""
""blur"",""19"",""202965""
","""event"",""trial"",""time""
""focus"",""1"",""3853""
""focus"",""19"",""197836""
""focus"",""19"",""204361""
","""event"",""trial"",""time""
""fullscreenenter"",""1"",""5915""
","
","","","-1","","","21","10668","5158","&#9789;","elianto","#f73b6a7A"," ","-1","0","-10","[]","0","0","4","","","","","","","",""
"pit-trial","83","689822","0.0-2.0-17.0-2.0","battery-v0.2","","""event"",""trial"",""time""
""blur"",""1"",""274""
""focus"",""1"",""3853""
""fullscreenenter"",""1"",""5915""
""blur"",""19"",""195861""
""focus"",""19"",""197836""
""blur"",""19"",""202965""
""focus"",""19"",""204361""
","""event"",""trial"",""time""
""blur"",""1"",""274""
""blur"",""19"",""195861""
""blur"",""19"",""202965""
","""event"",""trial"",""time""
""focus"",""1"",""3853""
""focus"",""19"",""197836""
""focus"",""19"",""204361""
","""event"",""trial"",""time""
""fullscreenenter"",""1"",""5915""
","
","","","561.7999999970198","","","21","10668","5158","&#9789;","elianto","#f73b6a7A"," "," ","1","0","[1425.5999999940395]","1","0","4","","","","","","","",""
"pit-trial","84","694693","0.0-2.0-17.0-3.0","battery-v0.2","","""event"",""trial"",""time""
""blur"",""1"",""274""
""focus"",""1"",""3853""
""fullscreenenter"",""1"",""5915""
""blur"",""19"",""195861""
""focus"",""19"",""197836""
""blur"",""19"",""202965""
""focus"",""19"",""204361""
","""event"",""trial"",""time""
""blur"",""1"",""274""
""blur"",""19"",""195861""
""blur"",""19"",""202965""
","""event"",""trial"",""time""
""focus"",""1"",""3853""
""focus"",""19"",""197836""
""focus"",""19"",""204361""
","""event"",""trial"",""time""
""fullscreenenter"",""1"",""5915""
","
","","","-1","","","21","10668","5158","&#9789;","elianto","#f73b6a7A"," ","-1","0","0","[]","0","0","4","","","","","","","",""
"pit-trial","85","699559","0.0-2.0-17.0-4.0","battery-v0.2","","""event"",""trial"",""time""
""blur"",""1"",""274""
""focus"",""1"",""3853""
""fullscreenenter"",""1"",""5915""
""blur"",""19"",""195861""
""focus"",""19"",""197836""
""blur"",""19"",""202965""
""focus"",""19"",""204361""
","""event"",""trial"",""time""
""blur"",""1"",""274""
""blur"",""19"",""195861""
""blur"",""19"",""202965""
","""event"",""trial"",""time""
""focus"",""1"",""3853""
""focus"",""19"",""197836""
""focus"",""19"",""204361""
","""event"",""trial"",""time""
""fullscreenenter"",""1"",""5915""
","
","","","-1","","","21","10668","5158","&#9789;","elianto","#f73b6a7A"," ","-1","0","-10","[]","0","0","4","","","","","","","",""
"pit-trial","86","702877","0.0-2.0-17.1-0.1","battery-v0.2","","""event"",""trial"",""time""
""blur"",""1"",""274""
""focus"",""1"",""3853""
""fullscreenenter"",""1"",""5915""
""blur"",""19"",""195861""
""focus"",""19"",""197836""
""blur"",""19"",""202965""
""focus"",""19"",""204361""
","""event"",""trial"",""time""
""blur"",""1"",""274""
""blur"",""19"",""195861""
""blur"",""19"",""202965""
","""event"",""trial"",""time""
""focus"",""1"",""3853""
""focus"",""19"",""197836""
""focus"",""19"",""204361""
","""event"",""trial"",""time""
""fullscreenenter"",""1"",""5915""
","
","","","455.5","","","21","10668","5158","&#9789;","elianto","#f73b6a7A"," "," ","1","0","[1314.9000000059605]","1","0","4","","","","","","","",""
"pit-trial","87","706104","0.0-2.0-17.1-1.1","battery-v0.2","","""event"",""trial"",""time""
""blur"",""1"",""274""
""focus"",""1"",""3853""
""fullscreenenter"",""1"",""5915""
""blur"",""19"",""195861""
""focus"",""19"",""197836""
""blur"",""19"",""202965""
""focus"",""19"",""204361""
","""event"",""trial"",""time""
""blur"",""1"",""274""
""blur"",""19"",""195861""
""blur"",""19"",""202965""
","""event"",""trial"",""time""
""focus"",""1"",""3853""
""focus"",""19"",""197836""
""focus"",""19"",""204361""
","""event"",""trial"",""time""
""fullscreenenter"",""1"",""5915""
","
","","","364.6000000089407","","","21","10668","5158","&#9789;","elianto","#f73b6a7A"," "," ","1","0","[1225]","1","0","4","","","","","","","",""
"pit-trial","88","709179","0.0-2.0-17.1-2.1","battery-v0.2","","""event"",""trial"",""time""
""blur"",""1"",""274""
""focus"",""1"",""3853""
""fullscreenenter"",""1"",""5915""
""blur"",""19"",""195861""
""focus"",""19"",""197836""
""blur"",""19"",""202965""
""focus"",""19"",""204361""
","""event"",""trial"",""time""
""blur"",""1"",""274""
""blur"",""19"",""195861""
""blur"",""19"",""202965""
","""event"",""trial"",""time""
""focus"",""1"",""3853""
""focus"",""19"",""197836""
""focus"",""19"",""204361""
","""event"",""trial"",""time""
""fullscreenenter"",""1"",""5915""
","
","","","222.30000001192093","","","21","10668","5158","&#9789;","elianto","#f73b6a7A"," "," ","1","0","[1073.2000000029802]","1","0","4","","","","","","","",""
"pit-trial","89","712298","0.0-2.0-17.1-3.1","battery-v0.2","","""event"",""trial"",""time""
""blur"",""1"",""274""
""focus"",""1"",""3853""
""fullscreenenter"",""1"",""5915""
""blur"",""19"",""195861""
""focus"",""19"",""197836""
""blur"",""19"",""202965""
""focus"",""19"",""204361""
","""event"",""trial"",""time""
""blur"",""1"",""274""
""blur"",""19"",""195861""
""blur"",""19"",""202965""
","""event"",""trial"",""time""
""focus"",""1"",""3853""
""focus"",""19"",""197836""
""focus"",""19"",""204361""
","""event"",""trial"",""time""
""fullscreenenter"",""1"",""5915""
","
","","","266.20000000298023","","","21","10668","5158","&#9789;","elianto","#f73b6a7A"," "," ","1","-10","[1117.3999999910593]","1","0","4","","","","","","","",""
"pit-trial","90","715368","0.0-2.0-17.1-4.1","battery-v0.2","","""event"",""trial"",""time""
""blur"",""1"",""274""
""focus"",""1"",""3853""
""fullscreenenter"",""1"",""5915""
""blur"",""19"",""195861""
""focus"",""19"",""197836""
""blur"",""19"",""202965""
""focus"",""19"",""204361""
","""event"",""trial"",""time""
""blur"",""1"",""274""
""blur"",""19"",""195861""
""blur"",""19"",""202965""
","""event"",""trial"",""time""
""focus"",""1"",""3853""
""focus"",""19"",""197836""
""focus"",""19"",""204361""
","""event"",""trial"",""time""
""fullscreenenter"",""1"",""5915""
","
","","","218","","","21","10668","5158","&#9789;","elianto","#f73b6a7A"," "," ","1","0","[1068.9000000059605]","1","0","4","","","","","","","",""
"pit-trial","91","718434","0.0-2.0-17.2-0.2","battery-v0.2","","""event"",""trial"",""time""
""blur"",""1"",""274""
""focus"",""1"",""3853""
""fullscreenenter"",""1"",""5915""
""blur"",""19"",""195861""
""focus"",""19"",""197836""
""blur"",""19"",""202965""
""focus"",""19"",""204361""
","""event"",""trial"",""time""
""blur"",""1"",""274""
""blur"",""19"",""195861""
""blur"",""19"",""202965""
","""event"",""trial"",""time""
""focus"",""1"",""3853""
""focus"",""19"",""197836""
""focus"",""19"",""204361""
","""event"",""trial"",""time""
""fullscreenenter"",""1"",""5915""
","
","","","214","","","21","10668","5158","&#9789;","elianto","#f73b6a7A"," "," ","1","0","[1064.5]","1","0","4","","","","","","","",""
"pit-trial","92","721514","0.0-2.0-17.2-1.2","battery-v0.2","","""event"",""trial"",""time""
""blur"",""1"",""274""
""focus"",""1"",""3853""
""fullscreenenter"",""1"",""5915""
""blur"",""19"",""195861""
""focus"",""19"",""197836""
""blur"",""19"",""202965""
""focus"",""19"",""204361""
","""event"",""trial"",""time""
""blur"",""1"",""274""
""blur"",""19"",""195861""
""blur"",""19"",""202965""
","""event"",""trial"",""time""
""focus"",""1"",""3853""
""focus"",""19"",""197836""
""focus"",""19"",""204361""
","""event"",""trial"",""time""
""fullscreenenter"",""1"",""5915""
","
","","","227.8999999910593","","","21","10668","5158","&#9789;","elianto","#f73b6a7A"," "," ","1","0","[1078.5]","1","0","4","","","","","","","",""
"pit-trial","93","724497","0.0-2.0-17.2-2.2","battery-v0.2","","""event"",""trial"",""time""
""blur"",""1"",""274""
""focus"",""1"",""3853""
""fullscreenenter"",""1"",""5915""
""blur"",""19"",""195861""
""focus"",""19"",""197836""
""blur"",""19"",""202965""
""focus"",""19"",""204361""
","""event"",""trial"",""time""
""blur"",""1"",""274""
""blur"",""19"",""195861""
""blur"",""19"",""202965""
","""event"",""trial"",""time""
""focus"",""1"",""3853""
""focus"",""19"",""197836""
""focus"",""19"",""204361""
","""event"",""trial"",""time""
""fullscreenenter"",""1"",""5915""
","
","","","130.40000000596046","","","21","10668","5158","&#9789;","elianto","#f73b6a7A"," "," ","1","0","[981.2999999970198]","1","0","4","","","","","","","",""
"pit-trial","94","727560","0.0-2.0-17.2-3.2","battery-v0.2","","""event"",""trial"",""time""
""blur"",""1"",""274""
""focus"",""1"",""3853""
""fullscreenenter"",""1"",""5915""
""blur"",""19"",""195861""
""focus"",""19"",""197836""
""blur"",""19"",""202965""
""focus"",""19"",""204361""
","""event"",""trial"",""time""
""blur"",""1"",""274""
""blur"",""19"",""195861""
""blur"",""19"",""202965""
","""event"",""trial"",""time""
""focus"",""1"",""3853""
""focus"",""19"",""197836""
""focus"",""19"",""204361""
","""event"",""trial"",""time""
""fullscreenenter"",""1"",""5915""
","
","","","209.79999999701977","","","21","10668","5158","&#9789;","elianto","#f73b6a7A"," "," ","1","-10","[1060.7999999970198]","1","0","4","","","","","","","",""
"pit-trial","95","730533","0.0-2.0-17.2-4.2","battery-v0.2","","""event"",""trial"",""time""
""blur"",""1"",""274""
""focus"",""1"",""3853""
""fullscreenenter"",""1"",""5915""
""blur"",""19"",""195861""
""focus"",""19"",""197836""
""blur"",""19"",""202965""
""focus"",""19"",""204361""
","""event"",""trial"",""time""
""blur"",""1"",""274""
""blur"",""19"",""195861""
""blur"",""19"",""202965""
","""event"",""trial"",""time""
""focus"",""1"",""3853""
""focus"",""19"",""197836""
""focus"",""19"",""204361""
","""event"",""trial"",""time""
""fullscreenenter"",""1"",""5915""
","
","","","121.5","","","21","10668","5158","&#9789;","elianto","#f73b6a7A"," "," ","1","0","[971.7000000029802]","1","0","4","","","","","","","",""
"pit-trial","96","733499","0.0-2.0-17.3-0.3","battery-v0.2","","""event"",""trial"",""time""
""blur"",""1"",""274""
""focus"",""1"",""3853""
""fullscreenenter"",""1"",""5915""
""blur"",""19"",""195861""
""focus"",""19"",""197836""
""blur"",""19"",""202965""
""focus"",""19"",""204361""
","""event"",""trial"",""time""
""blur"",""1"",""274""
""blur"",""19"",""195861""
""blur"",""19"",""202965""
","""event"",""trial"",""time""
""focus"",""1"",""3853""
""focus"",""19"",""197836""
""focus"",""19"",""204361""
","""event"",""trial"",""time""
""fullscreenenter"",""1"",""5915""
","
","","","113.40000000596046","","","21","10668","5158","&#9789;","elianto","#f73b6a7A"," "," ","1","0","[964.1000000089407]","1","0","4","","","","","","","",""
"pit-trial","97","736493","0.0-2.0-17.3-1.3","battery-v0.2","","""event"",""trial"",""time""
""blur"",""1"",""274""
""focus"",""1"",""3853""
""fullscreenenter"",""1"",""5915""
""blur"",""19"",""195861""
""focus"",""19"",""197836""
""blur"",""19"",""202965""
""focus"",""19"",""204361""
","""event"",""trial"",""time""
""blur"",""1"",""274""
""blur"",""19"",""195861""
""blur"",""19"",""202965""
","""event"",""trial"",""time""
""focus"",""1"",""3853""
""focus"",""19"",""197836""
""focus"",""19"",""204361""
","""event"",""trial"",""time""
""fullscreenenter"",""1"",""5915""
","
","","","142.5","","","21","10668","5158","&#9789;","elianto","#f73b6a7A"," "," ","1","0","[993]","1","0","4","","","","","","","",""
"pit-trial","98","739465","0.0-2.0-17.3-2.3","battery-v0.2","","""event"",""trial"",""time""
""blur"",""1"",""274""
""focus"",""1"",""3853""
""fullscreenenter"",""1"",""5915""
""blur"",""19"",""195861""
""focus"",""19"",""197836""
""blur"",""19"",""202965""
""focus"",""19"",""204361""
","""event"",""trial"",""time""
""blur"",""1"",""274""
""blur"",""19"",""195861""
""blur"",""19"",""202965""
","""event"",""trial"",""time""
""focus"",""1"",""3853""
""focus"",""19"",""197836""
""focus"",""19"",""204361""
","""event"",""trial"",""time""
""fullscreenenter"",""1"",""5915""
","
","","","118.79999999701977","","","21","10668","5158","&#9789;","elianto","#f73b6a7A"," "," ","1","0","[969.5999999940395]","1","0","4","","","","","","","",""
"pit-trial","99","742639","0.0-2.0-17.3-3.3","battery-v0.2","","""event"",""trial"",""time""
""blur"",""1"",""274""
""focus"",""1"",""3853""
""fullscreenenter"",""1"",""5915""
""blur"",""19"",""195861""
""focus"",""19"",""197836""
""blur"",""19"",""202965""
""focus"",""19"",""204361""
","""event"",""trial"",""time""
""blur"",""1"",""274""
""blur"",""19"",""195861""
""blur"",""19"",""202965""
","""event"",""trial"",""time""
""focus"",""1"",""3853""
""focus"",""19"",""197836""
""focus"",""19"",""204361""
","""event"",""trial"",""time""
""fullscreenenter"",""1"",""5915""
","
","","","321.70000000298023","","","21","10668","5158","&#9789;","elianto","#f73b6a7A"," "," ","1","-10","[1171.9000000059605]","1","0","4","","","","","","","",""
"pit-trial","100","745606","0.0-2.0-17.3-4.3","battery-v0.2","","""event"",""trial"",""time""
""blur"",""1"",""274""
""focus"",""1"",""3853""
""fullscreenenter"",""1"",""5915""
""blur"",""19"",""195861""
""focus"",""19"",""197836""
""blur"",""19"",""202965""
""focus"",""19"",""204361""
","""event"",""trial"",""time""
""blur"",""1"",""274""
""blur"",""19"",""195861""
""blur"",""19"",""202965""
","""event"",""trial"",""time""
""focus"",""1"",""3853""
""focus"",""19"",""197836""
""focus"",""19"",""204361""
","""event"",""trial"",""time""
""fullscreenenter"",""1"",""5915""
","
","","","115.59999999403954","","","21","10668","5158","&#9789;","elianto","#f73b6a7A"," "," ","1","0","[966]","1","0","4","","","","","","","",""
"call-function","101","745607","0.0-2.0-18.0","battery-v0.2","","""event"",""trial"",""time""
""blur"",""1"",""274""
""focus"",""1"",""3853""
""fullscreenenter"",""1"",""5915""
""blur"",""19"",""195861""
""focus"",""19"",""197836""
""blur"",""19"",""202965""
""focus"",""19"",""204361""
","""event"",""trial"",""time""
""blur"",""1"",""274""
""blur"",""19"",""195861""
""blur"",""19"",""202965""
","""event"",""trial"",""time""
""focus"",""1"",""3853""
""focus"",""19"",""197836""
""focus"",""19"",""204361""
","""event"",""trial"",""time""
""fullscreenenter"",""1"",""5915""
","
","","","","","","","","","","","","","","","","","","","","","","","","","","",""
"pit-instructions","102","827051","0.0-2.0-19.0","battery-v0.2","","""event"",""trial"",""time""
""blur"",""1"",""274""
""focus"",""1"",""3853""
""fullscreenenter"",""1"",""5915""
""blur"",""19"",""195861""
""focus"",""19"",""197836""
""blur"",""19"",""202965""
""focus"",""19"",""204361""
","""event"",""trial"",""time""
""blur"",""1"",""274""
""blur"",""19"",""195861""
""blur"",""19"",""202965""
","""event"",""trial"",""time""
""focus"",""1"",""3853""
""focus"",""19"",""197836""
""focus"",""19"",""204361""
","""event"",""trial"",""time""
""fullscreenenter"",""1"",""5915""
","
","","[{""page_index"":0,""viewing_time"":6354.899999991059},{""page_index"":1,""viewing_time"":5344.100000008941},{""page_index"":2,""viewing_time"":27882.20000000298},{""page_index"":3,""viewing_time"":7230.0999999940395},{""page_index"":4,""viewing_time"":8522},{""page_index"":5,""viewing_time"":8058},{""page_index"":6,""viewing_time"":8136},{""page_index"":7,""viewing_time"":5610.20000000298},{""page_index"":8,""viewing_time"":4305}]","81442.70000000298","","","","","","","","","","","","","","","","","","","","","","","",""
"pit-comprehension","103","836214","0.0-2.0-20.0-0.0","battery-v0.2","","""event"",""trial"",""time""
""blur"",""1"",""274""
""focus"",""1"",""3853""
""fullscreenenter"",""1"",""5915""
""blur"",""19"",""195861""
""focus"",""19"",""197836""
""blur"",""19"",""202965""
""focus"",""19"",""204361""
","""event"",""trial"",""time""
""blur"",""1"",""274""
""blur"",""19"",""195861""
""blur"",""19"",""202965""
","""event"",""trial"",""time""
""focus"",""1"",""3853""
""focus"",""19"",""197836""
""focus"",""19"",""204361""
","""event"",""trial"",""time""
""fullscreenenter"",""1"",""5915""
","
","","","9160.59999999404","[""SPACE""]","0","21","10668","5158","","","","","","","","","","","","","","","","","","",""
"pit-instructions","104","839646","0.0-2.0-20.0-1.0","battery-v0.2","","""event"",""trial"",""time""
""blur"",""1"",""274""
""focus"",""1"",""3853""
""fullscreenenter"",""1"",""5915""
""blur"",""19"",""195861""
""focus"",""19"",""197836""
""blur"",""19"",""202965""
""focus"",""19"",""204361""
","""event"",""trial"",""time""
""blur"",""1"",""274""
""blur"",""19"",""195861""
""blur"",""19"",""202965""
","""event"",""trial"",""time""
""focus"",""1"",""3853""
""focus"",""19"",""197836""
""focus"",""19"",""204361""
","""event"",""trial"",""time""
""fullscreenenter"",""1"",""5915""
","
","","[{""page_index"":0,""viewing_time"":3402.7999999970198}]","3403.0999999940395","","","","","","","","","","","","","","","","","","","","","","","",""
"pit-comprehension","105","844693","0.0-2.0-21.0-0.0","battery-v0.2","","""event"",""trial"",""time""
""blur"",""1"",""274""
""focus"",""1"",""3853""
""fullscreenenter"",""1"",""5915""
""blur"",""19"",""195861""
""focus"",""19"",""197836""
""blur"",""19"",""202965""
""focus"",""19"",""204361""
","""event"",""trial"",""time""
""blur"",""1"",""274""
""blur"",""19"",""195861""
""blur"",""19"",""202965""
","""event"",""trial"",""time""
""focus"",""1"",""3853""
""focus"",""19"",""197836""
""focus"",""19"",""204361""
","""event"",""trial"",""time""
""fullscreenenter"",""1"",""5915""
","
","","","5045.699999988079","[""10""]","0","21","10668","5158","","","","","","","","","","","","","","","","","","",""
"pit-instructions","106","846141","0.0-2.0-21.0-1.0","battery-v0.2","","""event"",""trial"",""time""
""blur"",""1"",""274""
""focus"",""1"",""3853""
""fullscreenenter"",""1"",""5915""
""blur"",""19"",""195861""
""focus"",""19"",""197836""
""blur"",""19"",""202965""
""focus"",""19"",""204361""
","""event"",""trial"",""time""
""blur"",""1"",""274""
""blur"",""19"",""195861""
""blur"",""19"",""202965""
","""event"",""trial"",""time""
""focus"",""1"",""3853""
""focus"",""19"",""197836""
""focus"",""19"",""204361""
","""event"",""trial"",""time""
""fullscreenenter"",""1"",""5915""
","
","","[{""page_index"":0,""viewing_time"":1419.7000000029802}]","1419.7999999970198","","","","","","","","","","","","","","","","","","","","","","","",""
"pit-comprehension","107","857378","0.0-2.0-22.0-0.0","battery-v0.2","","""event"",""trial"",""time""
""blur"",""1"",""274""
""focus"",""1"",""3853""
""fullscreenenter"",""1"",""5915""
""blur"",""19"",""195861""
""focus"",""19"",""197836""
""blur"",""19"",""202965""
""focus"",""19"",""204361""
","""event"",""trial"",""time""
""blur"",""1"",""274""
""blur"",""19"",""195861""
""blur"",""19"",""202965""
","""event"",""trial"",""time""
""focus"",""1"",""3853""
""focus"",""19"",""197836""
""focus"",""19"",""204361""
","""event"",""trial"",""time""
""fullscreenenter"",""1"",""5915""
","
","","","11235.79999999702","[""0""]","0","21","10668","5158","","","","","","","","","","","","","","","","","","",""
"pit-instructions","108","858759","0.0-2.0-22.0-1.0","battery-v0.2","","""event"",""trial"",""time""
""blur"",""1"",""274""
""focus"",""1"",""3853""
""fullscreenenter"",""1"",""5915""
""blur"",""19"",""195861""
""focus"",""19"",""197836""
""blur"",""19"",""202965""
""focus"",""19"",""204361""
","""event"",""trial"",""time""
""blur"",""1"",""274""
""blur"",""19"",""195861""
""blur"",""19"",""202965""
","""event"",""trial"",""time""
""focus"",""1"",""3853""
""focus"",""19"",""197836""
""focus"",""19"",""204361""
","""event"",""trial"",""time""
""fullscreenenter"",""1"",""5915""
","
","","[{""page_index"":0,""viewing_time"":1349.8999999910593}]","1350.199999988079","","","","","","","","","","","","","","","","","","","","","","","",""
"pit-comprehension","109","867062","0.0-2.0-23.0-0.0","battery-v0.2","","""event"",""trial"",""time""
""blur"",""1"",""274""
""focus"",""1"",""3853""
""fullscreenenter"",""1"",""5915""
""blur"",""19"",""195861""
""focus"",""19"",""197836""
""blur"",""19"",""202965""
""focus"",""19"",""204361""
","""event"",""trial"",""time""
""blur"",""1"",""274""
""blur"",""19"",""195861""
""blur"",""19"",""202965""
","""event"",""trial"",""time""
""focus"",""1"",""3853""
""focus"",""19"",""197836""
""focus"",""19"",""204361""
","""event"",""trial"",""time""
""fullscreenenter"",""1"",""5915""
","
","","","8300.699999988079","[""True""]","0","21","10668","5158","","","","","","","","","","","","","","","","","","",""
"pit-instructions","110","868460","0.0-2.0-23.0-1.0","battery-v0.2","","""event"",""trial"",""time""
""blur"",""1"",""274""
""focus"",""1"",""3853""
""fullscreenenter"",""1"",""5915""
""blur"",""19"",""195861""
""focus"",""19"",""197836""
""blur"",""19"",""202965""
""focus"",""19"",""204361""
","""event"",""trial"",""time""
""blur"",""1"",""274""
""blur"",""19"",""195861""
""blur"",""19"",""202965""
","""event"",""trial"",""time""
""focus"",""1"",""3853""
""focus"",""19"",""197836""
""focus"",""19"",""204361""
","""event"",""trial"",""time""
""fullscreenenter"",""1"",""5915""
","
","","[{""page_index"":0,""viewing_time"":1369.7999999970198}]","1369.8999999910593","","","","","","","","","","","","","","","","","","","","","","","",""
"pit-comprehension","111","875775","0.0-2.0-24.0-0.0","battery-v0.2","","""event"",""trial"",""time""
""blur"",""1"",""274""
""focus"",""1"",""3853""
""fullscreenenter"",""1"",""5915""
""blur"",""19"",""195861""
""focus"",""19"",""197836""
""blur"",""19"",""202965""
""focus"",""19"",""204361""
","""event"",""trial"",""time""
""blur"",""1"",""274""
""blur"",""19"",""195861""
""blur"",""19"",""202965""
","""event"",""trial"",""time""
""focus"",""1"",""3853""
""focus"",""19"",""197836""
""focus"",""19"",""204361""
","""event"",""trial"",""time""
""fullscreenenter"",""1"",""5915""
","
","","","7312.4000000059605","[""True""]","0","21","10668","5158","","","","","","","","","","","","","","","","","","",""
"pit-instructions","112","877253","0.0-2.0-24.0-1.0","battery-v0.2","","""event"",""trial"",""time""
""blur"",""1"",""274""
""focus"",""1"",""3853""
""fullscreenenter"",""1"",""5915""
""blur"",""19"",""195861""
""focus"",""19"",""197836""
""blur"",""19"",""202965""
""focus"",""19"",""204361""
","""event"",""trial"",""time""
""blur"",""1"",""274""
""blur"",""19"",""195861""
""blur"",""19"",""202965""
","""event"",""trial"",""time""
""focus"",""1"",""3853""
""focus"",""19"",""197836""
""focus"",""19"",""204361""
","""event"",""trial"",""time""
""fullscreenenter"",""1"",""5915""
","
","","[{""page_index"":0,""viewing_time"":1439.5999999940395}]","1439.699999988079","","","","","","","","","","","","","","","","","","","","","","","",""
"pit-comprehension","113","883555","0.0-2.0-25.0-0.0","battery-v0.2","","""event"",""trial"",""time""
""blur"",""1"",""274""
""focus"",""1"",""3853""
""fullscreenenter"",""1"",""5915""
""blur"",""19"",""195861""
""focus"",""19"",""197836""
""blur"",""19"",""202965""
""focus"",""19"",""204361""
","""event"",""trial"",""time""
""blur"",""1"",""274""
""blur"",""19"",""195861""
""blur"",""19"",""202965""
","""event"",""trial"",""time""
""focus"",""1"",""3853""
""focus"",""19"",""197836""
""focus"",""19"",""204361""
","""event"",""trial"",""time""
""fullscreenenter"",""1"",""5915""
","
","","","6299.5","[""True""]","0","21","10668","5158","","","","","","","","","","","","","","","","","","",""
"pit-instructions","114","885581","0.0-2.0-25.0-1.0","battery-v0.2","","""event"",""trial"",""time""
""blur"",""1"",""274""
""focus"",""1"",""3853""
""fullscreenenter"",""1"",""5915""
""blur"",""19"",""195861""
""focus"",""19"",""197836""
""blur"",""19"",""202965""
""focus"",""19"",""204361""
","""event"",""trial"",""time""
""blur"",""1"",""274""
""blur"",""19"",""195861""
""blur"",""19"",""202965""
","""event"",""trial"",""time""
""focus"",""1"",""3853""
""focus"",""19"",""197836""
""focus"",""19"",""204361""
","""event"",""trial"",""time""
""fullscreenenter"",""1"",""5915""
","
","","[{""page_index"":0,""viewing_time"":1993.9000000059605}]","1994.1000000089407","","","","","","","","","","","","","","","","","","","","","","","",""
"pit-comprehension","115","893171","0.0-2.0-26.0-0.0","battery-v0.2","","""event"",""trial"",""time""
""blur"",""1"",""274""
""focus"",""1"",""3853""
""fullscreenenter"",""1"",""5915""
""blur"",""19"",""195861""
""focus"",""19"",""197836""
""blur"",""19"",""202965""
""focus"",""19"",""204361""
","""event"",""trial"",""time""
""blur"",""1"",""274""
""blur"",""19"",""195861""
""blur"",""19"",""202965""
","""event"",""trial"",""time""
""focus"",""1"",""3853""
""focus"",""19"",""197836""
""focus"",""19"",""204361""
","""event"",""trial"",""time""
""fullscreenenter"",""1"",""5915""
","
","","","7587.70000000298","[""False""]","0","21","10668","5158","","","","","","","","","","","","","","","","","","",""
"pit-instructions","116","894773","0.0-2.0-26.0-1.0","battery-v0.2","","""event"",""trial"",""time""
""blur"",""1"",""274""
""focus"",""1"",""3853""
""fullscreenenter"",""1"",""5915""
""blur"",""19"",""195861""
""focus"",""19"",""197836""
""blur"",""19"",""202965""
""focus"",""19"",""204361""
","""event"",""trial"",""time""
""blur"",""1"",""274""
""blur"",""19"",""195861""
""blur"",""19"",""202965""
","""event"",""trial"",""time""
""focus"",""1"",""3853""
""focus"",""19"",""197836""
""focus"",""19"",""204361""
","""event"",""trial"",""time""
""fullscreenenter"",""1"",""5915""
","
","","[{""page_index"":0,""viewing_time"":1570.5}]","1570.7999999970198","","","","","","","","","","","","","","","","","","","","","","","",""
"pit-instructions","117","910062","0.0-3.0","battery-v0.2","","""event"",""trial"",""time""
""blur"",""1"",""274""
""focus"",""1"",""3853""
""fullscreenenter"",""1"",""5915""
""blur"",""19"",""195861""
""focus"",""19"",""197836""
""blur"",""19"",""202965""
""focus"",""19"",""204361""
","""event"",""trial"",""time""
""blur"",""1"",""274""
""blur"",""19"",""195861""
""blur"",""19"",""202965""
","""event"",""trial"",""time""
""focus"",""1"",""3853""
""focus"",""19"",""197836""
""focus"",""19"",""204361""
","""event"",""trial"",""time""
""fullscreenenter"",""1"",""5915""
","
","","[{""page_index"":0,""viewing_time"":4028.9000000059605},{""page_index"":1,""viewing_time"":5249.899999991059},{""page_index"":2,""viewing_time"":6008.9000000059605}]","15288","","","","","","","","","","","","","","","","","","","","","","","",""
"pit-trial","118","913522","0.0-4.0","battery-v0.2","","""event"",""trial"",""time""
""blur"",""1"",""274""
""focus"",""1"",""3853""
""fullscreenenter"",""1"",""5915""
""blur"",""19"",""195861""
""focus"",""19"",""197836""
""blur"",""19"",""202965""
""focus"",""19"",""204361""
","""event"",""trial"",""time""
""blur"",""1"",""274""
""blur"",""19"",""195861""
""blur"",""19"",""202965""
","""event"",""trial"",""time""
""focus"",""1"",""3853""
""focus"",""19"",""197836""
""focus"",""19"",""204361""
","""event"",""trial"",""time""
""fullscreenenter"",""1"",""5915""
","
","","","592.9000000059605","","","21","10668","5158","&#9730;","elianto","#3366ff99"," "," ","1","+10","[1450.7000000029802]","1","1","","","10668","1","1","1","win","go","0"
"pit-trial","119","917295","0.0-5.0","battery-v0.2","","""event"",""trial"",""time""
""blur"",""1"",""274""
""focus"",""1"",""3853""
""fullscreenenter"",""1"",""5915""
""blur"",""19"",""195861""
""focus"",""19"",""197836""
""blur"",""19"",""202965""
""focus"",""19"",""204361""
","""event"",""trial"",""time""
""blur"",""1"",""274""
""blur"",""19"",""195861""
""blur"",""19"",""202965""
","""event"",""trial"",""time""
""focus"",""1"",""3853""
""focus"",""19"",""197836""
""focus"",""19"",""204361""
","""event"",""trial"",""time""
""fullscreenenter"",""1"",""5915""
","
","","","916.9000000059605","","","21","10668","5158","&#9733;","elianto","#3366ff99","-1"," ","0","0","[1772]","1","1","","","10668","2","2","2","win","no-go","0"
"pit-trial","120","920992","0.0-6.0","battery-v0.2","","""event"",""trial"",""time""
""blur"",""1"",""274""
""focus"",""1"",""3853""
""fullscreenenter"",""1"",""5915""
""blur"",""19"",""195861""
""focus"",""19"",""197836""
""blur"",""19"",""202965""
""focus"",""19"",""204361""
","""event"",""trial"",""time""
""blur"",""1"",""274""
""blur"",""19"",""195861""
""blur"",""19"",""202965""
","""event"",""trial"",""time""
""focus"",""1"",""3853""
""focus"",""19"",""197836""
""focus"",""19"",""204361""
","""event"",""trial"",""time""
""fullscreenenter"",""1"",""5915""
","
","","","832.2000000029802","","","21","10668","5158","&#9752;","elianto","#f73b6a7A"," "," ","1","0","[1683.5]","1","1","","","10668","3","3","3","lose","go","0"
"pit-trial","121","925863","0.0-7.0","battery-v0.2","","""event"",""trial"",""time""
""blur"",""1"",""274""
""focus"",""1"",""3853""
""fullscreenenter"",""1"",""5915""
""blur"",""19"",""195861""
""focus"",""19"",""197836""
""blur"",""19"",""202965""
""focus"",""19"",""204361""
","""event"",""trial"",""time""
""blur"",""1"",""274""
""blur"",""19"",""195861""
""blur"",""19"",""202965""
","""event"",""trial"",""time""
""focus"",""1"",""3853""
""focus"",""19"",""197836""
""focus"",""19"",""204361""
","""event"",""trial"",""time""
""fullscreenenter"",""1"",""5915""
","
","","","-1","","","21","10668","5158","&#9728;","elianto","#f73b6a7A","-1","-1","1","0","[]","0","1","","","10668","4","0","4","lose","no-go","0"
"pit-trial","122","929440","0.0-8.0","battery-v0.2","","""event"",""trial"",""time""
""blur"",""1"",""274""
""focus"",""1"",""3853""
""fullscreenenter"",""1"",""5915""
""blur"",""19"",""195861""
""focus"",""19"",""197836""
""blur"",""19"",""202965""
""focus"",""19"",""204361""
","""event"",""trial"",""time""
""blur"",""1"",""274""
""blur"",""19"",""195861""
""blur"",""19"",""202965""
","""event"",""trial"",""time""
""focus"",""1"",""3853""
""focus"",""19"",""197836""
""focus"",""19"",""204361""
","""event"",""trial"",""time""
""fullscreenenter"",""1"",""5915""
","
","","","705","","","21","10668","5158","&#9733;","elianto","#3366ff99","-1"," ","0","0","[1561.9000000059605]","1","1","","","10668","5","2","2","win","no-go","0"
"pit-trial","123","933607","0.0-9.0","battery-v0.2","","""event"",""trial"",""time""
""blur"",""1"",""274""
""focus"",""1"",""3853""
""fullscreenenter"",""1"",""5915""
""blur"",""19"",""195861""
""focus"",""19"",""197836""
""blur"",""19"",""202965""
""focus"",""19"",""204361""
","""event"",""trial"",""time""
""blur"",""1"",""274""
""blur"",""19"",""195861""
""blur"",""19"",""202965""
","""event"",""trial"",""time""
""focus"",""1"",""3853""
""focus"",""19"",""197836""
""focus"",""19"",""204361""
","""event"",""trial"",""time""
""fullscreenenter"",""1"",""5915""
","
","","","1303.2000000029802","","","21","10668","5158","&#9728;","elianto","#f73b6a7A","-1"," ","0","0","[2153.300000011921]","1","1","","","10668","6","0","4","lose","no-go","1"
"pit-trial","124","937615","0.0-10.0","battery-v0.2","","""event"",""trial"",""time""
""blur"",""1"",""274""
""focus"",""1"",""3853""
""fullscreenenter"",""1"",""5915""
""blur"",""19"",""195861""
""focus"",""19"",""197836""
""blur"",""19"",""202965""
""focus"",""19"",""204361""
","""event"",""trial"",""time""
""blur"",""1"",""274""
""blur"",""19"",""195861""
""blur"",""19"",""202965""
","""event"",""trial"",""time""
""focus"",""1"",""3853""
""focus"",""19"",""197836""
""focus"",""19"",""204361""
","""event"",""trial"",""time""
""fullscreenenter"",""1"",""5915""
","
","","","1150.7000000029802","","","21","10668","5158","&#9752;","elianto","#f73b6a7A"," "," ","1","0","[2002.800000011921]","1","1","","","10668","7","3","3","lose","go","0"
"pit-trial","125","941094","0.0-11.0","battery-v0.2","","""event"",""trial"",""time""
""blur"",""1"",""274""
""focus"",""1"",""3853""
""fullscreenenter"",""1"",""5915""
""blur"",""19"",""195861""
""focus"",""19"",""197836""
""blur"",""19"",""202965""
""focus"",""19"",""204361""
","""event"",""trial"",""time""
""blur"",""1"",""274""
""blur"",""19"",""195861""
""blur"",""19"",""202965""
","""event"",""trial"",""time""
""focus"",""1"",""3853""
""focus"",""19"",""197836""
""focus"",""19"",""204361""
","""event"",""trial"",""time""
""fullscreenenter"",""1"",""5915""
","
","","","607.0999999940395","","","21","10668","5158","&#9730;","elianto","#3366ff99"," "," ","1","+10","[1472.0999999940395]","1","1","","","10668","8","1","1","win","go","0"
"pit-trial","126","944667","0.0-12.0","battery-v0.2","","""event"",""trial"",""time""
""blur"",""1"",""274""
""focus"",""1"",""3853""
""fullscreenenter"",""1"",""5915""
""blur"",""19"",""195861""
""focus"",""19"",""197836""
""blur"",""19"",""202965""
""focus"",""19"",""204361""
","""event"",""trial"",""time""
""blur"",""1"",""274""
""blur"",""19"",""195861""
""blur"",""19"",""202965""
","""event"",""trial"",""time""
""focus"",""1"",""3853""
""focus"",""19"",""197836""
""focus"",""19"",""204361""
","""event"",""trial"",""time""
""fullscreenenter"",""1"",""5915""
","
","","","720.9000000059605","","","21","10668","5158","&#9752;","elianto","#f73b6a7A"," "," ","1","0","[1571]","1","1","","","10668","9","3","3","lose","go","0"
"pit-trial","127","948474","0.0-13.0","battery-v0.2","","""event"",""trial"",""time""
""blur"",""1"",""274""
""focus"",""1"",""3853""
""fullscreenenter"",""1"",""5915""
""blur"",""19"",""195861""
""focus"",""19"",""197836""
""blur"",""19"",""202965""
""focus"",""19"",""204361""
","""event"",""trial"",""time""
""blur"",""1"",""274""
""blur"",""19"",""195861""
""blur"",""19"",""202965""
","""event"",""trial"",""time""
""focus"",""1"",""3853""
""focus"",""19"",""197836""
""focus"",""19"",""204361""
","""event"",""trial"",""time""
""fullscreenenter"",""1"",""5915""
","
","","","954.7000000029802","","","21","10668","5158","&#9733;","elianto","#3366ff99","-1"," ","0","0","[1805.4000000059605]","1","1","","","10668","10","2","2","win","no-go","0"
"pit-trial","128","952376","0.0-14.0","battery-v0.2","","""event"",""trial"",""time""
""blur"",""1"",""274""
""focus"",""1"",""3853""
""fullscreenenter"",""1"",""5915""
""blur"",""19"",""195861""
""focus"",""19"",""197836""
""blur"",""19"",""202965""
""focus"",""19"",""204361""
","""event"",""trial"",""time""
""blur"",""1"",""274""
""blur"",""19"",""195861""
""blur"",""19"",""202965""
","""event"",""trial"",""time""
""focus"",""1"",""3853""
""focus"",""19"",""197836""
""focus"",""19"",""204361""
","""event"",""trial"",""time""
""fullscreenenter"",""1"",""5915""
","
","","","1049.0999999940395","","","21","10668","5158","&#9728;","elianto","#f73b6a7A","-1"," ","0","-10","[1899.8999999910593]","1","1","","","10668","11","0","4","lose","no-go","0"
"pit-trial","129","955820","0.0-15.0","battery-v0.2","","""event"",""trial"",""time""
""blur"",""1"",""274""
""focus"",""1"",""3853""
""fullscreenenter"",""1"",""5915""
""blur"",""19"",""195861""
""focus"",""19"",""197836""
""blur"",""19"",""202965""
""focus"",""19"",""204361""
","""event"",""trial"",""time""
""blur"",""1"",""274""
""blur"",""19"",""195861""
""blur"",""19"",""202965""
","""event"",""trial"",""time""
""focus"",""1"",""3853""
""focus"",""19"",""197836""
""focus"",""19"",""204361""
","""event"",""trial"",""time""
""fullscreenenter"",""1"",""5915""
","
","","","592.5999999940395","","","21","10668","5158","&#9730;","elianto","#3366ff99"," "," ","1","+10","[1442.8999999910593]","1","1","","","10668","12","1","1","win","go","0"
"pit-trial","130","959317","0.0-16.0","battery-v0.2","","""event"",""trial"",""time""
""blur"",""1"",""274""
""focus"",""1"",""3853""
""fullscreenenter"",""1"",""5915""
""blur"",""19"",""195861""
""focus"",""19"",""197836""
""blur"",""19"",""202965""
""focus"",""19"",""204361""
","""event"",""trial"",""time""
""blur"",""1"",""274""
""blur"",""19"",""195861""
""blur"",""19"",""202965""
","""event"",""trial"",""time""
""focus"",""1"",""3853""
""focus"",""19"",""197836""
""focus"",""19"",""204361""
","""event"",""trial"",""time""
""fullscreenenter"",""1"",""5915""
","
","","","643.5999999940395","","","21","10668","5158","&#9730;","elianto","#3366ff99"," "," ","1","+10","[1494.5999999940395]","1","1","","","10668","13","1","1","win","go","0"
"pit-trial","131","963746","0.0-17.0","battery-v0.2","","""event"",""trial"",""time""
""blur"",""1"",""274""
""focus"",""1"",""3853""
""fullscreenenter"",""1"",""5915""
""blur"",""19"",""195861""
""focus"",""19"",""197836""
""blur"",""19"",""202965""
""focus"",""19"",""204361""
","""event"",""trial"",""time""
""blur"",""1"",""274""
""blur"",""19"",""195861""
""blur"",""19"",""202965""
","""event"",""trial"",""time""
""focus"",""1"",""3853""
""focus"",""19"",""197836""
""focus"",""19"",""204361""
","""event"",""trial"",""time""
""fullscreenenter"",""1"",""5915""
","
","","","1576.9000000059605","","","21","10668","5158","&#9752;","elianto","#f73b6a7A"," "," ","1","0","[2427.1000000089407]","1","1","","","10668","14","3","3","lose","go","0"
"pit-trial","132","967548","0.0-18.0","battery-v0.2","","""event"",""trial"",""time""
""blur"",""1"",""274""
""focus"",""1"",""3853""
""fullscreenenter"",""1"",""5915""
""blur"",""19"",""195861""
""focus"",""19"",""197836""
""blur"",""19"",""202965""
""focus"",""19"",""204361""
","""event"",""trial"",""time""
""blur"",""1"",""274""
""blur"",""19"",""195861""
""blur"",""19"",""202965""
","""event"",""trial"",""time""
""focus"",""1"",""3853""
""focus"",""19"",""197836""
""focus"",""19"",""204361""
","""event"",""trial"",""time""
""fullscreenenter"",""1"",""5915""
","
","","","949.2000000029802","","","21","10668","5158","&#9733;","elianto","#3366ff99","-1"," ","0","0","[1799.9000000059605]","1","1","","","10668","15","2","2","win","no-go","0"
"pit-trial","133","972399","0.0-19.0","battery-v0.2","","""event"",""trial"",""time""
""blur"",""1"",""274""
""focus"",""1"",""3853""
""fullscreenenter"",""1"",""5915""
""blur"",""19"",""195861""
""focus"",""19"",""197836""
""blur"",""19"",""202965""
""focus"",""19"",""204361""
","""event"",""trial"",""time""
""blur"",""1"",""274""
""blur"",""19"",""195861""
""blur"",""19"",""202965""
","""event"",""trial"",""time""
""focus"",""1"",""3853""
""focus"",""19"",""197836""
""focus"",""19"",""204361""
","""event"",""trial"",""time""
""fullscreenenter"",""1"",""5915""
","
","","","-1","","","21","10668","5158","&#9728;","elianto","#f73b6a7A","-1","-1","1","0","[]","0","1","","","10668","16","0","4","lose","no-go","0"
"pit-trial","134","977252","0.0-20.0","battery-v0.2","","""event"",""trial"",""time""
""blur"",""1"",""274""
""focus"",""1"",""3853""
""fullscreenenter"",""1"",""5915""
""blur"",""19"",""195861""
""focus"",""19"",""197836""
""blur"",""19"",""202965""
""focus"",""19"",""204361""
","""event"",""trial"",""time""
""blur"",""1"",""274""
""blur"",""19"",""195861""
""blur"",""19"",""202965""
","""event"",""trial"",""time""
""focus"",""1"",""3853""
""focus"",""19"",""197836""
""focus"",""19"",""204361""
","""event"",""trial"",""time""
""fullscreenenter"",""1"",""5915""
","
","","","-1","","","21","10668","5158","&#9728;","elianto","#f73b6a7A","-1","-1","1","-10","[]","0","1","","","10668","17","0","4","lose","no-go","1"
"pit-trial","135","980785","0.0-21.0","battery-v0.2","","""event"",""trial"",""time""
""blur"",""1"",""274""
""focus"",""1"",""3853""
""fullscreenenter"",""1"",""5915""
""blur"",""19"",""195861""
""focus"",""19"",""197836""
""blur"",""19"",""202965""
""focus"",""19"",""204361""
","""event"",""trial"",""time""
""blur"",""1"",""274""
""blur"",""19"",""195861""
""blur"",""19"",""202965""
","""event"",""trial"",""time""
""focus"",""1"",""3853""
""focus"",""19"",""197836""
""focus"",""19"",""204361""
","""event"",""trial"",""time""
""fullscreenenter"",""1"",""5915""
","
