"trial_type","trial_index","time_elapsed","internal_node_id","task_version","subject_id","interactions","blur_events","focus_events","fullscreenenter_events","fullscreenexit_events","success","view_history","rt","responses","num_errors","age","subject","participantId","rune","rune_set","hex","correct","choice","accuracy","outcome","keys","total_keys","block","practice","value","sub","trial","stimulus","robot","valence","action","sham"
"pavlovia","0","8","0.0-0.0","battery-v0.2","","""event"",""trial"",""time""
""fullscreenenter"",""1"",""2177""
","
","
","""event"",""trial"",""time""
""fullscreenenter"",""1"",""2177""
","
","","","","","","","","","","","","","","","","","","","","","","","","","","",""
"fullscreen","1","3156","0.0-1.0","battery-v0.2","","""event"",""trial"",""time""
""fullscreenenter"",""1"",""2177""
","
","
","""event"",""trial"",""time""
""fullscreenenter"",""1"",""2177""
","
","true","","","","","","","","","","","","","","","","","","","","","","","","","",""
"pit-instructions","2","9536","0.0-2.0-0.0","battery-v0.2","","""event"",""trial"",""time""
""fullscreenenter"",""1"",""2177""
","
","
","""event"",""trial"",""time""
""fullscreenenter"",""1"",""2177""
","
","","[{""page_index"":0,""viewing_time"":6376.79999999702}]","6377","","","","","","","","","","","","","","","","","","","","","","","",""
"pit-comprehension","3","52433","0.0-2.0-1.0-0.0","battery-v0.2","","""event"",""trial"",""time""
""fullscreenenter"",""1"",""2177""
","
","
","""event"",""trial"",""time""
""fullscreenenter"",""1"",""2177""
","
","","","42894.10000000894","[""shark""]","0","10","13367","1463","","","","","","","","","","","","","","","","","","",""
"pit-instructions","4","53840","0.0-2.0-1.0-1.0","battery-v0.2","","""event"",""trial"",""time""
""fullscreenenter"",""1"",""2177""
","
","
","""event"",""trial"",""time""
""fullscreenenter"",""1"",""2177""
","
","","[{""page_index"":0,""viewing_time"":1395.8999999910593}]","1396.0999999940395","","","","","","","","","","","","","","","","","","","","","","","",""
"pit-comprehension","5","58352","0.0-2.0-2.0-0.0","battery-v0.2","","""event"",""trial"",""time""
""fullscreenenter"",""1"",""2177""
","
","
","""event"",""trial"",""time""
""fullscreenenter"",""1"",""2177""
","
","","","4509.899999991059","[""tiger""]","0","10","13367","1463","","","","","","","","","","","","","","","","","","",""
"pit-instructions","6","62272","0.0-2.0-2.0-1.0","battery-v0.2","","""event"",""trial"",""time""
""fullscreenenter"",""1"",""2177""
","
","
","""event"",""trial"",""time""
""fullscreenenter"",""1"",""2177""
","
","","[{""page_index"":0,""viewing_time"":3917.6000000089407}]","3917.9000000059605","","","","","","","","","","","","","","","","","","","","","","","",""
"pit-instructions","7","167577","0.0-2.0-3.0","battery-v0.2","","""event"",""trial"",""time""
""fullscreenenter"",""1"",""2177""
","
","
","""event"",""trial"",""time""
""fullscreenenter"",""1"",""2177""
","
","","[{""page_index"":0,""viewing_time"":10430.79999999702},{""page_index"":1,""viewing_time"":6991.0999999940395},{""page_index"":2,""viewing_time"":6272},{""page_index"":3,""viewing_time"":5664},{""page_index"":4,""viewing_time"":6143.9000000059605},{""page_index"":5,""viewing_time"":5856.399999991059},{""page_index"":6,""viewing_time"":7096.4000000059605},{""page_index"":7,""viewing_time"":6847.20000000298},{""page_index"":8,""viewing_time"":7944},{""page_index"":9,""viewing_time"":9352.09999999404},{""page_index"":10,""viewing_time"":8903.79999999702},{""page_index"":11,""viewing_time"":7519.9000000059605},{""page_index"":12,""viewing_time"":10698.5},{""page_index"":13,""viewing_time"":5582.5}]","105303.39999999106","","","","","","","","","","","","","","","","","","","","","","","",""
"pit-trial","8","171422","0.0-2.0-4.0-0.0","battery-v0.2","","""event"",""trial"",""time""
""fullscreenenter"",""1"",""2177""
","
","
","""event"",""trial"",""time""
""fullscreenenter"",""1"",""2177""
","
","","","982.0999999940395","","","10","13367","1463","&#9784;","elianto","#FFFFF080"," "," ","1","&#10004","[1834.7999999970198]","1","0","0","","","","","","","",""
"pit-trial","9","176296","0.0-2.0-4.1-0.1","battery-v0.2","","""event"",""trial"",""time""
""fullscreenenter"",""1"",""2177""
","
","
","""event"",""trial"",""time""
""fullscreenenter"",""1"",""2177""
","
","","","-1","","","10","13367","1463","&#9784;","elianto","#FFFFF080"," ","-1","0","&#10060","[]","0","0","0","","","","","","","",""
"pit-trial","10","181166","0.0-2.0-4.2-0.2","battery-v0.2","","""event"",""trial"",""time""
""fullscreenenter"",""1"",""2177""
","
","
","""event"",""trial"",""time""
""fullscreenenter"",""1"",""2177""
","
","","","-1","","","10","13367","1463","&#9784;","elianto","#FFFFF080"," ","-1","0","&#10060","[]","0","0","0","","","","","","","",""
"pit-trial","11","186034","0.0-2.0-4.3-0.3","battery-v0.2","","""event"",""trial"",""time""
""fullscreenenter"",""1"",""2177""
","
","
","""event"",""trial"",""time""
""fullscreenenter"",""1"",""2177""
","
","","","-1","","","10","13367","1463","&#9784;","elianto","#FFFFF080"," ","-1","0","&#10060","[]","0","0","0","","","","","","","",""
"pit-trial","12","189659","0.0-2.0-4.4-0.4","battery-v0.2","","""event"",""trial"",""time""
""fullscreenenter"",""1"",""2177""
","
","
","""event"",""trial"",""time""
""fullscreenenter"",""1"",""2177""
","
","","","760.4000000059605","","","10","13367","1463","&#9784;","elianto","#FFFFF080"," "," ","1","&#10004","[1610.5999999940395]","1","0","0","","","","","","","",""
"pit-trial","13","193158","0.0-2.0-4.5-0.5","battery-v0.2","","""event"",""trial"",""time""
""fullscreenenter"",""1"",""2177""
","
","
","""event"",""trial"",""time""
""fullscreenenter"",""1"",""2177""
","
","","","635","","","10","13367","1463","&#9784;","elianto","#FFFFF080"," "," ","1","&#10004","[1490.2000000029802]","1","0","0","","","","","","","",""
"pit-trial","14","196509","0.0-2.0-4.6-0.6","battery-v0.2","","""event"",""trial"",""time""
""fullscreenenter"",""1"",""2177""
","
","
","""event"",""trial"",""time""
""fullscreenenter"",""1"",""2177""
","
","","","487.09999999403954","","","10","13367","1463","&#9784;","elianto","#FFFFF080"," "," ","1","&#10004","[1344.300000011921]","1","0","0","","","","","","","",""
"pit-instructions","15","212440","0.0-2.0-4.6-1.6-0.6","battery-v0.2","","""event"",""trial"",""time""
""fullscreenenter"",""1"",""2177""
","
","
","""event"",""trial"",""time""
""fullscreenenter"",""1"",""2177""
","
","","[{""page_index"":0,""viewing_time"":7504.600000008941},{""page_index"":1,""viewing_time"":8423.89999999106}]","15928.70000000298","","","","","","","","","","","","","","","","","","","","","","","",""
"pit-instructions","16","234880","0.0-2.0-5.0","battery-v0.2","","""event"",""trial"",""time""
""fullscreenenter"",""1"",""2177""
","
","
","""event"",""trial"",""time""
""fullscreenenter"",""1"",""2177""
","
","","[{""page_index"":0,""viewing_time"":5446.29999999702},{""page_index"":1,""viewing_time"":6175.899999991059},{""page_index"":2,""viewing_time"":5216},{""page_index"":3,""viewing_time"":5600.100000008941}]","22438.39999999106","","","","","","","","","","","","","","","","","","","","","","","",""
"pit-trial","17","239735","0.0-2.0-6.0-0.0","battery-v0.2","","""event"",""trial"",""time""
""fullscreenenter"",""1"",""2177""
","
","
","""event"",""trial"",""time""
""fullscreenenter"",""1"",""2177""
","
","","","-1","","","10","13367","1463","&#9854;","elianto","#FFFFF080","-1","-1","1","&#10004","[]","0","0","1","","","","","","","",""
"pit-trial","18","244597","0.0-2.0-6.1-0.1","battery-v0.2","","""event"",""trial"",""time""
""fullscreenenter"",""1"",""2177""
","
","
","""event"",""trial"",""time""
""fullscreenenter"",""1"",""2177""
","
","","","-1","","","10","13367","1463","&#9854;","elianto","#FFFFF080","-1","-1","1","&#10004","[]","0","0","1","","","","","","","",""
"pit-trial","19","249474","0.0-2.0-6.2-0.2","battery-v0.2","","""event"",""trial"",""time""
""fullscreenenter"",""1"",""2177""
","
","
","""event"",""trial"",""time""
""fullscreenenter"",""1"",""2177""
","
","","","-1","","","10","13367","1463","&#9854;","elianto","#FFFFF080","-1","-1","1","&#10004","[]","0","0","1","","","","","","","",""
"pit-trial","20","254337","0.0-2.0-6.3-0.3","battery-v0.2","","""event"",""trial"",""time""
""fullscreenenter"",""1"",""2177""
","
","
","""event"",""trial"",""time""
""fullscreenenter"",""1"",""2177""
","
","","","-1","","","10","13367","1463","&#9854;","elianto","#FFFFF080","-1","-1","1","&#10004","[]","0","0","1","","","","","","","",""
"pit-trial","21","259205","0.0-2.0-6.4-0.4","battery-v0.2","","""event"",""trial"",""time""
""fullscreenenter"",""1"",""2177""
","
","
","""event"",""trial"",""time""
""fullscreenenter"",""1"",""2177""
","
","","","-1","","","10","13367","1463","&#9854;","elianto","#FFFFF080","-1","-1","1","&#10004","[]","0","0","1","","","","","","","",""
"pit-instructions","22","381599","0.0-2.0-7.0","battery-v0.2","","""event"",""trial"",""time""
""fullscreenenter"",""1"",""2177""
","
","
","""event"",""trial"",""time""
""fullscreenenter"",""1"",""2177""
","
","","[{""page_index"":0,""viewing_time"":6375},{""page_index"":1,""viewing_time"":6767.899999991059},{""page_index"":2,""viewing_time"":6207.9000000059605},{""page_index"":3,""viewing_time"":6344.0999999940395},{""page_index"":4,""viewing_time"":5407.9000000059605},{""page_index"":5,""viewing_time"":5528.0999999940395},{""page_index"":6,""viewing_time"":5024},{""page_index"":7,""viewing_time"":8015.9000000059605},{""page_index"":8,""viewing_time"":7096.0999999940395},{""page_index"":9,""viewing_time"":7200},{""page_index"":10,""viewing_time"":6783.9000000059605},{""page_index"":11,""viewing_time"":7256},{""page_index"":12,""viewing_time"":6736.0999999940395},{""page_index"":13,""viewing_time"":7343.9000000059605},{""page_index"":14,""viewing_time"":7831.9000000059605},{""page_index"":15,""viewing_time"":6768},{""page_index"":16,""viewing_time"":8432.09999999404},{""page_index"":17,""viewing_time"":7272.0999999940395}]","122391.09999999404","","","","","","","","","","","","","","","","","","","","","","","",""
"pit-trial","23","385248","0.0-2.0-8.0-0.0","battery-v0.2","","""event"",""trial"",""time""
""fullscreenenter"",""1"",""2177""
","
","
","""event"",""trial"",""time""
""fullscreenenter"",""1"",""2177""
","
","","","787.6000000089407","","","10","13367","1463","&#9776;","elianto","#3366ff99"," "," ","1","+10","[1639.9000000059605]","1","0","1","","","","","","","",""
"pit-trial","24","388697","0.0-2.0-8.0-1.0","battery-v0.2","","""event"",""trial"",""time""
""fullscreenenter"",""1"",""2177""
","
","
","""event"",""trial"",""time""
""fullscreenenter"",""1"",""2177""
","
","","","588.7000000029802","","","10","13367","1463","&#9776;","elianto","#3366ff99"," "," ","1","+10","[1445.7999999970198]","1","0","1","","","","","","","",""
"pit-trial","25","392051","0.0-2.0-8.0-2.0","battery-v0.2","","""event"",""trial"",""time""
""fullscreenenter"",""1"",""2177""
","
","
","""event"",""trial"",""time""
""fullscreenenter"",""1"",""2177""
","
","","","491.5","","","10","13367","1463","&#9776;","elianto","#3366ff99"," "," ","1","+10","[1349.2000000029802]","1","0","1","","","","","","","",""
"pit-trial","26","395499","0.0-2.0-8.0-3.0","battery-v0.2","","""event"",""trial"",""time""
""fullscreenenter"",""1"",""2177""
","
","
","""event"",""trial"",""time""
""fullscreenenter"",""1"",""2177""
","
","","","589.1000000089407","","","10","13367","1463","&#9776;","elianto","#3366ff99"," "," ","1","0","[1443.800000011921]","1","0","1","","","","","","","",""
"pit-trial","27","398771","0.0-2.0-8.0-4.0","battery-v0.2","","""event"",""trial"",""time""
""fullscreenenter"",""1"",""2177""
","
","
","""event"",""trial"",""time""
""fullscreenenter"",""1"",""2177""
","
","","","411.6000000089407","","","10","13367","1463","&#9776;","elianto","#3366ff99"," "," ","1","+10","[1266.9000000059605]","1","0","1","","","","","","","",""
"pit-trial","28","402016","0.0-2.0-8.1-0.1","battery-v0.2","","""event"",""trial"",""time""
""fullscreenenter"",""1"",""2177""
","
","
","""event"",""trial"",""time""
""fullscreenenter"",""1"",""2177""
","
","","","384.79999999701977","","","10","13367","1463","&#9776;","elianto","#3366ff99"," "," ","1","+10","[1235.2000000029802]","1","0","1","","","","","","","",""
"pit-trial","29","405337","0.0-2.0-8.1-1.1","battery-v0.2","","""event"",""trial"",""time""
""fullscreenenter"",""1"",""2177""
","
","
","""event"",""trial"",""time""
""fullscreenenter"",""1"",""2177""
","
","","","454.59999999403954","","","10","13367","1463","&#9776;","elianto","#3366ff99"," "," ","1","+10","[1310.0999999940395]","1","0","1","","","","","","","",""
"pit-trial","30","408720","0.0-2.0-8.1-2.1","battery-v0.2","","""event"",""trial"",""time""
""fullscreenenter"",""1"",""2177""
","
","
","""event"",""trial"",""time""
""fullscreenenter"",""1"",""2177""
","
","","","522.2999999970198","","","10","13367","1463","&#9776;","elianto","#3366ff99"," "," ","1","+10","[1373.0999999940395]","1","0","1","","","","","","","",""
"pit-trial","31","412066","0.0-2.0-8.1-3.1","battery-v0.2","","""event"",""trial"",""time""
""fullscreenenter"",""1"",""2177""
","
","
","""event"",""trial"",""time""
""fullscreenenter"",""1"",""2177""
","
","","","491.29999999701977","","","10","13367","1463","&#9776;","elianto","#3366ff99"," "," ","1","0","[1342.4000000059605]","1","0","1","","","","","","","",""
"pit-trial","32","415321","0.0-2.0-8.1-4.1","battery-v0.2","","""event"",""trial"",""time""
""fullscreenenter"",""1"",""2177""
","
","
","""event"",""trial"",""time""
""fullscreenenter"",""1"",""2177""
","
","","","401.40000000596046","","","10","13367","1463","&#9776;","elianto","#3366ff99"," "," ","1","+10","[1252]","1","0","1","","","","","","","",""
"pit-trial","33","418641","0.0-2.0-8.2-0.2","battery-v0.2","","""event"",""trial"",""time""
""fullscreenenter"",""1"",""2177""
","
","
","""event"",""trial"",""time""
""fullscreenenter"",""1"",""2177""
","
","","","464.3999999910593","","","10","13367","1463","&#9776;","elianto","#3366ff99"," "," ","1","+10","[1315.2999999970198]","1","0","1","","","","","","","",""
"pit-trial","34","421929","0.0-2.0-8.2-1.2","battery-v0.2","","""event"",""trial"",""time""
""fullscreenenter"",""1"",""2177""
","
","
","""event"",""trial"",""time""
""fullscreenenter"",""1"",""2177""
","
","","","434.5","","","10","13367","1463","&#9776;","elianto","#3366ff99"," "," ","1","+10","[1284.5999999940395]","1","0","1","","","","","","","",""
"pit-trial","35","425033","0.0-2.0-8.2-2.2","battery-v0.2","","""event"",""trial"",""time""
""fullscreenenter"",""1"",""2177""
","
","
","""event"",""trial"",""time""
""fullscreenenter"",""1"",""2177""
","
","","","249.5","","","10","13367","1463","&#9776;","elianto","#3366ff99"," "," ","1","+10","[1100.300000011921]","1","0","1","","","","","","","",""
"pit-trial","36","428179","0.0-2.0-8.2-3.2","battery-v0.2","","""event"",""trial"",""time""
""fullscreenenter"",""1"",""2177""
","
","
","""event"",""trial"",""time""
""fullscreenenter"",""1"",""2177""
","
","","","290.6000000089407","","","10","13367","1463","&#9776;","elianto","#3366ff99"," "," ","1","0","[1140.9000000059605]","1","0","1","","","","","","","",""
"pit-trial","37","431329","0.0-2.0-8.2-4.2","battery-v0.2","","""event"",""trial"",""time""
""fullscreenenter"",""1"",""2177""
","
","
","""event"",""trial"",""time""
""fullscreenenter"",""1"",""2177""
","
","","","296","","","10","13367","1463","&#9776;","elianto","#3366ff99"," "," ","1","+10","[1146.7000000029802]","1","0","1","","","","","","","",""
"call-function","38","431332","0.0-2.0-9.0","battery-v0.2","","""event"",""trial"",""time""
""fullscreenenter"",""1"",""2177""
","
","
","""event"",""trial"",""time""
""fullscreenenter"",""1"",""2177""
","
","","","","","","","","","","","","","","","","","","","","","","","","","","",""
"pit-instructions","39","476959","0.0-2.0-10.0","battery-v0.2","","""event"",""trial"",""time""
""fullscreenenter"",""1"",""2177""
","
","
","""event"",""trial"",""time""
""fullscreenenter"",""1"",""2177""
","
","","[{""page_index"":0,""viewing_time"":6777.29999999702},{""page_index"":1,""viewing_time"":6952},{""page_index"":2,""viewing_time"":10343.90000000596},{""page_index"":3,""viewing_time"":13560.39999999106},{""page_index"":4,""viewing_time"":7991.600000008941}]","45625.39999999106","","","","","","","","","","","","","","","","","","","","","","","",""
"pit-trial","40","480356","0.0-2.0-11.0-0.0","battery-v0.2","","""event"",""trial"",""time""
""fullscreenenter"",""1"",""2177""
","
","
","""event"",""trial"",""time""
""fullscreenenter"",""1"",""2177""
","
","","","536.4000000059605","","","10","13367","1463","&#9761;","elianto","#3366ff99","-1"," ","0","0","[1391.5]","1","0","2","","","","","","","",""
"pit-trial","41","483628","0.0-2.0-11.0-1.0","battery-v0.2","","""event"",""trial"",""time""
""fullscreenenter"",""1"",""2177""
","
","
","""event"",""trial"",""time""
""fullscreenenter"",""1"",""2177""
","
","","","405.5","","","10","13367","1463","&#9761;","elianto","#3366ff99","-1"," ","0","0","[1266.3999999910593]","1","0","2","","","","","","","",""
"pit-trial","42","486857","0.0-2.0-11.0-2.0","battery-v0.2","","""event"",""trial"",""time""
""fullscreenenter"",""1"",""2177""
","
","
","""event"",""trial"",""time""
""fullscreenenter"",""1"",""2177""
","
","","","362.3999999910593","","","10","13367","1463","&#9761;","elianto","#3366ff99","-1"," ","0","0","[1218]","1","0","2","","","","","","","",""
"pit-trial","43","491719","0.0-2.0-11.0-3.0","battery-v0.2","","""event"",""trial"",""time""
""fullscreenenter"",""1"",""2177""
","
","
","""event"",""trial"",""time""
""fullscreenenter"",""1"",""2177""
","
","","","-1","","","10","13367","1463","&#9761;","elianto","#3366ff99","-1","-1","1","0","[]","0","0","2","","","","","","","",""
"pit-trial","44","494962","0.0-2.0-11.0-4.0","battery-v0.2","","""event"",""trial"",""time""
""fullscreenenter"",""1"",""2177""
","
","
","""event"",""trial"",""time""
""fullscreenenter"",""1"",""2177""
","
","","","380","","","10","13367","1463","&#9761;","elianto","#3366ff99","-1"," ","0","0","[1231.5]","1","0","2","","","","","","","",""
"pit-trial","45","498845","0.0-2.0-11.1-0.1","battery-v0.2","","""event"",""trial"",""time""
""fullscreenenter"",""1"",""2177""
","
","
","""event"",""trial"",""time""
""fullscreenenter"",""1"",""2177""
","
","","","1020.9000000059605","","","10","13367","1463","&#9761;","elianto","#3366ff99","-1"," ","0","0","[811.6000000089407,1875.1000000089407]","2","0","2","","","","","","","",""
"pit-trial","46","502276","0.0-2.0-11.1-1.1","battery-v0.2","","""event"",""trial"",""time""
""fullscreenenter"",""1"",""2177""
","
","
","""event"",""trial"",""time""
""fullscreenenter"",""1"",""2177""
","
","","","566","","","10","13367","1463","&#9761;","elianto","#3366ff99","-1"," ","0","0","[1417.5999999940395]","1","0","2","","","","","","","",""
"pit-trial","47","507137","0.0-2.0-11.1-2.1","battery-v0.2","","""event"",""trial"",""time""
""fullscreenenter"",""1"",""2177""
","
","
","""event"",""trial"",""time""
""fullscreenenter"",""1"",""2177""
","
","","","-1","","","10","13367","1463","&#9761;","elianto","#3366ff99","-1","-1","1","+10","[]","0","0","2","","","","","","","",""
"pit-trial","48","511992","0.0-2.0-11.1-3.1","battery-v0.2","","""event"",""trial"",""time""
""fullscreenenter"",""1"",""2177""
","
","
","""event"",""trial"",""time""
""fullscreenenter"",""1"",""2177""
","
","","","-1","","","10","13367","1463","&#9761;","elianto","#3366ff99","-1","-1","1","0","[]","0","0","2","","","","","","","",""
"pit-trial","49","516846","0.0-2.0-11.1-4.1","battery-v0.2","","""event"",""trial"",""time""
""fullscreenenter"",""1"",""2177""
","
","
","""event"",""trial"",""time""
""fullscreenenter"",""1"",""2177""
","
","","","-1","","","10","13367","1463","&#9761;","elianto","#3366ff99","-1","-1","1","+10","[]","0","0","2","","","","","","","",""
"pit-trial","50","521083","0.0-2.0-11.2-0.2","battery-v0.2","","""event"",""trial"",""time""
""fullscreenenter"",""1"",""2177""
","
","
","""event"",""trial"",""time""
""fullscreenenter"",""1"",""2177""
","
","","","1380","","","10","13367","1463","&#9761;","elianto","#3366ff99","-1"," ","0","0","[2230.9000000059605]","1","0","2","","","","","","","",""
"pit-trial","51","524450","0.0-2.0-11.2-1.2","battery-v0.2","","""event"",""trial"",""time""
""fullscreenenter"",""1"",""2177""
","
","
","""event"",""trial"",""time""
""fullscreenenter"",""1"",""2177""
","
","","","511.19999998807907","","","10","13367","1463","&#9761;","elianto","#3366ff99","-1"," ","0","0","[1363.199999988079,3282.699999988079]","2","0","2","","","","","","","",""
"pit-trial","52","527473","0.0-2.0-11.2-2.2","battery-v0.2","","""event"",""trial"",""time""
""fullscreenenter"",""1"",""2177""
","
","
","""event"",""trial"",""time""
""fullscreenenter"",""1"",""2177""
","
","","","169","","","10","13367","1463","&#9761;","elianto","#3366ff99","-1"," ","0","0","[228.40000000596046,1019.7000000029802,2595.7000000029802]","3","0","2","","","","","","","",""
"pit-trial","53","531681","0.0-2.0-11.2-3.2","battery-v0.2","","""event"",""trial"",""time""
""fullscreenenter"",""1"",""2177""
","
","
","""event"",""trial"",""time""
""fullscreenenter"",""1"",""2177""
","
","","","1354.2999999970198","","","10","13367","1463","&#9761;","elianto","#3366ff99","-1"," ","0","+10","[2204.5999999940395]","1","0","2","","","","","","","",""
"pit-trial","54","536537","0.0-2.0-11.2-4.2","battery-v0.2","","""event"",""trial"",""time""
""fullscreenenter"",""1"",""2177""
","
","
","""event"",""trial"",""time""
""fullscreenenter"",""1"",""2177""
","
","","","-1","","","10","13367","1463","&#9761;","elianto","#3366ff99","-1","-1","1","+10","[]","0","0","2","","","","","","","",""
"pit-trial","55","541392","0.0-2.0-11.3-0.3","battery-v0.2","","""event"",""trial"",""time""
""fullscreenenter"",""1"",""2177""
","
","
","""event"",""trial"",""time""
""fullscreenenter"",""1"",""2177""
","
","","","-1","","","10","13367","1463","&#9761;","elianto","#3366ff99","-1","-1","1","+10","[2883.9000000059605]","1","0","2","","","","","","","",""
"pit-trial","56","544978","0.0-2.0-11.3-1.3","battery-v0.2","","""event"",""trial"",""time""
""fullscreenenter"",""1"",""2177""
","
","
","""event"",""trial"",""time""
""fullscreenenter"",""1"",""2177""
","
","","","731","","","10","13367","1463","&#9761;","elianto","#3366ff99","-1"," ","0","0","[1581.6000000089407]","1","0","2","","","","","","","",""
"pit-trial","57","549833","0.0-2.0-11.3-2.3","battery-v0.2","","""event"",""trial"",""time""
""fullscreenenter"",""1"",""2177""
","
","
","""event"",""trial"",""time""
""fullscreenenter"",""1"",""2177""
","
","","","-1","","","10","13367","1463","&#9761;","elianto","#3366ff99","-1","-1","1","+10","[]","0","0","2","","","","","","","",""
"pit-trial","58","553194","0.0-2.0-11.3-3.3","battery-v0.2","","""event"",""trial"",""time""
""fullscreenenter"",""1"",""2177""
","
","
","""event"",""trial"",""time""
""fullscreenenter"",""1"",""2177""
","
","","","507.20000000298023","","","10","13367","1463","&#9761;","elianto","#3366ff99","-1"," ","0","+10","[1357.7999999970198]","1","0","2","","","","","","","",""
"pit-trial","59","556530","0.0-2.0-11.3-4.3","battery-v0.2","","""event"",""trial"",""time""
""fullscreenenter"",""1"",""2177""
","
","
","""event"",""trial"",""time""
""fullscreenenter"",""1"",""2177""
","
","","","483.20000000298023","","","10","13367","1463","&#9761;","elianto","#3366ff99","-1"," ","0","0","[1333.3999999910593]","1","0","2","","","","","","","",""
"call-function","60","556533","0.0-2.0-12.0","battery-v0.2","","""event"",""trial"",""time""
""fullscreenenter"",""1"",""2177""
","
","
","""event"",""trial"",""time""
""fullscreenenter"",""1"",""2177""
","
","","","","","","","","","","","","","","","","","","","","","","","","","","",""
"pit-instructions","61","591152","0.0-2.0-13.0","battery-v0.2","","""event"",""trial"",""time""
""fullscreenenter"",""1"",""2177""
","
","
","""event"",""trial"",""time""
""fullscreenenter"",""1"",""2177""
","
","","[{""page_index"":0,""viewing_time"":7185.5999999940395},{""page_index"":1,""viewing_time"":7295.79999999702},{""page_index"":2,""viewing_time"":4184},{""page_index"":3,""viewing_time"":10552.10000000894},{""page_index"":4,""viewing_time"":5400}]","34617.69999998808","","","","","","","","","","","","","","","","","","","","","","","",""
"pit-trial","62","596025","0.0-2.0-14.0-0.0","battery-v0.2","","""event"",""trial"",""time""
""fullscreenenter"",""1"",""2177""
","
","
","""event"",""trial"",""time""
""fullscreenenter"",""1"",""2177""
","
","","","-1","","","10","13367","1463","&#9826;","elianto","#f73b6a7A","-1","-1","1","0","[]","0","0","3","","","","","","","",""
"pit-trial","63","600886","0.0-2.0-14.0-1.0","battery-v0.2","","""event"",""trial"",""time""
""fullscreenenter"",""1"",""2177""
","
","
","""event"",""trial"",""time""
""fullscreenenter"",""1"",""2177""
","
","","","-1","","","10","13367","1463","&#9826;","elianto","#f73b6a7A","-1","-1","1","0","[]","0","0","3","","","","","","","",""
"pit-trial","64","605754","0.0-2.0-14.0-2.0","battery-v0.2","","""event"",""trial"",""time""
""fullscreenenter"",""1"",""2177""
","
","
","""event"",""trial"",""time""
""fullscreenenter"",""1"",""2177""
","
","","","-1","","","10","13367","1463","&#9826;","elianto","#f73b6a7A","-1","-1","1","0","[]","0","0","3","","","","","","","",""
"pit-trial","65","610617","0.0-2.0-14.0-3.0","battery-v0.2","","""event"",""trial"",""time""
""fullscreenenter"",""1"",""2177""
","
","
","""event"",""trial"",""time""
""fullscreenenter"",""1"",""2177""
","
","","","-1","","","10","13367","1463","&#9826;","elianto","#f73b6a7A","-1","-1","1","-10","[]","0","0","3","","","","","","","",""
"pit-trial","66","615476","0.0-2.0-14.0-4.0","battery-v0.2","","""event"",""trial"",""time""
""fullscreenenter"",""1"",""2177""
","
","
","""event"",""trial"",""time""
""fullscreenenter"",""1"",""2177""
","
","","","-1","","","10","13367","1463","&#9826;","elianto","#f73b6a7A","-1","-1","1","0","[]","0","0","3","","","","","","","",""
"pit-trial","67","620354","0.0-2.0-14.1-0.1","battery-v0.2","","""event"",""trial"",""time""
""fullscreenenter"",""1"",""2177""
","
","
","""event"",""trial"",""time""
""fullscreenenter"",""1"",""2177""
","
","","","-1","","","10","13367","1463","&#9826;","elianto","#f73b6a7A","-1","-1","1","0","[]","0","0","3","","","","","","","",""
"pit-trial","68","625209","0.0-2.0-14.1-1.1","battery-v0.2","","""event"",""trial"",""time""
""fullscreenenter"",""1"",""2177""
","
","
","""event"",""trial"",""time""
""fullscreenenter"",""1"",""2177""
","
","","","-1","","","10","13367","1463","&#9826;","elianto","#f73b6a7A","-1","-1","1","0","[]","0","0","3","","","","","","","",""
"pit-trial","69","630064","0.0-2.0-14.1-2.1","battery-v0.2","","""event"",""trial"",""time""
""fullscreenenter"",""1"",""2177""
","
","
","""event"",""trial"",""time""
""fullscreenenter"",""1"",""2177""
","
","","","-1","","","10","13367","1463","&#9826;","elianto","#f73b6a7A","-1","-1","1","0","[]","0","0","3","","","","","","","",""
"pit-trial","70","634918","0.0-2.0-14.1-3.1","battery-v0.2","","""event"",""trial"",""time""
""fullscreenenter"",""1"",""2177""
","
","
","""event"",""trial"",""time""
""fullscreenenter"",""1"",""2177""
","
","","","-1","","","10","13367","1463","&#9826;","elianto","#f73b6a7A","-1","-1","1","-10","[]","0","0","3","","","","","","","",""
"pit-trial","71","639772","0.0-2.0-14.1-4.1","battery-v0.2","","""event"",""trial"",""time""
""fullscreenenter"",""1"",""2177""
","
","
","""event"",""trial"",""time""
""fullscreenenter"",""1"",""2177""
","
","","","-1","","","10","13367","1463","&#9826;","elianto","#f73b6a7A","-1","-1","1","0","[]","0","0","3","","","","","","","",""
"pit-trial","72","644628","0.0-2.0-14.2-0.2","battery-v0.2","","""event"",""trial"",""time""
""fullscreenenter"",""1"",""2177""
","
","
","""event"",""trial"",""time""
""fullscreenenter"",""1"",""2177""
","
","","","-1","","","10","13367","1463","&#9826;","elianto","#f73b6a7A","-1","-1","1","0","[]","0","0","3","","","","","","","",""
"pit-trial","73","649481","0.0-2.0-14.2-1.2","battery-v0.2","","""event"",""trial"",""time""
""fullscreenenter"",""1"",""2177""
","
","
","""event"",""trial"",""time""
""fullscreenenter"",""1"",""2177""
","
","","","-1","","","10","13367","1463","&#9826;","elianto","#f73b6a7A","-1","-1","1","0","[]","0","0","3","","","","","","","",""
"pit-trial","74","654335","0.0-2.0-14.2-2.2","battery-v0.2","","""event"",""trial"",""time""
""fullscreenenter"",""1"",""2177""
","
","
","""event"",""trial"",""time""
""fullscreenenter"",""1"",""2177""
","
","","","-1","","","10","13367","1463","&#9826;","elianto","#f73b6a7A","-1","-1","1","0","[]","0","0","3","","","","","","","",""
"pit-trial","75","659188","0.0-2.0-14.2-3.2","battery-v0.2","","""event"",""trial"",""time""
""fullscreenenter"",""1"",""2177""
","
","
","""event"",""trial"",""time""
""fullscreenenter"",""1"",""2177""
","
","","","-1","","","10","13367","1463","&#9826;","elianto","#f73b6a7A","-1","-1","1","-10","[]","0","0","3","","","","","","","",""
"pit-trial","76","664042","0.0-2.0-14.2-4.2","battery-v0.2","","""event"",""trial"",""time""
""fullscreenenter"",""1"",""2177""
","
","
","""event"",""trial"",""time""
""fullscreenenter"",""1"",""2177""
","
","","","-1","","","10","13367","1463","&#9826;","elianto","#f73b6a7A","-1","-1","1","0","[]","0","0","3","","","","","","","",""
"pit-trial","77","668899","0.0-2.0-14.3-0.3","battery-v0.2","","""event"",""trial"",""time""
""fullscreenenter"",""1"",""2177""
","
","
","""event"",""trial"",""time""
""fullscreenenter"",""1"",""2177""
","
","","","-1","","","10","13367","1463","&#9826;","elianto","#f73b6a7A","-1","-1","1","0","[]","0","0","3","","","","","","","",""
"pit-trial","78","673754","0.0-2.0-14.3-1.3","battery-v0.2","","""event"",""trial"",""time""
""fullscreenenter"",""1"",""2177""
","
","
","""event"",""trial"",""time""
""fullscreenenter"",""1"",""2177""
","
","","","-1","","","10","13367","1463","&#9826;","elianto","#f73b6a7A","-1","-1","1","0","[]","0","0","3","","","","","","","",""
"pit-trial","79","678611","0.0-2.0-14.3-2.3","battery-v0.2","","""event"",""trial"",""time""
""fullscreenenter"",""1"",""2177""
","
","
","""event"",""trial"",""time""
""fullscreenenter"",""1"",""2177""
","
","","","-1","","","10","13367","1463","&#9826;","elianto","#f73b6a7A","-1","-1","1","0","[]","0","0","3","","","","","","","",""
"pit-trial","80","683466","0.0-2.0-14.3-3.3","battery-v0.2","","""event"",""trial"",""time""
""fullscreenenter"",""1"",""2177""
","
","
","""event"",""trial"",""time""
""fullscreenenter"",""1"",""2177""
","
","","","-1","","","10","13367","1463","&#9826;","elianto","#f73b6a7A","-1","-1","1","-10","[]","0","0","3","","","","","","","",""
"pit-trial","81","687226","0.0-2.0-14.3-4.3","battery-v0.2","","""event"",""trial"",""time""
""fullscreenenter"",""1"",""2177""
","
","
","""event"",""trial"",""time""
""fullscreenenter"",""1"",""2177""
","
","","","905.8999999761581","","","10","13367","1463","&#9826;","elianto","#f73b6a7A","-1"," ","0","-10","[1756.7999999821186]","1","0","3","","","","","","","",""
"call-function","82","687229","0.0-2.0-15.0","battery-v0.2","","""event"",""trial"",""time""
""fullscreenenter"",""1"",""2177""
","
","
","""event"",""trial"",""time""
""fullscreenenter"",""1"",""2177""
","
","","","","","","","","","","","","","","","","","","","","","","","","","","",""
"pit-instructions","83","716352","0.0-2.0-16.0","battery-v0.2","","""event"",""trial"",""time""
""fullscreenenter"",""1"",""2177""
","
","
","""event"",""trial"",""time""
""fullscreenenter"",""1"",""2177""
","
","","[{""page_index"":0,""viewing_time"":10097.700000017881},{""page_index"":1,""viewing_time"":8311.899999976158},{""page_index"":2,""viewing_time"":5176.200000017881},{""page_index"":3,""viewing_time"":5535.9000000059605}]","29121.90000000596","","","","","","","","","","","","","","","","","","","","","","","",""
"pit-trial","84","721221","0.0-2.0-17.0-0.0","battery-v0.2","","""event"",""trial"",""time""
""fullscreenenter"",""1"",""2177""
","
","
","""event"",""trial"",""time""
""fullscreenenter"",""1"",""2177""
","
","","","-1","","","10","13367","1463","&#9789;","elianto","#f73b6a7A"," ","-1","0","-10","[]","0","0","4","","","","","","","",""
"pit-trial","85","726086","0.0-2.0-17.0-1.0","battery-v0.2","","""event"",""trial"",""time""
""fullscreenenter"",""1"",""2177""
","
","
","""event"",""trial"",""time""
""fullscreenenter"",""1"",""2177""
","
","","","-1","","","10","13367","1463","&#9789;","elianto","#f73b6a7A"," ","-1","0","-10","[]","0","0","4","","","","","","","",""
"pit-trial","86","730948","0.0-2.0-17.0-2.0","battery-v0.2","","""event"",""trial"",""time""
""fullscreenenter"",""1"",""2177""
","
","
","""event"",""trial"",""time""
""fullscreenenter"",""1"",""2177""
","
","","","-1","","","10","13367","1463","&#9789;","elianto","#f73b6a7A"," ","-1","0","-10","[2888.2000000178814]","1","0","4","","","","","","","",""
"pit-trial","87","734369","0.0-2.0-17.0-3.0","battery-v0.2","","""event"",""trial"",""time""
""fullscreenenter"",""1"",""2177""
","
","
","""event"",""trial"",""time""
""fullscreenenter"",""1"",""2177""
","
","","","558.7000000178814","","","10","13367","1463","&#9789;","elianto","#f73b6a7A"," "," ","1","-10","[1411.699999988079]","1","0","4","","","","","","","",""
"pit-trial","88","737776","0.0-2.0-17.0-4.0","battery-v0.2","","""event"",""trial"",""time""
""fullscreenenter"",""1"",""2177""
","
","
","""event"",""trial"",""time""
""fullscreenenter"",""1"",""2177""
","
","","","536.9000000059605","","","10","13367","1463","&#9789;","elianto","#f73b6a7A"," "," ","1","0","[1389.5]","1","0","4","","","","","","","",""
"pit-trial","89","740724","0.0-2.0-17.1-0.1","battery-v0.2","","""event"",""trial"",""time""
""fullscreenenter"",""1"",""2177""
","
","
","""event"",""trial"",""time""
""fullscreenenter"",""1"",""2177""
","
","","","79.7000000178814","","","10","13367","1463","&#9789;","elianto","#f73b6a7A"," "," ","1","0","[940.5]","1","0","4","","","","","","","",""
"pit-trial","90","743761","0.0-2.0-17.1-1.1","battery-v0.2","","""event"",""trial"",""time""
""fullscreenenter"",""1"",""2177""
","
","
","""event"",""trial"",""time""
""fullscreenenter"",""1"",""2177""
","
","","","170.5","","","10","13367","1463","&#9789;","elianto","#f73b6a7A"," "," ","1","0","[1034.0999999940395,2138.2000000178814]","2","0","4","","","","","","","",""
"pit-trial","91","746984","0.0-2.0-17.1-2.1","battery-v0.2","","""event"",""trial"",""time""
""fullscreenenter"",""1"",""2177""
","
","
","""event"",""trial"",""time""
""fullscreenenter"",""1"",""2177""
","
","","","367","","","10","13367","1463","&#9789;","elianto","#f73b6a7A"," "," ","1","0","[133.5,1221,2117.399999976158,2957.399999976158]","4","0","4","","","","","","","",""
"pit-trial","92","750417","0.0-2.0-17.1-3.1","battery-v0.2","","""event"",""trial"",""time""
""fullscreenenter"",""1"",""2177""
","
","
","""event"",""trial"",""time""
""fullscreenenter"",""1"",""2177""
","
","","","578.9000000059605","","","10","13367","1463","&#9789;","elianto","#f73b6a7A"," "," ","1","-10","[605.2000000178814,1429,2101,2597,3236.9000000059605]","5","0","4","","","","","","","",""
"pit-trial","93","755271","0.0-2.0-17.1-4.1","battery-v0.2","","""event"",""trial"",""time""
""fullscreenenter"",""1"",""2177""
","
","
","""event"",""trial"",""time""
""fullscreenenter"",""1"",""2177""
","
","","","-1","","","10","13367","1463","&#9789;","elianto","#f73b6a7A"," ","-1","0","-10","[606.9000000059605]","1","0","4","","","","","","","",""
"pit-trial","94","760128","0.0-2.0-17.2-0.2","battery-v0.2","","""event"",""trial"",""time""
""fullscreenenter"",""1"",""2177""
","
","
","""event"",""trial"",""time""
""fullscreenenter"",""1"",""2177""
","
","","","-1","","","10","13367","1463","&#9789;","elianto","#f73b6a7A"," ","-1","0","-10","[]","0","0","4","","","","","","","",""
"pit-trial","95","763577","0.0-2.0-17.2-1.2","battery-v0.2","","""event"",""trial"",""time""
""fullscreenenter"",""1"",""2177""
","
","
","""event"",""trial"",""time""
""fullscreenenter"",""1"",""2177""
","
","","","593.8999999761581","","","10","13367","1463","&#9789;","elianto","#f73b6a7A"," "," ","1","0","[761.7999999821186,1445.7999999821186,1958.0999999940395,2502,2925.699999988079,3389.7999999821186]","6","0","4","","","","","","","",""
"pit-trial","96","766833","0.0-2.0-17.2-2.2","battery-v0.2","","""event"",""trial"",""time""
""fullscreenenter"",""1"",""2177""
","
","
","""event"",""trial"",""time""
""fullscreenenter"",""1"",""2177""
","
","","","401.60000002384186","","","10","13367","1463","&#9789;","elianto","#f73b6a7A"," "," ","1","0","[380.30000001192093,845.3000000119209,1252.5999999940395,1716.5999999940395,2157.800000011921,2636.5999999940395,3044.7000000178814]","7","0","4","","","","","","","",""
"pit-trial","97","770057","0.0-2.0-17.2-3.2","battery-v0.2","","""event"",""trial"",""time""
""fullscreenenter"",""1"",""2177""
","
","
","""event"",""trial"",""time""
""fullscreenenter"",""1"",""2177""
","
","","","371.40000000596046","","","10","13367","1463","&#9789;","elianto","#f73b6a7A"," "," ","1","-10","[773.1999999880791,1221.699999988079,1582.2999999821186,1941.8999999761581,2470.0999999940395,2749.899999976158,3014.5,3222]","8","0","4","","","","","","","",""
"pit-trial","98","773097","0.0-2.0-17.2-4.2","battery-v0.2","","""event"",""trial"",""time""
""fullscreenenter"",""1"",""2177""
","
","
","""event"",""trial"",""time""
""fullscreenenter"",""1"",""2177""
","
","","","184.90000000596046","","","10","13367","1463","&#9789;","elianto","#f73b6a7A"," "," ","1","0","[229.59999999403954,620,1036.0999999940395,1283.699999988079,1492,2189.0999999940395,2412.7999999821186,2644.7999999821186,2892.699999988079]","9","0","4","","","","","","","",""
"pit-trial","99","776313","0.0-2.0-17.3-0.3","battery-v0.2","","""event"",""trial"",""time""
""fullscreenenter"",""1"",""2177""
","
","
","""event"",""trial"",""time""
""fullscreenenter"",""1"",""2177""
","
","","","361.7000000178814","","","10","13367","1463","&#9789;","elianto","#f73b6a7A"," "," ","1","0","[83.30000001192093,587.3000000119209,1212,1459.9000000059605,1787.800000011921,2612.5,2940.300000011921]","7","0","4","","","","","","","",""
"pit-trial","100","779649","0.0-2.0-17.3-1.3","battery-v0.2","","""event"",""trial"",""time""
""fullscreenenter"",""1"",""2177""
","
","
","""event"",""trial"",""time""
""fullscreenenter"",""1"",""2177""
","
","","","482.09999999403954","","","10","13367","1463","&#9789;","elianto","#f73b6a7A"," "," ","1","0","[1332.4000000059605,1699.800000011921]","2","0","4","","","","","","","",""
"pit-trial","101","782610","0.0-2.0-17.3-2.3","battery-v0.2","","""event"",""trial"",""time""
""fullscreenenter"",""1"",""2177""
","
","
","""event"",""trial"",""time""
""fullscreenenter"",""1"",""2177""
","
","","","107.5","","","10","13367","1463","&#9789;","elianto","#f73b6a7A"," "," ","1","0","[148.2000000178814,957.8000000119209,1204.9000000059605,1532.9000000059605,1908]","5","0","4","","","","","","","",""
"pit-trial","102","787177","0.0-2.0-17.3-3.3","battery-v0.2","","""event"",""trial"",""time""
""fullscreenenter"",""1"",""2177""
","
","
","""event"",""trial"",""time""
""fullscreenenter"",""1"",""2177""
","
","","","1712.699999988079","","","10","13367","1463","&#9789;","elianto","#f73b6a7A"," "," ","1","-10","[2563.5,2795.699999988079]","2","0","4","","","","","","","",""
"pit-trial","103","790665","0.0-2.0-17.3-4.3","battery-v0.2","","""event"",""trial"",""time""
""fullscreenenter"",""1"",""2177""
","
","
","""event"",""trial"",""time""
""fullscreenenter"",""1"",""2177""
","
","","","633.8000000119209","","","10","13367","1463","&#9789;","elianto","#f73b6a7A"," "," ","1","0","[533.5999999940395,1485.5999999940395,1750.2999999821186,1958.199999988079,2222.399999976158,2582.2999999821186,2894.899999976158,3190.2999999821186,3454.5]","9","0","4","","","","","","","",""
"call-function","104","790668","0.0-2.0-18.0","battery-v0.2","","""event"",""trial"",""time""
""fullscreenenter"",""1"",""2177""
","
","
","""event"",""trial"",""time""
""fullscreenenter"",""1"",""2177""
","
","","","","","","","","","","","","","","","","","","","","","","","","","","",""
"pit-instructions","105","863559","0.0-2.0-19.0","battery-v0.2","","""event"",""trial"",""time""
""fullscreenenter"",""1"",""2177""
","
","
","""event"",""trial"",""time""
""fullscreenenter"",""1"",""2177""
","
","","[{""page_index"":0,""viewing_time"":7034.399999976158},{""page_index"":1,""viewing_time"":6008.5},{""page_index"":2,""viewing_time"":14303.5},{""page_index"":3,""viewing_time"":7687.9000000059605},{""page_index"":4,""viewing_time"":8368.300000011921},{""page_index"":5,""viewing_time"":8879.699999988079},{""page_index"":6,""viewing_time"":9632.09999999404},{""page_index"":7,""viewing_time"":6183.9000000059605},{""page_index"":8,""viewing_time"":4792}]","72890.5","","","","","","","","","","","","","","","","","","","","","","","",""
"pit-comprehension","106","870816","0.0-2.0-20.0-0.0","battery-v0.2","","""event"",""trial"",""time""
""fullscreenenter"",""1"",""2177""
","
","
","""event"",""trial"",""time""
""fullscreenenter"",""1"",""2177""
","
","","","7254.5","[""SPACE""]","0","10","13367","1463","","","","","","","","","","","","","","","","","","",""
"pit-instructions","107","878471","0.0-2.0-20.0-1.0","battery-v0.2","","""event"",""trial"",""time""
""fullscreenenter"",""1"",""2177""
","
","
","""event"",""trial"",""time""
""fullscreenenter"",""1"",""2177""
","
","","[{""page_index"":0,""viewing_time"":7621.699999988079}]","7621.9000000059605","","","","","","","","","","","","","","","","","","","","","","","",""
"pit-comprehension","108","887135","0.0-2.0-21.0-0.0","battery-v0.2","","""event"",""trial"",""time""
""fullscreenenter"",""1"",""2177""
","
","
","""event"",""trial"",""time""
""fullscreenenter"",""1"",""2177""
","
","","","8662.300000011921","[""10""]","0","10","13367","1463","","","","","","","","","","","","","","","","","","",""
"pit-instructions","109","889247","0.0-2.0-21.0-1.0","battery-v0.2","","""event"",""trial"",""time""
""fullscreenenter"",""1"",""2177""
","
","
","""event"",""trial"",""time""
""fullscreenenter"",""1"",""2177""
","
","","[{""page_index"":0,""viewing_time"":2076.7999999821186}]","2077.0999999940395","","","","","","","","","","","","","","","","","","","","","","","",""
"pit-comprehension","110","896823","0.0-2.0-22.0-0.0","battery-v0.2","","""event"",""trial"",""time""
""fullscreenenter"",""1"",""2177""
","
","
","""event"",""trial"",""time""
""fullscreenenter"",""1"",""2177""
","
","","","7574.4000000059605","[""-10""]","1","10","13367","1463","","","","","","","","","","","","","","","","","","",""
"pit-instructions","111","906191","0.0-2.0-22.0-1.0","battery-v0.2","","""event"",""trial"",""time""
""fullscreenenter"",""1"",""2177""
","
","
","""event"",""trial"",""time""
""fullscreenenter"",""1"",""2177""
","
","","[{""page_index"":0,""viewing_time"":9335}]","9335.200000017881","","","","","","","","","","","","","","","","","","","","","","","",""
"pit-instructions","112","908903","0.0-2.0-22.0-2.0-0.0","battery-v0.2","","""event"",""trial"",""time""
""fullscreenenter"",""1"",""2177""
","
","
","""event"",""trial"",""time""
""fullscreenenter"",""1"",""2177""
","
","","[{""page_index"":0,""viewing_time"":2710.5}]","2710.7000000178814","","","","","","","","","","","","","","","","","","","","","","","",""
"pit-comprehension","113","917267","0.0-2.0-22.1-0.1","battery-v0.2","","""event"",""trial"",""time""
""fullscreenenter"",""1"",""2177""
","
","
","""event"",""trial"",""time""
""fullscreenenter"",""1"",""2177""
","
","","","8361.90000000596","[""0""]","0","10","13367","1463","","","","","","","","","","","","","","","","","","",""
"pit-instructions","114","919807","0.0-2.0-22.1-1.1","battery-v0.2","","""event"",""trial"",""time""
""fullscreenenter"",""1"",""2177""
","
","
","""event"",""trial"",""time""
""fullscreenenter"",""1"",""2177""
","
","","[{""page_index"":0,""viewing_time"":2505.7999999821186}]","2506","","","","","","","","","","","","","","","","","","","","","","","",""
"pit-comprehension","115","929904","0.0-2.0-23.0-0.0","battery-v0.2","","""event"",""trial"",""time""
""fullscreenenter"",""1"",""2177""
","
","
","""event"",""trial"",""time""
""fullscreenenter"",""1"",""2177""
","
","","","10094.700000017881","[""False""]","1","10","13367","1463","","","","","","","","","","","","","","","","","","",""
"pit-instructions","116","934983","0.0-2.0-23.0-1.0","battery-v0.2","","""event"",""trial"",""time""
""fullscreenenter"",""1"",""2177""
","
","
","""event"",""trial"",""time""
""fullscreenenter"",""1"",""2177""
","
","","[{""page_index"":0,""viewing_time"":5047.199999988079}]","5047.399999976158","","","","","","","","","","","","","","","","","","","","","","","",""
"pit-instructions","117","936175","0.0-2.0-23.0-2.0-0.0","battery-v0.2","","""event"",""trial"",""time""
""fullscreenenter"",""1"",""2177""
","
","
","""event"",""trial"",""time""
""fullscreenenter"",""1"",""2177""
","
","","[{""page_index"":0,""viewing_time"":1190.9000000059605}]","1191","","","","","","","","","","","","","","","","","","","","","","","",""
"pit-comprehension","118","944696","0.0-2.0-23.1-0.1","battery-v0.2","","""event"",""trial"",""time""
""fullscreenenter"",""1"",""2177""
","
","
","""event"",""trial"",""time""
""fullscreenenter"",""1"",""2177""
","
","","","8519.200000017881","[""True""]","0","10","13367","1463","","","","","","","","","","","","","","","","","","",""
"pit-instructions","119","946447","0.0-2.0-23.1-1.1","battery-v0.2","","""event"",""trial"",""time""
""fullscreenenter"",""1"",""2177""
","
","
","""event"",""trial"",""time""
""fullscreenenter"",""1"",""2177""
","
","","[{""page_index"":0,""viewing_time"":1718.0999999940395}]","1718.2999999821186","","","","","","","","","","","","","","","","","","","","","","","",""
"pit-comprehension","120","955584","0.0-2.0-24.0-0.0","battery-v0.2","","""event"",""trial"",""time""
""fullscreenenter"",""1"",""2177""
","
","
","""event"",""trial"",""time""
""fullscreenenter"",""1"",""2177""
","
","","","9134.800000011921","[""True""]","0","10","13367","1463","","","","","","","","","","","","","","","","","","",""
"pit-instructions","121","957415","0.0-2.0-24.0-1.0","battery-v0.2","","""event"",""trial"",""time""
""fullscreenenter"",""1"",""2177""
","
","
","""event"",""trial"",""time""
""fullscreenenter"",""1"",""2177""
","
","","[{""page_index"":0,""viewing_time"":1797.699999988079}]","1797.7999999821186","","","","","","","","","","","","","","","","","","","","","","","",""
"pit-comprehension","122","965575","0.0-2.0-25.0-0.0","battery-v0.2","","""event"",""trial"",""time""
""fullscreenenter"",""1"",""2177""
","
","
","""event"",""trial"",""time""
""fullscreenenter"",""1"",""2177""
","
","","","8158.600000023842","[""True""]","0","10","13367","1463","","","","","","","","","","","","","","","","","","",""
"pit-instructions","123","967551","0.0-2.0-25.0-1.0","battery-v0.2","","""event"",""trial"",""time""
""fullscreenenter"",""1"",""2177""
","
","
","""event"",""trial"",""time""
""fullscreenenter"",""1"",""2177""
","
","","[{""page_index"":0,""viewing_time"":1941.9000000059605}]","1942","","","","","","","","","","","","","","","","","","","","","","","",""
"pit-comprehension","124","974527","0.0-2.0-26.0-0.0","battery-v0.2","","""event"",""trial"",""time""
""fullscreenenter"",""1"",""2177""
","
","
","""event"",""trial"",""time""
""fullscreenenter"",""1"",""2177""
","
","","","6974.600000023842","[""False""]","0","10","13367","1463","","","","","","","","","","","","","","","","","","",""
"pit-instructions","125","976167","0.0-2.0-26.0-1.0","battery-v0.2","","""event"",""trial"",""time""
""fullscreenenter"",""1"",""2177""
","
","
","""event"",""trial"",""time""
""fullscreenenter"",""1"",""2177""
","
","","[{""page_index"":0,""viewing_time"":1602.199999988079}]","1602.4000000059605","","","","","","","","","","","","","","","","","","","","","","","",""
"pit-instructions","126","993575","0.0-3.0","battery-v0.2","","""event"",""trial"",""time""
""fullscreenenter"",""1"",""2177""
","
","
","""event"",""trial"",""time""
""fullscreenenter"",""1"",""2177""
","
","","[{""page_index"":0,""viewing_time"":4702.9000000059605},{""page_index"":1,""viewing_time"":5096},{""page_index"":2,""viewing_time"":7608}]","17407.100000023842","","","","","","","","","","","","","","","","","","","","","","","",""
"pit-trial","127","997680","0.0-4.0","battery-v0.2","","""event"",""trial"",""time""
""fullscreenenter"",""1"",""2177""
","
","
","""event"",""trial"",""time""
""fullscreenenter"",""1"",""2177""
","
","","","1240.0999999940395","","","10","13367","1463","&#9730;","elianto","#3366ff99"," "," ","1","+10","[2101.600000023842]","1","1","","","13367","1","1","1","win","go","0"
"pit-trial","128","1002541","0.0-5.0","battery-v0.2","","""event"",""trial"",""time""
""fullscreenenter"",""1"",""2177""
","
","
","""event"",""trial"",""time""
""fullscreenenter"",""1"",""2177""
","
","","","-1","","","10","13367","1463","&#9728;","elianto","#f73b6a7A","-1","-1","1","0","[]","0","1","","","13367","2","0","4","lose","no-go","0"
"pit-trial","129","1007407","0.0-6.0","battery-v0.2","","""event"",""trial"",""time""
""fullscreenenter"",""1"",""2177""
","
","
","""event"",""trial"",""time""
""fullscreenenter"",""1"",""2177""
","
","","","-1","","","10","13367","1463","&#9752;","elianto","#f73b6a7A"," ","-1","0","-10","[]","0","1","","","13367","3","3","3","lose","go","0"
"pit-trial","130","1010908","0.0-7.0","battery-v0.2","","""event"",""trial"",""time""
""fullscreenenter"",""1"",""2177""
","
","
","""event"",""trial"",""time""
""fullscreenenter"",""1"",""2177""
","
","","","644.6999999880791","","","10","13367","1463","&#9733;","elianto","#3366ff99","-1"," ","0","0","[1494.7999999821186]","1","1","","","13367","4","2","2","win","no-go","0"
"pit-trial","131","1014471","0.0-8.0","battery-v0.2","","""event"",""trial"",""time""
""fullscreenenter"",""1"",""2177""
","
","
","""event"",""trial"",""time""
""fullscreenenter"",""1"",""2177""
","
","","","694.9000000059605","","","10","13367","1463","&#9730;","elianto","#3366ff99"," "," ","1","+10","[1545.800000011921]","1","1","","","13367","5","1","1","win","go","0"
"pit-trial","132","1017735","0.0-9.0","battery-v0.2","","""event"",""trial"",""time""
""fullscreenenter"",""1"",""2177""
","
","
","""event"",""trial"",""time""
""fullscreenenter"",""1"",""2177""
","
","","","402.30000001192093","","","10","13367","1463","&#9728;","elianto","#f73b6a7A","-1"," ","0","-10","[1254.5]","1","1","","","13367","6","0","4","lose","no-go","0"
"pit-trial","133","1021376","0.0-10.0","battery-v0.2","","""event"",""trial"",""time""
""fullscreenenter"",""1"",""2177""
","
","
","""event"",""trial"",""time""
""fullscreenenter"",""1"",""2177""
","
","","","768.0999999940395","","","10","13367","1463","&#9733;","elianto","#3366ff99","-1"," ","0","+10","[1623.199999988079]","1","1","","","13367","7","2","2","win","no-go","1"
"pit-trial","134","1026229","0.0-11.0","battery-v0.2","","""event"",""trial"",""time""
""fullscreenenter"",""1"",""2177""
","
","
","""event"",""trial"",""time""
""fullscreenenter"",""1"",""2177""
","
","","","-1","","","10","13367","1463","&#9752;","elianto","#f73b6a7A"," ","-1","0","-10","[]","0","1","","","13367","8","3","3","lose","go","0"
"pit-trial","135","1029490","0.0-12.0","battery-v0.2","","""event"",""trial"",""time""
""fullscreenenter"",""1"",""2177""
","
","
","""event"",""trial"",""time""
""fullscreenenter"",""1"",""2177""
","
","","","406.59999999403954","","","10","13367","1463","&#9730;","elianto","#3366ff99"," "," ","1","0","[1256.9000000059605]","1","1","","","13367","9","1","1","win","go","1"
"pit-trial","136","1033122","0.0-13.0","battery-v0.2","","""event"",""trial"",""time""
""fullscreenenter"",""1"",""2177""
","
","
","""event"",""trial"",""time""
""fullscreenenter"",""1"",""2177""
","
","","","777.0999999940395","","","10","13367","1463","&#9733;","elianto","#3366ff99","-1"," ","0","0","[1627.1000000238419]","1","1","","","13367","10","2","2","win","no-go","0"
"pit-trial","137","1036610","0.0-14.0","battery-v0.2","","""event"",""trial"",""time""
""fullscreenenter"",""1"",""2177""
","
","
","""event"",""trial"",""time""
""fullscreenenter"",""1"",""2177""
","
","","","630.2999999821186","","","10","13367","1463","&#9728;","elianto","#f73b6a7A","-1"," ","0","-10","[1483.199999988079]","1","1","","","13367","11","0","4","lose","no-go","0"
"pit-trial","138","1041465","0.0-15.0","battery-v0.2","","""event"",""trial"",""time""
""fullscreenenter"",""1"",""2177""
","
","
","""event"",""trial"",""time""
""fullscreenenter"",""1"",""2177""
","
","","","-1","","","10","13367","1463","&#9752;","elianto","#f73b6a7A"," ","-1","0","0","[]","0","1","","","13367","12","3","3","lose","go","1"
"pit-trial","139","1046319","0.0-16.0","battery-v0.2","","""event"",""trial"",""time""
""fullscreenenter"",""1"",""2177""
","
","
","""event"",""trial"",""time""
""fullscreenenter"",""1"",""2177""
","
","","","-1","","","10","13367","1463","&#9752;","elianto","#f73b6a7A"," ","-1","0","-10","[]","0","1","","","13367","13","3","3","lose","go","0"
"pit-trial","140","1051175","0.0-17.0","battery-v0.2","","""event"",""trial"",""time""
""fullscreenenter"",""1"",""2177""
","
","
","""event"",""trial"",""time""
""fullscreenenter"",""1"",""2177""
","
","","","-1","","","10","13367","1463","&#9728;","elianto","#f73b6a7A","-1","-1","1","0","[]","0","1","","","13367","14","0","4","lose","no-go","0"
"pit-trial","141","1054777","0.0-18.0","battery-v0.2","","""event"",""trial"",""time""
""fullscreenenter"",""1"",""2177""
","
","
","""event"",""trial"",""time""
""fullscreenenter"",""1"",""2177""
","
","","","748.4000000059605","","","10","13367","1463","&#9733;","elianto","#3366ff99","-1"," ","0","0","[1599.4000000059605]","1","1","","","13367","15","2","2","win","no-go","0"
"pit-trial","142","1058537","0.0-19.0","battery-v0.2","","""event"",""trial"",""time""
""fullscreenenter"",""1"",""2177""
","
","
","""event"",""trial"",""time""
""fullscreenenter"",""1"",""2177""
","
","","","904.7000000178814","","","10","13367","1463","&#9730;","elianto","#3366ff99"," "," ","1","+10","[1755.9000000059605]","1","1","","","13367","16","1","1","win","go","0"
"pit-trial","143","1063392","0.0-20.0","battery-v0.2","","""event"",""trial"",""time""
""fullscreenenter"",""1"",""2177""
","
","
","""event"",""trial"",""time""
""fullscreenenter"",""1"",""2177""
","
","","","-1","","","10","13367","1463","&#9728;","elianto","#f73b6a7A","-1","-1","1","0","[]","0","1","","","13367","17","0","4","lose","no-go","0"
"pit-trial","144","1068245","0.0-21.0","battery-v0.2","","""event"",""trial"",""time""
""fullscreenenter"",""1"",""2177""
","
","
","""event"",""trial"",""time""
""fullscreenenter"",""1"",""2177""
","
","","","-1","","","10","13367","1463","&#9752;","elianto","#f73b6a7A"," ","-1","0","-10","[]","0","1","","","13367","18","3","3","lose","go","0"
"pit-trial","145","1071802","0.0-22.0","battery-v0.2","","""event"",""trial"",""time""
""fullscreenenter"",""1"",""2177""
","
","
","""event"",""trial"",""time""
""fullscreenenter"",""1"",""2177""
","
","","","702.3000000119209","","","10","13367","1463","&#9733;","elianto","#3366ff99","-1"," ","0","0","[1552.6000000238419]","1","1","","","13367","19","2","2","win","no-go","0"
"pit-trial","146","1075433","0.0-23.0","battery-v0.2","","""event"",""trial"",""time""
""fullscreenenter"",""1"",""2177""
","
","
","""event"",""trial"",""time""
""fullscreenenter"",""1"",""2177""
","
","","","776.7999999821186","","","10","13367","1463","&#9730;","elianto","#3366ff99"," "," ","1","+10","[1627.699999988079]","1","1","","","13367","20","1","1","win","go","0"
"pit-instructions","147","1089143","0.0-24.0","battery-v0.2","","""event"",""trial"",""time""
""fullscreenenter"",""1"",""2177""
","
","
","""event"",""trial"",""time""
""fullscreenenter"",""1"",""2177""
","
","","[{""page_index"":0,""viewing_time"":6891.799999982119},{""page_index"":1,""viewing_time"":6816}]","13708","","","","","","","","","","","","","","","","","","","","","","","",""
"pit-trial","148","1092821","0.0-25.0","battery-v0.2","","""event"",""trial"",""time""
""fullscreenenter"",""1"",""2177""
","
","
","""event"",""trial"",""time""
""fullscreenenter"",""1"",""2177""
","
","","","819.6000000238419","","","10","13367","1463","h","elianto","#f73b6a7A"," "," ","1","0","[1670.6000000238419]","1","2","","","13367","21","3","3","lose","go","0"
"pit-trial","149","1096039","0.0-26.0","battery-v0.2","","""event"",""trial"",""time""
""fullscreenenter"",""1"",""2177""
","
","
","""event"",""trial"",""time""
""fullscreenenter"",""1"",""2177""
","
","","","357.5","","","10","13367","1463","y","elianto","#f73b6a7A","-1"," ","0","-10","[1209.5999999940395]","1","2","","","13367","22","2","4","lose","no-go","0"
"pit-trial","150","1099307","0.0-27.0","battery-v0.2","","""event"",""trial"",""time""
""fullscreenenter"",""1"",""2177""
","
","
","""event"",""trial"",""time""
""fullscreenenter"",""1"",""2177""
","
","","","400.2999999821186","","","10","13367","1463","r","elianto","#3366ff99"," "," ","1","0","[1262.4000000059605]","1","2","","","13367","23","1","1","win","go","1"
"pit-trial","151","1102555","0.0-28.0","battery-v0.2","","""event"",""trial"",""time""
""fullscreenenter"",""1"",""2177""
","
","
","""event"",""trial"",""time""
""fullscreenenter"",""1"",""2177""
","
","","","381.5","","","10","13367","1463","m","elianto","#f73b6a7A","-1"," ","0","-10","[1234.4000000059605]","1","2","","","13367","24","0","4","lose","no-go","0"
"pit-trial","152","1105765","0.0-29.0","battery-v0.2","","""event"",""trial"",""time""
""fullscreenenter"",""1"",""2177""
","
","
","""event"",""trial"",""time""
""fullscreenenter"",""1"",""2177""
","
","","","352.69999998807907","","","10","13367","1463","r","elianto","#3366ff99"," "," ","1","+10","[531.9000000059605,1203.4000000059605,1794.9000000059605,2418.800000011921,3010.9000000059605]","5","2","","","13367","25","1","1","win","go","0"
"pit-trial","153","1108789","0.0-30.0","battery-v0.2","","""event"",""trial"",""time""
""fullscreenenter"",""1"",""2177""
","
","
","""event"",""trial"",""time""
""fullscreenenter"",""1"",""2177""
","
","","","163.5","","","10","13367","1463","y","elianto","#f73b6a7A","-1"," ","0","-10","[392.80000001192093,1016.0999999940395,1664.9000000059605,2216.9000000059605,2760.300000011921]","5","2","","","13367","26","2","4","lose","no-go","0"
"pit-trial","154","1112033","0.0-31.0","battery-v0.2","","""event"",""trial"",""time""
""fullscreenenter"",""1"",""2177""
","
","
","""event"",""trial"",""time""
""fullscreenenter"",""1"",""2177""
","
","","","382.40000000596046","","","10","13367","1463","h","elianto","#f73b6a7A"," "," ","1","0","[313.5,1233.5]","2","2","","","13367","27","3","3","lose","go","0"
"pit-trial","155","1116904","0.0-32.0","battery-v0.2","","""event"",""trial"",""time""
""fullscreenenter"",""1"",""2177""
","
","
","""event"",""trial"",""time""
""fullscreenenter"",""1"",""2177""
","
","","","-1","","","10","13367","1463","m","elianto","#f73b6a7A","-1","-1","1","0","[]","0","2","","","13367","28","0","4","lose","no-go","0"
"pit-trial","156","1121758","0.0-33.0","battery-v0.2","","""event"",""trial"",""time""
""fullscreenenter"",""1"",""2177""
","
","
","""event"",""trial"",""time""
""fullscreenenter"",""1"",""2177""
","
","","","-1","","","10","13367","1463","h","elianto","#f73b6a7A"," ","-1","0","-10","[]","0","2","","","13367","29","3","3","lose","go","0"
"pit-trial","157","1125825","0.0-34.0","battery-v0.2","","""event"",""trial"",""time""
""fullscreenenter"",""1"",""2177""
","
","
","""event"",""trial"",""time""
""fullscreenenter"",""1"",""2177""
","
","","","1211.4000000059605","","","10","13367","1463","r","elianto","#3366ff99"," "," ","1","+10","[2063.0999999940395]","1","2","","","13367","30","1","1","win","go","0"
"pit-trial","158","1130265","0.0-35.0","battery-v0.2","","""event"",""trial"",""time""
""fullscreenenter"",""1"",""2177""
","
","
","""event"",""trial"",""time""
""fullscreenenter"",""1"",""2177""
","
","","","1585.9000000059605","","","10","13367","1463","m","elianto","#f73b6a7A","-1"," ","0","-10","[2436.2000000178814]","1","2","","","13367","31","0","4","lose","no-go","0"
"pit-trial","159","1135120","0.0-36.0","battery-v0.2","","""event"",""trial"",""time""
""fullscreenenter"",""1"",""2177""
","
","
","""event"",""trial"",""time""
""fullscreenenter"",""1"",""2177""
","
","","","-1","","","10","13367","1463","y","elianto","#f73b6a7A","-1","-1","1","0","[]","0","2","","","13367","32","2","4","lose","no-go","0"
"pit-trial","160","1139974","0.0-37.0","battery-v0.2","","""event"",""trial"",""time""
""fullscreenenter"",""1"",""2177""
","
","
","""event"",""trial"",""time""
""fullscreenenter"",""1"",""2177""
","
","","","-1","","","10","13367","1463","r","elianto","#3366ff99"," ","-1","0","0","[]","0","2","","","13367","33","1","1","win","go","0"
"pit-trial","161","1144827","0.0-38.0","battery-v0.2","","""event"",""trial"",""time""
""fullscreenenter"",""1"",""2177""
","
","
","""event"",""trial"",""time""
""fullscreenenter"",""1"",""2177""
","
","","","-1","","","10","13367","1463","m","elianto","#f73b6a7A","-1","-1","1","-10","[]","0","2","","","13367","34","0","4","lose","no-go","1"
"pit-trial","162","1149683","0.0-39.0","battery-v0.2","","""event"",""trial"",""time""
""fullscreenenter"",""1"",""2177""
","
","
","""event"",""trial"",""time""
""fullscreenenter"",""1"",""2177""
","
","","","-1","","","10","13367","1463","h","elianto","#f73b6a7A"," ","-1","0","-10","[]","0","2","","","13367","35","3","3","lose","go","0"
"pit-trial","163","1154538","0.0-40.0","battery-v0.2","","""event"",""trial"",""time""
""fullscreenenter"",""1"",""2177""
","
","
","""event"",""trial"",""time""
""fullscreenenter"",""1"",""2177""
","
","","","-1","","","10","13367","1463","y","elianto","#f73b6a7A","-1","-1","1","0","[]","0","2","","","13367","36","2","4","lose","no-go","0"
"pit-trial","164","1158489","0.0-41.0","battery-v0.2","","""event"",""trial"",""time""
""fullscreenenter"",""1"",""2177""
","
","
","""event"",""trial"",""time""
""fullscreenenter"",""1"",""2177""
","
","","","1086.800000011921","","","10","13367","1463","y","elianto","#f73b6a7A","-1"," ","0","-10","[1947.5,2899.7999999821186,3707.0999999940395]","3","2","","","13367","37","2","4","lose","no-go","0"
"pit-trial","165","1161697","0.0-42.0","battery-v0.2","","""event"",""trial"",""time""
""fullscreenenter"",""1"",""2177""
","
","
","""event"",""trial"",""time""
""fullscreenenter"",""1"",""2177""
","
","","","352.19999998807907","","","10","13367","1463","h","elianto","#f73b6a7A"," "," ","1","0","[547.5,1203.800000011921,1907.800000011921,2547.9000000059605,3187.7000000178814]","5","2","","","13367","38","3","3","lose","go","0"
"pit-trial","166","1165049","0.0-43.0","battery-v0.2","","""event"",""trial"",""time""
""fullscreenenter"",""1"",""2177""
","
","
","""event"",""trial"",""time""
""fullscreenenter"",""1"",""2177""
","
","","","496.40000000596046","","","10","13367","1463","m","elianto","#f73b6a7A","-1"," ","0","-10","[1347.4000000059605,2397.300000011921,3139.699999988079]","3","2","","","13367","39","0","4","lose","no-go","0"
"pit-trial","167","1168449","0.0-44.0","battery-v0.2","","""event"",""trial"",""time""
""fullscreenenter"",""1"",""2177""
","
","
","""event"",""trial"",""time""
""fullscreenenter"",""1"",""2177""
","
","","","542.8000000119209","","","10","13367","1463","r","elianto","#3366ff99"," "," ","1","0","[164.2000000178814,444.2000000178814,1396.2000000178814]","3","2","","","13367","40","1","1","win","go","1"
"pit-trial","168","1172017","0.0-45.0","battery-v0.2","","""event"",""trial"",""time""
""fullscreenenter"",""1"",""2177""
","
","
","""event"",""trial"",""time""
""fullscreenenter"",""1"",""2177""
","
","","","712.7999999821186","","","10","13367","1463","y","elianto","#f73b6a7A","-1"," ","0","-10","[1564.199999988079]","1","2","","","13367","41","2","4","lose","no-go","0"
"pit-trial","169","1175936","0.0-46.0","battery-v0.2","","""event"",""trial"",""time""
""fullscreenenter"",""1"",""2177""
","
","
","""event"",""trial"",""time""
""fullscreenenter"",""1"",""2177""
","
","","","1064.5","","","10","13367","1463","r","elianto","#3366ff99"," "," ","1","+10","[1916.0999999940395,2316.0999999940395,2708.0999999940395,3084.0999999940395]","4","2","","","13367","42","1","1","win","go","0"
"pit-trial","170","1180790","0.0-47.0","battery-v0.2","","""event"",""trial"",""time""
""fullscreenenter"",""1"",""2177""
","
","
","""event"",""trial"",""time""
""fullscreenenter"",""1"",""2177""
","
","","","-1","","","10","13367","1463","h","elianto","#f73b6a7A"," ","-1","0","-10","[37.19999998807907]","1","2","","","13367","43","3","3","lose","go","0"
"pit-trial","171","1184289","0.0-48.0","battery-v0.2","","""event"",""trial"",""time""
""fullscreenenter"",""1"",""2177""
","
","
","""event"",""trial"",""time""
""fullscreenenter"",""1"",""2177""
","
","","","645.5","","","10","13367","1463","m","elianto","#f73b6a7A","-1"," ","0","-10","[1495.7999999821186]","1","2","","","13367","44","0","4","lose","no-go","0"
"pit-trial","172","1187985","0.0-49.0","battery-v0.2","","""event"",""trial"",""time""
""fullscreenenter"",""1"",""2177""
","
","
","""event"",""trial"",""time""
""fullscreenenter"",""1"",""2177""
","
","","","841.5999999940395","","","10","13367","1463","y","elianto","#f73b6a7A","-1"," ","0","0","[1692.2999999821186]","1","2","","","13367","45","2","4","lose","no-go","1"
"pit-trial","173","1191289","0.0-50.0","battery-v0.2","","""event"",""trial"",""time""
""fullscreenenter"",""1"",""2177""
","
","
","""event"",""trial"",""time""
""fullscreenenter"",""1"",""2177""
","
","","","448.90000000596046","","","10","13367","1463","m","elianto","#f73b6a7A","-1"," ","0","-10","[1300.5,1724.6000000238419,2140.7000000178814,2548.7000000178814,2972.2000000178814]","5","2","","","13367","46","0","4","lose","no-go","0"
"pit-trial","174","1194222","0.0-51.0","battery-v0.2","","""event"",""trial"",""time""
""fullscreenenter"",""1"",""2177""
","
","
","""event"",""trial"",""time""
""fullscreenenter"",""1"",""2177""
","
","","","65.7000000178814","","","10","13367","1463","h","elianto","#f73b6a7A"," "," ","1","-10","[116,915.6999999880791,1364.2999999821186,1787.9000000059605,2219.7999999821186,2595.9000000059605]","6","2","","","13367","47","3","3","lose","go","1"
"pit-trial","175","1197138","0.0-52.0","battery-v0.2","","""event"",""trial"",""time""
""fullscreenenter"",""1"",""2177""
","
","
","""event"",""trial"",""time""
""fullscreenenter"",""1"",""2177""
","
","","","61.099999994039536","","","10","13367","1463","z","elianto","#3366ff99","-1"," ","0","0","[87.30000001192093,503.10000002384186,912,1303.1000000238419,1735.1000000238419,2111.100000023842,2623.2000000178814]","7","2","","","13367","48","4","2","win","no-go","0"
"pit-trial","176","1200051","0.0-53.0","battery-v0.2","","""event"",""trial"",""time""
""fullscreenenter"",""1"",""2177""
","
","
","""event"",""trial"",""time""
""fullscreenenter"",""1"",""2177""
","
","","","47.900000005960464","","","10","13367","1463","z","elianto","#3366ff99","-1"," ","0","0","[146.89999997615814,507,899.0999999940395,1859.199999988079,2283.0999999940395,2675.0999999940395]","6","2","","","13367","49","4","2","win","no-go","0"
"pit-trial","177","1203064","0.0-54.0","battery-v0.2","","""event"",""trial"",""time""
""fullscreenenter"",""1"",""2177""
","
","
","""event"",""trial"",""time""
""fullscreenenter"",""1"",""2177""
","
","","","159.5","","","10","13367","1463","r","elianto","#3366ff99"," "," ","1","+10","[177.60000002384186,601.6000000238419,1009.5,1457.5,1930]","5","2","","","13367","50","1","1","win","go","0"
"pit-trial","178","1206385","0.0-55.0","battery-v0.2","","""event"",""trial"",""time""
""fullscreenenter"",""1"",""2177""
","
","
","""event"",""trial"",""time""
""fullscreenenter"",""1"",""2177""
","
","","","465.69999998807907","","","10","13367","1463","h","elianto","#f73b6a7A"," "," ","1","0","[1317.199999988079]","1","2","","","13367","51","3","3","lose","go","0"
"pit-trial","179","1209641","0.0-56.0","battery-v0.2","","""event"",""trial"",""time""
""fullscreenenter"",""1"",""2177""
","
","
","""event"",""trial"",""time""
""fullscreenenter"",""1"",""2177""
","
","","","400.7999999821186","","","10","13367","1463","m","elianto","#f73b6a7A","-1"," ","0","-10","[1251.7999999821186,2188.199999988079,2931.9000000059605]","3","2","","","13367","52","0","4","lose","no-go","0"
"pit-trial","180","1213089","0.0-57.0","battery-v0.2","","""event"",""trial"",""time""
""fullscreenenter"",""1"",""2177""
","
","
","""event"",""trial"",""time""
""fullscreenenter"",""1"",""2177""
","
","","","593.5","","","10","13367","1463","m","elianto","#f73b6a7A","-1"," ","0","-10","[298.90000000596046,1444.4000000059605]","2","2","","","13367","53","0","4","lose","no-go","0"
"pit-trial","181","1216128","0.0-58.0","battery-v0.2","","""event"",""trial"",""time""
""fullscreenenter"",""1"",""2177""
","
","
","""event"",""trial"",""time""
""fullscreenenter"",""1"",""2177""
","
","","","185.10000002384186","","","10","13367","1463","z","elianto","#3366ff99","-1"," ","0","0","[1035.300000011921]","1","2","","","13367","54","4","2","win","no-go","0"
"pit-trial","182","1219418","0.0-59.0","battery-v0.2","","""event"",""trial"",""time""
""fullscreenenter"",""1"",""2177""
","
","
","""event"",""trial"",""time""
""fullscreenenter"",""1"",""2177""
","
","","","434.90000000596046","","","10","13367","1463","y","elianto","#f73b6a7A","-1"," ","0","-10","[1285.699999988079]","1","2","","","13367","55","2","4","lose","no-go","0"
"pit-trial","183","1222968","0.0-60.0","battery-v0.2","","""event"",""trial"",""time""
""fullscreenenter"",""1"",""2177""
","
","
","""event"",""trial"",""time""
""fullscreenenter"",""1"",""2177""
","
","","","695.8000000119209","","","10","13367","1463","r","elianto","#3366ff99"," "," ","1","0","[395.19999998807907,1546.2999999821186,2106.5,2690.5,3186.2999999821186]","5","2","","","13367","56","1","1","win","go","1"
"pit-trial","184","1226072","0.0-61.0","battery-v0.2","","""event"",""trial"",""time""
""fullscreenenter"",""1"",""2177""
","
","
","""event"",""trial"",""time""
""fullscreenenter"",""1"",""2177""
","
","","","248","","","10","13367","1463","r","elianto","#3366ff99"," "," ","1","+10","[115.90000000596046,587.9000000059605,1099.800000011921,1492.7000000178814,1940.6000000238419,2364.600000023842,2812.7000000178814]","7","2","","","13367","57","1","1","win","go","0"
"pit-trial","185","1229538","0.0-62.0","battery-v0.2","","""event"",""trial"",""time""
""fullscreenenter"",""1"",""2177""
","
","
","""event"",""trial"",""time""
""fullscreenenter"",""1"",""2177""
","
","","","610.0999999940395","","","10","13367","1463","z","elianto","#3366ff99","-1"," ","0","0","[163.7999999821186,772.5,1460.699999988079,3108.5]","4","2","","","13367","58","4","2","win","no-go","0"
"pit-trial","186","1232824","0.0-63.0","battery-v0.2","","""event"",""trial"",""time""
""fullscreenenter"",""1"",""2177""
","
","
","""event"",""trial"",""time""
""fullscreenenter"",""1"",""2177""
","
","","","432.19999998807907","","","10","13367","1463","m","elianto","#f73b6a7A","-1"," ","0","-10","[394.5,1282.3999999761581,1874.5,2562.5,3203]","5","2","","","13367","59","0","4","lose","no-go","0"
"pit-trial","187","1236161","0.0-64.0","battery-v0.2","","""event"",""trial"",""time""
""fullscreenenter"",""1"",""2177""
","
","
","""event"",""trial"",""time""
""fullscreenenter"",""1"",""2177""
","
","","","482.90000000596046","","","10","13367","1463","h","elianto","#f73b6a7A"," "," ","1","-10","[1333,2140.9000000059605,2876.7999999821186]","3","2","","","13367","60","3","3","lose","go","1"
"pit-trial","188","1239019","0.0-65.0","battery-v0.2","","""event"",""trial"",""time""
""fullscreenenter"",""1"",""2177""
","
","
","""event"",""trial"",""time""
""fullscreenenter"",""1"",""2177""
","
","","","3.5999999940395355","","","10","13367","1463","y","elianto","#f73b6a7A","-1"," ","0","-10","[147.19999998807907,853.6999999880791,1644.199999988079,2331.699999988079]","4","2","","","13367","61","2","4","lose","no-go","0"
"pit-trial","189","1242129","0.0-66.0","battery-v0.2","","""event"",""trial"",""time""
""fullscreenenter"",""1"",""2177""
","
","
","""event"",""trial"",""time""
""fullscreenenter"",""1"",""2177""
","
","","","255","","","10","13367","1463","h","elianto","#f73b6a7A"," "," ","1","0","[185.40000000596046,1105.5,1873.9000000059605,2697.9000000059605]","4","2","","","13367","62","3","3","lose","go","0"
"pit-trial","190","1245655","0.0-67.0","battery-v0.2","","""event"",""trial"",""time""
""fullscreenenter"",""1"",""2177""
","
","
","""event"",""trial"",""time""
""fullscreenenter"",""1"",""2177""
","
","","","672.5999999940395","","","10","13367","1463","r","elianto","#3366ff99"," "," ","1","+10","[555.1999999880791,1523.199999988079,1835.699999988079]","3","2","","","13367","63","1","1","win","go","0"
"pit-trial","191","1249752","0.0-68.0","battery-v0.2","","""event"",""trial"",""time""
""fullscreenenter"",""1"",""2177""
","
","
","""event"",""trial"",""time""
""fullscreenenter"",""1"",""2177""
","
","","","1243","","","10","13367","1463","z","elianto","#3366ff99","-1"," ","0","0","[2093.4000000059605]","1","2","","","13367","64","4","2","win","no-go","0"
"pit-trial","192","1254607","0.0-69.0","battery-v0.2","","""event"",""trial"",""time""
""fullscreenenter"",""1"",""2177""
","
","
","""event"",""trial"",""time""
""fullscreenenter"",""1"",""2177""
","
","","","-1","","","10","13367","1463","h","elianto","#f73b6a7A"," ","-1","0","-10","[]","0","2","","","13367","65","3","3","lose","go","0"
"pit-trial","193","1259462","0.0-70.0","battery-v0.2","","""event"",""trial"",""time""
""fullscreenenter"",""1"",""2177""
","
","
","""event"",""trial"",""time""
""fullscreenenter"",""1"",""2177""
","
","","","-1","","","10","13367","1463","r","elianto","#3366ff99"," ","-1","0","0","[]","0","2","","","13367","66","1","1","win","go","0"
"pit-trial","194","1264319","0.0-71.0","battery-v0.2","","""event"",""trial"",""time""
""fullscreenenter"",""1"",""2177""
","
","
","""event"",""trial"",""time""
""fullscreenenter"",""1"",""2177""
","
","","","-1","","","10","13367","1463","z","elianto","#3366ff99","-1","-1","1","+10","[]","0","2","","","13367","67","4","2","win","no-go","0"
"pit-trial","195","1267905","0.0-72.0","battery-v0.2","","""event"",""trial"",""time""
""fullscreenenter"",""1"",""2177""
","
","
","""event"",""trial"",""time""
""fullscreenenter"",""1"",""2177""
","
","","","731.8999999761581","","","10","13367","1463","y","elianto","#f73b6a7A","-1"," ","0","-10","[1582.3999999761581]","1","2","","","13367","68","2","4","lose","no-go","0"
"pit-trial","196","1272761","0.0-73.0","battery-v0.2","","""event"",""trial"",""time""
""fullscreenenter"",""1"",""2177""
","
","
","""event"",""trial"",""time""
""fullscreenenter"",""1"",""2177""
","
","","","-1","","","10","13367","1463","r","elianto","#3366ff99"," ","-1","0","+10","[]","0","2","","","13367","69","1","1","win","go","1"
"pit-trial","197","1276105","0.0-74.0","battery-v0.2","","""event"",""trial"",""time""
""fullscreenenter"",""1"",""2177""
","
","
","""event"",""trial"",""time""
""fullscreenenter"",""1"",""2177""
","
","","","489","","","10","13367","1463","z","elianto","#3366ff99","-1"," ","0","0","[1339.4000000059605]","1","2","","","13367","70","4","2","win","no-go","0"
"pit-trial","198","1280960","0.0-75.0","battery-v0.2","","""event"",""trial"",""time""
""fullscreenenter"",""1"",""2177""
","
","
","""event"",""trial"",""time""
""fullscreenenter"",""1"",""2177""
","
","","","-1","","","10","13367","1463","c","elianto","#3366ff99"," ","-1","0","0","[]","0","2","","","13367","71","5","1","win","go","0"
"pit-trial","199","1284256","0.0-76.0","battery-v0.2","","""event"",""trial"",""time""
""fullscreenenter"",""1"",""2177""
","
","
","""event"",""trial"",""time""
""fullscreenenter"",""1"",""2177""
","
","","","444.7999999821186","","","10","13367","1463","h","elianto","#f73b6a7A"," "," ","1","-10","[1295.2999999821186]","1","2","","","13367","72","3","3","lose","go","1"
"pit-trial","200","1287736","0.0-77.0","battery-v0.2","","""event"",""trial"",""time""
""fullscreenenter"",""1"",""2177""
","
","
","""event"",""trial"",""time""
""fullscreenenter"",""1"",""2177""
","
","","","624.9000000059605","","","10","13367","1463","z","elianto","#3366ff99","-1"," ","0","+10","[1475.800000011921]","1","2","","","13367","73","4","2","win","no-go","1"
"pit-trial","201","1291730","0.0-78.0","battery-v0.2","","""event"",""trial"",""time""
""fullscreenenter"",""1"",""2177""
","
","
","""event"",""trial"",""time""
""fullscreenenter"",""1"",""2177""
","
","","","1138.9000000059605","","","10","13367","1463","c","elianto","#3366ff99"," "," ","1","+10","[1989.2000000178814]","1","2","","","13367","74","5","1","win","go","0"
"pit-trial","202","1296585","0.0-79.0","battery-v0.2","","""event"",""trial"",""time""
""fullscreenenter"",""1"",""2177""
","
","
","""event"",""trial"",""time""
""fullscreenenter"",""1"",""2177""
","
","","","-1","","","10","13367","1463","h","elianto","#f73b6a7A"," ","-1","0","-10","[]","0","2","","","13367","75","3","3","lose","go","0"
"pit-trial","203","1300346","0.0-80.0","battery-v0.2","","""event"",""trial"",""time""
""fullscreenenter"",""1"",""2177""
","
","
","""event"",""trial"",""time""
""fullscreenenter"",""1"",""2177""
","
","","","905","","","10","13367","1463","r","elianto","#3366ff99"," "," ","1","0","[1755.9000000059605]","1","2","","","13367","76","1","1","win","go","1"
"pit-trial","204","1303249","0.0-81.0","battery-v0.2","","""event"",""trial"",""time""
""fullscreenenter"",""1"",""2177""
","
","
","""event"",""trial"",""time""
""fullscreenenter"",""1"",""2177""
","
","","","48.5","","","10","13367","1463","h","elianto","#f73b6a7A"," "," ","1","0","[898.8999999761581]","1","2","","","13367","77","3","3","lose","go","0"
"pit-trial","205","1308111","0.0-82.0","battery-v0.2","","""event"",""trial"",""time""
""fullscreenenter"",""1"",""2177""
","
","
","""event"",""trial"",""time""
""fullscreenenter"",""1"",""2177""
","
","","","-1","","","10","13367","1463","z","elianto","#3366ff99","-1","-1","1","+10","[]","0","2","","","13367","78","4","2","win","no-go","0"
"pit-trial","206","1312975","0.0-83.0","battery-v0.2","","""event"",""trial"",""time""
""fullscreenenter"",""1"",""2177""
","
","
","""event"",""trial"",""time""
""fullscreenenter"",""1"",""2177""
","
","","","-1","","","10","13367","1463","c","elianto","#3366ff99"," ","-1","0","0","[]","0","2","","","13367","79","5","1","win","go","0"
"pit-trial","207","1317698","0.0-84.0","battery-v0.2","","""event"",""trial"",""time""
""fullscreenenter"",""1"",""2177""
","
","
","""event"",""trial"",""time""
""fullscreenenter"",""1"",""2177""
","
","","","1866.699999988079","","","10","13367","1463","b","elianto","#f73b6a7A","-1"," ","0","-10","[2718.300000011921]","1","2","","","13367","80","6","4","lose","no-go","0"
"pit-trial","208","1322554","0.0-85.0","battery-v0.2","","""event"",""trial"",""time""
""fullscreenenter"",""1"",""2177""
","
","
","""event"",""trial"",""time""
""fullscreenenter"",""1"",""2177""
","
","","","-1","","","10","13367","1463","t","elianto","#f73b6a7A"," ","-1","0","-10","[]","0","2","","","13367","81","7","3","lose","go","0"
"pit-trial","209","1327409","0.0-86.0","battery-v0.2","","""event"",""trial"",""time""
""fullscreenenter"",""1"",""2177""
","
","
","""event"",""trial"",""time""
""fullscreenenter"",""1"",""2177""
","
","","","-1","","","10","13367","1463","z","elianto","#3366ff99","-1","-1","1","+10","[]","0","2","","","13367","82","4","2","win","no-go","0"
"pit-trial","210","1331203","0.0-87.0","battery-v0.2","","""event"",""trial"",""time""
""fullscreenenter"",""1"",""2177""
","
","
","""event"",""trial"",""time""
""fullscreenenter"",""1"",""2177""
","
","","","938","","","10","13367","1463","b","elianto","#f73b6a7A","-1"," ","0","-10","[1788.199999988079,2491.9000000059605,2939.9000000059605,3348]","4","2","","","13367","83","6","4","lose","no-go","0"
"pit-trial","211","1334081","0.0-88.0","battery-v0.2","","""event"",""trial"",""time""
""fullscreenenter"",""1"",""2177""
","
","
","""event"",""trial"",""time""
""fullscreenenter"",""1"",""2177""
","
","","","24.600000023841858","","","10","13367","1463","c","elianto","#3366ff99"," "," ","1","0","[4.4000000059604645,427.80000001192093,875.5,1315.5,1795.5,2235.4000000059605,2811.600000023842]","7","2","","","13367","84","5","1","win","go","1"
"pit-trial","212","1337313","0.0-89.0","battery-v0.2","","""event"",""trial"",""time""
""fullscreenenter"",""1"",""2177""
","
","
","""event"",""trial"",""time""
""fullscreenenter"",""1"",""2177""
","
","","","377.09999999403954","","","10","13367","1463","b","elianto","#f73b6a7A","-1"," ","0","-10","[1228.2000000178814]","1","2","","","13367","85","6","4","lose","no-go","0"
"pit-trial","213","1340225","0.0-90.0","battery-v0.2","","""event"",""trial"",""time""
""fullscreenenter"",""1"",""2177""
","
","
","""event"",""trial"",""time""
""fullscreenenter"",""1"",""2177""
","
","","","58","","","10","13367","1463","t","elianto","#f73b6a7A"," "," ","1","0","[908.4000000059605]","1","2","","","13367","86","7","3","lose","go","0"
"pit-trial","214","1343890","0.0-91.0","battery-v0.2","","""event"",""trial"",""time""
""fullscreenenter"",""1"",""2177""
","
","
","""event"",""trial"",""time""
""fullscreenenter"",""1"",""2177""
","
","","","810.5","","","10","13367","1463","z","elianto","#3366ff99","-1"," ","0","+10","[1660.7999999821186]","1","2","","","13367","87","4","2","win","no-go","1"
"pit-trial","215","1347386","0.0-92.0","battery-v0.2","","""event"",""trial"",""time""
""fullscreenenter"",""1"",""2177""
","
","
","""event"",""trial"",""time""
""fullscreenenter"",""1"",""2177""
","
","","","638.3000000119209","","","10","13367","1463","c","elianto","#3366ff99"," "," ","1","+10","[1491.4000000059605]","1","2","","","13367","88","5","1","win","go","0"
"pit-trial","216","1350641","0.0-93.0","battery-v0.2","","""event"",""trial"",""time""
""fullscreenenter"",""1"",""2177""
","
","
","""event"",""trial"",""time""
""fullscreenenter"",""1"",""2177""
","
","","","401.40000000596046","","","10","13367","1463","t","elianto","#f73b6a7A"," "," ","1","-10","[1251.5999999940395]","1","2","","","13367","89","7","3","lose","go","1"
"pit-trial","217","1353962","0.0-94.0","battery-v0.2","","""event"",""trial"",""time""
""fullscreenenter"",""1"",""2177""
","
","
","""event"",""trial"",""time""
""fullscreenenter"",""1"",""2177""
","
","","","465.89999997615814","","","10","13367","1463","z","elianto","#3366ff99","-1"," ","0","0","[1317.0999999940395]","1","2","","","13367","90","4","2","win","no-go","0"
"pit-trial","218","1357329","0.0-95.0","battery-v0.2","","""event"",""trial"",""time""
""fullscreenenter"",""1"",""2177""
","
","
","""event"",""trial"",""time""
""fullscreenenter"",""1"",""2177""
","
","","","508.69999998807907","","","10","13367","1463","c","elianto","#3366ff99"," "," ","1","0","[1363.4000000059605]","1","2","","","13367","91","5","1","win","go","1"
"pit-trial","219","1360433","0.0-96.0","battery-v0.2","","""event"",""trial"",""time""
""fullscreenenter"",""1"",""2177""
","
","
","""event"",""trial"",""time""
""fullscreenenter"",""1"",""2177""
","
","","","249.10000002384186","","","10","13367","1463","b","elianto","#f73b6a7A","-1"," ","0","-10","[1099.5]","1","2","","","13367","92","6","4","lose","no-go","0"
"pit-trial","220","1364113","0.0-97.0","battery-v0.2","","""event"",""trial"",""time""
""fullscreenenter"",""1"",""2177""
","
","
","""event"",""trial"",""time""
""fullscreenenter"",""1"",""2177""
","
","","","826.1999999880791","","","10","13367","1463","f","elianto","#3366ff99","-1"," ","0","0","[597.8000000119209,1677]","2","2","","","13367","93","8","2","win","no-go","0"
"pit-trial","221","1367370","0.0-98.0","battery-v0.2","","""event"",""trial"",""time""
""fullscreenenter"",""1"",""2177""
","
","
","""event"",""trial"",""time""
""fullscreenenter"",""1"",""2177""
","
","","","402.19999998807907","","","10","13367","1463","c","elianto","#3366ff99"," "," ","1","+10","[1252.5999999940395]","1","2","","","13367","94","5","1","win","go","0"
"pit-trial","222","1370705","0.0-99.0","battery-v0.2","","""event"",""trial"",""time""
""fullscreenenter"",""1"",""2177""
","
","
","""event"",""trial"",""time""
""fullscreenenter"",""1"",""2177""
","
","","","480.5","","","10","13367","1463","b","elianto","#f73b6a7A","-1"," ","0","-10","[1331.5999999940395]","1","2","","","13367","95","6","4","lose","no-go","0"
"pit-trial","223","1374242","0.0-100.0","battery-v0.2","","""event"",""trial"",""time""
""fullscreenenter"",""1"",""2177""
","
","
","""event"",""trial"",""time""
""fullscreenenter"",""1"",""2177""
","
","","","683.2000000178814","","","10","13367","1463","t","elianto","#f73b6a7A"," "," ","1","0","[820.6999999880791,1533.300000011921,2140.699999988079,2644.800000011921,3204.5999999940395]","5","2","","","13367","96","7","3","lose","go","0"
"pit-trial","224","1377674","0.0-101.0","battery-v0.2","","""event"",""trial"",""time""
""fullscreenenter"",""1"",""2177""
","
","
","""event"",""trial"",""time""
""fullscreenenter"",""1"",""2177""
","
","","","576.7000000178814","","","10","13367","1463","t","elianto","#f73b6a7A"," "," ","1","0","[274.59999999403954,850.5999999940395,1427.2999999821186,1971.2999999821186,2659.2999999821186,3187.4000000059605]","6","2","","","13367","97","7","3","lose","go","0"
"pit-trial","225","1380576","0.0-102.0","battery-v0.2","","""event"",""trial"",""time""
""fullscreenenter"",""1"",""2177""
","
","
","""event"",""trial"",""time""
""fullscreenenter"",""1"",""2177""
","
","","","48.30000001192093","","","10","13367","1463","c","elianto","#3366ff99"," "," ","1","+10","[323,899.2000000178814,1474.9000000059605,2067.5999999940395,2659.9000000059605]","5","2","","","13367","98","5","1","win","go","0"
"pit-trial","226","1385064","0.0-103.0","battery-v0.2","","""event"",""trial"",""time""
""fullscreenenter"",""1"",""2177""
","
","
","""event"",""trial"",""time""
""fullscreenenter"",""1"",""2177""
","
","","","1633.699999988079","","","10","13367","1463","b","elianto","#f73b6a7A","-1"," ","0","-10","[395.7999999821186,2484.899999976158]","2","2","","","13367","99","6","4","lose","no-go","0"
"pit-trial","227","1388513","0.0-104.0","battery-v0.2","","""event"",""trial"",""time""
""fullscreenenter"",""1"",""2177""
","
","
","""event"",""trial"",""time""
""fullscreenenter"",""1"",""2177""
","
","","","593.7999999821186","","","10","13367","1463","f","elianto","#3366ff99","-1"," ","0","0","[1444.5999999940395,2124.699999988079,2748.699999988079]","3","2","","","13367","100","8","2","win","no-go","0"
"pit-trial","228","1392017","0.0-105.0","battery-v0.2","","""event"",""trial"",""time""
""fullscreenenter"",""1"",""2177""
","
","
","""event"",""trial"",""time""
""fullscreenenter"",""1"",""2177""
","
","","","649.8000000119209","","","10","13367","1463","c","elianto","#3366ff99"," "," ","1","+10","[4,726.9000000059605,1500,2123.600000023842,2876.800000011921,3500.2000000178814]","6","2","","","13367","101","5","1","win","go","0"
"pit-trial","229","1395321","0.0-106.0","battery-v0.2","","""event"",""trial"",""time""
""fullscreenenter"",""1"",""2177""
","
","
","""event"",""trial"",""time""
""fullscreenenter"",""1"",""2177""
","
","","","449.7999999821186","","","10","13367","1463","f","elianto","#3366ff99","-1"," ","0","0","[660.1999999880791,1300.5999999940395,1924.4000000059605,2580.2999999821186,3004.2999999821186]","5","2","","","13367","102","8","2","win","no-go","0"
"pit-trial","230","1399649","0.0-107.0","battery-v0.2","","""event"",""trial"",""time""
""fullscreenenter"",""1"",""2177""
","
","
","""event"",""trial"",""time""
""fullscreenenter"",""1"",""2177""
","
","","","1472.1000000238419","","","10","13367","1463","n","elianto","#3366ff99","-1"," ","0","+10","[2323.7999999821186]","1","2","","","13367","103","9","2","win","no-go","1"
"pit-trial","231","1403209","0.0-108.0","battery-v0.2","","""event"",""trial"",""time""
""fullscreenenter"",""1"",""2177""
","
","
","""event"",""trial"",""time""
""fullscreenenter"",""1"",""2177""
","
","","","704.8999999761581","","","10","13367","1463","b","elianto","#f73b6a7A","-1"," ","0","-10","[1555.699999988079]","1","2","","","13367","104","6","4","lose","no-go","0"
"pit-trial","232","1406609","0.0-109.0","battery-v0.2","","""event"",""trial"",""time""
""fullscreenenter"",""1"",""2177""
","
","
","""event"",""trial"",""time""
""fullscreenenter"",""1"",""2177""
","
","","","545.7999999821186","","","10","13367","1463","c","elianto","#3366ff99"," "," ","1","0","[1396.2999999821186]","1","2","","","13367","105","5","1","win","go","1"
"pit-trial","233","1409873","0.0-110.0","battery-v0.2","","""event"",""trial"",""time""
""fullscreenenter"",""1"",""2177""
","
","
","""event"",""trial"",""time""
""fullscreenenter"",""1"",""2177""
","
","","","409.2999999821186","","","10","13367","1463","f","elianto","#3366ff99","-1"," ","0","0","[1260.0999999940395]","1","2","","","13367","106","8","2","win","no-go","0"
"pit-trial","234","1413120","0.0-111.0","battery-v0.2","","""event"",""trial"",""time""
""fullscreenenter"",""1"",""2177""
","
","
","""event"",""trial"",""time""
""fullscreenenter"",""1"",""2177""
","
","","","393.5","","","10","13367","1463","b","elianto","#f73b6a7A","-1"," ","0","-10","[1243.699999988079]","1","2","","","13367","107","6","4","lose","no-go","0"
"pit-trial","235","1416103","0.0-112.0","battery-v0.2","","""event"",""trial"",""time""
""fullscreenenter"",""1"",""2177""
","
","
","""event"",""trial"",""time""
""fullscreenenter"",""1"",""2177""
","
","","","129.80000001192093","","","10","13367","1463","n","elianto","#3366ff99","-1"," ","0","0","[980.4000000059605]","1","2","","","13367","108","9","2","win","no-go","0"
"pit-trial","236","1419585","0.0-113.0","battery-v0.2","","""event"",""trial"",""time""
""fullscreenenter"",""1"",""2177""
","
","
","""event"",""trial"",""time""
""fullscreenenter"",""1"",""2177""
","
","","","627.6000000238419","","","10","13367","1463","b","elianto","#f73b6a7A","-1"," ","0","0","[1478.699999988079]","1","2","","","13367","109","6","4","lose","no-go","1"
"pit-trial","237","1424257","0.0-114.0","battery-v0.2","","""event"",""trial"",""time""
""fullscreenenter"",""1"",""2177""
","
","
","""event"",""trial"",""time""
""fullscreenenter"",""1"",""2177""
","
","","","1814.9000000059605","","","10","13367","1463","f","elianto","#3366ff99","-1"," ","0","0","[2667.0999999940395]","1","2","","","13367","110","8","2","win","no-go","0"
"pit-trial","238","1427625","0.0-115.0","battery-v0.2","","""event"",""trial"",""time""
""fullscreenenter"",""1"",""2177""
","
","
","""event"",""trial"",""time""
""fullscreenenter"",""1"",""2177""
","
","","","513","","","10","13367","1463","c","elianto","#3366ff99"," "," ","1","0","[1364]","1","2","","","13367","111","5","1","win","go","1"
"pit-trial","239","1430873","0.0-116.0","battery-v0.2","","""event"",""trial"",""time""
""fullscreenenter"",""1"",""2177""
","
","
","""event"",""trial"",""time""
""fullscreenenter"",""1"",""2177""
","
","","","392.59999999403954","","","10","13367","1463","n","elianto","#3366ff99","-1"," ","0","0","[1243.5999999940395,1819.199999988079,2427.0999999940395,2907.0999999940395]","4","2","","","13367","112","9","2","win","no-go","0"
"pit-trial","240","1433865","0.0-117.0","battery-v0.2","","""event"",""trial"",""time""
""fullscreenenter"",""1"",""2177""
","
","
","""event"",""trial"",""time""
""fullscreenenter"",""1"",""2177""
","
","","","137.69999998807907","","","10","13367","1463","t","elianto","#f73b6a7A"," "," ","1","0","[675.8999999761581,987.7999999821186,1364.8999999761581,1628.7999999821186,2171.899999976158,2404.0999999940395,2731.7999999821186]","7","2","","","13367","113","7","3","lose","go","0"
"pit-trial","241","1436985","0.0-118.0","battery-v0.2","","""event"",""trial"",""time""
""fullscreenenter"",""1"",""2177""
","
","
","""event"",""trial"",""time""
""fullscreenenter"",""1"",""2177""
","
","","","265.5","","","10","13367","1463","c","elianto","#3366ff99"," "," ","1","+10","[35.60000002384186,659.4000000059605,1115.9000000059605,1612.2000000178814,2052.2000000178814,2548,2996]","7","2","","","13367","114","5","1","win","go","0"
"pit-trial","242","1439944","0.0-119.0","battery-v0.2","","""event"",""trial"",""time""
""fullscreenenter"",""1"",""2177""
","
","
","""event"",""trial"",""time""
""fullscreenenter"",""1"",""2177""
","
","","","103.7000000178814","","","10","13367","1463","f","elianto","#3366ff99","-1"," ","0","0","[427.09999999403954,955.0999999940395,1563,2123.5,2635]","5","2","","","13367","115","8","2","win","no-go","0"
"pit-trial","243","1443394","0.0-120.0","battery-v0.2","","""event"",""trial"",""time""
""fullscreenenter"",""1"",""2177""
","
","
","""event"",""trial"",""time""
""fullscreenenter"",""1"",""2177""
","
","","","594.6999999880791","","","10","13367","1463","n","elianto","#3366ff99","-1"," ","0","0","[179.80000001192093,836,1445.4000000059605,2021.5,2612.5]","5","2","","","13367","116","9","2","win","no-go","0"
"pit-trial","244","1446369","0.0-121.0","battery-v0.2","","""event"",""trial"",""time""
""fullscreenenter"",""1"",""2177""
","
","
","""event"",""trial"",""time""
""fullscreenenter"",""1"",""2177""
","
","","","120.40000000596046","","","10","13367","1463","n","elianto","#3366ff99","-1"," ","0","+10","[267.2999999821186,971.2999999821186,1611.2999999821186,2291.199999988079,2899.5]","5","2","","","13367","117","9","2","win","no-go","1"
"pit-trial","245","1449593","0.0-122.0","battery-v0.2","","""event"",""trial"",""time""
""fullscreenenter"",""1"",""2177""
","
","
","""event"",""trial"",""time""
""fullscreenenter"",""1"",""2177""
","
","","","368.7999999821186","","","10","13367","1463","b","elianto","#f73b6a7A","-1"," ","0","-10","[612.4000000059605,1219.9000000059605,1940.300000011921,2597.600000023842]","4","2","","","13367","118","6","4","lose","no-go","0"
"pit-trial","246","1453025","0.0-123.0","battery-v0.2","","""event"",""trial"",""time""
""fullscreenenter"",""1"",""2177""
","
","
","""event"",""trial"",""time""
""fullscreenenter"",""1"",""2177""
","
","","","577.6000000238419","","","10","13367","1463","f","elianto","#3366ff99","-1"," ","0","+10","[68.19999998807907,755.1999999880791,1428,2235.2999999821186,2875.5999999940395]","5","2","","","13367","119","8","2","win","no-go","1"
"pit-trial","247","1456472","0.0-124.0","battery-v0.2","","""event"",""trial"",""time""
""fullscreenenter"",""1"",""2177""
","
","
","""event"",""trial"",""time""
""fullscreenenter"",""1"",""2177""
","
","","","593.7000000178814","","","10","13367","1463","c","elianto","#3366ff99"," "," ","1","+10","[148.09999999403954,740,1444.699999988079,2333.300000011921,2877.300000011921]","5","2","","","13367","120","5","1","win","go","0"
"pit-trial","248","1459912","0.0-125.0","battery-v0.2","","""event"",""trial"",""time""
""fullscreenenter"",""1"",""2177""
","
","
","""event"",""trial"",""time""
""fullscreenenter"",""1"",""2177""
","
","","","585.1999999880791","","","10","13367","1463","c","elianto","#3366ff99"," "," ","1","+10","[188,812.3000000119209,1436.5,2077.0999999940395,2749.9000000059605,3373]","6","2","","","13367","121","5","1","win","go","0"
"pit-trial","249","1463001","0.0-126.0","battery-v0.2","","""event"",""trial"",""time""
""fullscreenenter"",""1"",""2177""
","
","
","""event"",""trial"",""time""
""fullscreenenter"",""1"",""2177""
","
","","","233.60000002384186","","","10","13367","1463","t","elianto","#f73b6a7A"," "," ","1","0","[540.8000000119209,1084.5,1612.4000000059605,2252.2000000178814,2796.4000000059605]","5","2","","","13367","122","7","3","lose","go","0"
"pit-trial","250","1465929","0.0-127.0","battery-v0.2","","""event"",""trial"",""time""
""fullscreenenter"",""1"",""2177""
","
","
","""event"",""trial"",""time""
""fullscreenenter"",""1"",""2177""
","
","","","72.40000000596046","","","10","13367","1463","f","elianto","#3366ff99","-1"," ","0","0","[349.09999999403954,924.8000000119209,1596.5999999940395,2236.5999999940395,2708.5999999940395]","5","2","","","13367","123","8","2","win","no-go","0"
"pit-trial","251","1469145","0.0-128.0","battery-v0.2","","""event"",""trial"",""time""
""fullscreenenter"",""1"",""2177""
","
","
","""event"",""trial"",""time""
""fullscreenenter"",""1"",""2177""
","
","","","358.59999999403954","","","10","13367","1463","n","elianto","#3366ff99","-1"," ","0","0","[441.2000000178814,1209.0999999940395,1834.4000000059605,2440.2000000178814,3080.300000011921]","5","2","","","13367","124","9","2","win","no-go","0"
"pit-trial","252","1472138","0.0-129.0","battery-v0.2","","""event"",""trial"",""time""
""fullscreenenter"",""1"",""2177""
","
","
","""event"",""trial"",""time""
""fullscreenenter"",""1"",""2177""
","
","","","139.30000001192093","","","10","13367","1463","n","elianto","#3366ff99","-1"," ","0","0","[475.40000000596046,989.4000000059605,1724.199999988079,2452.2999999821186,2924.4000000059605]","5","2","","","13367","125","9","2","win","no-go","0"
"pit-trial","253","1475082","0.0-130.0","battery-v0.2","","""event"",""trial"",""time""
""fullscreenenter"",""1"",""2177""
","
","
","""event"",""trial"",""time""
""fullscreenenter"",""1"",""2177""
","
","","","77.7999999821186","","","10","13367","1463","b","elianto","#f73b6a7A","-1"," ","0","-10","[426.10000002384186,939,1443,1953.800000011921,2530.9000000059605]","5","2","","","13367","126","6","4","lose","no-go","0"
"pit-trial","254","1478232","0.0-131.0","battery-v0.2","","""event"",""trial"",""time""
""fullscreenenter"",""1"",""2177""
","
","
","""event"",""trial"",""time""
