"trial_type","trial_index","time_elapsed","internal_node_id","task_version","subject_id","interactions","blur_events","focus_events","fullscreenenter_events","fullscreenexit_events","success","view_history","rt","responses","num_errors","age","subject","participantId","rune","rune_set","hex","correct","choice","accuracy","outcome","keys","total_keys","block","practice","value","sub","trial","stimulus","robot","valence","action","sham"
"pavlovia","0","6","0.0-0.0","battery-v0.2","","""event"",""trial"",""time""
""focus"",""1"",""940""
""fullscreenenter"",""1"",""2266""
","
","""event"",""trial"",""time""
""focus"",""1"",""940""
","""event"",""trial"",""time""
""fullscreenenter"",""1"",""2266""
","
","","","","","","","","","","","","","","","","","","","","","","","","","","",""
"fullscreen","1","3252","0.0-1.0","battery-v0.2","","""event"",""trial"",""time""
""focus"",""1"",""940""
""fullscreenenter"",""1"",""2266""
","
","""event"",""trial"",""time""
""focus"",""1"",""940""
","""event"",""trial"",""time""
""fullscreenenter"",""1"",""2266""
","
","true","","","","","","","","","","","","","","","","","","","","","","","","","",""
"pit-instructions","2","7997","0.0-2.0-0.0","battery-v0.2","","""event"",""trial"",""time""
""focus"",""1"",""940""
""fullscreenenter"",""1"",""2266""
","
","""event"",""trial"",""time""
""focus"",""1"",""940""
","""event"",""trial"",""time""
""fullscreenenter"",""1"",""2266""
","
","","[{""page_index"":0,""viewing_time"":4739.9000000059605}]","4740.4000000059605","","","","","","","","","","","","","","","","","","","","","","","",""
"pit-comprehension","3","10424","0.0-2.0-1.0-0.0","battery-v0.2","","""event"",""trial"",""time""
""focus"",""1"",""940""
""fullscreenenter"",""1"",""2266""
","
","""event"",""trial"",""time""
""focus"",""1"",""940""
","""event"",""trial"",""time""
""fullscreenenter"",""1"",""2266""
","
","","","2422.9000000059605","[""shark""]","0","18","10169","4866","","","","","","","","","","","","","","","","","","",""
"pit-instructions","4","11398","0.0-2.0-1.0-1.0","battery-v0.2","","""event"",""trial"",""time""
""focus"",""1"",""940""
""fullscreenenter"",""1"",""2266""
","
","""event"",""trial"",""time""
""focus"",""1"",""940""
","""event"",""trial"",""time""
""fullscreenenter"",""1"",""2266""
","
","","[{""page_index"":0,""viewing_time"":964.8999999910593}]","965.2999999970198","","","","","","","","","","","","","","","","","","","","","","","",""
"pit-comprehension","5","13443","0.0-2.0-2.0-0.0","battery-v0.2","","""event"",""trial"",""time""
""focus"",""1"",""940""
""fullscreenenter"",""1"",""2266""
","
","""event"",""trial"",""time""
""focus"",""1"",""940""
","""event"",""trial"",""time""
""fullscreenenter"",""1"",""2266""
","
","","","2042.2000000029802","[""tiger""]","0","18","10169","4866","","","","","","","","","","","","","","","","","","",""
"pit-instructions","6","14436","0.0-2.0-2.0-1.0","battery-v0.2","","""event"",""trial"",""time""
""focus"",""1"",""940""
""fullscreenenter"",""1"",""2266""
","
","""event"",""trial"",""time""
""focus"",""1"",""940""
","""event"",""trial"",""time""
""fullscreenenter"",""1"",""2266""
","
","","[{""page_index"":0,""viewing_time"":988.2000000029802}]","988.5","","","","","","","","","","","","","","","","","","","","","","","",""
"pit-instructions","7","114765","0.0-2.0-3.0","battery-v0.2","","""event"",""trial"",""time""
""focus"",""1"",""940""
""fullscreenenter"",""1"",""2266""
","
","""event"",""trial"",""time""
""focus"",""1"",""940""
","""event"",""trial"",""time""
""fullscreenenter"",""1"",""2266""
","
","","[{""page_index"":0,""viewing_time"":8473.5},{""page_index"":1,""viewing_time"":6208.5},{""page_index"":2,""viewing_time"":6520.20000000298},{""page_index"":3,""viewing_time"":6734},{""page_index"":4,""viewing_time"":7085.29999999702},{""page_index"":5,""viewing_time"":5265.399999991059},{""page_index"":6,""viewing_time"":8137},{""page_index"":7,""viewing_time"":8233.70000000298},{""page_index"":8,""viewing_time"":6694.5},{""page_index"":9,""viewing_time"":9686.5},{""page_index"":10,""viewing_time"":7684.9000000059605},{""page_index"":11,""viewing_time"":8575},{""page_index"":12,""viewing_time"":6955.79999999702},{""page_index"":13,""viewing_time"":4072.4000000059605}]","100327.29999999702","","","","","","","","","","","","","","","","","","","","","","","",""
"pit-trial","8","118287","0.0-2.0-4.0-0.0","battery-v0.2","","""event"",""trial"",""time""
""focus"",""1"",""940""
""fullscreenenter"",""1"",""2266""
","
","""event"",""trial"",""time""
""focus"",""1"",""940""
","""event"",""trial"",""time""
""fullscreenenter"",""1"",""2266""
","
","","","645.2000000029802","","","18","10169","4866","&#9784;","elianto","#FFFFF080"," "," ","1","&#10004","[1506.7000000029802]","1","0","0","","","","","","","",""
"pit-trial","9","121581","0.0-2.0-4.1-0.1","battery-v0.2","","""event"",""trial"",""time""
""focus"",""1"",""940""
""fullscreenenter"",""1"",""2266""
","
","""event"",""trial"",""time""
""focus"",""1"",""940""
","""event"",""trial"",""time""
""fullscreenenter"",""1"",""2266""
","
","","","426.90000000596046","","","18","10169","4866","&#9784;","elianto","#FFFFF080"," "," ","1","&#10004","[1286.5999999940395]","1","0","0","","","","","","","",""
"pit-trial","10","124890","0.0-2.0-4.2-0.2","battery-v0.2","","""event"",""trial"",""time""
""focus"",""1"",""940""
""fullscreenenter"",""1"",""2266""
","
","""event"",""trial"",""time""
""focus"",""1"",""940""
","""event"",""trial"",""time""
""fullscreenenter"",""1"",""2266""
","
","","","432.5","","","18","10169","4866","&#9784;","elianto","#FFFFF080"," "," ","1","&#10004","[1297.5]","1","0","0","","","","","","","",""
"pit-trial","11","128219","0.0-2.0-4.3-0.3","battery-v0.2","","""event"",""trial"",""time""
""focus"",""1"",""940""
""fullscreenenter"",""1"",""2266""
","
","""event"",""trial"",""time""
""focus"",""1"",""940""
","""event"",""trial"",""time""
""fullscreenenter"",""1"",""2266""
","
","","","464.40000000596046","","","18","10169","4866","&#9784;","elianto","#FFFFF080"," "," ","1","&#10004","[1317.9000000059605]","1","0","0","","","","","","","",""
"pit-trial","12","131691","0.0-2.0-4.4-0.4","battery-v0.2","","""event"",""trial"",""time""
""focus"",""1"",""940""
""fullscreenenter"",""1"",""2266""
","
","""event"",""trial"",""time""
""focus"",""1"",""940""
","""event"",""trial"",""time""
""fullscreenenter"",""1"",""2266""
","
","","","616.9000000059605","","","18","10169","4866","&#9784;","elianto","#FFFFF080"," "," ","1","&#10004","[1467.8999999910593]","1","0","0","","","","","","","",""
"pit-instructions","13","154054","0.0-2.0-5.0","battery-v0.2","","""event"",""trial"",""time""
""focus"",""1"",""940""
""fullscreenenter"",""1"",""2266""
","
","""event"",""trial"",""time""
""focus"",""1"",""940""
","""event"",""trial"",""time""
""fullscreenenter"",""1"",""2266""
","
","","[{""page_index"":0,""viewing_time"":6351.20000000298},{""page_index"":1,""viewing_time"":5550.4000000059605},{""page_index"":2,""viewing_time"":4610.899999991059},{""page_index"":3,""viewing_time"":5846.79999999702}]","22359.79999999702","","","","","","","","","","","","","","","","","","","","","","","",""
"pit-trial","14","158926","0.0-2.0-6.0-0.0","battery-v0.2","","""event"",""trial"",""time""
""focus"",""1"",""940""
""fullscreenenter"",""1"",""2266""
","
","""event"",""trial"",""time""
""focus"",""1"",""940""
","""event"",""trial"",""time""
""fullscreenenter"",""1"",""2266""
","
","","","-1","","","18","10169","4866","&#9854;","elianto","#FFFFF080","-1","-1","1","&#10004","[]","0","0","1","","","","","","","",""
"pit-trial","15","163793","0.0-2.0-6.1-0.1","battery-v0.2","","""event"",""trial"",""time""
""focus"",""1"",""940""
""fullscreenenter"",""1"",""2266""
","
","""event"",""trial"",""time""
""focus"",""1"",""940""
","""event"",""trial"",""time""
""fullscreenenter"",""1"",""2266""
","
","","","-1","","","18","10169","4866","&#9854;","elianto","#FFFFF080","-1","-1","1","&#10004","[]","0","0","1","","","","","","","",""
"pit-trial","16","168668","0.0-2.0-6.2-0.2","battery-v0.2","","""event"",""trial"",""time""
""focus"",""1"",""940""
""fullscreenenter"",""1"",""2266""
","
","""event"",""trial"",""time""
""focus"",""1"",""940""
","""event"",""trial"",""time""
""fullscreenenter"",""1"",""2266""
","
","","","-1","","","18","10169","4866","&#9854;","elianto","#FFFFF080","-1","-1","1","&#10004","[]","0","0","1","","","","","","","",""
"pit-trial","17","173543","0.0-2.0-6.3-0.3","battery-v0.2","","""event"",""trial"",""time""
""focus"",""1"",""940""
""fullscreenenter"",""1"",""2266""
","
","""event"",""trial"",""time""
""focus"",""1"",""940""
","""event"",""trial"",""time""
""fullscreenenter"",""1"",""2266""
","
","","","-1","","","18","10169","4866","&#9854;","elianto","#FFFFF080","-1","-1","1","&#10004","[]","0","0","1","","","","","","","",""
"pit-trial","18","178418","0.0-2.0-6.4-0.4","battery-v0.2","","""event"",""trial"",""time""
""focus"",""1"",""940""
""fullscreenenter"",""1"",""2266""
","
","""event"",""trial"",""time""
""focus"",""1"",""940""
","""event"",""trial"",""time""
""fullscreenenter"",""1"",""2266""
","
","","","-1","","","18","10169","4866","&#9854;","elianto","#FFFFF080","-1","-1","1","&#10004","[]","0","0","1","","","","","","","",""
"pit-instructions","19","310075","0.0-2.0-7.0","battery-v0.2","","""event"",""trial"",""time""
""focus"",""1"",""940""
""fullscreenenter"",""1"",""2266""
","
","""event"",""trial"",""time""
""focus"",""1"",""940""
","""event"",""trial"",""time""
""fullscreenenter"",""1"",""2266""
","
","","[{""page_index"":0,""viewing_time"":5973.800000011921},{""page_index"":1,""viewing_time"":7037.199999988079},{""page_index"":2,""viewing_time"":6025.600000008941},{""page_index"":3,""viewing_time"":6542.899999991059},{""page_index"":4,""viewing_time"":6586.70000000298},{""page_index"":5,""viewing_time"":6725.20000000298},{""page_index"":6,""viewing_time"":5621.4000000059605},{""page_index"":7,""viewing_time"":9020.59999999404},{""page_index"":8,""viewing_time"":8286.09999999404},{""page_index"":9,""viewing_time"":13784.5},{""page_index"":10,""viewing_time"":8589.90000000596},{""page_index"":11,""viewing_time"":4719.5},{""page_index"":12,""viewing_time"":6840.5999999940395},{""page_index"":13,""viewing_time"":6137.800000011921},{""page_index"":14,""viewing_time"":8055.5},{""page_index"":15,""viewing_time"":6797.5999999940395},{""page_index"":16,""viewing_time"":6810.79999999702},{""page_index"":17,""viewing_time"":8097.79999999702}]","131653.80000001192","","","","","","","","","","","","","","","","","","","","","","","",""
"pit-trial","20","313734","0.0-2.0-8.0-0.0","battery-v0.2","","""event"",""trial"",""time""
""focus"",""1"",""940""
""fullscreenenter"",""1"",""2266""
","
","""event"",""trial"",""time""
""focus"",""1"",""940""
","""event"",""trial"",""time""
""fullscreenenter"",""1"",""2266""
","
","","","795.7000000029802","","","18","10169","4866","&#9776;","elianto","#3366ff99"," "," ","1","+10","[1645.7000000029802]","1","0","1","","","","","","","",""
"pit-trial","21","317336","0.0-2.0-8.0-1.0","battery-v0.2","","""event"",""trial"",""time""
""focus"",""1"",""940""
""fullscreenenter"",""1"",""2266""
","
","""event"",""trial"",""time""
""focus"",""1"",""940""
","""event"",""trial"",""time""
""fullscreenenter"",""1"",""2266""
","
","","","743","","","18","10169","4866","&#9776;","elianto","#3366ff99"," "," ","1","+10","[1597]","1","0","1","","","","","","","",""
"pit-trial","22","320704","0.0-2.0-8.0-2.0","battery-v0.2","","""event"",""trial"",""time""
""focus"",""1"",""940""
""fullscreenenter"",""1"",""2266""
","
","""event"",""trial"",""time""
""focus"",""1"",""940""
","""event"",""trial"",""time""
""fullscreenenter"",""1"",""2266""
","
","","","507.5","","","18","10169","4866","&#9776;","elianto","#3366ff99"," "," ","1","+10","[1358.300000011921]","1","0","1","","","","","","","",""
"pit-trial","23","324106","0.0-2.0-8.0-3.0","battery-v0.2","","""event"",""trial"",""time""
""focus"",""1"",""940""
""fullscreenenter"",""1"",""2266""
","
","""event"",""trial"",""time""
""focus"",""1"",""940""
","""event"",""trial"",""time""
""fullscreenenter"",""1"",""2266""
","
","","","539.5","","","18","10169","4866","&#9776;","elianto","#3366ff99"," "," ","1","0","[1391.2999999970198]","1","0","1","","","","","","","",""
"pit-trial","24","327514","0.0-2.0-8.0-4.0","battery-v0.2","","""event"",""trial"",""time""
""focus"",""1"",""940""
""fullscreenenter"",""1"",""2266""
","
","""event"",""trial"",""time""
""focus"",""1"",""940""
","""event"",""trial"",""time""
""fullscreenenter"",""1"",""2266""
","
","","","551.1999999880791","","","18","10169","4866","&#9776;","elianto","#3366ff99"," "," ","1","+10","[1401.2999999970198]","1","0","1","","","","","","","",""
"pit-trial","25","330813","0.0-2.0-8.1-0.1","battery-v0.2","","""event"",""trial"",""time""
""focus"",""1"",""940""
""fullscreenenter"",""1"",""2266""
","
","""event"",""trial"",""time""
""focus"",""1"",""940""
","""event"",""trial"",""time""
""fullscreenenter"",""1"",""2266""
","
","","","436.5","","","18","10169","4866","&#9776;","elianto","#3366ff99"," "," ","1","+10","[1286.5999999940395]","1","0","1","","","","","","","",""
"pit-trial","26","334069","0.0-2.0-8.1-1.1","battery-v0.2","","""event"",""trial"",""time""
""focus"",""1"",""940""
""fullscreenenter"",""1"",""2266""
","
","""event"",""trial"",""time""
""focus"",""1"",""940""
","""event"",""trial"",""time""
""fullscreenenter"",""1"",""2266""
","
","","","389.59999999403954","","","18","10169","4866","&#9776;","elianto","#3366ff99"," "," ","1","+10","[1240.4000000059605]","1","0","1","","","","","","","",""
"pit-trial","27","337277","0.0-2.0-8.1-2.1","battery-v0.2","","""event"",""trial"",""time""
""focus"",""1"",""940""
""fullscreenenter"",""1"",""2266""
","
","""event"",""trial"",""time""
""focus"",""1"",""940""
","""event"",""trial"",""time""
""fullscreenenter"",""1"",""2266""
","
","","","342.29999999701977","","","18","10169","4866","&#9776;","elianto","#3366ff99"," "," ","1","+10","[1193.5]","1","0","1","","","","","","","",""
"pit-trial","28","340464","0.0-2.0-8.1-3.1","battery-v0.2","","""event"",""trial"",""time""
""focus"",""1"",""940""
""fullscreenenter"",""1"",""2266""
","
","""event"",""trial"",""time""
""focus"",""1"",""940""
","""event"",""trial"",""time""
""fullscreenenter"",""1"",""2266""
","
","","","333.5","","","18","10169","4866","&#9776;","elianto","#3366ff99"," "," ","1","0","[1184.5]","1","0","1","","","","","","","",""
"pit-trial","29","343511","0.0-2.0-8.1-4.1","battery-v0.2","","""event"",""trial"",""time""
""focus"",""1"",""940""
""fullscreenenter"",""1"",""2266""
","
","""event"",""trial"",""time""
""focus"",""1"",""940""
","""event"",""trial"",""time""
""fullscreenenter"",""1"",""2266""
","
","","","192.5","","","18","10169","4866","&#9776;","elianto","#3366ff99"," "," ","1","+10","[1043.0999999940395]","1","0","1","","","","","","","",""
"pit-trial","30","346532","0.0-2.0-8.2-0.2","battery-v0.2","","""event"",""trial"",""time""
""focus"",""1"",""940""
""fullscreenenter"",""1"",""2266""
","
","""event"",""trial"",""time""
""focus"",""1"",""940""
","""event"",""trial"",""time""
""fullscreenenter"",""1"",""2266""
","
","","","166.79999999701977","","","18","10169","4866","&#9776;","elianto","#3366ff99"," "," ","1","+10","[1017.2000000029802,1503.300000011921,1729.300000011921,1930,2109.4000000059605,2239.4000000059605,2518.800000011921,2650.5,2806.800000011921,2955.1000000089407]","10","0","1","","","","","","","",""
"pit-trial","31","349392","0.0-2.0-8.2-1.2","battery-v0.2","","""event"",""trial"",""time""
""focus"",""1"",""940""
""fullscreenenter"",""1"",""2266""
","
","""event"",""trial"",""time""
""focus"",""1"",""940""
","""event"",""trial"",""time""
""fullscreenenter"",""1"",""2266""
","
","","","6.200000002980232","","","18","10169","4866","&#9776;","elianto","#3366ff99"," "," ","1","+10","[121,298.90000000596046,528.7000000029802,676.2000000029802,856.5,1014.4000000059605,1217.9000000059605,1403.4000000059605,1603.9000000059605,1827.6000000089407,2042,2263.800000011921,2468,2715.2000000029802,2851.2000000029802]","15","0","1","","","","","","","",""
"pit-trial","32","352496","0.0-2.0-8.2-2.2","battery-v0.2","","""event"",""trial"",""time""
""focus"",""1"",""940""
""fullscreenenter"",""1"",""2266""
","
","""event"",""trial"",""time""
""focus"",""1"",""940""
","""event"",""trial"",""time""
""fullscreenenter"",""1"",""2266""
","
","","","247.09999999403954","","","18","10169","4866","&#9776;","elianto","#3366ff99"," "," ","1","+10","[196.6000000089407,418.6000000089407,635.2000000029802,829.2000000029802,1099.7000000029802,1273.1000000089407,1472.5,1660.7999999970198,1851.1000000089407,2048.4000000059605,2200.9000000059605,2415.4000000059605,2611.7000000029802,2818.7999999970198,2979.6000000089407]","15","0","1","","","","","","","",""
"pit-trial","33","355355","0.0-2.0-8.2-3.2","battery-v0.2","","""event"",""trial"",""time""
""focus"",""1"",""940""
""fullscreenenter"",""1"",""2266""
","
","""event"",""trial"",""time""
""focus"",""1"",""940""
","""event"",""trial"",""time""
""fullscreenenter"",""1"",""2266""
","
","","","4.399999991059303","","","18","10169","4866","&#9776;","elianto","#3366ff99"," "," ","1","0","[64.29999999701977,265.8999999910593,469.09999999403954,646.8999999910593,854.7999999970198,1046.699999988079,1303.7999999970198,1493.8999999910593,1735.199999988079,1905,2060.2999999970198,2221.699999988079,2427.2999999970198,2614.0999999940395]","14","0","1","","","","","","","",""
"pit-trial","34","359194","0.0-2.0-8.2-4.2","battery-v0.2","","""event"",""trial"",""time""
""focus"",""1"",""940""
""fullscreenenter"",""1"",""2266""
","
","""event"",""trial"",""time""
""focus"",""1"",""940""
","""event"",""trial"",""time""
""fullscreenenter"",""1"",""2266""
","
","","","984.8999999910593","","","18","10169","4866","&#9776;","elianto","#3366ff99"," "," ","1","+10","[144.20000000298023,327.29999999701977,1835.7999999970198]","3","0","1","","","","","","","",""
"call-function","35","359198","0.0-2.0-9.0","battery-v0.2","","""event"",""trial"",""time""
""focus"",""1"",""940""
""fullscreenenter"",""1"",""2266""
","
","""event"",""trial"",""time""
""focus"",""1"",""940""
","""event"",""trial"",""time""
""fullscreenenter"",""1"",""2266""
","
","","","","","","","","","","","","","","","","","","","","","","","","","","",""
"pit-instructions","36","404056","0.0-2.0-10.0","battery-v0.2","","""event"",""trial"",""time""
""focus"",""1"",""940""
""fullscreenenter"",""1"",""2266""
","
","""event"",""trial"",""time""
""focus"",""1"",""940""
","""event"",""trial"",""time""
""fullscreenenter"",""1"",""2266""
","
","","[{""page_index"":0,""viewing_time"":6365.0999999940395},{""page_index"":1,""viewing_time"":6795.5},{""page_index"":2,""viewing_time"":10427.90000000596},{""page_index"":3,""viewing_time"":13656},{""page_index"":4,""viewing_time"":7611.399999991059}]","44856.5","","","","","","","","","","","","","","","","","","","","","","","",""
"pit-trial","37","407597","0.0-2.0-11.0-0.0","battery-v0.2","","""event"",""trial"",""time""
""focus"",""1"",""940""
""fullscreenenter"",""1"",""2266""
","
","""event"",""trial"",""time""
""focus"",""1"",""940""
","""event"",""trial"",""time""
""fullscreenenter"",""1"",""2266""
","
","","","671.6000000089407","","","18","10169","4866","&#9761;","elianto","#3366ff99","-1"," ","0","0","[1522.300000011921]","1","0","2","","","","","","","",""
"pit-trial","38","410803","0.0-2.0-11.0-1.0","battery-v0.2","","""event"",""trial"",""time""
""focus"",""1"",""940""
""fullscreenenter"",""1"",""2266""
","
","""event"",""trial"",""time""
""focus"",""1"",""940""
","""event"",""trial"",""time""
""fullscreenenter"",""1"",""2266""
","
","","","334.1000000089407","","","18","10169","4866","&#9761;","elianto","#3366ff99","-1"," ","0","0","[1189.4000000059605]","1","0","2","","","","","","","",""
"pit-trial","39","413811","0.0-2.0-11.0-2.0","battery-v0.2","","""event"",""trial"",""time""
""focus"",""1"",""940""
""fullscreenenter"",""1"",""2266""
","
","""event"",""trial"",""time""
""focus"",""1"",""940""
","""event"",""trial"",""time""
""fullscreenenter"",""1"",""2266""
","
","","","136.1000000089407","","","18","10169","4866","&#9761;","elianto","#3366ff99","-1"," ","0","0","[995.9000000059605]","1","0","2","","","","","","","",""
"pit-trial","40","417361","0.0-2.0-11.0-3.0","battery-v0.2","","""event"",""trial"",""time""
""focus"",""1"",""940""
""fullscreenenter"",""1"",""2266""
","
","""event"",""trial"",""time""
""focus"",""1"",""940""
","""event"",""trial"",""time""
""fullscreenenter"",""1"",""2266""
","
","","","681.5","","","18","10169","4866","&#9761;","elianto","#3366ff99","-1"," ","0","+10","[1538.7999999970198]","1","0","2","","","","","","","",""
"pit-trial","41","420461","0.0-2.0-11.0-4.0","battery-v0.2","","""event"",""trial"",""time""
""focus"",""1"",""940""
""fullscreenenter"",""1"",""2266""
","
","""event"",""trial"",""time""
""focus"",""1"",""940""
","""event"",""trial"",""time""
""fullscreenenter"",""1"",""2266""
","
","","","240","","","18","10169","4866","&#9761;","elianto","#3366ff99","-1"," ","0","0","[1090.4000000059605]","1","0","2","","","","","","","",""
"pit-trial","42","425329","0.0-2.0-11.1-0.1","battery-v0.2","","""event"",""trial"",""time""
""focus"",""1"",""940""
""fullscreenenter"",""1"",""2266""
","
","""event"",""trial"",""time""
""focus"",""1"",""940""
","""event"",""trial"",""time""
""fullscreenenter"",""1"",""2266""
","
","","","-1","","","18","10169","4866","&#9761;","elianto","#3366ff99","-1","-1","1","+10","[]","0","0","2","","","","","","","",""
"pit-trial","43","430201","0.0-2.0-11.1-1.1","battery-v0.2","","""event"",""trial"",""time""
""focus"",""1"",""940""
""fullscreenenter"",""1"",""2266""
","
","""event"",""trial"",""time""
""focus"",""1"",""940""
","""event"",""trial"",""time""
""fullscreenenter"",""1"",""2266""
","
","","","-1","","","18","10169","4866","&#9761;","elianto","#3366ff99","-1","-1","1","+10","[]","0","0","2","","","","","","","",""
"pit-trial","44","435068","0.0-2.0-11.1-2.1","battery-v0.2","","""event"",""trial"",""time""
""focus"",""1"",""940""
""fullscreenenter"",""1"",""2266""
","
","""event"",""trial"",""time""
""focus"",""1"",""940""
","""event"",""trial"",""time""
""fullscreenenter"",""1"",""2266""
","
","","","-1","","","18","10169","4866","&#9761;","elianto","#3366ff99","-1","-1","1","+10","[]","0","0","2","","","","","","","",""
"pit-trial","45","438334","0.0-2.0-11.1-3.1","battery-v0.2","","""event"",""trial"",""time""
""focus"",""1"",""940""
""fullscreenenter"",""1"",""2266""
","
","""event"",""trial"",""time""
""focus"",""1"",""940""
","""event"",""trial"",""time""
""fullscreenenter"",""1"",""2266""
","
","","","411.5","","","18","10169","4866","&#9761;","elianto","#3366ff99","-1"," ","0","+10","[1263.5]","1","0","2","","","","","","","",""
"pit-trial","46","441489","0.0-2.0-11.1-4.1","battery-v0.2","","""event"",""trial"",""time""
""focus"",""1"",""940""
""fullscreenenter"",""1"",""2266""
","
","""event"",""trial"",""time""
""focus"",""1"",""940""
","""event"",""trial"",""time""
""fullscreenenter"",""1"",""2266""
","
","","","299.29999999701977","","","18","10169","4866","&#9761;","elianto","#3366ff99","-1"," ","0","0","[1150.7999999970198]","1","0","2","","","","","","","",""
"pit-trial","47","446343","0.0-2.0-11.2-0.2","battery-v0.2","","""event"",""trial"",""time""
""focus"",""1"",""940""
""fullscreenenter"",""1"",""2266""
","
","""event"",""trial"",""time""
""focus"",""1"",""940""
","""event"",""trial"",""time""
""fullscreenenter"",""1"",""2266""
","
","","","-1","","","18","10169","4866","&#9761;","elianto","#3366ff99","-1","-1","1","+10","[]","0","0","2","","","","","","","",""
"pit-trial","48","451197","0.0-2.0-11.2-1.2","battery-v0.2","","""event"",""trial"",""time""
""focus"",""1"",""940""
""fullscreenenter"",""1"",""2266""
","
","""event"",""trial"",""time""
""focus"",""1"",""940""
","""event"",""trial"",""time""
""fullscreenenter"",""1"",""2266""
","
","","","-1","","","18","10169","4866","&#9761;","elianto","#3366ff99","-1","-1","1","+10","[]","0","0","2","","","","","","","",""
"pit-trial","49","456058","0.0-2.0-11.2-2.2","battery-v0.2","","""event"",""trial"",""time""
""focus"",""1"",""940""
""fullscreenenter"",""1"",""2266""
","
","""event"",""trial"",""time""
""focus"",""1"",""940""
","""event"",""trial"",""time""
""fullscreenenter"",""1"",""2266""
","
","","","-1","","","18","10169","4866","&#9761;","elianto","#3366ff99","-1","-1","1","+10","[]","0","0","2","","","","","","","",""
"pit-trial","50","460910","0.0-2.0-11.2-3.2","battery-v0.2","","""event"",""trial"",""time""
""focus"",""1"",""940""
""fullscreenenter"",""1"",""2266""
","
","""event"",""trial"",""time""
""focus"",""1"",""940""
","""event"",""trial"",""time""
""fullscreenenter"",""1"",""2266""
","
","","","-1","","","18","10169","4866","&#9761;","elianto","#3366ff99","-1","-1","1","0","[]","0","0","2","","","","","","","",""
"pit-trial","51","465765","0.0-2.0-11.2-4.2","battery-v0.2","","""event"",""trial"",""time""
""focus"",""1"",""940""
""fullscreenenter"",""1"",""2266""
","
","""event"",""trial"",""time""
""focus"",""1"",""940""
","""event"",""trial"",""time""
""fullscreenenter"",""1"",""2266""
","
","","","-1","","","18","10169","4866","&#9761;","elianto","#3366ff99","-1","-1","1","+10","[]","0","0","2","","","","","","","",""
"pit-trial","52","470619","0.0-2.0-11.3-0.3","battery-v0.2","","""event"",""trial"",""time""
""focus"",""1"",""940""
""fullscreenenter"",""1"",""2266""
","
","""event"",""trial"",""time""
""focus"",""1"",""940""
","""event"",""trial"",""time""
""fullscreenenter"",""1"",""2266""
","
","","","-1","","","18","10169","4866","&#9761;","elianto","#3366ff99","-1","-1","1","+10","[]","0","0","2","","","","","","","",""
"pit-trial","53","475473","0.0-2.0-11.3-1.3","battery-v0.2","","""event"",""trial"",""time""
""focus"",""1"",""940""
""fullscreenenter"",""1"",""2266""
","
","""event"",""trial"",""time""
""focus"",""1"",""940""
","""event"",""trial"",""time""
""fullscreenenter"",""1"",""2266""
","
","","","-1","","","18","10169","4866","&#9761;","elianto","#3366ff99","-1","-1","1","+10","[]","0","0","2","","","","","","","",""
"pit-trial","54","480327","0.0-2.0-11.3-2.3","battery-v0.2","","""event"",""trial"",""time""
""focus"",""1"",""940""
""fullscreenenter"",""1"",""2266""
","
","""event"",""trial"",""time""
""focus"",""1"",""940""
","""event"",""trial"",""time""
""fullscreenenter"",""1"",""2266""
","
","","","-1","","","18","10169","4866","&#9761;","elianto","#3366ff99","-1","-1","1","+10","[]","0","0","2","","","","","","","",""
"pit-trial","55","485182","0.0-2.0-11.3-3.3","battery-v0.2","","""event"",""trial"",""time""
""focus"",""1"",""940""
""fullscreenenter"",""1"",""2266""
","
","""event"",""trial"",""time""
""focus"",""1"",""940""
","""event"",""trial"",""time""
""fullscreenenter"",""1"",""2266""
","
","","","-1","","","18","10169","4866","&#9761;","elianto","#3366ff99","-1","-1","1","0","[]","0","0","2","","","","","","","",""
"pit-trial","56","490036","0.0-2.0-11.3-4.3","battery-v0.2","","""event"",""trial"",""time""
""focus"",""1"",""940""
""fullscreenenter"",""1"",""2266""
","
","""event"",""trial"",""time""
""focus"",""1"",""940""
","""event"",""trial"",""time""
""fullscreenenter"",""1"",""2266""
","
","","","-1","","","18","10169","4866","&#9761;","elianto","#3366ff99","-1","-1","1","+10","[]","0","0","2","","","","","","","",""
"call-function","57","490039","0.0-2.0-12.0","battery-v0.2","","""event"",""trial"",""time""
""focus"",""1"",""940""
""fullscreenenter"",""1"",""2266""
","
","""event"",""trial"",""time""
""focus"",""1"",""940""
","""event"",""trial"",""time""
""fullscreenenter"",""1"",""2266""
","
","","","","","","","","","","","","","","","","","","","","","","","","","","",""
"pit-instructions","58","529080","0.0-2.0-13.0","battery-v0.2","","""event"",""trial"",""time""
""focus"",""1"",""940""
""fullscreenenter"",""1"",""2266""
","
","""event"",""trial"",""time""
""focus"",""1"",""940""
","""event"",""trial"",""time""
""fullscreenenter"",""1"",""2266""
","
","","[{""page_index"":0,""viewing_time"":6415.5999999940395},{""page_index"":1,""viewing_time"":12204.60000000894},{""page_index"":2,""viewing_time"":3937},{""page_index"":3,""viewing_time"":11175.79999999702},{""page_index"":4,""viewing_time"":5305.5}]","39039","","","","","","","","","","","","","","","","","","","","","","","",""
"pit-trial","59","532896","0.0-2.0-14.0-0.0","battery-v0.2","","""event"",""trial"",""time""
""focus"",""1"",""940""
""fullscreenenter"",""1"",""2266""
","
","""event"",""trial"",""time""
""focus"",""1"",""940""
","""event"",""trial"",""time""
""fullscreenenter"",""1"",""2266""
","
","","","959.2999999970198","","","18","10169","4866","&#9826;","elianto","#f73b6a7A","-1"," ","0","-10","[1809.5]","1","0","3","","","","","","","",""
"pit-trial","60","536160","0.0-2.0-14.0-1.0","battery-v0.2","","""event"",""trial"",""time""
""focus"",""1"",""940""
""fullscreenenter"",""1"",""2266""
","
","""event"",""trial"",""time""
""focus"",""1"",""940""
","""event"",""trial"",""time""
""fullscreenenter"",""1"",""2266""
","
","","","393.70000000298023","","","18","10169","4866","&#9826;","elianto","#f73b6a7A","-1"," ","0","-10","[1248.5999999940395]","1","0","3","","","","","","","",""
"pit-trial","61","541028","0.0-2.0-14.0-2.0","battery-v0.2","","""event"",""trial"",""time""
""focus"",""1"",""940""
""fullscreenenter"",""1"",""2266""
","
","""event"",""trial"",""time""
""focus"",""1"",""940""
","""event"",""trial"",""time""
""fullscreenenter"",""1"",""2266""
","
","","","-1","","","18","10169","4866","&#9826;","elianto","#f73b6a7A","-1","-1","1","0","[]","0","0","3","","","","","","","",""
"pit-trial","62","545897","0.0-2.0-14.0-3.0","battery-v0.2","","""event"",""trial"",""time""
""focus"",""1"",""940""
""fullscreenenter"",""1"",""2266""
","
","""event"",""trial"",""time""
""focus"",""1"",""940""
","""event"",""trial"",""time""
""fullscreenenter"",""1"",""2266""
","
","","","-1","","","18","10169","4866","&#9826;","elianto","#f73b6a7A","-1","-1","1","-10","[]","0","0","3","","","","","","","",""
"pit-trial","63","550777","0.0-2.0-14.0-4.0","battery-v0.2","","""event"",""trial"",""time""
""focus"",""1"",""940""
""fullscreenenter"",""1"",""2266""
","
","""event"",""trial"",""time""
""focus"",""1"",""940""
","""event"",""trial"",""time""
""fullscreenenter"",""1"",""2266""
","
","","","-1","","","18","10169","4866","&#9826;","elianto","#f73b6a7A","-1","-1","1","0","[]","0","0","3","","","","","","","",""
"pit-trial","64","555656","0.0-2.0-14.1-0.1","battery-v0.2","","""event"",""trial"",""time""
""focus"",""1"",""940""
""fullscreenenter"",""1"",""2266""
","
","""event"",""trial"",""time""
""focus"",""1"",""940""
","""event"",""trial"",""time""
""fullscreenenter"",""1"",""2266""
","
","","","-1","","","18","10169","4866","&#9826;","elianto","#f73b6a7A","-1","-1","1","0","[]","0","0","3","","","","","","","",""
"pit-trial","65","560523","0.0-2.0-14.1-1.1","battery-v0.2","","""event"",""trial"",""time""
""focus"",""1"",""940""
""fullscreenenter"",""1"",""2266""
","
","""event"",""trial"",""time""
""focus"",""1"",""940""
","""event"",""trial"",""time""
""fullscreenenter"",""1"",""2266""
","
","","","-1","","","18","10169","4866","&#9826;","elianto","#f73b6a7A","-1","-1","1","0","[]","0","0","3","","","","","","","",""
"pit-trial","66","565378","0.0-2.0-14.1-2.1","battery-v0.2","","""event"",""trial"",""time""
""focus"",""1"",""940""
""fullscreenenter"",""1"",""2266""
","
","""event"",""trial"",""time""
""focus"",""1"",""940""
","""event"",""trial"",""time""
""fullscreenenter"",""1"",""2266""
","
","","","-1","","","18","10169","4866","&#9826;","elianto","#f73b6a7A","-1","-1","1","0","[]","0","0","3","","","","","","","",""
"pit-trial","67","570231","0.0-2.0-14.1-3.1","battery-v0.2","","""event"",""trial"",""time""
""focus"",""1"",""940""
""fullscreenenter"",""1"",""2266""
","
","""event"",""trial"",""time""
""focus"",""1"",""940""
","""event"",""trial"",""time""
""fullscreenenter"",""1"",""2266""
","
","","","-1","","","18","10169","4866","&#9826;","elianto","#f73b6a7A","-1","-1","1","-10","[]","0","0","3","","","","","","","",""
"pit-trial","68","575087","0.0-2.0-14.1-4.1","battery-v0.2","","""event"",""trial"",""time""
""focus"",""1"",""940""
""fullscreenenter"",""1"",""2266""
","
","""event"",""trial"",""time""
""focus"",""1"",""940""
","""event"",""trial"",""time""
""fullscreenenter"",""1"",""2266""
","
","","","-1","","","18","10169","4866","&#9826;","elianto","#f73b6a7A","-1","-1","1","0","[]","0","0","3","","","","","","","",""
"pit-trial","69","579943","0.0-2.0-14.2-0.2","battery-v0.2","","""event"",""trial"",""time""
""focus"",""1"",""940""
""fullscreenenter"",""1"",""2266""
","
","""event"",""trial"",""time""
""focus"",""1"",""940""
","""event"",""trial"",""time""
""fullscreenenter"",""1"",""2266""
","
","","","-1","","","18","10169","4866","&#9826;","elianto","#f73b6a7A","-1","-1","1","0","[]","0","0","3","","","","","","","",""
"pit-trial","70","584795","0.0-2.0-14.2-1.2","battery-v0.2","","""event"",""trial"",""time""
""focus"",""1"",""940""
""fullscreenenter"",""1"",""2266""
","
","""event"",""trial"",""time""
""focus"",""1"",""940""
","""event"",""trial"",""time""
""fullscreenenter"",""1"",""2266""
","
","","","-1","","","18","10169","4866","&#9826;","elianto","#f73b6a7A","-1","-1","1","0","[]","0","0","3","","","","","","","",""
"pit-trial","71","589649","0.0-2.0-14.2-2.2","battery-v0.2","","""event"",""trial"",""time""
""focus"",""1"",""940""
""fullscreenenter"",""1"",""2266""
","
","""event"",""trial"",""time""
""focus"",""1"",""940""
","""event"",""trial"",""time""
""fullscreenenter"",""1"",""2266""
","
","","","-1","","","18","10169","4866","&#9826;","elianto","#f73b6a7A","-1","-1","1","0","[]","0","0","3","","","","","","","",""
"pit-trial","72","594502","0.0-2.0-14.2-3.2","battery-v0.2","","""event"",""trial"",""time""
""focus"",""1"",""940""
""fullscreenenter"",""1"",""2266""
","
","""event"",""trial"",""time""
""focus"",""1"",""940""
","""event"",""trial"",""time""
""fullscreenenter"",""1"",""2266""
","
","","","-1","","","18","10169","4866","&#9826;","elianto","#f73b6a7A","-1","-1","1","-10","[]","0","0","3","","","","","","","",""
"pit-trial","73","599356","0.0-2.0-14.2-4.2","battery-v0.2","","""event"",""trial"",""time""
""focus"",""1"",""940""
""fullscreenenter"",""1"",""2266""
","
","""event"",""trial"",""time""
""focus"",""1"",""940""
","""event"",""trial"",""time""
""fullscreenenter"",""1"",""2266""
","
","","","-1","","","18","10169","4866","&#9826;","elianto","#f73b6a7A","-1","-1","1","0","[]","0","0","3","","","","","","","",""
"pit-trial","74","604211","0.0-2.0-14.3-0.3","battery-v0.2","","""event"",""trial"",""time""
""focus"",""1"",""940""
""fullscreenenter"",""1"",""2266""
","
","""event"",""trial"",""time""
""focus"",""1"",""940""
","""event"",""trial"",""time""
""fullscreenenter"",""1"",""2266""
","
","","","-1","","","18","10169","4866","&#9826;","elianto","#f73b6a7A","-1","-1","1","0","[]","0","0","3","","","","","","","",""
"pit-trial","75","609064","0.0-2.0-14.3-1.3","battery-v0.2","","""event"",""trial"",""time""
""focus"",""1"",""940""
""fullscreenenter"",""1"",""2266""
","
","""event"",""trial"",""time""
""focus"",""1"",""940""
","""event"",""trial"",""time""
""fullscreenenter"",""1"",""2266""
","
","","","-1","","","18","10169","4866","&#9826;","elianto","#f73b6a7A","-1","-1","1","0","[]","0","0","3","","","","","","","",""
"pit-trial","76","613919","0.0-2.0-14.3-2.3","battery-v0.2","","""event"",""trial"",""time""
""focus"",""1"",""940""
""fullscreenenter"",""1"",""2266""
","
","""event"",""trial"",""time""
""focus"",""1"",""940""
","""event"",""trial"",""time""
""fullscreenenter"",""1"",""2266""
","
","","","-1","","","18","10169","4866","&#9826;","elianto","#f73b6a7A","-1","-1","1","0","[]","0","0","3","","","","","","","",""
"pit-trial","77","618772","0.0-2.0-14.3-3.3","battery-v0.2","","""event"",""trial"",""time""
""focus"",""1"",""940""
""fullscreenenter"",""1"",""2266""
","
","""event"",""trial"",""time""
""focus"",""1"",""940""
","""event"",""trial"",""time""
""fullscreenenter"",""1"",""2266""
","
","","","-1","","","18","10169","4866","&#9826;","elianto","#f73b6a7A","-1","-1","1","-10","[]","0","0","3","","","","","","","",""
"pit-trial","78","623625","0.0-2.0-14.3-4.3","battery-v0.2","","""event"",""trial"",""time""
""focus"",""1"",""940""
""fullscreenenter"",""1"",""2266""
","
","""event"",""trial"",""time""
""focus"",""1"",""940""
","""event"",""trial"",""time""
""fullscreenenter"",""1"",""2266""
","
","","","-1","","","18","10169","4866","&#9826;","elianto","#f73b6a7A","-1","-1","1","0","[]","0","0","3","","","","","","","",""
"call-function","79","623627","0.0-2.0-15.0","battery-v0.2","","""event"",""trial"",""time""
""focus"",""1"",""940""
""fullscreenenter"",""1"",""2266""
","
","""event"",""trial"",""time""
""focus"",""1"",""940""
","""event"",""trial"",""time""
""fullscreenenter"",""1"",""2266""
","
","","","","","","","","","","","","","","","","","","","","","","","","","","",""
"pit-instructions","80","651315","0.0-2.0-16.0","battery-v0.2","","""event"",""trial"",""time""
""focus"",""1"",""940""
""fullscreenenter"",""1"",""2266""
","
","""event"",""trial"",""time""
""focus"",""1"",""940""
","""event"",""trial"",""time""
""fullscreenenter"",""1"",""2266""
","
","","[{""page_index"":0,""viewing_time"":9721.29999999702},{""page_index"":1,""viewing_time"":8512.79999999702},{""page_index"":2,""viewing_time"":4193.79999999702},{""page_index"":3,""viewing_time"":5258.4000000059605}]","27686.69999998808","","","","","","","","","","","","","","","","","","","","","","","",""
"pit-trial","81","654519","0.0-2.0-17.0-0.0","battery-v0.2","","""event"",""trial"",""time""
""focus"",""1"",""940""
""fullscreenenter"",""1"",""2266""
","
","""event"",""trial"",""time""
""focus"",""1"",""940""
","""event"",""trial"",""time""
""fullscreenenter"",""1"",""2266""
","
","","","336.3999999910593","","","18","10169","4866","&#9789;","elianto","#f73b6a7A"," "," ","1","0","[1186.5,1497.5,1699.7000000029802,1898.7999999970198,2102,2303.7999999970198,2664.4000000059605,2858.7999999970198,3062.5999999940395]","9","0","4","","","","","","","",""
"pit-trial","82","657530","0.0-2.0-17.0-1.0","battery-v0.2","","""event"",""trial"",""time""
""focus"",""1"",""940""
""fullscreenenter"",""1"",""2266""
","
","""event"",""trial"",""time""
""focus"",""1"",""940""
","""event"",""trial"",""time""
""fullscreenenter"",""1"",""2266""
","
","","","143.6000000089407","","","18","10169","4866","&#9789;","elianto","#f73b6a7A"," "," ","1","0","[86.90000000596046,772.5,993.7999999970198,1180.0999999940395,1365.9000000059605,1529.2999999970198,1837.9000000059605,2024.7000000029802,2302,2564.4000000059605,2878.9000000059605]","11","0","4","","","","","","","",""
"pit-trial","83","660547","0.0-2.0-17.0-2.0","battery-v0.2","","""event"",""trial"",""time""
""focus"",""1"",""940""
""fullscreenenter"",""1"",""2266""
","
","""event"",""trial"",""time""
""focus"",""1"",""940""
","""event"",""trial"",""time""
""fullscreenenter"",""1"",""2266""
","
","","","156.29999999701977","","","18","10169","4866","&#9789;","elianto","#f73b6a7A"," "," ","1","0","[93.3999999910593,271.59999999403954,504.59999999403954,746.8999999910593,1006.8999999910593,1243.0999999940395,1496.2999999970198,1764.2000000029802,2039.2000000029802,2347,2758,3015.2000000029802]","12","0","4","","","","","","","",""
"pit-trial","84","663590","0.0-2.0-17.0-3.0","battery-v0.2","","""event"",""trial"",""time""
""focus"",""1"",""940""
""fullscreenenter"",""1"",""2266""
","
","""event"",""trial"",""time""
""focus"",""1"",""940""
","""event"",""trial"",""time""
""fullscreenenter"",""1"",""2266""
","
","","","180.09999999403954","","","18","10169","4866","&#9789;","elianto","#f73b6a7A"," "," ","1","-10","[191,380.5,611.4000000059605,832.0999999940395,1035.7999999970198,1221,1423.4000000059605,1635.7999999970198,1852.4000000059605,2040.9000000059605,2243.9000000059605,2471.4000000059605,2736,2960]","14","0","4","","","","","","","",""
"pit-trial","85","666474","0.0-2.0-17.0-4.0","battery-v0.2","","""event"",""trial"",""time""
""focus"",""1"",""940""
""fullscreenenter"",""1"",""2266""
","
","""event"",""trial"",""time""
""focus"",""1"",""940""
","""event"",""trial"",""time""
""fullscreenenter"",""1"",""2266""
","
","","","22.600000008940697","","","18","10169","4866","&#9789;","elianto","#f73b6a7A"," "," ","1","0","[184.6000000089407,430.79999999701977,656.2000000029802,873.5,1083.6000000089407,1281.5,1485.1000000089407,1688.7999999970198,2285.6000000089407,2505.7000000029802,2704.9000000059605]","11","0","4","","","","","","","",""
"pit-trial","86","669474","0.0-2.0-17.1-0.1","battery-v0.2","","""event"",""trial"",""time""
""focus"",""1"",""940""
""fullscreenenter"",""1"",""2266""
","
","""event"",""trial"",""time""
""focus"",""1"",""940""
","""event"",""trial"",""time""
""fullscreenenter"",""1"",""2266""
","
","","","141.90000000596046","","","18","10169","4866","&#9789;","elianto","#f73b6a7A"," "," ","1","0","[89.09999999403954,297.59999999403954,514.7000000029802,760.7999999970198,992.9000000059605,1209.2999999970198,1421,1662.7000000029802,1925.4000000059605,2253.2000000029802,2468.2000000029802,2749.4000000059605]","12","0","4","","","","","","","",""
"pit-trial","87","672366","0.0-2.0-17.1-1.1","battery-v0.2","","""event"",""trial"",""time""
""focus"",""1"",""940""
""fullscreenenter"",""1"",""2266""
","
","""event"",""trial"",""time""
""focus"",""1"",""940""
","""event"",""trial"",""time""
""fullscreenenter"",""1"",""2266""
","
","","","19.5","","","18","10169","4866","&#9789;","elianto","#f73b6a7A"," "," ","1","0","[51.8999999910593,328.29999999701977,635.5,884.5999999940395,1183,1500.0999999940395,1777.8999999910593,2033.5,2370.199999988079,2587.0999999940395,2827.8999999910593]","11","0","4","","","","","","","",""
"pit-trial","88","675398","0.0-2.0-17.1-2.1","battery-v0.2","","""event"",""trial"",""time""
""focus"",""1"",""940""
""fullscreenenter"",""1"",""2266""
","
","""event"",""trial"",""time""
""focus"",""1"",""940""
","""event"",""trial"",""time""
""fullscreenenter"",""1"",""2266""
","
","","","174.70000000298023","","","18","10169","4866","&#9789;","elianto","#f73b6a7A"," "," ","1","0","[197,492.5,777.5,1025.4000000059605,1356.2000000029802,1615.4000000059605,1835.9000000059605,2111.2999999970198,2326.1000000089407,2633.6000000089407,2887.2999999970198]","11","0","4","","","","","","","",""
"pit-trial","89","678588","0.0-2.0-17.1-3.1","battery-v0.2","","""event"",""trial"",""time""
""focus"",""1"",""940""
""fullscreenenter"",""1"",""2266""
","
","""event"",""trial"",""time""
""focus"",""1"",""940""
","""event"",""trial"",""time""
""fullscreenenter"",""1"",""2266""
","
","","","322.59999999403954","","","18","10169","4866","&#9789;","elianto","#f73b6a7A"," "," ","1","-10","[122.40000000596046,324.79999999701977,821.5,1175.4000000059605,1534.9000000059605,1831.5999999940395,2180.0999999940395,2429.0999999940395,2713.2999999970198,3015.7999999970198]","10","0","4","","","","","","","",""
"pit-trial","90","681498","0.0-2.0-17.1-4.1","battery-v0.2","","""event"",""trial"",""time""
""focus"",""1"",""940""
""fullscreenenter"",""1"",""2266""
","
","""event"",""trial"",""time""
""focus"",""1"",""940""
","""event"",""trial"",""time""
""fullscreenenter"",""1"",""2266""
","
","","","55","","","18","10169","4866","&#9789;","elianto","#f73b6a7A"," "," ","1","0","[107.70000000298023,384.6000000089407,640.5,905.5,1137.9000000059605,1325.6000000089407,1574.7999999970198,1790.2000000029802,1995.4000000059605,2290.6000000089407,2490.2999999970198,2689.2000000029802]","12","0","4","","","","","","","",""
"pit-trial","91","684428","0.0-2.0-17.2-0.2","battery-v0.2","","""event"",""trial"",""time""
""focus"",""1"",""940""
""fullscreenenter"",""1"",""2266""
","
","""event"",""trial"",""time""
""focus"",""1"",""940""
","""event"",""trial"",""time""
""fullscreenenter"",""1"",""2266""
","
","","","73.20000000298023","","","18","10169","4866","&#9789;","elianto","#f73b6a7A"," "," ","1","0","[233.29999999701977,477,700.7999999970198,924.5,1118.5999999940395,1333.699999988079,1471.5,1647.7999999970198,1958.2999999970198,2361.5,2610.8999999910593]","11","0","4","","","","","","","",""
"pit-trial","92","687319","0.0-2.0-17.2-1.2","battery-v0.2","","""event"",""trial"",""time""
""focus"",""1"",""940""
""fullscreenenter"",""1"",""2266""
","
","""event"",""trial"",""time""
""focus"",""1"",""940""
","""event"",""trial"",""time""
""fullscreenenter"",""1"",""2266""
","
","","","37.30000001192093","","","18","10169","4866","&#9789;","elianto","#f73b6a7A"," "," ","1","0","[210.8999999910593,586.5999999940395,887.5,1191.8999999910593,1472.2999999970198,1683.8999999910593,1889.0999999940395,2129.8999999910593,2375.3999999910593,2603.2999999970198,2876]","11","0","4","","","","","","","",""
"pit-trial","93","690232","0.0-2.0-17.2-2.2","battery-v0.2","","""event"",""trial"",""time""
""focus"",""1"",""940""
""fullscreenenter"",""1"",""2266""
","
","""event"",""trial"",""time""
""focus"",""1"",""940""
","""event"",""trial"",""time""
""fullscreenenter"",""1"",""2266""
","
","","","59.29999999701977","","","18","10169","4866","&#9789;","elianto","#f73b6a7A"," "," ","1","0","[243.6000000089407,487.40000000596046,718.5,909.9000000059605,1120.2000000029802,1284,1541.4000000059605,1723.6000000089407,2134.9000000059605,2457.5,2652.2999999970198,2909.5]","12","0","4","","","","","","","",""
"pit-trial","94","693298","0.0-2.0-17.2-3.2","battery-v0.2","","""event"",""trial"",""time""
""focus"",""1"",""940""
""fullscreenenter"",""1"",""2266""
","
","""event"",""trial"",""time""
""focus"",""1"",""940""
","""event"",""trial"",""time""
""fullscreenenter"",""1"",""2266""
","
","","","213.5","","","18","10169","4866","&#9789;","elianto","#f73b6a7A"," "," ","1","-10","[410,654.0999999940395,849.2000000029802,1063.7000000029802,1437.2000000029802,1704.5999999940395,1901.2000000029802,2139.5999999940395,2383.7000000029802,2610.5,2834.8999999910593,3058.7999999970198]","12","0","4","","","","","","","",""
"pit-trial","95","696300","0.0-2.0-17.2-4.2","battery-v0.2","","""event"",""trial"",""time""
""focus"",""1"",""940""
""fullscreenenter"",""1"",""2266""
","
","""event"",""trial"",""time""
""focus"",""1"",""940""
","""event"",""trial"",""time""
""fullscreenenter"",""1"",""2266""
","
","","","147.29999999701977","","","18","10169","4866","&#9789;","elianto","#f73b6a7A"," "," ","1","0","[280.20000000298023,525.2000000029802,716,998.7999999970198,1252.7000000029802,1488.7000000029802,1693.8999999910593,1883,2052,2237.3999999910593,2395.2000000029802,2637,2871.3999999910593]","13","0","4","","","","","","","",""
"pit-trial","96","699165","0.0-2.0-17.3-0.3","battery-v0.2","","""event"",""trial"",""time""
""focus"",""1"",""940""
""fullscreenenter"",""1"",""2266""
","
","""event"",""trial"",""time""
""focus"",""1"",""940""
","""event"",""trial"",""time""
""fullscreenenter"",""1"",""2266""
","
","","","8.900000005960464","","","18","10169","4866","&#9789;","elianto","#f73b6a7A"," "," ","1","0","[77.79999999701977,259.09999999403954,494.79999999701977,664.5,859.5,999.2000000029802,1173.0999999940395,1364,1568.0999999940395,1809.5,2003.7000000029802,2163.2000000029802,2361.5999999940395,2557.5,2735.5999999940395]","15","0","4","","","","","","","",""
"pit-trial","97","702174","0.0-2.0-17.3-1.3","battery-v0.2","","""event"",""trial"",""time""
""focus"",""1"",""940""
""fullscreenenter"",""1"",""2266""
","
","""event"",""trial"",""time""
""focus"",""1"",""940""
","""event"",""trial"",""time""
""fullscreenenter"",""1"",""2266""
","
","","","155.3999999910593","","","18","10169","4866","&#9789;","elianto","#f73b6a7A"," "," ","1","0","[42.79999999701977,234.5,416,622.2999999970198,803.5,1005.5999999940395,1210.5999999940395,1398,1579.2999999970198,1781.2000000029802,1977.2000000029802,2174.2000000029802,2374.8999999910593,2563.7000000029802,2768.2000000029802,2951.0999999940395]","16","0","4","","","","","","","",""
"pit-trial","98","705084","0.0-2.0-17.3-2.3","battery-v0.2","","""event"",""trial"",""time""
""focus"",""1"",""940""
""fullscreenenter"",""1"",""2266""
","
","""event"",""trial"",""time""
""focus"",""1"",""940""
","""event"",""trial"",""time""
""fullscreenenter"",""1"",""2266""
","
","","","55.5","","","18","10169","4866","&#9789;","elianto","#f73b6a7A"," "," ","1","0","[153.40000000596046,337.90000000596046,545.7999999970198,724.2000000029802,906.6000000089407,1084.9000000059605,1271.2999999970198,1474.7000000029802,1654,1858.2999999970198,2045.2000000029802,2238.1000000089407,2445.2999999970198,2639,2833.4000000059605]","15","0","4","","","","","","","",""
"pit-trial","99","708048","0.0-2.0-17.3-3.3","battery-v0.2","","""event"",""trial"",""time""
""focus"",""1"",""940""
""fullscreenenter"",""1"",""2266""
","
","""event"",""trial"",""time""
""focus"",""1"",""940""
","""event"",""trial"",""time""
""fullscreenenter"",""1"",""2266""
","
","","","110.79999999701977","","","18","10169","4866","&#9789;","elianto","#f73b6a7A"," "," ","1","-10","[142.30000001192093,366.5,558.4000000059605,754,961.2000000029802,1169.9000000059605,1371.1000000089407,1559.6000000089407,1764,1971.4000000059605,2164.4000000059605,2359.5,2560.5,2770.300000011921]","14","0","4","","","","","","","",""
"pit-trial","100","710989","0.0-2.0-17.3-4.3","battery-v0.2","","""event"",""trial"",""time""
""focus"",""1"",""940""
""fullscreenenter"",""1"",""2266""
","
","""event"",""trial"",""time""
""focus"",""1"",""940""
","""event"",""trial"",""time""
""fullscreenenter"",""1"",""2266""
","
","","","87.29999999701977","","","18","10169","4866","&#9789;","elianto","#f73b6a7A"," "," ","1","0","[4.700000002980232,186.40000000596046,364.20000000298023,568.5,756.5,937.9000000059605,1164.5,1363.9000000059605,1613.800000011921,1817,2019.2000000029802,2229.1000000089407,2428.6000000089407,2844.6000000089407]","14","0","4","","","","","","","",""
"call-function","101","710991","0.0-2.0-18.0","battery-v0.2","","""event"",""trial"",""time""
""focus"",""1"",""940""
""fullscreenenter"",""1"",""2266""
","
","""event"",""trial"",""time""
""focus"",""1"",""940""
","""event"",""trial"",""time""
""fullscreenenter"",""1"",""2266""
","
","","","","","","","","","","","","","","","","","","","","","","","","","","",""
"pit-instructions","102","795336","0.0-2.0-19.0","battery-v0.2","","""event"",""trial"",""time""
""focus"",""1"",""940""
""fullscreenenter"",""1"",""2266""
","
","""event"",""trial"",""time""
""focus"",""1"",""940""
","""event"",""trial"",""time""
""fullscreenenter"",""1"",""2266""
","
","","[{""page_index"":0,""viewing_time"":14205.300000011921},{""page_index"":1,""viewing_time"":8953.79999999702},{""page_index"":2,""viewing_time"":14127.20000000298},{""page_index"":3,""viewing_time"":7450.699999988079},{""page_index"":4,""viewing_time"":8478.70000000298},{""page_index"":5,""viewing_time"":8901.10000000894},{""page_index"":6,""viewing_time"":10970.29999999702},{""page_index"":7,""viewing_time"":7021.70000000298},{""page_index"":8,""viewing_time"":4234.29999999702}]","84343.5","","","","","","","","","","","","","","","","","","","","","","","",""
"pit-comprehension","103","799791","0.0-2.0-20.0-0.0","battery-v0.2","","""event"",""trial"",""time""
""focus"",""1"",""940""
""fullscreenenter"",""1"",""2266""
","
","""event"",""trial"",""time""
""focus"",""1"",""940""
","""event"",""trial"",""time""
""fullscreenenter"",""1"",""2266""
","
","","","4450.79999999702","[""SPACE""]","0","18","10169","4866","","","","","","","","","","","","","","","","","","",""
"pit-instructions","104","802811","0.0-2.0-20.0-1.0","battery-v0.2","","""event"",""trial"",""time""
""focus"",""1"",""940""
""fullscreenenter"",""1"",""2266""
","
","""event"",""trial"",""time""
""focus"",""1"",""940""
","""event"",""trial"",""time""
""fullscreenenter"",""1"",""2266""
","
","","[{""page_index"":0,""viewing_time"":2980.5}]","2980.699999988079","","","","","","","","","","","","","","","","","","","","","","","",""
"pit-comprehension","105","808874","0.0-2.0-21.0-0.0","battery-v0.2","","""event"",""trial"",""time""
""focus"",""1"",""940""
""fullscreenenter"",""1"",""2266""
","
","""event"",""trial"",""time""
""focus"",""1"",""940""
","""event"",""trial"",""time""
""fullscreenenter"",""1"",""2266""
","
","","","6058.4000000059605","[""10""]","0","18","10169","4866","","","","","","","","","","","","","","","","","","",""
"pit-instructions","106","810279","0.0-2.0-21.0-1.0","battery-v0.2","","""event"",""trial"",""time""
""focus"",""1"",""940""
""fullscreenenter"",""1"",""2266""
","
","""event"",""trial"",""time""
""focus"",""1"",""940""
","""event"",""trial"",""time""
""fullscreenenter"",""1"",""2266""
","
","","[{""page_index"":0,""viewing_time"":1371.9000000059605}]","1372.2000000029802","","","","","","","","","","","","","","","","","","","","","","","",""
"pit-comprehension","107","816784","0.0-2.0-22.0-0.0","battery-v0.2","","""event"",""trial"",""time""
""focus"",""1"",""940""
""fullscreenenter"",""1"",""2266""
","
","""event"",""trial"",""time""
""focus"",""1"",""940""
","""event"",""trial"",""time""
""fullscreenenter"",""1"",""2266""
","
","","","6501.29999999702","[""0""]","0","18","10169","4866","","","","","","","","","","","","","","","","","","",""
"pit-instructions","108","818134","0.0-2.0-22.0-1.0","battery-v0.2","","""event"",""trial"",""time""
""focus"",""1"",""940""
""fullscreenenter"",""1"",""2266""
","
","""event"",""trial"",""time""
""focus"",""1"",""940""
","""event"",""trial"",""time""
""fullscreenenter"",""1"",""2266""
","
","","[{""page_index"":0,""viewing_time"":1317}]","1317.300000011921","","","","","","","","","","","","","","","","","","","","","","","",""
"pit-comprehension","109","826492","0.0-2.0-23.0-0.0","battery-v0.2","","""event"",""trial"",""time""
""focus"",""1"",""940""
""fullscreenenter"",""1"",""2266""
","
","""event"",""trial"",""time""
""focus"",""1"",""940""
","""event"",""trial"",""time""
""fullscreenenter"",""1"",""2266""
","
","","","8354.90000000596","[""True""]","0","18","10169","4866","","","","","","","","","","","","","","","","","","",""
"pit-instructions","110","827827","0.0-2.0-23.0-1.0","battery-v0.2","","""event"",""trial"",""time""
""focus"",""1"",""940""
""fullscreenenter"",""1"",""2266""
","
","""event"",""trial"",""time""
""focus"",""1"",""940""
","""event"",""trial"",""time""
""fullscreenenter"",""1"",""2266""
","
","","[{""page_index"":0,""viewing_time"":1300}]","1300.2999999970198","","","","","","","","","","","","","","","","","","","","","","","",""
"pit-comprehension","111","835171","0.0-2.0-24.0-0.0","battery-v0.2","","""event"",""trial"",""time""
""focus"",""1"",""940""
""fullscreenenter"",""1"",""2266""
","
","""event"",""trial"",""time""
""focus"",""1"",""940""
","""event"",""trial"",""time""
""fullscreenenter"",""1"",""2266""
","
","","","7340.5999999940395","[""True""]","0","18","10169","4866","","","","","","","","","","","","","","","","","","",""
"pit-instructions","112","836534","0.0-2.0-24.0-1.0","battery-v0.2","","""event"",""trial"",""time""
""focus"",""1"",""940""
""fullscreenenter"",""1"",""2266""
","
","""event"",""trial"",""time""
""focus"",""1"",""940""
","""event"",""trial"",""time""
""fullscreenenter"",""1"",""2266""
","
","","[{""page_index"":0,""viewing_time"":1330.7999999970198}]","1331.2000000029802","","","","","","","","","","","","","","","","","","","","","","","",""
"pit-comprehension","113","842827","0.0-2.0-25.0-0.0","battery-v0.2","","""event"",""trial"",""time""
""focus"",""1"",""940""
""fullscreenenter"",""1"",""2266""
","
","""event"",""trial"",""time""
""focus"",""1"",""940""
","""event"",""trial"",""time""
""fullscreenenter"",""1"",""2266""
","
","","","6290.20000000298","[""True""]","0","18","10169","4866","","","","","","","","","","","","","","","","","","",""
"pit-instructions","114","844190","0.0-2.0-25.0-1.0","battery-v0.2","","""event"",""trial"",""time""
""focus"",""1"",""940""
""fullscreenenter"",""1"",""2266""
","
","""event"",""trial"",""time""
""focus"",""1"",""940""
","""event"",""trial"",""time""
""fullscreenenter"",""1"",""2266""
","
","","[{""page_index"":0,""viewing_time"":1329.2000000029802}]","1329.5","","","","","","","","","","","","","","","","","","","","","","","",""
"pit-comprehension","115","849022","0.0-2.0-26.0-0.0","battery-v0.2","","""event"",""trial"",""time""
""focus"",""1"",""940""
""fullscreenenter"",""1"",""2266""
","
","""event"",""trial"",""time""
""focus"",""1"",""940""
","""event"",""trial"",""time""
""fullscreenenter"",""1"",""2266""
","
","","","4829.100000008941","[""False""]","0","18","10169","4866","","","","","","","","","","","","","","","","","","",""
"pit-instructions","116","850412","0.0-2.0-26.0-1.0","battery-v0.2","","""event"",""trial"",""time""
""focus"",""1"",""940""
""fullscreenenter"",""1"",""2266""
","
","""event"",""trial"",""time""
""focus"",""1"",""940""
","""event"",""trial"",""time""
""fullscreenenter"",""1"",""2266""
","
","","[{""page_index"":0,""viewing_time"":1356.5}]","1356.7000000029802","","","","","","","","","","","","","","","","","","","","","","","",""
"pit-instructions","117","866642","0.0-3.0","battery-v0.2","","""event"",""trial"",""time""
""focus"",""1"",""940""
""fullscreenenter"",""1"",""2266""
","
","""event"",""trial"",""time""
""focus"",""1"",""940""
","""event"",""trial"",""time""
""fullscreenenter"",""1"",""2266""
","
","","[{""page_index"":0,""viewing_time"":3380.7000000029802},{""page_index"":1,""viewing_time"":5287},{""page_index"":2,""viewing_time"":7560.29999999702}]","16228.29999999702","","","","","","","","","","","","","","","","","","","","","","","",""
"pit-trial","118","870370","0.0-4.0","battery-v0.2","","""event"",""trial"",""time""
""focus"",""1"",""940""
""fullscreenenter"",""1"",""2266""
","
","""event"",""trial"",""time""
""focus"",""1"",""940""
","""event"",""trial"",""time""
""fullscreenenter"",""1"",""2266""
","
","","","866.5999999940395","","","18","10169","4866","&#9730;","elianto","#3366ff99"," "," ","1","+10","[1717.4000000059605]","1","1","","","10169","1","1","1","win","go","0"
"pit-trial","119","873788","0.0-5.0","battery-v0.2","","""event"",""trial"",""time""
""focus"",""1"",""940""
""fullscreenenter"",""1"",""2266""
","
","""event"",""trial"",""time""
""focus"",""1"",""940""
","""event"",""trial"",""time""
""fullscreenenter"",""1"",""2266""
","
","","","557.3999999910593","","","18","10169","4866","&#9728;","elianto","#f73b6a7A","-1"," ","0","0","[1407.5]","1","1","","","10169","2","0","4","lose","no-go","1"
"pit-trial","120","878661","0.0-6.0","battery-v0.2","","""event"",""trial"",""time""
""focus"",""1"",""940""
""fullscreenenter"",""1"",""2266""
","
","""event"",""trial"",""time""
""focus"",""1"",""940""
","""event"",""trial"",""time""
""fullscreenenter"",""1"",""2266""
","
","","","-1","","","18","10169","4866","&#9733;","elianto","#3366ff99","-1","-1","1","0","[]","0","1","","","10169","3","2","2","win","no-go","1"
"pit-trial","121","883542","0.0-7.0","battery-v0.2","","""event"",""trial"",""time""
""focus"",""1"",""940""
""fullscreenenter"",""1"",""2266""
","
","""event"",""trial"",""time""
""focus"",""1"",""940""
","""event"",""trial"",""time""
""fullscreenenter"",""1"",""2266""
","
","","","-1","","","18","10169","4866","&#9752;","elianto","#f73b6a7A"," ","-1","0","-10","[]","0","1","","","10169","4","3","3","lose","go","0"
"pit-trial","122","887391","0.0-8.0","battery-v0.2","","""event"",""trial"",""time""
""focus"",""1"",""940""
""fullscreenenter"",""1"",""2266""
","
","""event"",""trial"",""time""
""focus"",""1"",""940""
","""event"",""trial"",""time""
""fullscreenenter"",""1"",""2266""
","
","","","985.7999999970198","","","18","10169","4866","&#9733;","elianto","#3366ff99","-1"," ","0","0","[1837.8999999910593]","1","1","","","10169","5","2","2","win","no-go","0"
"pit-trial","123","891285","0.0-9.0","battery-v0.2","","""event"",""trial"",""time""
""focus"",""1"",""940""
""fullscreenenter"",""1"",""2266""
","
","""event"",""trial"",""time""
""focus"",""1"",""940""
","""event"",""trial"",""time""
""fullscreenenter"",""1"",""2266""
","
","","","1035.2000000029802","","","18","10169","4866","&#9752;","elianto","#f73b6a7A"," "," ","1","0","[1885.7000000029802]","1","1","","","10169","6","3","3","lose","go","0"
"pit-trial","124","895397","0.0-10.0","battery-v0.2","","""event"",""trial"",""time""
""focus"",""1"",""940""
""fullscreenenter"",""1"",""2266""
","
","""event"",""trial"",""time""
""focus"",""1"",""940""
","""event"",""trial"",""time""
""fullscreenenter"",""1"",""2266""
","
","","","1245.8999999910593","","","18","10169","4866","&#9728;","elianto","#f73b6a7A","-1"," ","0","-10","[2097.0999999940395]","1","1","","","10169","7","0","4","lose","no-go","0"
"pit-trial","125","898879","0.0-11.0","battery-v0.2","","""event"",""trial"",""time""
""focus"",""1"",""940""
""fullscreenenter"",""1"",""2266""
","
","""event"",""trial"",""time""
""focus"",""1"",""940""
","""event"",""trial"",""time""
""fullscreenenter"",""1"",""2266""
","
","","","628","","","18","10169","4866","&#9730;","elianto","#3366ff99"," "," ","1","+10","[1478.6000000089407]","1","1","","","10169","8","1","1","win","go","0"
"pit-trial","126","903732","0.0-12.0","battery-v0.2","","""event"",""trial"",""time""
""focus"",""1"",""940""
""fullscreenenter"",""1"",""2266""
","
","""event"",""trial"",""time""
""focus"",""1"",""940""
","""event"",""trial"",""time""
""fullscreenenter"",""1"",""2266""
","
","","","-1","","","18","10169","4866","&#9733;","elianto","#3366ff99","-1","-1","1","+10","[]","0","1","","","10169","9","2","2","win","no-go","0"
"pit-trial","127","908585","0.0-13.0","battery-v0.2","","""event"",""trial"",""time""
""focus"",""1"",""940""
""fullscreenenter"",""1"",""2266""
","
","""event"",""trial"",""time""
""focus"",""1"",""940""
","""event"",""trial"",""time""
""fullscreenenter"",""1"",""2266""
","
","","","-1","","","18","10169","4866","&#9728;","elianto","#f73b6a7A","-1","-1","1","0","[]","0","1","","","10169","10","0","4","lose","no-go","0"
"pit-trial","128","912253","0.0-14.0","battery-v0.2","","""event"",""trial"",""time""
""focus"",""1"",""940""
""fullscreenenter"",""1"",""2266""
","
","""event"",""trial"",""time""
""focus"",""1"",""940""
","""event"",""trial"",""time""
""fullscreenenter"",""1"",""2266""
","
","","","813","","","18","10169","4866","&#9730;","elianto","#3366ff99"," "," ","1","+10","[1664.4000000059605]","1","1","","","10169","11","1","1","win","go","0"
"pit-trial","129","916610","0.0-15.0","battery-v0.2","","""event"",""trial"",""time""
""focus"",""1"",""940""
""fullscreenenter"",""1"",""2266""
","
","""event"",""trial"",""time""
""focus"",""1"",""940""
","""event"",""trial"",""time""
""fullscreenenter"",""1"",""2266""
","
","","","1501","","","18","10169","4866","&#9752;","elianto","#f73b6a7A"," "," ","1","0","[2352.2999999970198]","1","1","","","10169","12","3","3","lose","go","0"
"pit-trial","130","921464","0.0-16.0","battery-v0.2","","""event"",""trial"",""time""
""focus"",""1"",""940""
""fullscreenenter"",""1"",""2266""
","
","""event"",""trial"",""time""
""focus"",""1"",""940""
","""event"",""trial"",""time""
""fullscreenenter"",""1"",""2266""
","
","","","-1","","","18","10169","4866","&#9728;","elianto","#f73b6a7A","-1","-1","1","-10","[]","0","1","","","10169","13","0","4","lose","no-go","1"
"pit-trial","131","924872","0.0-17.0","battery-v0.2","","""event"",""trial"",""time""
""focus"",""1"",""940""
""fullscreenenter"",""1"",""2266""
","
","""event"",""trial"",""time""
""focus"",""1"",""940""
","""event"",""trial"",""time""
""fullscreenenter"",""1"",""2266""
","
","","","554.2999999970198","","","18","10169","4866","&#9730;","elianto","#3366ff99"," "," ","1","+10","[1405.2000000029802]","1","1","","","10169","14","1","1","win","go","0"
"pit-trial","132","928302","0.0-18.0","battery-v0.2","","""event"",""trial"",""time""
""focus"",""1"",""940""
""fullscreenenter"",""1"",""2266""
","
","""event"",""trial"",""time""
""focus"",""1"",""940""
","""event"",""trial"",""time""
""fullscreenenter"",""1"",""2266""
","
","","","574.4000000059605","","","18","10169","4866","&#9752;","elianto","#f73b6a7A"," "," ","1","-10","[1426.4000000059605]","1","1","","","10169","15","3","3","lose","go","1"
"pit-trial","133","932453","0.0-19.0","battery-v0.2","","""event"",""trial"",""time""
""focus"",""1"",""940""
""fullscreenenter"",""1"",""2266""
","
","""event"",""trial"",""time""
""focus"",""1"",""940""
","""event"",""trial"",""time""
""fullscreenenter"",""1"",""2266""
","
","","","1295.3999999910593","","","18","10169","4866","&#9733;","elianto","#3366ff99","-1"," ","0","0","[2146.3999999910593]","1","1","","","10169","16","2","2","win","no-go","0"
"pit-trial","134","937234","0.0-20.0","battery-v0.2","","""event"",""trial"",""time""
""focus"",""1"",""940""
""fullscreenenter"",""1"",""2266""
","
","""event"",""trial"",""time""
""focus"",""1"",""940""
","""event"",""trial"",""time""
""fullscreenenter"",""1"",""2266""
","
","","","1926.6000000089407","","","18","10169","4866","&#9733;","elianto","#3366ff99","-1"," ","0","0","[2777.3999999910593]","1","1","","","10169","17","2","2","win","no-go","0"
"pit-trial","135","941448","0.0-21.0","battery-v0.2","","""event"",""trial"",""time""
""focus"",""1"",""940""
""fullscreenenter"",""1"",""2266""
","
","""event"",""trial"",""time""
""focus"",""1"",""940""
","""event"",""trial"",""time""
""fullscreenenter"",""1"",""2266""
","
","","","1359.699999988079","","","18","10169","4866","&#9752;","elianto","#f73b6a7A"," "," ","1","0","[2210.699999988079]","1","1","","","10169","18","3","3","lose","go","0"
"pit-trial","136","944936","0.0-22.0","battery-v0.2","","""event"",""trial"",""time""
""focus"",""1"",""940""
""fullscreenenter"",""1"",""2266""
","
","""event"",""trial"",""time""
""focus"",""1"",""940""
","""event"",""trial"",""time""
""fullscreenenter"",""1"",""2266""
","
","","","634.1000000089407","","","18","10169","4866","&#9730;","elianto","#3366ff99"," "," ","1","0","[1484.7000000029802]","1","1","","","10169","19","1","1","win","go","1"
"pit-trial","137","949790","0.0-23.0","battery-v0.2","","""event"",""trial"",""time""
""focus"",""1"",""940""
""fullscreenenter"",""1"",""2266""
","
","""event"",""trial"",""time""
""focus"",""1"",""940""
","""event"",""trial"",""time""
""fullscreenenter"",""1"",""2266""
","
","","","-1","","","18","10169","4866","&#9728;","elianto","#f73b6a7A","-1","-1","1","-10","[]","0","1","","","10169","20","0","4","lose","no-go","1"
"pit-instructions","138","978628","0.0-24.0","battery-v0.2","","""event"",""trial"",""time""
""focus"",""1"",""940""
""fullscreenenter"",""1"",""2266""
","
","""event"",""trial"",""time""
""focus"",""1"",""940""
","""event"",""trial"",""time""
""fullscreenenter"",""1"",""2266""
","
","","[{""page_index"":0,""viewing_time"":21845.60000000894},{""page_index"":1,""viewing_time"":6989.0999999940395}]","28835.10000000894","","","","","","","","","","","","","","","","","","","","","","","",""
"pit-trial","139","982475","0.0-25.0","battery-v0.2","","""event"",""trial"",""time""
""focus"",""1"",""940""
""fullscreenenter"",""1"",""2266""
","
","""event"",""trial"",""time""
""focus"",""1"",""940""
","""event"",""trial"",""time""
""fullscreenenter"",""1"",""2266""
","
","","","986.3000000119209","","","18","10169","4866","r","elianto","#3366ff99"," "," ","1","0","[1840.7000000029802]","1","2","","","10169","21","1","1","win","go","1"
"pit-trial","140","986309","0.0-26.0","battery-v0.2","","""event"",""trial"",""time""
""focus"",""1"",""940""
""fullscreenenter"",""1"",""2266""
","
","""event"",""trial"",""time""
""focus"",""1"",""940""
","""event"",""trial"",""time""
""fullscreenenter"",""1"",""2266""
","
","","","972.2999999970198","","","18","10169","4866","m","elianto","#f73b6a7A","-1"," ","0","-10","[1824.4000000059605]","1","2","","","10169","22","0","4","lose","no-go","0"
"pit-trial","141","990358","0.0-27.0","battery-v0.2","","""event"",""trial"",""time""
""focus"",""1"",""940""
""fullscreenenter"",""1"",""2266""
","
","""event"",""trial"",""time""
""focus"",""1"",""940""
","""event"",""trial"",""time""
""fullscreenenter"",""1"",""2266""
","
","","","1191.2999999970198","","","18","10169","4866","h","elianto","#f73b6a7A"," "," ","1","0","[2041.9000000059605]","1","2","","","10169","23","3","3","lose","go","0"
"pit-trial","142","993895","0.0-28.0","battery-v0.2","","""event"",""trial"",""time""
""focus"",""1"",""940""
""fullscreenenter"",""1"",""2266""
","
","""event"",""trial"",""time""
""focus"",""1"",""940""
","""event"",""trial"",""time""
""fullscreenenter"",""1"",""2266""
","
","","","670.7000000029802","","","18","10169","4866","y","elianto","#f73b6a7A","-1"," ","0","-10","[1521.6000000089407]","1","2","","","10169","24","2","4","lose","no-go","0"
"pit-trial","143","997482","0.0-29.0","battery-v0.2","","""event"",""trial"",""time""
""focus"",""1"",""940""
""fullscreenenter"",""1"",""2266""
","
","""event"",""trial"",""time""
""focus"",""1"",""940""
","""event"",""trial"",""time""
""fullscreenenter"",""1"",""2266""
","
","","","721.5","","","18","10169","4866","h","elianto","#f73b6a7A"," "," ","1","0","[1572.2999999970198]","1","2","","","10169","25","3","3","lose","go","0"
"pit-trial","144","1002353","0.0-30.0","battery-v0.2","","""event"",""trial"",""time""
""focus"",""1"",""940""
""fullscreenenter"",""1"",""2266""
","
","""event"",""trial"",""time""
""focus"",""1"",""940""
","""event"",""trial"",""time""
""fullscreenenter"",""1"",""2266""
","
","","","-1","","","18","10169","4866","m","elianto","#f73b6a7A","-1","-1","1","0","[]","0","2","","","10169","26","0","4","lose","no-go","0"
"pit-trial","145","1006025","0.0-31.0","battery-v0.2","","""event"",""trial"",""time""
""focus"",""1"",""940""
""fullscreenenter"",""1"",""2266""
","
","""event"",""trial"",""time""
""focus"",""1"",""940""
","""event"",""trial"",""time""
""fullscreenenter"",""1"",""2266""
","
","","","816.0999999940395","","","18","10169","4866","r","elianto","#3366ff99"," "," ","1","+10","[1667.2999999970198]","1","2","","","10169","27","1","1","win","go","0"
"pit-trial","146","1010883","0.0-32.0","battery-v0.2","","""event"",""trial"",""time""
""focus"",""1"",""940""
""fullscreenenter"",""1"",""2266""
","
","""event"",""trial"",""time""
""focus"",""1"",""940""
","""event"",""trial"",""time""
""fullscreenenter"",""1"",""2266""
","
","","","-1","","","18","10169","4866","y","elianto","#f73b6a7A","-1","-1","1","0","[]","0","2","","","10169","28","2","4","lose","no-go","0"
"pit-trial","147","1015736","0.0-33.0","battery-v0.2","","""event"",""trial"",""time""
""focus"",""1"",""940""
""fullscreenenter"",""1"",""2266""
","
","""event"",""trial"",""time""
""focus"",""1"",""940""
","""event"",""trial"",""time""
""fullscreenenter"",""1"",""2266""
","
","","","-1","","","18","10169","4866","y","elianto","#f73b6a7A","-1","-1","1","-10","[]","0","2","","","10169","29","2","4","lose","no-go","1"
"pit-trial","148","1020590","0.0-34.0","battery-v0.2","","""event"",""trial"",""time""
""focus"",""1"",""940""
""fullscreenenter"",""1"",""2266""
","
","""event"",""trial"",""time""
""focus"",""1"",""940""
","""event"",""trial"",""time""
""fullscreenenter"",""1"",""2266""
","
","","","-1","","","18","10169","4866","m","elianto","#f73b6a7A","-1","-1","1","-10","[]","0","2","","","10169","30","0","4","lose","no-go","1"
"pit-trial","149","1024325","0.0-35.0","battery-v0.2","","""event"",""trial"",""time""
""focus"",""1"",""940""
""fullscreenenter"",""1"",""2266""
","
","""event"",""trial"",""time""
""focus"",""1"",""940""
","""event"",""trial"",""time""
""fullscreenenter"",""1"",""2266""
","
","","","880.1000000089407","","","18","10169","4866","h","elianto","#f73b6a7A"," "," ","1","0","[1730.699999988079]","1","2","","","10169","31","3","3","lose","go","0"
"pit-trial","150","1027881","0.0-36.0","battery-v0.2","","""event"",""trial"",""time""
""focus"",""1"",""940""
""fullscreenenter"",""1"",""2266""
","
","""event"",""trial"",""time""
""focus"",""1"",""940""
","""event"",""trial"",""time""
""fullscreenenter"",""1"",""2266""
","
","","","702","","","18","10169","4866","r","elianto","#3366ff99"," "," ","1","+10","[1553]","1","2","","","10169","32","1","1","win","go","0"
"pit-trial","151","1031301","0.0-37.0","battery-v0.2","","""event"",""trial"",""time""
""focus"",""1"",""940""
""fullscreenenter"",""1"",""2266""
","
","""event"",""trial"",""time""
""focus"",""1"",""940""
","""event"",""trial"",""time""
""fullscreenenter"",""1"",""2266""
","
","","","563.8000000119209","","","18","10169","4866","r","elianto","#3366ff99"," "," ","1","+10","[1415.5]","1","2","","","10169","33","1","1","win","go","0"
"pit-trial","152","1034902","0.0-38.0","battery-v0.2","","""event"",""trial"",""time""
""focus"",""1"",""940""
""fullscreenenter"",""1"",""2266""
","
","""event"",""trial"",""time""
""focus"",""1"",""940""
","""event"",""trial"",""time""
""fullscreenenter"",""1"",""2266""
","
","","","748","","","18","10169","4866","h","elianto","#f73b6a7A"," "," ","1","0","[1598.5999999940395]","1","2","","","10169","34","3","3","lose","go","0"
"pit-trial","153","1039758","0.0-39.0","battery-v0.2","","""event"",""trial"",""time""
""focus"",""1"",""940""
""fullscreenenter"",""1"",""2266""
","
","""event"",""trial"",""time""
""focus"",""1"",""940""
","""event"",""trial"",""time""
""fullscreenenter"",""1"",""2266""
","
","","","-1","","","18","10169","4866","m","elianto","#f73b6a7A","-1","-1","1","0","[]","0","2","","","10169","35","0","4","lose","no-go","0"
"pit-trial","154","1044613","0.0-40.0","battery-v0.2","","""event"",""trial"",""time""
""focus"",""1"",""940""
""fullscreenenter"",""1"",""2266""
","
","""event"",""trial"",""time""
""focus"",""1"",""940""
","""event"",""trial"",""time""
""fullscreenenter"",""1"",""2266""
","
","","","-1","","","18","10169","4866","y","elianto","#f73b6a7A","-1","-1","1","0","[]","0","2","","","10169","36","2","4","lose","no-go","0"
"pit-trial","155","1048494","0.0-41.0","battery-v0.2","","""event"",""trial"",""time""
""focus"",""1"",""940""
""fullscreenenter"",""1"",""2266""
","
","""event"",""trial"",""time""
""focus"",""1"",""940""
","""event"",""trial"",""time""
""fullscreenenter"",""1"",""2266""
","
","","","1027","","","18","10169","4866","h","elianto","#f73b6a7A"," "," ","1","0","[1878.6000000089407]","1","2","","","10169","37","3","3","lose","go","0"
"pit-trial","156","1053348","0.0-42.0","battery-v0.2","","""event"",""trial"",""time""
""focus"",""1"",""940""
""fullscreenenter"",""1"",""2266""
","
","""event"",""trial"",""time""
""focus"",""1"",""940""
","""event"",""trial"",""time""
""fullscreenenter"",""1"",""2266""
","
","","","-1","","","18","10169","4866","m","elianto","#f73b6a7A","-1","-1","1","0","[]","0","2","","","10169","38","0","4","lose","no-go","0"
"pit-trial","157","1056763","0.0-43.0","battery-v0.2","","""event"",""trial"",""time""
""focus"",""1"",""940""
""fullscreenenter"",""1"",""2266""
","
","""event"",""trial"",""time""
""focus"",""1"",""940""
","""event"",""trial"",""time""
""fullscreenenter"",""1"",""2266""
","
","","","560.4000000059605","","","18","10169","4866","r","elianto","#3366ff99"," "," ","1","0","[1411.300000011921]","1","2","","","10169","39","1","1","win","go","1"
"pit-trial","158","1061627","0.0-44.0","battery-v0.2","","""event"",""trial"",""time""
""focus"",""1"",""940""
""fullscreenenter"",""1"",""2266""
","
","""event"",""trial"",""time""
""focus"",""1"",""940""
","""event"",""trial"",""time""
""fullscreenenter"",""1"",""2266""
","
","","","-1","","","18","10169","4866","y","elianto","#f73b6a7A","-1","-1","1","0","[]","0","2","","","10169","40","2","4","lose","no-go","0"
"pit-trial","159","1066481","0.0-45.0","battery-v0.2","","""event"",""trial"",""time""
""focus"",""1"",""940""
""fullscreenenter"",""1"",""2266""
","
","""event"",""trial"",""time""
""focus"",""1"",""940""
","""event"",""trial"",""time""
""fullscreenenter"",""1"",""2266""
","
","","","-1","","","18","10169","4866","m","elianto","#f73b6a7A","-1","-1","1","0","[]","0","2","","","10169","41","0","4","lose","no-go","0"
"pit-trial","160","1070178","0.0-46.0","battery-v0.2","","""event"",""trial"",""time""
""focus"",""1"",""940""
""fullscreenenter"",""1"",""2266""
","
","""event"",""trial"",""time""
""focus"",""1"",""940""
","""event"",""trial"",""time""
""fullscreenenter"",""1"",""2266""
","
","","","843.8000000119209","","","18","10169","4866","h","elianto","#f73b6a7A"," "," ","1","0","[1694.3999999910593]","1","2","","","10169","42","3","3","lose","go","0"
"pit-trial","161","1075032","0.0-47.0","battery-v0.2","","""event"",""trial"",""time""
""focus"",""1"",""940""
""fullscreenenter"",""1"",""2266""
","
","""event"",""trial"",""time""
""focus"",""1"",""940""
","""event"",""trial"",""time""
""fullscreenenter"",""1"",""2266""
","
","","","-1","","","18","10169","4866","y","elianto","#f73b6a7A","-1","-1","1","0","[]","0","2","","","10169","43","2","4","lose","no-go","0"
"pit-trial","162","1078505","0.0-48.0","battery-v0.2","","""event"",""trial"",""time""
""focus"",""1"",""940""
""fullscreenenter"",""1"",""2266""
","
","""event"",""trial"",""time""
""focus"",""1"",""940""
","""event"",""trial"",""time""
""fullscreenenter"",""1"",""2266""
","
","","","617.6999999880791","","","18","10169","4866","r","elianto","#3366ff99"," "," ","1","+10","[1470]","1","2","","","10169","44","1","1","win","go","0"
"pit-trial","163","1082506","0.0-49.0","battery-v0.2","","""event"",""trial"",""time""
""focus"",""1"",""940""
""fullscreenenter"",""1"",""2266""
","
","""event"",""trial"",""time""
""focus"",""1"",""940""
","""event"",""trial"",""time""
""fullscreenenter"",""1"",""2266""
","
","","","1146.9000000059605","","","18","10169","4866","h","elianto","#f73b6a7A"," "," ","1","0","[1998.5]","1","2","","","10169","45","3","3","lose","go","0"
"pit-trial","164","1087360","0.0-50.0","battery-v0.2","","""event"",""trial"",""time""
""focus"",""1"",""940""
""fullscreenenter"",""1"",""2266""
","
","""event"",""trial"",""time""
""focus"",""1"",""940""
","""event"",""trial"",""time""
""fullscreenenter"",""1"",""2266""
","
","","","-1","","","18","10169","4866","y","elianto","#f73b6a7A","-1","-1","1","-10","[]","0","2","","","10169","46","2","4","lose","no-go","1"
"pit-trial","165","1092215","0.0-51.0","battery-v0.2","","""event"",""trial"",""time""
""focus"",""1"",""940""
""fullscreenenter"",""1"",""2266""
","
","""event"",""trial"",""time""
""focus"",""1"",""940""
","""event"",""trial"",""time""
""fullscreenenter"",""1"",""2266""
","
","","","-1","","","18","10169","4866","z","elianto","#3366ff99","-1","-1","1","+10","[]","0","2","","","10169","47","4","2","win","no-go","0"
"pit-trial","166","1097070","0.0-52.0","battery-v0.2","","""event"",""trial"",""time""
""focus"",""1"",""940""
""fullscreenenter"",""1"",""2266""
","
","""event"",""trial"",""time""
""focus"",""1"",""940""
","""event"",""trial"",""time""
""fullscreenenter"",""1"",""2266""
","
","","","-1","","","18","10169","4866","m","elianto","#f73b6a7A","-1","-1","1","0","[]","0","2","","","10169","48","0","4","lose","no-go","0"
"pit-trial","167","1101924","0.0-53.0","battery-v0.2","","""event"",""trial"",""time""
""focus"",""1"",""940""
""fullscreenenter"",""1"",""2266""
","
","""event"",""trial"",""time""
""focus"",""1"",""940""
","""event"",""trial"",""time""
""fullscreenenter"",""1"",""2266""
","
","","","-1","","","18","10169","4866","m","elianto","#f73b6a7A","-1","-1","1","0","[]","0","2","","","10169","49","0","4","lose","no-go","0"
"pit-trial","168","1106778","0.0-54.0","battery-v0.2","","""event"",""trial"",""time""
""focus"",""1"",""940""
""fullscreenenter"",""1"",""2266""
","
","""event"",""trial"",""time""
""focus"",""1"",""940""
","""event"",""trial"",""time""
""fullscreenenter"",""1"",""2266""
","
","","","-1","","","18","10169","4866","z","elianto","#3366ff99","-1","-1","1","0","[]","0","2","","","10169","50","4","2","win","no-go","1"
"pit-trial","169","1110566","0.0-55.0","battery-v0.2","","""event"",""trial"",""time""
""focus"",""1"",""940""
""fullscreenenter"",""1"",""2266""
","
","""event"",""trial"",""time""
""focus"",""1"",""940""
","""event"",""trial"",""time""
""fullscreenenter"",""1"",""2266""
","
","","","933.0999999940395","","","18","10169","4866","h","elianto","#f73b6a7A"," "," ","1","0","[1784.2999999970198]","1","2","","","10169","51","3","3","lose","go","0"
"pit-trial","170","1114069","0.0-56.0","battery-v0.2","","""event"",""trial"",""time""
""focus"",""1"",""940""
""fullscreenenter"",""1"",""2266""
","
","""event"",""trial"",""time""
""focus"",""1"",""940""
","""event"",""trial"",""time""
""fullscreenenter"",""1"",""2266""
","
","","","648.5","","","18","10169","4866","r","elianto","#3366ff99"," "," ","1","+10","[1499.3999999910593]","1","2","","","10169","52","1","1","win","go","0"
"pit-trial","171","1118925","0.0-57.0","battery-v0.2","","""event"",""trial"",""time""
""focus"",""1"",""940""
""fullscreenenter"",""1"",""2266""
","
","""event"",""trial"",""time""
""focus"",""1"",""940""
","""event"",""trial"",""time""
""fullscreenenter"",""1"",""2266""
","
","","","-1","","","18","10169","4866","y","elianto","#f73b6a7A","-1","-1","1","0","[]","0","2","","","10169","53","2","4","lose","no-go","0"
"pit-trial","172","1123777","0.0-58.0","battery-v0.2","","""event"",""trial"",""time""
""focus"",""1"",""940""
""fullscreenenter"",""1"",""2266""
","
","""event"",""trial"",""time""
""focus"",""1"",""940""
","""event"",""trial"",""time""
""fullscreenenter"",""1"",""2266""
","
","","","-1","","","18","10169","4866","m","elianto","#f73b6a7A","-1","-1","1","-10","[]","0","2","","","10169","54","0","4","lose","no-go","1"
"pit-trial","173","1128631","0.0-59.0","battery-v0.2","","""event"",""trial"",""time""
""focus"",""1"",""940""
""fullscreenenter"",""1"",""2266""
","
","""event"",""trial"",""time""
""focus"",""1"",""940""
","""event"",""trial"",""time""
""fullscreenenter"",""1"",""2266""
","
","","","-1","","","18","10169","4866","z","elianto","#3366ff99","-1","-1","1","+10","[]","0","2","","","10169","55","4","2","win","no-go","0"
"pit-trial","174","1132064","0.0-60.0","battery-v0.2","","""event"",""trial"",""time""
""focus"",""1"",""940""
""fullscreenenter"",""1"",""2266""
","
","""event"",""trial"",""time""
""focus"",""1"",""940""
","""event"",""trial"",""time""
""fullscreenenter"",""1"",""2266""
","
","","","576.7999999970198","","","18","10169","4866","r","elianto","#3366ff99"," "," ","1","+10","[1428.6000000089407]","1","2","","","10169","56","1","1","win","go","0"
"pit-trial","175","1136053","0.0-61.0","battery-v0.2","","""event"",""trial"",""time""
""focus"",""1"",""940""
""fullscreenenter"",""1"",""2266""
","
","""event"",""trial"",""time""
""focus"",""1"",""940""
","""event"",""trial"",""time""
""fullscreenenter"",""1"",""2266""
","
","","","1134.7999999970198","","","18","10169","4866","h","elianto","#f73b6a7A"," "," ","1","-10","[1985.2999999970198]","1","2","","","10169","57","3","3","lose","go","1"
"pit-trial","176","1140908","0.0-62.0","battery-v0.2","","""event"",""trial"",""time""
""focus"",""1"",""940""
""fullscreenenter"",""1"",""2266""
","
","""event"",""trial"",""time""
""focus"",""1"",""940""
","""event"",""trial"",""time""
""fullscreenenter"",""1"",""2266""
","
","","","-1","","","18","10169","4866","m","elianto","#f73b6a7A","-1","-1","1","0","[]","0","2","","","10169","58","0","4","lose","no-go","0"
"pit-trial","177","1144423","0.0-63.0","battery-v0.2","","""event"",""trial"",""time""
""focus"",""1"",""940""
""fullscreenenter"",""1"",""2266""
","
","""event"",""trial"",""time""
""focus"",""1"",""940""
","""event"",""trial"",""time""
""fullscreenenter"",""1"",""2266""
","
","","","659.9000000059605","","","18","10169","4866","r","elianto","#3366ff99"," "," ","1","+10","[1511.7999999970198]","1","2","","","10169","59","1","1","win","go","0"
"pit-trial","178","1149277","0.0-64.0","battery-v0.2","","""event"",""trial"",""time""
""focus"",""1"",""940""
""fullscreenenter"",""1"",""2266""
","
","""event"",""trial"",""time""
""focus"",""1"",""940""
","""event"",""trial"",""time""
""fullscreenenter"",""1"",""2266""
","
","","","-1","","","18","10169","4866","z","elianto","#3366ff99","-1","-1","1","+10","[]","0","2","","","10169","60","4","2","win","no-go","0"
"pit-trial","179","1152833","0.0-65.0","battery-v0.2","","""event"",""trial"",""time""
""focus"",""1"",""940""
""fullscreenenter"",""1"",""2266""
","
","""event"",""trial"",""time""
""focus"",""1"",""940""
","""event"",""trial"",""time""
""fullscreenenter"",""1"",""2266""
","
","","","702.7000000029802","","","18","10169","4866","r","elianto","#3366ff99"," "," ","1","0","[1553.9000000059605]","1","2","","","10169","61","1","1","win","go","1"
"pit-trial","180","1157688","0.0-66.0","battery-v0.2","","""event"",""trial"",""time""
""focus"",""1"",""940""
""fullscreenenter"",""1"",""2266""
","
","""event"",""trial"",""time""
""focus"",""1"",""940""
","""event"",""trial"",""time""
""fullscreenenter"",""1"",""2266""
","
","","","-1","","","18","10169","4866","y","elianto","#f73b6a7A","-1","-1","1","0","[]","0","2","","","10169","62","2","4","lose","no-go","0"
"pit-trial","181","1162542","0.0-67.0","battery-v0.2","","""event"",""trial"",""time""
""focus"",""1"",""940""
""fullscreenenter"",""1"",""2266""
","
","""event"",""trial"",""time""
""focus"",""1"",""940""
","""event"",""trial"",""time""
""fullscreenenter"",""1"",""2266""
","
","","","-1","","","18","10169","4866","z","elianto","#3366ff99","-1","-1","1","+10","[]","0","2","","","10169","63","4","2","win","no-go","0"
"pit-trial","182","1166299","0.0-68.0","battery-v0.2","","""event"",""trial"",""time""
""focus"",""1"",""940""
""fullscreenenter"",""1"",""2266""
","
","""event"",""trial"",""time""
""focus"",""1"",""940""
","""event"",""trial"",""time""
""fullscreenenter"",""1"",""2266""
","
","","","901.8999999910593","","","18","10169","4866","h","elianto","#f73b6a7A"," "," ","1","-10","[1753.5999999940395]","1","2","","","10169","64","3","3","lose","go","1"
"pit-trial","183","1169833","0.0-69.0","battery-v0.2","","""event"",""trial"",""time""
""focus"",""1"",""940""
""fullscreenenter"",""1"",""2266""
","
","""event"",""trial"",""time""
""focus"",""1"",""940""
","""event"",""trial"",""time""
""fullscreenenter"",""1"",""2266""
","
","","","678.1000000089407","","","18","10169","4866","h","elianto","#f73b6a7A"," "," ","1","0","[1529.800000011921]","1","2","","","10169","65","3","3","lose","go","0"
"pit-trial","184","1174687","0.0-70.0","battery-v0.2","","""event"",""trial"",""time""
""focus"",""1"",""940""
""fullscreenenter"",""1"",""2266""
","
","""event"",""trial"",""time""
""focus"",""1"",""940""
","""event"",""trial"",""time""
""fullscreenenter"",""1"",""2266""
","
","","","-1","","","18","10169","4866","y","elianto","#f73b6a7A","-1","-1","1","-10","[]","0","2","","","10169","66","2","4","lose","no-go","1"
"pit-trial","185","1178049","0.0-71.0","battery-v0.2","","""event"",""trial"",""time""
""focus"",""1"",""940""
""fullscreenenter"",""1"",""2266""
","
","""event"",""trial"",""time""
""focus"",""1"",""940""
","""event"",""trial"",""time""
""fullscreenenter"",""1"",""2266""
","
","","","508","","","18","10169","4866","r","elianto","#3366ff99"," "," ","1","+10","[1359]","1","2","","","10169","67","1","1","win","go","0"
"pit-trial","186","1182902","0.0-72.0","battery-v0.2","","""event"",""trial"",""time""
""focus"",""1"",""940""
""fullscreenenter"",""1"",""2266""
","
","""event"",""trial"",""time""
""focus"",""1"",""940""
","""event"",""trial"",""time""
""fullscreenenter"",""1"",""2266""
","
","","","-1","","","18","10169","4866","z","elianto","#3366ff99","-1","-1","1","+10","[]","0","2","","","10169","68","4","2","win","no-go","0"
"pit-trial","187","1187755","0.0-73.0","battery-v0.2","","""event"",""trial"",""time""
""focus"",""1"",""940""
""fullscreenenter"",""1"",""2266""
","
","""event"",""trial"",""time""
""focus"",""1"",""940""
","""event"",""trial"",""time""
""fullscreenenter"",""1"",""2266""
","
","","","-1","","","18","10169","4866","c","elianto","#3366ff99"," ","-1","0","0","[]","0","2","","","10169","69","5","1","win","go","0"
"pit-trial","188","1192609","0.0-74.0","battery-v0.2","","""event"",""trial"",""time""
""focus"",""1"",""940""
""fullscreenenter"",""1"",""2266""
","
","""event"",""trial"",""time""
""focus"",""1"",""940""
","""event"",""trial"",""time""
""fullscreenenter"",""1"",""2266""
","
","","","-1","","","18","10169","4866","r","elianto","#3366ff99"," ","-1","0","0","[4535]","1","2","","","10169","70","1","1","win","go","0"
"pit-trial","189","1196323","0.0-75.0","battery-v0.2","","""event"",""trial"",""time""
""focus"",""1"",""940""
""fullscreenenter"",""1"",""2266""
","
","""event"",""trial"",""time""
""focus"",""1"",""940""
","""event"",""trial"",""time""
""fullscreenenter"",""1"",""2266""
","
","","","858.0999999940395","","","18","10169","4866","h","elianto","#f73b6a7A"," "," ","1","0","[1709.5999999940395]","1","2","","","10169","71","3","3","lose","go","0"
"pit-trial","190","1201178","0.0-76.0","battery-v0.2","","""event"",""trial"",""time""
""focus"",""1"",""940""
""fullscreenenter"",""1"",""2266""
","
","""event"",""trial"",""time""
""focus"",""1"",""940""
","""event"",""trial"",""time""
""fullscreenenter"",""1"",""2266""
","
","","","-1","","","18","10169","4866","z","elianto","#3366ff99","-1","-1","1","+10","[]","0","2","","","10169","72","4","2","win","no-go","0"
"pit-trial","191","1204567","0.0-77.0","battery-v0.2","","""event"",""trial"",""time""
""focus"",""1"",""940""
""fullscreenenter"",""1"",""2266""
","
","""event"",""trial"",""time""
""focus"",""1"",""940""
","""event"",""trial"",""time""
""fullscreenenter"",""1"",""2266""
","
","","","533.7999999970198","","","18","10169","4866","h","elianto","#f73b6a7A"," "," ","1","0","[1386.0999999940395]","1","2","","","10169","73","3","3","lose","go","0"
"pit-trial","192","1208184","0.0-78.0","battery-v0.2","","""event"",""trial"",""time""
""focus"",""1"",""940""
""fullscreenenter"",""1"",""2266""
","
","""event"",""trial"",""time""
""focus"",""1"",""940""
","""event"",""trial"",""time""
""fullscreenenter"",""1"",""2266""
","
","","","762.5","","","18","10169","4866","r","elianto","#3366ff99"," "," ","1","+10","[1613.5]","1","2","","","10169","74","1","1","win","go","0"
"pit-trial","193","1213038","0.0-79.0","battery-v0.2","","""event"",""trial"",""time""
""focus"",""1"",""940""
""fullscreenenter"",""1"",""2266""
","
","""event"",""trial"",""time""
""focus"",""1"",""940""
","""event"",""trial"",""time""
""fullscreenenter"",""1"",""2266""
","
","","","-1","","","18","10169","4866","z","elianto","#3366ff99","-1","-1","1","+10","[]","0","2","","","10169","75","4","2","win","no-go","0"
"pit-trial","194","1217891","0.0-80.0","battery-v0.2","","""event"",""trial"",""time""
""focus"",""1"",""940""
""fullscreenenter"",""1"",""2266""
","
","""event"",""trial"",""time""
""focus"",""1"",""940""
","""event"",""trial"",""time""
""fullscreenenter"",""1"",""2266""
","
","","","-1","","","18","10169","4866","c","elianto","#3366ff99"," ","-1","0","0","[]","0","2","","","10169","76","5","1","win","go","0"
"pit-trial","195","1221467","0.0-81.0","battery-v0.2","","""event"",""trial"",""time""
""focus"",""1"",""940""
""fullscreenenter"",""1"",""2266""
","
","""event"",""trial"",""time""
""focus"",""1"",""940""
","""event"",""trial"",""time""
""fullscreenenter"",""1"",""2266""
","
","","","721","","","18","10169","4866","h","elianto","#f73b6a7A"," "," ","1","0","[1573]","1","2","","","10169","77","3","3","lose","go","0"
"pit-trial","196","1226320","0.0-82.0","battery-v0.2","","""event"",""trial"",""time""
""focus"",""1"",""940""
""fullscreenenter"",""1"",""2266""
","
","""event"",""trial"",""time""
""focus"",""1"",""940""
","""event"",""trial"",""time""
""fullscreenenter"",""1"",""2266""
","
","","","-1","","","18","10169","4866","b","elianto","#f73b6a7A","-1","-1","1","0","[]","0","2","","","10169","78","6","4","lose","no-go","0"
"pit-trial","197","1231174","0.0-83.0","battery-v0.2","","""event"",""trial"",""time""
""focus"",""1"",""940""
""fullscreenenter"",""1"",""2266""
","
","""event"",""trial"",""time""
""focus"",""1"",""940""
","""event"",""trial"",""time""
""fullscreenenter"",""1"",""2266""
","
","","","-1","","","18","10169","4866","z","elianto","#3366ff99","-1","-1","1","+10","[]","0","2","","","10169","79","4","2","win","no-go","0"
"pit-trial","198","1235679","0.0-84.0","battery-v0.2","","""event"",""trial"",""time""
""focus"",""1"",""940""
""fullscreenenter"",""1"",""2266""
","
","""event"",""trial"",""time""
""focus"",""1"",""940""
","""event"",""trial"",""time""
""fullscreenenter"",""1"",""2266""
","
","","","1650.0999999940395","","","18","10169","4866","c","elianto","#3366ff99"," "," ","1","+10","[2502.2000000029802]","1","2","","","10169","80","5","1","win","go","0"
"pit-trial","199","1240532","0.0-85.0","battery-v0.2","","""event"",""trial"",""time""
""focus"",""1"",""940""
""fullscreenenter"",""1"",""2266""
","
","""event"",""trial"",""time""
""focus"",""1"",""940""
","""event"",""trial"",""time""
""fullscreenenter"",""1"",""2266""
","
","","","-1","","","18","10169","4866","b","elianto","#f73b6a7A","-1","-1","1","0","[]","0","2","","","10169","81","6","4","lose","no-go","0"
"pit-trial","200","1244226","0.0-86.0","battery-v0.2","","""event"",""trial"",""time""
""focus"",""1"",""940""
""fullscreenenter"",""1"",""2266""
","
","""event"",""trial"",""time""
""focus"",""1"",""940""
","""event"",""trial"",""time""
""fullscreenenter"",""1"",""2266""
","
","","","837.7000000029802","","","18","10169","4866","c","elianto","#3366ff99"," "," ","1","0","[1690.2000000029802]","1","2","","","10169","82","5","1","win","go","1"
"pit-trial","201","1249079","0.0-87.0","battery-v0.2","","""event"",""trial"",""time""
""focus"",""1"",""940""
""fullscreenenter"",""1"",""2266""
","
","""event"",""trial"",""time""
""focus"",""1"",""940""
","""event"",""trial"",""time""
""fullscreenenter"",""1"",""2266""
","
","","","-1","","","18","10169","4866","z","elianto","#3366ff99","-1","-1","1","0","[]","0","2","","","10169","83","4","2","win","no-go","1"
"pit-trial","202","1253934","0.0-88.0","battery-v0.2","","""event"",""trial"",""time""
""focus"",""1"",""940""
""fullscreenenter"",""1"",""2266""
","
","""event"",""trial"",""time""
""focus"",""1"",""940""
","""event"",""trial"",""time""
""fullscreenenter"",""1"",""2266""
","
","","","-1","","","18","10169","4866","t","elianto","#f73b6a7A"," ","-1","0","-10","[]","0","2","","","10169","84","7","3","lose","go","0"
"pit-trial","203","1258789","0.0-89.0","battery-v0.2","","""event"",""trial"",""time""
""focus"",""1"",""940""
""fullscreenenter"",""1"",""2266""
","
","""event"",""trial"",""time""
""focus"",""1"",""940""
","""event"",""trial"",""time""
""fullscreenenter"",""1"",""2266""
","
","","","-1","","","18","10169","4866","b","elianto","#f73b6a7A","-1","-1","1","0","[]","0","2","","","10169","85","6","4","lose","no-go","0"
"pit-trial","204","1263643","0.0-90.0","battery-v0.2","","""event"",""trial"",""time""
""focus"",""1"",""940""
""fullscreenenter"",""1"",""2266""
","
","""event"",""trial"",""time""
""focus"",""1"",""940""
","""event"",""trial"",""time""
""fullscreenenter"",""1"",""2266""
","
","","","-1","","","18","10169","4866","z","elianto","#3366ff99","-1","-1","1","+10","[]","0","2","","","10169","86","4","2","win","no-go","0"
"pit-trial","205","1267279","0.0-91.0","battery-v0.2","","""event"",""trial"",""time""
""focus"",""1"",""940""
""fullscreenenter"",""1"",""2266""
","
","""event"",""trial"",""time""
""focus"",""1"",""940""
","""event"",""trial"",""time""
""fullscreenenter"",""1"",""2266""
","
","","","779.8999999910593","","","18","10169","4866","c","elianto","#3366ff99"," "," ","1","+10","[1632.5]","1","2","","","10169","87","5","1","win","go","0"
"pit-trial","206","1271374","0.0-92.0","battery-v0.2","","""event"",""trial"",""time""
""focus"",""1"",""940""
""fullscreenenter"",""1"",""2266""
","
","""event"",""trial"",""time""
""focus"",""1"",""940""
","""event"",""trial"",""time""
""fullscreenenter"",""1"",""2266""
","
","","","1240.8999999910593","","","18","10169","4866","t","elianto","#f73b6a7A"," "," ","1","0","[2092.7000000029802]","1","2","","","10169","88","7","3","lose","go","0"
"pit-trial","207","1274948","0.0-93.0","battery-v0.2","","""event"",""trial"",""time""
""focus"",""1"",""940""
""fullscreenenter"",""1"",""2266""
","
","""event"",""trial"",""time""
""focus"",""1"",""940""
","""event"",""trial"",""time""
""fullscreenenter"",""1"",""2266""
","
","","","719.2000000029802","","","18","10169","4866","t","elianto","#f73b6a7A"," "," ","1","0","[1570.5]","1","2","","","10169","89","7","3","lose","go","0"
"pit-trial","208","1278597","0.0-94.0","battery-v0.2","","""event"",""trial"",""time""
""focus"",""1"",""940""
""fullscreenenter"",""1"",""2266""
","
","""event"",""trial"",""time""
""focus"",""1"",""940""
","""event"",""trial"",""time""
""fullscreenenter"",""1"",""2266""
","
","","","794.7999999970198","","","18","10169","4866","c","elianto","#3366ff99"," "," ","1","+10","[1644.9000000059605]","1","2","","","10169","90","5","1","win","go","0"
"pit-trial","209","1283452","0.0-95.0","battery-v0.2","","""event"",""trial"",""time""
""focus"",""1"",""940""
""fullscreenenter"",""1"",""2266""
","
","""event"",""trial"",""time""
""focus"",""1"",""940""
","""event"",""trial"",""time""
""fullscreenenter"",""1"",""2266""
","
","","","-1","","","18","10169","4866","b","elianto","#f73b6a7A","-1","-1","1","0","[]","0","2","","","10169","91","6","4","lose","no-go","0"
"pit-trial","210","1288306","0.0-96.0","battery-v0.2","","""event"",""trial"",""time""
""focus"",""1"",""940""
""fullscreenenter"",""1"",""2266""
","
","""event"",""trial"",""time""
""focus"",""1"",""940""
","""event"",""trial"",""time""
""fullscreenenter"",""1"",""2266""
","
