"trial_type","trial_index","time_elapsed","internal_node_id","task_version","subject_id","interactions","blur_events","focus_events","fullscreenenter_events","fullscreenexit_events","success","view_history","rt","responses","num_errors","age","subject","participantId","rune","rune_set","hex","correct","choice","accuracy","outcome","keys","total_keys","block","practice","value","sub","trial","stimulus","robot","valence","action","sham"
"pavlovia","0","24","0.0-0.0","battery-v0.2","","""event"",""trial"",""time""
""fullscreenenter"",""1"",""3165""
","
","
","""event"",""trial"",""time""
""fullscreenenter"",""1"",""3165""
","
","","","","","","","","","","","","","","","","","","","","","","","","","","",""
"fullscreen","1","4084","0.0-1.0","battery-v0.2","","""event"",""trial"",""time""
""fullscreenenter"",""1"",""3165""
","
","
","""event"",""trial"",""time""
""fullscreenenter"",""1"",""3165""
","
","true","","","","","","","","","","","","","","","","","","","","","","","","","",""
"pit-instructions","2","8213","0.0-2.0-0.0","battery-v0.2","","""event"",""trial"",""time""
""fullscreenenter"",""1"",""3165""
","
","
","""event"",""trial"",""time""
""fullscreenenter"",""1"",""3165""
","
","","[{""page_index"":0,""viewing_time"":4119}]","4120","","","","","","","","","","","","","","","","","","","","","","","",""
"pit-comprehension","3","11374","0.0-2.0-1.0-0.0","battery-v0.2","","""event"",""trial"",""time""
""fullscreenenter"",""1"",""3165""
","
","
","""event"",""trial"",""time""
""fullscreenenter"",""1"",""3165""
","
","","","3071","[""shark""]","0","23","13456","5798","","","","","","","","","","","","","","","","","","",""
"pit-instructions","4","13080","0.0-2.0-1.0-1.0","battery-v0.2","","""event"",""trial"",""time""
""fullscreenenter"",""1"",""3165""
","
","
","""event"",""trial"",""time""
""fullscreenenter"",""1"",""3165""
","
","","[{""page_index"":0,""viewing_time"":1687.9999999999982}]","1689","","","","","","","","","","","","","","","","","","","","","","","",""
"pit-comprehension","5","16258","0.0-2.0-2.0-0.0","battery-v0.2","","""event"",""trial"",""time""
""fullscreenenter"",""1"",""3165""
","
","
","""event"",""trial"",""time""
""fullscreenenter"",""1"",""3165""
","
","","","3172","[""tiger""]","0","23","13456","5798","","","","","","","","","","","","","","","","","","",""
"pit-instructions","6","17348","0.0-2.0-2.0-1.0","battery-v0.2","","""event"",""trial"",""time""
""fullscreenenter"",""1"",""3165""
","
","
","""event"",""trial"",""time""
""fullscreenenter"",""1"",""3165""
","
","","[{""page_index"":0,""viewing_time"":1085}]","1085","","","","","","","","","","","","","","","","","","","","","","","",""
"pit-instructions","7","161058","0.0-2.0-3.0","battery-v0.2","","""event"",""trial"",""time""
""fullscreenenter"",""1"",""3165""
","
","
","""event"",""trial"",""time""
""fullscreenenter"",""1"",""3165""
","
","","[{""page_index"":0,""viewing_time"":9977},{""page_index"":1,""viewing_time"":8314},{""page_index"":2,""viewing_time"":8078},{""page_index"":3,""viewing_time"":5382},{""page_index"":4,""viewing_time"":5091},{""page_index"":5,""viewing_time"":5589},{""page_index"":6,""viewing_time"":6167},{""page_index"":7,""viewing_time"":6218},{""page_index"":8,""viewing_time"":6602},{""page_index"":9,""viewing_time"":6863},{""page_index"":10,""viewing_time"":9430.000000000015},{""page_index"":11,""viewing_time"":7757.999999999985},{""page_index"":12,""viewing_time"":52860},{""page_index"":13,""viewing_time"":5385}]","143714","","","","","","","","","","","","","","","","","","","","","","","",""
"pit-trial","8","164459","0.0-2.0-4.0-0.0","battery-v0.2","","""event"",""trial"",""time""
""fullscreenenter"",""1"",""3165""
","
","
","""event"",""trial"",""time""
""fullscreenenter"",""1"",""3165""
","
","","","545","","","23","13456","5798","&#9784;","elianto","#FFFFF080"," "," ","1","&#10004","[1396]","1","0","0","","","","","","","",""
"pit-trial","9","167814","0.0-2.0-4.1-0.1","battery-v0.2","","""event"",""trial"",""time""
""fullscreenenter"",""1"",""3165""
","
","
","""event"",""trial"",""time""
""fullscreenenter"",""1"",""3165""
","
","","","497","","","23","13456","5798","&#9784;","elianto","#FFFFF080"," "," ","1","&#10004","[1347.999999999971]","1","0","0","","","","","","","",""
"pit-trial","10","171093","0.0-2.0-4.2-0.2","battery-v0.2","","""event"",""trial"",""time""
""fullscreenenter"",""1"",""3165""
","
","
","""event"",""trial"",""time""
""fullscreenenter"",""1"",""3165""
","
","","","425.9999999999709","","","23","13456","5798","&#9784;","elianto","#FFFFF080"," "," ","1","&#10004","[1276]","1","0","0","","","","","","","",""
"pit-trial","11","174536","0.0-2.0-4.3-0.3","battery-v0.2","","""event"",""trial"",""time""
""fullscreenenter"",""1"",""3165""
","
","
","""event"",""trial"",""time""
""fullscreenenter"",""1"",""3165""
","
","","","588","","","23","13456","5798","&#9784;","elianto","#FFFFF080"," "," ","1","&#10004","[1438]","1","0","0","","","","","","","",""
"pit-trial","12","177830","0.0-2.0-4.4-0.4","battery-v0.2","","""event"",""trial"",""time""
""fullscreenenter"",""1"",""3165""
","
","
","""event"",""trial"",""time""
""fullscreenenter"",""1"",""3165""
","
","","","440","","","23","13456","5798","&#9784;","elianto","#FFFFF080"," "," ","1","&#10004","[1290]","1","0","0","","","","","","","",""
"pit-instructions","13","197444","0.0-2.0-5.0","battery-v0.2","","""event"",""trial"",""time""
""fullscreenenter"",""1"",""3165""
","
","
","""event"",""trial"",""time""
""fullscreenenter"",""1"",""3165""
","
","","[{""page_index"":0,""viewing_time"":4717},{""page_index"":1,""viewing_time"":5391},{""page_index"":2,""viewing_time"":4461.000000000029},{""page_index"":3,""viewing_time"":5039.999999999971}]","19610","","","","","","","","","","","","","","","","","","","","","","","",""
"pit-trial","14","202300","0.0-2.0-6.0-0.0","battery-v0.2","","""event"",""trial"",""time""
""fullscreenenter"",""1"",""3165""
","
","
","""event"",""trial"",""time""
""fullscreenenter"",""1"",""3165""
","
","","","-1","","","23","13456","5798","&#9854;","elianto","#FFFFF080","-1","-1","1","&#10004","[]","0","0","1","","","","","","","",""
"pit-trial","15","207155","0.0-2.0-6.1-0.1","battery-v0.2","","""event"",""trial"",""time""
""fullscreenenter"",""1"",""3165""
","
","
","""event"",""trial"",""time""
""fullscreenenter"",""1"",""3165""
","
","","","-1","","","23","13456","5798","&#9854;","elianto","#FFFFF080","-1","-1","1","&#10004","[]","0","0","1","","","","","","","",""
"pit-trial","16","212011","0.0-2.0-6.2-0.2","battery-v0.2","","""event"",""trial"",""time""
""fullscreenenter"",""1"",""3165""
","
","
","""event"",""trial"",""time""
""fullscreenenter"",""1"",""3165""
","
","","","-1","","","23","13456","5798","&#9854;","elianto","#FFFFF080","-1","-1","1","&#10004","[]","0","0","1","","","","","","","",""
"pit-trial","17","216866","0.0-2.0-6.3-0.3","battery-v0.2","","""event"",""trial"",""time""
""fullscreenenter"",""1"",""3165""
","
","
","""event"",""trial"",""time""
""fullscreenenter"",""1"",""3165""
","
","","","-1","","","23","13456","5798","&#9854;","elianto","#FFFFF080","-1","-1","1","&#10004","[]","0","0","1","","","","","","","",""
"pit-trial","18","221720","0.0-2.0-6.4-0.4","battery-v0.2","","""event"",""trial"",""time""
""fullscreenenter"",""1"",""3165""
","
","
","""event"",""trial"",""time""
""fullscreenenter"",""1"",""3165""
","
","","","-1","","","23","13456","5798","&#9854;","elianto","#FFFFF080","-1","-1","1","&#10004","[]","0","0","1","","","","","","","",""
"pit-instructions","19","338836","0.0-2.0-7.0","battery-v0.2","","""event"",""trial"",""time""
""fullscreenenter"",""1"",""3165""
","
","
","""event"",""trial"",""time""
""fullscreenenter"",""1"",""3165""
","
","","[{""page_index"":0,""viewing_time"":5669},{""page_index"":1,""viewing_time"":8502.00000000003},{""page_index"":2,""viewing_time"":6175.999999999971},{""page_index"":3,""viewing_time"":6122.000000000029},{""page_index"":4,""viewing_time"":6008.999999999971},{""page_index"":5,""viewing_time"":5262.999999999971},{""page_index"":6,""viewing_time"":5087.000000000029},{""page_index"":7,""viewing_time"":7147},{""page_index"":8,""viewing_time"":6444},{""page_index"":9,""viewing_time"":6614},{""page_index"":10,""viewing_time"":7558},{""page_index"":11,""viewing_time"":4361},{""page_index"":12,""viewing_time"":7192},{""page_index"":13,""viewing_time"":6968},{""page_index"":14,""viewing_time"":7544},{""page_index"":15,""viewing_time"":6240},{""page_index"":16,""viewing_time"":6820},{""page_index"":17,""viewing_time"":7401}]","117117","","","","","","","","","","","","","","","","","","","","","","","",""
"pit-trial","20","342207","0.0-2.0-8.0-0.0","battery-v0.2","","""event"",""trial"",""time""
""fullscreenenter"",""1"",""3165""
","
","
","""event"",""trial"",""time""
""fullscreenenter"",""1"",""3165""
","
","","","515.9999999999418","","","23","13456","5798","&#9776;","elianto","#3366ff99"," "," ","1","+10","[355,1366]","2","0","1","","","","","","","",""
"pit-trial","21","345624","0.0-2.0-8.0-1.0","battery-v0.2","","""event"",""trial"",""time""
""fullscreenenter"",""1"",""3165""
","
","
","""event"",""trial"",""time""
""fullscreenenter"",""1"",""3165""
","
","","","562","","","23","13456","5798","&#9776;","elianto","#3366ff99"," "," ","1","+10","[1413]","1","0","1","","","","","","","",""
"pit-trial","22","349060","0.0-2.0-8.0-2.0","battery-v0.2","","""event"",""trial"",""time""
""fullscreenenter"",""1"",""3165""
","
","
","""event"",""trial"",""time""
""fullscreenenter"",""1"",""3165""
","
","","","582","","","23","13456","5798","&#9776;","elianto","#3366ff99"," "," ","1","+10","[1432]","1","0","1","","","","","","","",""
"pit-trial","23","352468","0.0-2.0-8.0-3.0","battery-v0.2","","""event"",""trial"",""time""
""fullscreenenter"",""1"",""3165""
","
","
","""event"",""trial"",""time""
""fullscreenenter"",""1"",""3165""
","
","","","554","","","23","13456","5798","&#9776;","elianto","#3366ff99"," "," ","1","0","[1404]","1","0","1","","","","","","","",""
"pit-trial","24","355857","0.0-2.0-8.0-4.0","battery-v0.2","","""event"",""trial"",""time""
""fullscreenenter"",""1"",""3165""
","
","
","""event"",""trial"",""time""
""fullscreenenter"",""1"",""3165""
","
","","","534.0000000000582","","","23","13456","5798","&#9776;","elianto","#3366ff99"," "," ","1","+10","[1385.0000000000582]","1","0","1","","","","","","","",""
"pit-trial","25","359210","0.0-2.0-8.1-0.1","battery-v0.2","","""event"",""trial"",""time""
""fullscreenenter"",""1"",""3165""
","
","
","""event"",""trial"",""time""
""fullscreenenter"",""1"",""3165""
","
","","","497","","","23","13456","5798","&#9776;","elianto","#3366ff99"," "," ","1","+10","[1348]","1","0","1","","","","","","","",""
"pit-trial","26","362838","0.0-2.0-8.1-1.1","battery-v0.2","","""event"",""trial"",""time""
""fullscreenenter"",""1"",""3165""
","
","
","""event"",""trial"",""time""
""fullscreenenter"",""1"",""3165""
","
","","","775","","","23","13456","5798","&#9776;","elianto","#3366ff99"," "," ","1","+10","[1625]","1","0","1","","","","","","","",""
"pit-trial","27","366184","0.0-2.0-8.1-2.1","battery-v0.2","","""event"",""trial"",""time""
""fullscreenenter"",""1"",""3165""
","
","
","""event"",""trial"",""time""
""fullscreenenter"",""1"",""3165""
","
","","","490","","","23","13456","5798","&#9776;","elianto","#3366ff99"," "," ","1","+10","[1341]","1","0","1","","","","","","","",""
"pit-trial","28","369548","0.0-2.0-8.1-3.1","battery-v0.2","","""event"",""trial"",""time""
""fullscreenenter"",""1"",""3165""
","
","
","""event"",""trial"",""time""
""fullscreenenter"",""1"",""3165""
","
","","","510","","","23","13456","5798","&#9776;","elianto","#3366ff99"," "," ","1","0","[1361]","1","0","1","","","","","","","",""
"pit-trial","29","372833","0.0-2.0-8.1-4.1","battery-v0.2","","""event"",""trial"",""time""
""fullscreenenter"",""1"",""3165""
","
","
","""event"",""trial"",""time""
""fullscreenenter"",""1"",""3165""
","
","","","430","","","23","13456","5798","&#9776;","elianto","#3366ff99"," "," ","1","+10","[1280]","1","0","1","","","","","","","",""
"pit-trial","30","376166","0.0-2.0-8.2-0.2","battery-v0.2","","""event"",""trial"",""time""
""fullscreenenter"",""1"",""3165""
","
","
","""event"",""trial"",""time""
""fullscreenenter"",""1"",""3165""
","
","","","476","","","23","13456","5798","&#9776;","elianto","#3366ff99"," "," ","1","+10","[1326]","1","0","1","","","","","","","",""
"pit-trial","31","379514","0.0-2.0-8.2-1.2","battery-v0.2","","""event"",""trial"",""time""
""fullscreenenter"",""1"",""3165""
","
","
","""event"",""trial"",""time""
""fullscreenenter"",""1"",""3165""
","
","","","491","","","23","13456","5798","&#9776;","elianto","#3366ff99"," "," ","1","+10","[1341]","1","0","1","","","","","","","",""
"pit-trial","32","382874","0.0-2.0-8.2-2.2","battery-v0.2","","""event"",""trial"",""time""
""fullscreenenter"",""1"",""3165""
","
","
","""event"",""trial"",""time""
""fullscreenenter"",""1"",""3165""
","
","","","504.0000000000582","","","23","13456","5798","&#9776;","elianto","#3366ff99"," "," ","1","+10","[1354.0000000000582]","1","0","1","","","","","","","",""
"pit-trial","33","386178","0.0-2.0-8.2-3.2","battery-v0.2","","""event"",""trial"",""time""
""fullscreenenter"",""1"",""3165""
","
","
","""event"",""trial"",""time""
""fullscreenenter"",""1"",""3165""
","
","","","447","","","23","13456","5798","&#9776;","elianto","#3366ff99"," "," ","1","0","[1296.9999999999418]","1","0","1","","","","","","","",""
"pit-trial","34","389594","0.0-2.0-8.2-4.2","battery-v0.2","","""event"",""trial"",""time""
""fullscreenenter"",""1"",""3165""
","
","
","""event"",""trial"",""time""
""fullscreenenter"",""1"",""3165""
","
","","","561","","","23","13456","5798","&#9776;","elianto","#3366ff99"," "," ","1","+10","[1411]","1","0","1","","","","","","","",""
"call-function","35","389597","0.0-2.0-9.0","battery-v0.2","","""event"",""trial"",""time""
""fullscreenenter"",""1"",""3165""
","
","
","""event"",""trial"",""time""
""fullscreenenter"",""1"",""3165""
","
","","","","","","","","","","","","","","","","","","","","","","","","","","",""
"pit-instructions","36","429639","0.0-2.0-10.0","battery-v0.2","","""event"",""trial"",""time""
""fullscreenenter"",""1"",""3165""
","
","
","""event"",""trial"",""time""
""fullscreenenter"",""1"",""3165""
","
","","[{""page_index"":0,""viewing_time"":5940},{""page_index"":1,""viewing_time"":6588.000000000058},{""page_index"":2,""viewing_time"":9536},{""page_index"":3,""viewing_time"":9248.999999999942},{""page_index"":4,""viewing_time"":8723}]","40037","","","","","","","","","","","","","","","","","","","","","","","",""
"pit-trial","37","433018","0.0-2.0-11.0-0.0","battery-v0.2","","""event"",""trial"",""time""
""fullscreenenter"",""1"",""3165""
","
","
","""event"",""trial"",""time""
""fullscreenenter"",""1"",""3165""
","
","","","521","","","23","13456","5798","&#9761;","elianto","#3366ff99","-1"," ","0","0","[1371]","1","0","2","","","","","","","",""
"pit-trial","38","436301","0.0-2.0-11.0-1.0","battery-v0.2","","""event"",""trial"",""time""
""fullscreenenter"",""1"",""3165""
","
","
","""event"",""trial"",""time""
""fullscreenenter"",""1"",""3165""
","
","","","428","","","23","13456","5798","&#9761;","elianto","#3366ff99","-1"," ","0","0","[1278]","1","0","2","","","","","","","",""
"pit-trial","39","439329","0.0-2.0-11.0-2.0","battery-v0.2","","""event"",""trial"",""time""
""fullscreenenter"",""1"",""3165""
","
","
","""event"",""trial"",""time""
""fullscreenenter"",""1"",""3165""
","
","","","173.9999999999418","","","23","13456","5798","&#9761;","elianto","#3366ff99","-1"," ","0","0","[1024,1627]","2","0","2","","","","","","","",""
"pit-trial","40","442409","0.0-2.0-11.0-3.0","battery-v0.2","","""event"",""trial"",""time""
""fullscreenenter"",""1"",""3165""
","
","
","""event"",""trial"",""time""
""fullscreenenter"",""1"",""3165""
","
","","","226","","","23","13456","5798","&#9761;","elianto","#3366ff99","-1"," ","0","+10","[1075.9999999999418]","1","0","2","","","","","","","",""
"pit-trial","41","445690","0.0-2.0-11.0-4.0","battery-v0.2","","""event"",""trial"",""time""
""fullscreenenter"",""1"",""3165""
","
","
","""event"",""trial"",""time""
""fullscreenenter"",""1"",""3165""
","
","","","427.0000000000582","","","23","13456","5798","&#9761;","elianto","#3366ff99","-1"," ","0","0","[1279.0000000000582]","1","0","2","","","","","","","",""
"pit-trial","42","448581","0.0-2.0-11.1-0.1","battery-v0.2","","""event"",""trial"",""time""
""fullscreenenter"",""1"",""3165""
","
","
","""event"",""trial"",""time""
""fullscreenenter"",""1"",""3165""
","
","","","35","","","23","13456","5798","&#9761;","elianto","#3366ff99","-1"," ","0","0","[886]","1","0","2","","","","","","","",""
"pit-trial","43","451961","0.0-2.0-11.1-1.1","battery-v0.2","","""event"",""trial"",""time""
""fullscreenenter"",""1"",""3165""
","
","
","""event"",""trial"",""time""
""fullscreenenter"",""1"",""3165""
","
","","","526","","","23","13456","5798","&#9761;","elianto","#3366ff99","-1"," ","0","0","[1377]","1","0","2","","","","","","","",""
"pit-trial","44","455346","0.0-2.0-11.1-2.1","battery-v0.2","","""event"",""trial"",""time""
""fullscreenenter"",""1"",""3165""
","
","
","""event"",""trial"",""time""
""fullscreenenter"",""1"",""3165""
","
","","","531","","","23","13456","5798","&#9761;","elianto","#3366ff99","-1"," ","0","0","[1382]","1","0","2","","","","","","","",""
"pit-trial","45","460199","0.0-2.0-11.1-3.1","battery-v0.2","","""event"",""trial"",""time""
""fullscreenenter"",""1"",""3165""
","
","
","""event"",""trial"",""time""
""fullscreenenter"",""1"",""3165""
","
","","","-1","","","23","13456","5798","&#9761;","elianto","#3366ff99","-1","-1","1","0","[]","0","0","2","","","","","","","",""
"pit-trial","46","463894","0.0-2.0-11.1-4.1","battery-v0.2","","""event"",""trial"",""time""
""fullscreenenter"",""1"",""3165""
","
","
","""event"",""trial"",""time""
""fullscreenenter"",""1"",""3165""
","
","","","840.9999999999418","","","23","13456","5798","&#9761;","elianto","#3366ff99","-1"," ","0","0","[1691.9999999999418]","1","0","2","","","","","","","",""
"pit-trial","47","468748","0.0-2.0-11.2-0.2","battery-v0.2","","""event"",""trial"",""time""
""fullscreenenter"",""1"",""3165""
","
","
","""event"",""trial"",""time""
""fullscreenenter"",""1"",""3165""
","
","","","-1","","","23","13456","5798","&#9761;","elianto","#3366ff99","-1","-1","1","+10","[]","0","0","2","","","","","","","",""
"pit-trial","48","473602","0.0-2.0-11.2-1.2","battery-v0.2","","""event"",""trial"",""time""
""fullscreenenter"",""1"",""3165""
","
","
","""event"",""trial"",""time""
""fullscreenenter"",""1"",""3165""
","
","","","-1","","","23","13456","5798","&#9761;","elianto","#3366ff99","-1","-1","1","+10","[]","0","0","2","","","","","","","",""
"pit-trial","49","478456","0.0-2.0-11.2-2.2","battery-v0.2","","""event"",""trial"",""time""
""fullscreenenter"",""1"",""3165""
","
","
","""event"",""trial"",""time""
""fullscreenenter"",""1"",""3165""
","
","","","-1","","","23","13456","5798","&#9761;","elianto","#3366ff99","-1","-1","1","+10","[]","0","0","2","","","","","","","",""
"pit-trial","50","483309","0.0-2.0-11.2-3.2","battery-v0.2","","""event"",""trial"",""time""
""fullscreenenter"",""1"",""3165""
","
","
","""event"",""trial"",""time""
""fullscreenenter"",""1"",""3165""
","
","","","-1","","","23","13456","5798","&#9761;","elianto","#3366ff99","-1","-1","1","0","[]","0","0","2","","","","","","","",""
"pit-trial","51","488167","0.0-2.0-11.2-4.2","battery-v0.2","","""event"",""trial"",""time""
""fullscreenenter"",""1"",""3165""
","
","
","""event"",""trial"",""time""
""fullscreenenter"",""1"",""3165""
","
","","","-1","","","23","13456","5798","&#9761;","elianto","#3366ff99","-1","-1","1","+10","[]","0","0","2","","","","","","","",""
"pit-trial","52","493056","0.0-2.0-11.3-0.3","battery-v0.2","","""event"",""trial"",""time""
""fullscreenenter"",""1"",""3165""
","
","
","""event"",""trial"",""time""
""fullscreenenter"",""1"",""3165""
","
","","","-1","","","23","13456","5798","&#9761;","elianto","#3366ff99","-1","-1","1","+10","[]","0","0","2","","","","","","","",""
"pit-trial","53","497946","0.0-2.0-11.3-1.3","battery-v0.2","","""event"",""trial"",""time""
""fullscreenenter"",""1"",""3165""
","
","
","""event"",""trial"",""time""
""fullscreenenter"",""1"",""3165""
","
","","","-1","","","23","13456","5798","&#9761;","elianto","#3366ff99","-1","-1","1","+10","[]","0","0","2","","","","","","","",""
"pit-trial","54","502835","0.0-2.0-11.3-2.3","battery-v0.2","","""event"",""trial"",""time""
""fullscreenenter"",""1"",""3165""
","
","
","""event"",""trial"",""time""
""fullscreenenter"",""1"",""3165""
","
","","","-1","","","23","13456","5798","&#9761;","elianto","#3366ff99","-1","-1","1","+10","[]","0","0","2","","","","","","","",""
"pit-trial","55","507725","0.0-2.0-11.3-3.3","battery-v0.2","","""event"",""trial"",""time""
""fullscreenenter"",""1"",""3165""
","
","
","""event"",""trial"",""time""
""fullscreenenter"",""1"",""3165""
","
","","","-1","","","23","13456","5798","&#9761;","elianto","#3366ff99","-1","-1","1","0","[]","0","0","2","","","","","","","",""
"pit-trial","56","512614","0.0-2.0-11.3-4.3","battery-v0.2","","""event"",""trial"",""time""
""fullscreenenter"",""1"",""3165""
","
","
","""event"",""trial"",""time""
""fullscreenenter"",""1"",""3165""
","
","","","-1","","","23","13456","5798","&#9761;","elianto","#3366ff99","-1","-1","1","+10","[]","0","0","2","","","","","","","",""
"call-function","57","512617","0.0-2.0-12.0","battery-v0.2","","""event"",""trial"",""time""
""fullscreenenter"",""1"",""3165""
","
","
","""event"",""trial"",""time""
""fullscreenenter"",""1"",""3165""
","
","","","","","","","","","","","","","","","","","","","","","","","","","","",""
"pit-instructions","58","546271","0.0-2.0-13.0","battery-v0.2","","""event"",""trial"",""time""
""fullscreenenter"",""1"",""3165""
","
","
","""event"",""trial"",""time""
""fullscreenenter"",""1"",""3165""
","
","","[{""page_index"":0,""viewing_time"":6141.000000000116},{""page_index"":1,""viewing_time"":8495.999999999942},{""page_index"":2,""viewing_time"":3065},{""page_index"":3,""viewing_time"":10299},{""page_index"":4,""viewing_time"":5654}]","33655.00000000006","","","","","","","","","","","","","","","","","","","","","","","",""
"pit-trial","59","551124","0.0-2.0-14.0-0.0","battery-v0.2","","""event"",""trial"",""time""
""fullscreenenter"",""1"",""3165""
","
","
","""event"",""trial"",""time""
""fullscreenenter"",""1"",""3165""
","
","","","-1","","","23","13456","5798","&#9826;","elianto","#f73b6a7A","-1","-1","1","0","[]","0","0","3","","","","","","","",""
"pit-trial","60","555979","0.0-2.0-14.0-1.0","battery-v0.2","","""event"",""trial"",""time""
""fullscreenenter"",""1"",""3165""
","
","
","""event"",""trial"",""time""
""fullscreenenter"",""1"",""3165""
","
","","","-1","","","23","13456","5798","&#9826;","elianto","#f73b6a7A","-1","-1","1","0","[]","0","0","3","","","","","","","",""
"pit-trial","61","560833","0.0-2.0-14.0-2.0","battery-v0.2","","""event"",""trial"",""time""
""fullscreenenter"",""1"",""3165""
","
","
","""event"",""trial"",""time""
""fullscreenenter"",""1"",""3165""
","
","","","-1","","","23","13456","5798","&#9826;","elianto","#f73b6a7A","-1","-1","1","0","[]","0","0","3","","","","","","","",""
"pit-trial","62","565688","0.0-2.0-14.0-3.0","battery-v0.2","","""event"",""trial"",""time""
""fullscreenenter"",""1"",""3165""
","
","
","""event"",""trial"",""time""
""fullscreenenter"",""1"",""3165""
","
","","","-1","","","23","13456","5798","&#9826;","elianto","#f73b6a7A","-1","-1","1","-10","[]","0","0","3","","","","","","","",""
"pit-trial","63","570542","0.0-2.0-14.0-4.0","battery-v0.2","","""event"",""trial"",""time""
""fullscreenenter"",""1"",""3165""
","
","
","""event"",""trial"",""time""
""fullscreenenter"",""1"",""3165""
","
","","","-1","","","23","13456","5798","&#9826;","elianto","#f73b6a7A","-1","-1","1","0","[]","0","0","3","","","","","","","",""
"pit-trial","64","575431","0.0-2.0-14.1-0.1","battery-v0.2","","""event"",""trial"",""time""
""fullscreenenter"",""1"",""3165""
","
","
","""event"",""trial"",""time""
""fullscreenenter"",""1"",""3165""
","
","","","-1","","","23","13456","5798","&#9826;","elianto","#f73b6a7A","-1","-1","1","0","[]","0","0","3","","","","","","","",""
"pit-trial","65","580320","0.0-2.0-14.1-1.1","battery-v0.2","","""event"",""trial"",""time""
""fullscreenenter"",""1"",""3165""
","
","
","""event"",""trial"",""time""
""fullscreenenter"",""1"",""3165""
","
","","","-1","","","23","13456","5798","&#9826;","elianto","#f73b6a7A","-1","-1","1","0","[]","0","0","3","","","","","","","",""
"pit-trial","66","585210","0.0-2.0-14.1-2.1","battery-v0.2","","""event"",""trial"",""time""
""fullscreenenter"",""1"",""3165""
","
","
","""event"",""trial"",""time""
""fullscreenenter"",""1"",""3165""
","
","","","-1","","","23","13456","5798","&#9826;","elianto","#f73b6a7A","-1","-1","1","0","[]","0","0","3","","","","","","","",""
"pit-trial","67","590101","0.0-2.0-14.1-3.1","battery-v0.2","","""event"",""trial"",""time""
""fullscreenenter"",""1"",""3165""
","
","
","""event"",""trial"",""time""
""fullscreenenter"",""1"",""3165""
","
","","","-1","","","23","13456","5798","&#9826;","elianto","#f73b6a7A","-1","-1","1","-10","[]","0","0","3","","","","","","","",""
"pit-trial","68","594990","0.0-2.0-14.1-4.1","battery-v0.2","","""event"",""trial"",""time""
""fullscreenenter"",""1"",""3165""
","
","
","""event"",""trial"",""time""
""fullscreenenter"",""1"",""3165""
","
","","","-1","","","23","13456","5798","&#9826;","elianto","#f73b6a7A","-1","-1","1","0","[]","0","0","3","","","","","","","",""
"pit-trial","69","599880","0.0-2.0-14.2-0.2","battery-v0.2","","""event"",""trial"",""time""
""fullscreenenter"",""1"",""3165""
","
","
","""event"",""trial"",""time""
""fullscreenenter"",""1"",""3165""
","
","","","-1","","","23","13456","5798","&#9826;","elianto","#f73b6a7A","-1","-1","1","0","[]","0","0","3","","","","","","","",""
"pit-trial","70","604769","0.0-2.0-14.2-1.2","battery-v0.2","","""event"",""trial"",""time""
""fullscreenenter"",""1"",""3165""
","
","
","""event"",""trial"",""time""
""fullscreenenter"",""1"",""3165""
","
","","","-1","","","23","13456","5798","&#9826;","elianto","#f73b6a7A","-1","-1","1","0","[]","0","0","3","","","","","","","",""
"pit-trial","71","609660","0.0-2.0-14.2-2.2","battery-v0.2","","""event"",""trial"",""time""
""fullscreenenter"",""1"",""3165""
","
","
","""event"",""trial"",""time""
""fullscreenenter"",""1"",""3165""
","
","","","-1","","","23","13456","5798","&#9826;","elianto","#f73b6a7A","-1","-1","1","0","[]","0","0","3","","","","","","","",""
"pit-trial","72","614549","0.0-2.0-14.2-3.2","battery-v0.2","","""event"",""trial"",""time""
""fullscreenenter"",""1"",""3165""
","
","
","""event"",""trial"",""time""
""fullscreenenter"",""1"",""3165""
","
","","","-1","","","23","13456","5798","&#9826;","elianto","#f73b6a7A","-1","-1","1","-10","[]","0","0","3","","","","","","","",""
"pit-trial","73","619439","0.0-2.0-14.2-4.2","battery-v0.2","","""event"",""trial"",""time""
""fullscreenenter"",""1"",""3165""
","
","
","""event"",""trial"",""time""
""fullscreenenter"",""1"",""3165""
","
","","","-1","","","23","13456","5798","&#9826;","elianto","#f73b6a7A","-1","-1","1","0","[]","0","0","3","","","","","","","",""
"pit-trial","74","624328","0.0-2.0-14.3-0.3","battery-v0.2","","""event"",""trial"",""time""
""fullscreenenter"",""1"",""3165""
","
","
","""event"",""trial"",""time""
""fullscreenenter"",""1"",""3165""
","
","","","-1","","","23","13456","5798","&#9826;","elianto","#f73b6a7A","-1","-1","1","0","[]","0","0","3","","","","","","","",""
"pit-trial","75","629218","0.0-2.0-14.3-1.3","battery-v0.2","","""event"",""trial"",""time""
""fullscreenenter"",""1"",""3165""
","
","
","""event"",""trial"",""time""
""fullscreenenter"",""1"",""3165""
","
","","","-1","","","23","13456","5798","&#9826;","elianto","#f73b6a7A","-1","-1","1","0","[]","0","0","3","","","","","","","",""
"pit-trial","76","634108","0.0-2.0-14.3-2.3","battery-v0.2","","""event"",""trial"",""time""
""fullscreenenter"",""1"",""3165""
","
","
","""event"",""trial"",""time""
""fullscreenenter"",""1"",""3165""
","
","","","-1","","","23","13456","5798","&#9826;","elianto","#f73b6a7A","-1","-1","1","0","[]","0","0","3","","","","","","","",""
"pit-trial","77","638998","0.0-2.0-14.3-3.3","battery-v0.2","","""event"",""trial"",""time""
""fullscreenenter"",""1"",""3165""
","
","
","""event"",""trial"",""time""
""fullscreenenter"",""1"",""3165""
","
","","","-1","","","23","13456","5798","&#9826;","elianto","#f73b6a7A","-1","-1","1","-10","[]","0","0","3","","","","","","","",""
"pit-trial","78","643888","0.0-2.0-14.3-4.3","battery-v0.2","","""event"",""trial"",""time""
""fullscreenenter"",""1"",""3165""
","
","
","""event"",""trial"",""time""
""fullscreenenter"",""1"",""3165""
","
","","","-1","","","23","13456","5798","&#9826;","elianto","#f73b6a7A","-1","-1","1","0","[]","0","0","3","","","","","","","",""
"call-function","79","643890","0.0-2.0-15.0","battery-v0.2","","""event"",""trial"",""time""
""fullscreenenter"",""1"",""3165""
","
","
","""event"",""trial"",""time""
""fullscreenenter"",""1"",""3165""
","
","","","","","","","","","","","","","","","","","","","","","","","","","","",""
"pit-instructions","80","668642","0.0-2.0-16.0","battery-v0.2","","""event"",""trial"",""time""
""fullscreenenter"",""1"",""3165""
","
","
","""event"",""trial"",""time""
""fullscreenenter"",""1"",""3165""
","
","","[{""page_index"":0,""viewing_time"":6582},{""page_index"":1,""viewing_time"":8483},{""page_index"":2,""viewing_time"":4240},{""page_index"":3,""viewing_time"":5448}]","24753","","","","","","","","","","","","","","","","","","","","","","","",""
"pit-trial","81","673496","0.0-2.0-17.0-0.0","battery-v0.2","","""event"",""trial"",""time""
""fullscreenenter"",""1"",""3165""
","
","
","""event"",""trial"",""time""
""fullscreenenter"",""1"",""3165""
","
","","","-1","","","23","13456","5798","&#9789;","elianto","#f73b6a7A"," ","-1","0","-10","[]","0","0","4","","","","","","","",""
"pit-trial","82","678350","0.0-2.0-17.0-1.0","battery-v0.2","","""event"",""trial"",""time""
""fullscreenenter"",""1"",""3165""
","
","
","""event"",""trial"",""time""
""fullscreenenter"",""1"",""3165""
","
","","","-1","","","23","13456","5798","&#9789;","elianto","#f73b6a7A"," ","-1","0","-10","[]","0","0","4","","","","","","","",""
"pit-trial","83","683204","0.0-2.0-17.0-2.0","battery-v0.2","","""event"",""trial"",""time""
""fullscreenenter"",""1"",""3165""
","
","
","""event"",""trial"",""time""
""fullscreenenter"",""1"",""3165""
","
","","","-1","","","23","13456","5798","&#9789;","elianto","#f73b6a7A"," ","-1","0","-10","[]","0","0","4","","","","","","","",""
"pit-trial","84","688058","0.0-2.0-17.0-3.0","battery-v0.2","","""event"",""trial"",""time""
""fullscreenenter"",""1"",""3165""
","
","
","""event"",""trial"",""time""
""fullscreenenter"",""1"",""3165""
","
","","","-1","","","23","13456","5798","&#9789;","elianto","#f73b6a7A"," ","-1","0","0","[]","0","0","4","","","","","","","",""
"pit-trial","85","691735","0.0-2.0-17.0-4.0","battery-v0.2","","""event"",""trial"",""time""
""fullscreenenter"",""1"",""3165""
","
","
","""event"",""trial"",""time""
""fullscreenenter"",""1"",""3165""
","
","","","823","","","23","13456","5798","&#9789;","elianto","#f73b6a7A"," "," ","1","0","[1674]","1","0","4","","","","","","","",""
"pit-trial","86","695074","0.0-2.0-17.1-0.1","battery-v0.2","","""event"",""trial"",""time""
""fullscreenenter"",""1"",""3165""
","
","
","""event"",""trial"",""time""
""fullscreenenter"",""1"",""3165""
","
","","","483","","","23","13456","5798","&#9789;","elianto","#f73b6a7A"," "," ","1","0","[1334]","1","0","4","","","","","","","",""
"pit-trial","87","698071","0.0-2.0-17.1-1.1","battery-v0.2","","""event"",""trial"",""time""
""fullscreenenter"",""1"",""3165""
","
","
","""event"",""trial"",""time""
""fullscreenenter"",""1"",""3165""
","
","","","143.00000000011642","","","23","13456","5798","&#9789;","elianto","#f73b6a7A"," "," ","1","0","[993.0000000001164]","1","0","4","","","","","","","",""
"pit-trial","88","701334","0.0-2.0-17.1-2.1","battery-v0.2","","""event"",""trial"",""time""
""fullscreenenter"",""1"",""3165""
","
","
","""event"",""trial"",""time""
""fullscreenenter"",""1"",""3165""
","
","","","409","","","23","13456","5798","&#9789;","elianto","#f73b6a7A"," "," ","1","0","[1259]","1","0","4","","","","","","","",""
"pit-trial","89","704637","0.0-2.0-17.1-3.1","battery-v0.2","","""event"",""trial"",""time""
""fullscreenenter"",""1"",""3165""
","
","
","""event"",""trial"",""time""
""fullscreenenter"",""1"",""3165""
","
","","","450","","","23","13456","5798","&#9789;","elianto","#f73b6a7A"," "," ","1","-10","[1301]","1","0","4","","","","","","","",""
"pit-trial","90","708068","0.0-2.0-17.1-4.1","battery-v0.2","","""event"",""trial"",""time""
""fullscreenenter"",""1"",""3165""
","
","
","""event"",""trial"",""time""
""fullscreenenter"",""1"",""3165""
","
","","","577","","","23","13456","5798","&#9789;","elianto","#f73b6a7A"," "," ","1","0","[1427]","1","0","4","","","","","","","",""
"pit-trial","91","712922","0.0-2.0-17.2-0.2","battery-v0.2","","""event"",""trial"",""time""
""fullscreenenter"",""1"",""3165""
","
","
","""event"",""trial"",""time""
""fullscreenenter"",""1"",""3165""
","
","","","-1","","","23","13456","5798","&#9789;","elianto","#f73b6a7A"," ","-1","0","-10","[]","0","0","4","","","","","","","",""
"pit-trial","92","717776","0.0-2.0-17.2-1.2","battery-v0.2","","""event"",""trial"",""time""
""fullscreenenter"",""1"",""3165""
","
","
","""event"",""trial"",""time""
""fullscreenenter"",""1"",""3165""
","
","","","-1","","","23","13456","5798","&#9789;","elianto","#f73b6a7A"," ","-1","0","-10","[]","0","0","4","","","","","","","",""
"pit-trial","93","722631","0.0-2.0-17.2-2.2","battery-v0.2","","""event"",""trial"",""time""
""fullscreenenter"",""1"",""3165""
","
","
","""event"",""trial"",""time""
""fullscreenenter"",""1"",""3165""
","
","","","-1","","","23","13456","5798","&#9789;","elianto","#f73b6a7A"," ","-1","0","-10","[]","0","0","4","","","","","","","",""
"pit-trial","94","725911","0.0-2.0-17.2-3.2","battery-v0.2","","""event"",""trial"",""time""
""fullscreenenter"",""1"",""3165""
","
","
","""event"",""trial"",""time""
""fullscreenenter"",""1"",""3165""
","
","","","427","","","23","13456","5798","&#9789;","elianto","#f73b6a7A"," "," ","1","-10","[1278]","1","0","4","","","","","","","",""
"pit-trial","95","729323","0.0-2.0-17.2-4.2","battery-v0.2","","""event"",""trial"",""time""
""fullscreenenter"",""1"",""3165""
","
","
","""event"",""trial"",""time""
""fullscreenenter"",""1"",""3165""
","
","","","558","","","23","13456","5798","&#9789;","elianto","#f73b6a7A"," "," ","1","0","[1407.9999999998836]","1","0","4","","","","","","","",""
"pit-trial","96","732688","0.0-2.0-17.3-0.3","battery-v0.2","","""event"",""trial"",""time""
""fullscreenenter"",""1"",""3165""
","
","
","""event"",""trial"",""time""
""fullscreenenter"",""1"",""3165""
","
","","","512.0000000001164","","","23","13456","5798","&#9789;","elianto","#f73b6a7A"," "," ","1","0","[1362.0000000001164]","1","0","4","","","","","","","",""
"pit-trial","97","736000","0.0-2.0-17.3-1.3","battery-v0.2","","""event"",""trial"",""time""
""fullscreenenter"",""1"",""3165""
","
","
","""event"",""trial"",""time""
""fullscreenenter"",""1"",""3165""
","
","","","458","","","23","13456","5798","&#9789;","elianto","#f73b6a7A"," "," ","1","0","[1308]","1","0","4","","","","","","","",""
"pit-trial","98","739226","0.0-2.0-17.3-2.3","battery-v0.2","","""event"",""trial"",""time""
""fullscreenenter"",""1"",""3165""
","
","
","""event"",""trial"",""time""
""fullscreenenter"",""1"",""3165""
","
","","","373","","","23","13456","5798","&#9789;","elianto","#f73b6a7A"," "," ","1","0","[1224]","1","0","4","","","","","","","",""
"pit-trial","99","742558","0.0-2.0-17.3-3.3","battery-v0.2","","""event"",""trial"",""time""
""fullscreenenter"",""1"",""3165""
","
","
","""event"",""trial"",""time""
""fullscreenenter"",""1"",""3165""
","
","","","478","","","23","13456","5798","&#9789;","elianto","#f73b6a7A"," "," ","1","-10","[1328]","1","0","4","","","","","","","",""
"pit-trial","100","745719","0.0-2.0-17.3-4.3","battery-v0.2","","""event"",""trial"",""time""
""fullscreenenter"",""1"",""3165""
","
","
","""event"",""trial"",""time""
""fullscreenenter"",""1"",""3165""
","
","","","304.9999999998836","","","23","13456","5798","&#9789;","elianto","#f73b6a7A"," "," ","1","0","[1157]","1","0","4","","","","","","","",""
"call-function","101","745722","0.0-2.0-18.0","battery-v0.2","","""event"",""trial"",""time""
""fullscreenenter"",""1"",""3165""
","
","
","""event"",""trial"",""time""
""fullscreenenter"",""1"",""3165""
","
","","","","","","","","","","","","","","","","","","","","","","","","","","",""
"pit-instructions","102","818222","0.0-2.0-19.0","battery-v0.2","","""event"",""trial"",""time""
""fullscreenenter"",""1"",""3165""
","
","
","""event"",""trial"",""time""
""fullscreenenter"",""1"",""3165""
","
","","[{""page_index"":0,""viewing_time"":6646},{""page_index"":1,""viewing_time"":6800},{""page_index"":2,""viewing_time"":13657},{""page_index"":3,""viewing_time"":8133},{""page_index"":4,""viewing_time"":9621},{""page_index"":5,""viewing_time"":8410.000000000116},{""page_index"":6,""viewing_time"":8360.999999999884},{""page_index"":7,""viewing_time"":5885},{""page_index"":8,""viewing_time"":4989}]","72503","","","","","","","","","","","","","","","","","","","","","","","",""
"pit-comprehension","103","822735","0.0-2.0-20.0-0.0","battery-v0.2","","""event"",""trial"",""time""
""fullscreenenter"",""1"",""3165""
","
","
","""event"",""trial"",""time""
""fullscreenenter"",""1"",""3165""
","
","","","4509","[""SPACE""]","0","23","13456","5798","","","","","","","","","","","","","","","","","","",""
"pit-instructions","104","827921","0.0-2.0-20.0-1.0","battery-v0.2","","""event"",""trial"",""time""
""fullscreenenter"",""1"",""3165""
","
","
","""event"",""trial"",""time""
""fullscreenenter"",""1"",""3165""
","
","","[{""page_index"":0,""viewing_time"":5126.999999999884}]","5127.999999999884","","","","","","","","","","","","","","","","","","","","","","","",""
"pit-comprehension","105","833543","0.0-2.0-21.0-0.0","battery-v0.2","","""event"",""trial"",""time""
""fullscreenenter"",""1"",""3165""
","
","
","""event"",""trial"",""time""
""fullscreenenter"",""1"",""3165""
","
","","","5616","[""10""]","0","23","13456","5798","","","","","","","","","","","","","","","","","","",""
"pit-instructions","106","835681","0.0-2.0-21.0-1.0","battery-v0.2","","""event"",""trial"",""time""
""fullscreenenter"",""1"",""3165""
","
","
","""event"",""trial"",""time""
""fullscreenenter"",""1"",""3165""
","
","","[{""page_index"":0,""viewing_time"":2079}]","2079","","","","","","","","","","","","","","","","","","","","","","","",""
"pit-comprehension","107","842217","0.0-2.0-22.0-0.0","battery-v0.2","","""event"",""trial"",""time""
""fullscreenenter"",""1"",""3165""
","
","
","""event"",""trial"",""time""
""fullscreenenter"",""1"",""3165""
","
","","","6529.999999999884","[""0""]","0","23","13456","5798","","","","","","","","","","","","","","","","","","",""
"pit-instructions","108","845337","0.0-2.0-22.0-1.0","battery-v0.2","","""event"",""trial"",""time""
""fullscreenenter"",""1"",""3165""
","
","
","""event"",""trial"",""time""
""fullscreenenter"",""1"",""3165""
","
","","[{""page_index"":0,""viewing_time"":3061}]","3061","","","","","","","","","","","","","","","","","","","","","","","",""
"pit-comprehension","109","855052","0.0-2.0-23.0-0.0","battery-v0.2","","""event"",""trial"",""time""
""fullscreenenter"",""1"",""3165""
","
","
","""event"",""trial"",""time""
""fullscreenenter"",""1"",""3165""
","
","","","9710","[""False""]","1","23","13456","5798","","","","","","","","","","","","","","","","","","",""
"pit-instructions","110","857216","0.0-2.0-23.0-1.0","battery-v0.2","","""event"",""trial"",""time""
""fullscreenenter"",""1"",""3165""
","
","
","""event"",""trial"",""time""
""fullscreenenter"",""1"",""3165""
","
","","[{""page_index"":0,""viewing_time"":2075}]","2076","","","","","","","","","","","","","","","","","","","","","","","",""
"pit-instructions","111","860493","0.0-2.0-23.0-2.0-0.0","battery-v0.2","","""event"",""trial"",""time""
""fullscreenenter"",""1"",""3165""
","
","
","""event"",""trial"",""time""
""fullscreenenter"",""1"",""3165""
","
","","[{""page_index"":0,""viewing_time"":3272}]","3272","","","","","","","","","","","","","","","","","","","","","","","",""
"pit-comprehension","112","869320","0.0-2.0-23.1-0.1","battery-v0.2","","""event"",""trial"",""time""
""fullscreenenter"",""1"",""3165""
","
","
","""event"",""trial"",""time""
""fullscreenenter"",""1"",""3165""
","
","","","8820","[""True""]","0","23","13456","5798","","","","","","","","","","","","","","","","","","",""
"pit-instructions","113","872756","0.0-2.0-23.1-1.1","battery-v0.2","","""event"",""trial"",""time""
""fullscreenenter"",""1"",""3165""
","
","
","""event"",""trial"",""time""
""fullscreenenter"",""1"",""3165""
","
","","[{""page_index"":0,""viewing_time"":3375}]","3375","","","","","","","","","","","","","","","","","","","","","","","",""
"pit-comprehension","114","880267","0.0-2.0-24.0-0.0","battery-v0.2","","""event"",""trial"",""time""
""fullscreenenter"",""1"",""3165""
","
","
","""event"",""trial"",""time""
""fullscreenenter"",""1"",""3165""
","
","","","7505","[""True""]","0","23","13456","5798","","","","","","","","","","","","","","","","","","",""
"pit-instructions","115","881942","0.0-2.0-24.0-1.0","battery-v0.2","","""event"",""trial"",""time""
""fullscreenenter"",""1"",""3165""
","
","
","""event"",""trial"",""time""
""fullscreenenter"",""1"",""3165""
","
","","[{""page_index"":0,""viewing_time"":1611}]","1612","","","","","","","","","","","","","","","","","","","","","","","",""
"pit-comprehension","116","888472","0.0-2.0-25.0-0.0","battery-v0.2","","""event"",""trial"",""time""
""fullscreenenter"",""1"",""3165""
","
","
","""event"",""trial"",""time""
""fullscreenenter"",""1"",""3165""
","
","","","6522","[""True""]","0","23","13456","5798","","","","","","","","","","","","","","","","","","",""
"pit-instructions","117","894402","0.0-2.0-25.0-1.0","battery-v0.2","","""event"",""trial"",""time""
""fullscreenenter"",""1"",""3165""
","
","
","""event"",""trial"",""time""
""fullscreenenter"",""1"",""3165""
","
","","[{""page_index"":0,""viewing_time"":5869}]","5869","","","","","","","","","","","","","","","","","","","","","","","",""
"pit-comprehension","118","900123","0.0-2.0-26.0-0.0","battery-v0.2","","""event"",""trial"",""time""
""fullscreenenter"",""1"",""3165""
","
","
","""event"",""trial"",""time""
""fullscreenenter"",""1"",""3165""
","
","","","5717","[""False""]","0","23","13456","5798","","","","","","","","","","","","","","","","","","",""
"pit-instructions","119","901653","0.0-2.0-26.0-1.0","battery-v0.2","","""event"",""trial"",""time""
""fullscreenenter"",""1"",""3165""
","
","
","""event"",""trial"",""time""
""fullscreenenter"",""1"",""3165""
","
","","[{""page_index"":0,""viewing_time"":1466}]","1467","","","","","","","","","","","","","","","","","","","","","","","",""
"pit-instructions","120","917539","0.0-3.0","battery-v0.2","","""event"",""trial"",""time""
""fullscreenenter"",""1"",""3165""
","
","
","""event"",""trial"",""time""
""fullscreenenter"",""1"",""3165""
","
","","[{""page_index"":0,""viewing_time"":3634},{""page_index"":1,""viewing_time"":5033},{""page_index"":2,""viewing_time"":7215.000000000116}]","15883","","","","","","","","","","","","","","","","","","","","","","","",""
"pit-trial","121","921872","0.0-4.0","battery-v0.2","","""event"",""trial"",""time""
""fullscreenenter"",""1"",""3165""
","
","
","""event"",""trial"",""time""
""fullscreenenter"",""1"",""3165""
","
","","","1475","","","23","13456","5798","&#9728;","elianto","#f73b6a7A","-1"," ","0","-10","[2326]","1","1","","","13456","1","0","4","lose","no-go","0"
"pit-trial","122","925295","0.0-5.0","battery-v0.2","","""event"",""trial"",""time""
""fullscreenenter"",""1"",""3165""
","
","
","""event"",""trial"",""time""
""fullscreenenter"",""1"",""3165""
","
","","","567","","","23","13456","5798","&#9752;","elianto","#f73b6a7A"," "," ","1","0","[1417]","1","1","","","13456","2","3","3","lose","go","0"
"pit-trial","123","928746","0.0-6.0","battery-v0.2","","""event"",""trial"",""time""
""fullscreenenter"",""1"",""3165""
","
","
","""event"",""trial"",""time""
""fullscreenenter"",""1"",""3165""
","
","","","595","","","23","13456","5798","&#9730;","elianto","#3366ff99"," "," ","1","+10","[1447]","1","1","","","13456","3","1","1","win","go","0"
"pit-trial","124","932046","0.0-7.0","battery-v0.2","","""event"",""trial"",""time""
""fullscreenenter"",""1"",""3165""
","
","
","""event"",""trial"",""time""
""fullscreenenter"",""1"",""3165""
","
","","","444","","","23","13456","5798","&#9733;","elianto","#3366ff99","-1"," ","0","0","[1295]","1","1","","","13456","4","2","2","win","no-go","0"
"pit-trial","125","935567","0.0-8.0","battery-v0.2","","""event"",""trial"",""time""
""fullscreenenter"",""1"",""3165""
","
","
","""event"",""trial"",""time""
""fullscreenenter"",""1"",""3165""
","
","","","666","","","23","13456","5798","&#9728;","elianto","#f73b6a7A","-1"," ","0","0","[1516]","1","1","","","13456","5","0","4","lose","no-go","1"
"pit-trial","126","938870","0.0-9.0","battery-v0.2","","""event"",""trial"",""time""
""fullscreenenter"",""1"",""3165""
","
","
","""event"",""trial"",""time""
""fullscreenenter"",""1"",""3165""
","
","","","446.9999999998836","","","23","13456","5798","&#9733;","elianto","#3366ff99","-1"," ","0","0","[1297]","1","1","","","13456","6","2","2","win","no-go","0"
"pit-trial","127","942175","0.0-10.0","battery-v0.2","","""event"",""trial"",""time""
""fullscreenenter"",""1"",""3165""
","
","
","""event"",""trial"",""time""
""fullscreenenter"",""1"",""3165""
","
","","","448.9999999998836","","","23","13456","5798","&#9752;","elianto","#f73b6a7A"," "," ","1","-10","[1299.9999999998836]","1","1","","","13456","7","3","3","lose","go","1"
"pit-trial","128","945436","0.0-11.0","battery-v0.2","","""event"",""trial"",""time""
""fullscreenenter"",""1"",""3165""
","
","
","""event"",""trial"",""time""
""fullscreenenter"",""1"",""3165""
","
","","","406","","","23","13456","5798","&#9730;","elianto","#3366ff99"," "," ","1","+10","[1256]","1","1","","","13456","8","1","1","win","go","0"
"pit-trial","129","948851","0.0-12.0","battery-v0.2","","""event"",""trial"",""time""
""fullscreenenter"",""1"",""3165""
","
","
","""event"",""trial"",""time""
""fullscreenenter"",""1"",""3165""
","
","","","560","","","23","13456","5798","&#9733;","elianto","#3366ff99","-1"," ","0","+10","[1410]","1","1","","","13456","9","2","2","win","no-go","1"
"pit-trial","130","952278","0.0-13.0","battery-v0.2","","""event"",""trial"",""time""
""fullscreenenter"",""1"",""3165""
","
","
","""event"",""trial"",""time""
""fullscreenenter"",""1"",""3165""
","
","","","572.9999999998836","","","23","13456","5798","&#9728;","elianto","#f73b6a7A","-1"," ","0","-10","[1423.9999999998836]","1","1","","","13456","10","0","4","lose","no-go","0"
"pit-trial","131","955588","0.0-14.0","battery-v0.2","","""event"",""trial"",""time""
""fullscreenenter"",""1"",""3165""
","
","
","""event"",""trial"",""time""
""fullscreenenter"",""1"",""3165""
","
","","","454.9999999998836","","","23","13456","5798","&#9730;","elianto","#3366ff99"," "," ","1","+10","[1305]","1","1","","","13456","11","1","1","win","go","0"
"pit-trial","132","960443","0.0-15.0","battery-v0.2","","""event"",""trial"",""time""
""fullscreenenter"",""1"",""3165""
","
","
","""event"",""trial"",""time""
""fullscreenenter"",""1"",""3165""
","
","","","-1","","","23","13456","5798","&#9752;","elianto","#f73b6a7A"," ","-1","0","-10","[]","0","1","","","13456","12","3","3","lose","go","0"
"pit-trial","133","963969","0.0-16.0","battery-v0.2","","""event"",""trial"",""time""
""fullscreenenter"",""1"",""3165""
","
","
","""event"",""trial"",""time""
""fullscreenenter"",""1"",""3165""
","
","","","670","","","23","13456","5798","&#9733;","elianto","#3366ff99","-1"," ","0","0","[1521]","1","1","","","13456","13","2","2","win","no-go","0"
"pit-trial","134","967753","0.0-17.0","battery-v0.2","","""event"",""trial"",""time""
""fullscreenenter"",""1"",""3165""
","
","
","""event"",""trial"",""time""
""fullscreenenter"",""1"",""3165""
","
","","","928","","","23","13456","5798","&#9752;","elianto","#f73b6a7A"," "," ","1","0","[1778]","1","1","","","13456","14","3","3","lose","go","0"
"pit-trial","135","971492","0.0-18.0","battery-v0.2","","""event"",""trial"",""time""
""fullscreenenter"",""1"",""3165""
","
","
","""event"",""trial"",""time""
""fullscreenenter"",""1"",""3165""
","
","","","882.9999999998836","","","23","13456","5798","&#9728;","elianto","#f73b6a7A","-1"," ","0","-10","[1733.9999999998836]","1","1","","","13456","15","0","4","lose","no-go","0"
"pit-trial","136","975001","0.0-19.0","battery-v0.2","","""event"",""trial"",""time""
""fullscreenenter"",""1"",""3165""
","
","
","""event"",""trial"",""time""
""fullscreenenter"",""1"",""3165""
","
","","","652.9999999998836","","","23","13456","5798","&#9730;","elianto","#3366ff99"," "," ","1","0","[1503.9999999998836]","1","1","","","13456","16","1","1","win","go","1"
"pit-trial","137","978390","0.0-20.0","battery-v0.2","","""event"",""trial"",""time""
""fullscreenenter"",""1"",""3165""
","
","
","""event"",""trial"",""time""
""fullscreenenter"",""1"",""3165""
","
","","","533","","","23","13456","5798","&#9730;","elianto","#3366ff99"," "," ","1","0","[1382.9999999998836]","1","1","","","13456","17","1","1","win","go","1"
"pit-trial","138","981849","0.0-21.0","battery-v0.2","","""event"",""trial"",""time""
""fullscreenenter"",""1"",""3165""
","
","
","""event"",""trial"",""time""
""fullscreenenter"",""1"",""3165""
","
","","","603.0000000001164","","","23","13456","5798","&#9733;","elianto","#3366ff99","-1"," ","0","0","[1453.0000000001164]","1","1","","","13456","18","2","2","win","no-go","0"
"pit-trial","139","986131","0.0-22.0","battery-v0.2","","""event"",""trial"",""time""
""fullscreenenter"",""1"",""3165""
","
","
","""event"",""trial"",""time""
""fullscreenenter"",""1"",""3165""
","
","","","1426.9999999998836","","","23","13456","5798","&#9728;","elianto","#f73b6a7A","-1"," ","0","-10","[2277]","1","1","","","13456","19","0","4","lose","no-go","0"
"pit-trial","140","990248","0.0-23.0","battery-v0.2","","""event"",""trial"",""time""
""fullscreenenter"",""1"",""3165""
","
","
","""event"",""trial"",""time""
""fullscreenenter"",""1"",""3165""
","
","","","1262","","","23","13456","5798","&#9752;","elianto","#f73b6a7A"," "," ","1","0","[2113]","1","1","","","13456","20","3","3","lose","go","0"
"pit-instructions","141","1001898","0.0-24.0","battery-v0.2","","""event"",""trial"",""time""
""fullscreenenter"",""1"",""3165""
","
","
","""event"",""trial"",""time""
""fullscreenenter"",""1"",""3165""
","
","","[{""page_index"":0,""viewing_time"":5618},{""page_index"":1,""viewing_time"":6033}]","11652","","","","","","","","","","","","","","","","","","","","","","","",""
"pit-trial","142","1005325","0.0-25.0","battery-v0.2","","""event"",""trial"",""time""
""fullscreenenter"",""1"",""3165""
","
","
","""event"",""trial"",""time""
""fullscreenenter"",""1"",""3165""
","
","","","570","","","23","13456","5798","g","elianto","#f73b6a7A","-1"," ","0","-10","[1423]","1","2","","","13456","21","3","4","lose","no-go","0"
"pit-trial","143","1008647","0.0-26.0","battery-v0.2","","""event"",""trial"",""time""
""fullscreenenter"",""1"",""3165""
","
","
","""event"",""trial"",""time""
""fullscreenenter"",""1"",""3165""
","
","","","467","","","23","13456","5798","a","elianto","#f73b6a7A"," "," ","1","-10","[1317]","1","2","","","13456","22","2","3","lose","go","1"
"pit-trial","144","1012017","0.0-27.0","battery-v0.2","","""event"",""trial"",""time""
""fullscreenenter"",""1"",""3165""
","
","
","""event"",""trial"",""time""
""fullscreenenter"",""1"",""3165""
","
","","","512.9999999998836","","","23","13456","5798","u","elianto","#f73b6a7A"," "," ","1","0","[1363]","1","2","","","13456","23","0","3","lose","go","0"
"pit-trial","145","1015459","0.0-28.0","battery-v0.2","","""event"",""trial"",""time""
""fullscreenenter"",""1"",""3165""
","
","
","""event"",""trial"",""time""
""fullscreenenter"",""1"",""3165""
","
","","","586","","","23","13456","5798","l","elianto","#3366ff99","-1"," ","0","0","[1437]","1","2","","","13456","24","1","2","win","no-go","0"
"pit-trial","146","1018744","0.0-29.0","battery-v0.2","","""event"",""trial"",""time""
""fullscreenenter"",""1"",""3165""
","
","
","""event"",""trial"",""time""
""fullscreenenter"",""1"",""3165""
","
","","","429","","","23","13456","5798","l","elianto","#3366ff99","-1"," ","0","0","[1280]","1","2","","","13456","25","1","2","win","no-go","0"
"pit-trial","147","1022318","0.0-30.0","battery-v0.2","","""event"",""trial"",""time""
""fullscreenenter"",""1"",""3165""
","
","
","""event"",""trial"",""time""
""fullscreenenter"",""1"",""3165""
","
","","","719","","","23","13456","5798","g","elianto","#f73b6a7A","-1"," ","0","-10","[1570]","1","2","","","13456","26","3","4","lose","no-go","0"
"pit-trial","148","1025670","0.0-31.0","battery-v0.2","","""event"",""trial"",""time""
""fullscreenenter"",""1"",""3165""
","
","
","""event"",""trial"",""time""
""fullscreenenter"",""1"",""3165""
","
","","","495.99999999976717","","","23","13456","5798","u","elianto","#f73b6a7A"," "," ","1","-10","[1346]","1","2","","","13456","27","0","3","lose","go","1"
"pit-trial","149","1029008","0.0-32.0","battery-v0.2","","""event"",""trial"",""time""
""fullscreenenter"",""1"",""3165""
","
","
","""event"",""trial"",""time""
""fullscreenenter"",""1"",""3165""
","
","","","483.00000000023283","","","23","13456","5798","a","elianto","#f73b6a7A"," "," ","1","0","[1333.0000000001164]","1","2","","","13456","28","2","3","lose","go","0"
"pit-trial","150","1032116","0.0-33.0","battery-v0.2","","""event"",""trial"",""time""
""fullscreenenter"",""1"",""3165""
","
","
","""event"",""trial"",""time""
""fullscreenenter"",""1"",""3165""
","
","","","251.99999999988358","","","23","13456","5798","g","elianto","#f73b6a7A","-1"," ","0","-10","[1102]","1","2","","","13456","29","3","4","lose","no-go","0"
"pit-trial","151","1035171","0.0-34.0","battery-v0.2","","""event"",""trial"",""time""
""fullscreenenter"",""1"",""3165""
","
","
","""event"",""trial"",""time""
""fullscreenenter"",""1"",""3165""
","
","","","200.00000000011642","","","23","13456","5798","a","elianto","#f73b6a7A"," "," ","1","0","[1050]","1","2","","","13456","30","2","3","lose","go","0"
"pit-trial","152","1040026","0.0-35.0","battery-v0.2","","""event"",""trial"",""time""
""fullscreenenter"",""1"",""3165""
","
","
","""event"",""trial"",""time""
""fullscreenenter"",""1"",""3165""
","
","","","-1","","","23","13456","5798","u","elianto","#f73b6a7A"," ","-1","0","-10","[]","0","2","","","13456","31","0","3","lose","go","0"
"pit-trial","153","1043728","0.0-36.0","battery-v0.2","","""event"",""trial"",""time""
""fullscreenenter"",""1"",""3165""
","
","
","""event"",""trial"",""time""
""fullscreenenter"",""1"",""3165""
","
","","","845","","","23","13456","5798","l","elianto","#3366ff99","-1"," ","0","0","[1696.0000000001164]","1","2","","","13456","32","1","2","win","no-go","0"
"pit-trial","154","1047090","0.0-37.0","battery-v0.2","","""event"",""trial"",""time""
""fullscreenenter"",""1"",""3165""
","
","
","""event"",""trial"",""time""
""fullscreenenter"",""1"",""3165""
","
","","","506.99999999976717","","","23","13456","5798","l","elianto","#3366ff99","-1"," ","0","+10","[1356.9999999998836]","1","2","","","13456","33","1","2","win","no-go","1"
"pit-trial","155","1051028","0.0-38.0","battery-v0.2","","""event"",""trial"",""time""
""fullscreenenter"",""1"",""3165""
","
","
","""event"",""trial"",""time""
""fullscreenenter"",""1"",""3165""
","
","","","1083","","","23","13456","5798","u","elianto","#f73b6a7A"," "," ","1","0","[1933]","1","2","","","13456","34","0","3","lose","go","0"
"pit-trial","156","1054591","0.0-39.0","battery-v0.2","","""event"",""trial"",""time""
""fullscreenenter"",""1"",""3165""
","
","
","""event"",""trial"",""time""
""fullscreenenter"",""1"",""3165""
","
","","","709","","","23","13456","5798","a","elianto","#f73b6a7A"," "," ","1","0","[1559]","1","2","","","13456","35","2","3","lose","go","0"
"pit-trial","157","1059446","0.0-40.0","battery-v0.2","","""event"",""trial"",""time""
""fullscreenenter"",""1"",""3165""
","
","
","""event"",""trial"",""time""
""fullscreenenter"",""1"",""3165""
","
","","","-1","","","23","13456","5798","g","elianto","#f73b6a7A","-1","-1","1","0","[]","0","2","","","13456","36","3","4","lose","no-go","0"
"pit-trial","158","1064302","0.0-41.0","battery-v0.2","","""event"",""trial"",""time""
""fullscreenenter"",""1"",""3165""
","
","
","""event"",""trial"",""time""
""fullscreenenter"",""1"",""3165""
","
","","","-1","","","23","13456","5798","g","elianto","#f73b6a7A","-1","-1","1","0","[]","0","2","","","13456","37","3","4","lose","no-go","0"
"pit-trial","159","1068253","0.0-42.0","battery-v0.2","","""event"",""trial"",""time""
""fullscreenenter"",""1"",""3165""
","
","
","""event"",""trial"",""time""
""fullscreenenter"",""1"",""3165""
","
","","","1094.9999999997672","","","23","13456","5798","u","elianto","#f73b6a7A"," "," ","1","0","[1945]","1","2","","","13456","38","0","3","lose","go","0"
"pit-trial","160","1071663","0.0-43.0","battery-v0.2","","""event"",""trial"",""time""
""fullscreenenter"",""1"",""3165""
","
","
","""event"",""trial"",""time""
""fullscreenenter"",""1"",""3165""
","
","","","555","","","23","13456","5798","a","elianto","#f73b6a7A"," "," ","1","-10","[1405]","1","2","","","13456","39","2","3","lose","go","1"
"pit-trial","161","1075199","0.0-44.0","battery-v0.2","","""event"",""trial"",""time""
""fullscreenenter"",""1"",""3165""
","
","
","""event"",""trial"",""time""
""fullscreenenter"",""1"",""3165""
","
","","","681","","","23","13456","5798","l","elianto","#3366ff99","-1"," ","0","0","[1531]","1","2","","","13456","40","1","2","win","no-go","0"
"pit-trial","162","1080055","0.0-45.0","battery-v0.2","","""event"",""trial"",""time""
""fullscreenenter"",""1"",""3165""
","
","
","""event"",""trial"",""time""
""fullscreenenter"",""1"",""3165""
","
","","","-1","","","23","13456","5798","g","elianto","#f73b6a7A","-1","-1","1","0","[]","0","2","","","13456","41","3","4","lose","no-go","0"
"pit-trial","163","1083448","0.0-46.0","battery-v0.2","","""event"",""trial"",""time""
""fullscreenenter"",""1"",""3165""
","
","
","""event"",""trial"",""time""
""fullscreenenter"",""1"",""3165""
","
","","","536","","","23","13456","5798","a","elianto","#f73b6a7A"," "," ","1","0","[1388]","1","2","","","13456","42","2","3","lose","go","0"
"pit-trial","164","1087026","0.0-47.0","battery-v0.2","","""event"",""trial"",""time""
""fullscreenenter"",""1"",""3165""
","
","
","""event"",""trial"",""time""
""fullscreenenter"",""1"",""3165""
","
","","","723","","","23","13456","5798","u","elianto","#f73b6a7A"," "," ","1","0","[1574]","1","2","","","13456","43","0","3","lose","go","0"
"pit-trial","165","1090411","0.0-48.0","battery-v0.2","","""event"",""trial"",""time""
""fullscreenenter"",""1"",""3165""
","
","
","""event"",""trial"",""time""
""fullscreenenter"",""1"",""3165""
","
","","","529","","","23","13456","5798","l","elianto","#3366ff99","-1"," ","0","0","[1379]","1","2","","","13456","44","1","2","win","no-go","0"
"pit-trial","166","1093718","0.0-49.0","battery-v0.2","","""event"",""trial"",""time""
""fullscreenenter"",""1"",""3165""
","
","
","""event"",""trial"",""time""
""fullscreenenter"",""1"",""3165""
","
","","","451","","","23","13456","5798","l","elianto","#3366ff99","-1"," ","0","0","[1302]","1","2","","","13456","45","1","2","win","no-go","0"
"pit-trial","167","1097628","0.0-50.0","battery-v0.2","","""event"",""trial"",""time""
""fullscreenenter"",""1"",""3165""
","
","
","""event"",""trial"",""time""
""fullscreenenter"",""1"",""3165""
","
","","","1056","","","23","13456","5798","u","elianto","#f73b6a7A"," "," ","1","0","[1905.9999999997672]","1","2","","","13456","46","0","3","lose","go","0"
"pit-trial","168","1102483","0.0-51.0","battery-v0.2","","""event"",""trial"",""time""
""fullscreenenter"",""1"",""3165""
","
","
","""event"",""trial"",""time""
""fullscreenenter"",""1"",""3165""
","
","","","-1","","","23","13456","5798","g","elianto","#f73b6a7A","-1","-1","1","-10","[]","0","2","","","13456","47","3","4","lose","no-go","1"
"pit-trial","169","1105872","0.0-52.0","battery-v0.2","","""event"",""trial"",""time""
""fullscreenenter"",""1"",""3165""
","
","
","""event"",""trial"",""time""
""fullscreenenter"",""1"",""3165""
","
","","","533","","","23","13456","5798","a","elianto","#f73b6a7A"," "," ","1","0","[1384]","1","2","","","13456","48","2","3","lose","go","0"
"pit-trial","170","1109618","0.0-53.0","battery-v0.2","","""event"",""trial"",""time""
""fullscreenenter"",""1"",""3165""
","
","
","""event"",""trial"",""time""
""fullscreenenter"",""1"",""3165""
","
","","","890","","","23","13456","5798","u","elianto","#f73b6a7A"," "," ","1","0","[1741]","1","2","","","13456","49","0","3","lose","go","0"
"pit-trial","171","1113150","0.0-54.0","battery-v0.2","","""event"",""trial"",""time""
""fullscreenenter"",""1"",""3165""
","
","
","""event"",""trial"",""time""
""fullscreenenter"",""1"",""3165""
","
","","","676","","","23","13456","5798","a","elianto","#f73b6a7A"," "," ","1","0","[1527]","1","2","","","13456","50","2","3","lose","go","0"
"pit-trial","172","1118007","0.0-55.0","battery-v0.2","","""event"",""trial"",""time""
""fullscreenenter"",""1"",""3165""
","
","
","""event"",""trial"",""time""
""fullscreenenter"",""1"",""3165""
","
","","","-1","","","23","13456","5798","g","elianto","#f73b6a7A","-1","-1","1","0","[]","0","2","","","13456","51","3","4","lose","no-go","0"
"pit-trial","173","1121607","0.0-56.0","battery-v0.2","","""event"",""trial"",""time""
""fullscreenenter"",""1"",""3165""
","
","
","""event"",""trial"",""time""
""fullscreenenter"",""1"",""3165""
","
","","","744","","","23","13456","5798","l","elianto","#3366ff99","-1"," ","0","0","[1595]","1","2","","","13456","52","1","2","win","no-go","0"
"pit-trial","174","1125340","0.0-57.0","battery-v0.2","","""event"",""trial"",""time""
""fullscreenenter"",""1"",""3165""
","
","
","""event"",""trial"",""time""
""fullscreenenter"",""1"",""3165""
","
","","","878","","","23","13456","5798","a","elianto","#f73b6a7A"," "," ","1","0","[1728]","1","2","","","13456","53","2","3","lose","go","0"
"pit-trial","175","1128840","0.0-58.0","battery-v0.2","","""event"",""trial"",""time""
""fullscreenenter"",""1"",""3165""
","
","
","""event"",""trial"",""time""
""fullscreenenter"",""1"",""3165""
","
","","","644","","","23","13456","5798","u","elianto","#f73b6a7A"," "," ","1","0","[1493.9999999997672]","1","2","","","13456","54","0","3","lose","go","0"
"pit-trial","176","1133695","0.0-59.0","battery-v0.2","","""event"",""trial"",""time""
""fullscreenenter"",""1"",""3165""
","
","
","""event"",""trial"",""time""
""fullscreenenter"",""1"",""3165""
","
","","","-1","","","23","13456","5798","g","elianto","#f73b6a7A","-1","-1","1","-10","[]","0","2","","","13456","55","3","4","lose","no-go","1"
"pit-trial","177","1137165","0.0-60.0","battery-v0.2","","""event"",""trial"",""time""
""fullscreenenter"",""1"",""3165""
","
","
","""event"",""trial"",""time""
""fullscreenenter"",""1"",""3165""
","
","","","613","","","23","13456","5798","l","elianto","#3366ff99","-1"," ","0","+10","[1464]","1","2","","","13456","56","1","2","win","no-go","1"
"pit-trial","178","1140736","0.0-61.0","battery-v0.2","","""event"",""trial"",""time""
""fullscreenenter"",""1"",""3165""
","
","
","""event"",""trial"",""time""
""fullscreenenter"",""1"",""3165""
","
","","","716","","","23","13456","5798","a","elianto","#f73b6a7A"," "," ","1","0","[1568]","1","2","","","13456","57","2","3","lose","go","0"
"pit-trial","179","1144326","0.0-62.0","battery-v0.2","","""event"",""trial"",""time""
""fullscreenenter"",""1"",""3165""
","
","
","""event"",""trial"",""time""
""fullscreenenter"",""1"",""3165""
","
","","","734","","","23","13456","5798","p","elianto","#3366ff99"," "," ","1","+10","[1584]","1","2","","","13456","58","4","1","win","go","0"
"pit-trial","180","1148013","0.0-63.0","battery-v0.2","","""event"",""trial"",""time""
""fullscreenenter"",""1"",""3165""
","
","
","""event"",""trial"",""time""
""fullscreenenter"",""1"",""3165""
","
","","","832","","","23","13456","5798","u","elianto","#f73b6a7A"," "," ","1","0","[1683]","1","2","","","13456","59","0","3","lose","go","0"
"pit-trial","181","1152870","0.0-64.0","battery-v0.2","","""event"",""trial"",""time""
""fullscreenenter"",""1"",""3165""
","
","
","""event"",""trial"",""time""
""fullscreenenter"",""1"",""3165""
","
","","","-1","","","23","13456","5798","g","elianto","#f73b6a7A","-1","-1","1","0","[]","0","2","","","13456","60","3","4","lose","no-go","0"
"pit-trial","182","1156497","0.0-65.0","battery-v0.2","","""event"",""trial"",""time""
""fullscreenenter"",""1"",""3165""
","
","
","""event"",""trial"",""time""
""fullscreenenter"",""1"",""3165""
","
","","","770","","","23","13456","5798","l","elianto","#3366ff99","-1"," ","0","0","[1621]","1","2","","","13456","61","1","2","win","no-go","0"
"pit-trial","183","1160035","0.0-66.0","battery-v0.2","","""event"",""trial"",""time""
""fullscreenenter"",""1"",""3165""
","
","
","""event"",""trial"",""time""
""fullscreenenter"",""1"",""3165""
","
","","","681","","","23","13456","5798","a","elianto","#f73b6a7A"," "," ","1","0","[1532]","1","2","","","13456","62","2","3","lose","go","0"
"pit-trial","184","1164891","0.0-67.0","battery-v0.2","","""event"",""trial"",""time""
""fullscreenenter"",""1"",""3165""
","
","
","""event"",""trial"",""time""
""fullscreenenter"",""1"",""3165""
","
","","","-1","","","23","13456","5798","g","elianto","#f73b6a7A","-1","-1","1","0","[]","0","2","","","13456","63","3","4","lose","no-go","0"
"pit-trial","185","1168490","0.0-68.0","battery-v0.2","","""event"",""trial"",""time""
""fullscreenenter"",""1"",""3165""
","
","
","""event"",""trial"",""time""
""fullscreenenter"",""1"",""3165""
","
","","","741.9999999997672","","","23","13456","5798","p","elianto","#3366ff99"," "," ","1","+10","[1594]","1","2","","","13456","64","4","1","win","go","0"
"pit-trial","186","1173347","0.0-69.0","battery-v0.2","","""event"",""trial"",""time""
""fullscreenenter"",""1"",""3165""
","
","
","""event"",""trial"",""time""
""fullscreenenter"",""1"",""3165""
","
","","","-1","","","23","13456","5798","g","elianto","#f73b6a7A","-1","-1","1","0","[]","0","2","","","13456","65","3","4","lose","no-go","0"
"pit-trial","187","1176896","0.0-70.0","battery-v0.2","","""event"",""trial"",""time""
""fullscreenenter"",""1"",""3165""
","
","
","""event"",""trial"",""time""
""fullscreenenter"",""1"",""3165""
","
","","","695","","","23","13456","5798","p","elianto","#3366ff99"," "," ","1","+10","[1545]","1","2","","","13456","66","4","1","win","go","0"
"pit-trial","188","1180582","0.0-71.0","battery-v0.2","","""event"",""trial"",""time""
""fullscreenenter"",""1"",""3165""
","
","
","""event"",""trial"",""time""
""fullscreenenter"",""1"",""3165""
","
","","","830","","","23","13456","5798","s","elianto","#3366ff99","-1"," ","0","0","[1680.9999999997672]","1","2","","","13456","67","5","2","win","no-go","0"
"pit-trial","189","1184062","0.0-72.0","battery-v0.2","","""event"",""trial"",""time""
""fullscreenenter"",""1"",""3165""
","
","
","""event"",""trial"",""time""
""fullscreenenter"",""1"",""3165""
","
","","","625","","","23","13456","5798","l","elianto","#3366ff99","-1"," ","0","+10","[1475]","1","2","","","13456","68","1","2","win","no-go","1"
"pit-trial","190","1187496","0.0-73.0","battery-v0.2","","""event"",""trial"",""time""
""fullscreenenter"",""1"",""3165""
","
","
","""event"",""trial"",""time""
""fullscreenenter"",""1"",""3165""
","
","","","578","","","23","13456","5798","a","elianto","#f73b6a7A"," "," ","1","0","[1429]","1","2","","","13456","69","2","3","lose","go","0"
"pit-trial","191","1191112","0.0-74.0","battery-v0.2","","""event"",""trial"",""time""
""fullscreenenter"",""1"",""3165""
","
","
","""event"",""trial"",""time""
""fullscreenenter"",""1"",""3165""
","
","","","761","","","23","13456","5798","s","elianto","#3366ff99","-1"," ","0","0","[1611]","1","2","","","13456","70","5","2","win","no-go","0"
"pit-trial","192","1194456","0.0-75.0","battery-v0.2","","""event"",""trial"",""time""
""fullscreenenter"",""1"",""3165""
","
","
","""event"",""trial"",""time""
""fullscreenenter"",""1"",""3165""
","
","","","488.99999999976717","","","23","13456","5798","p","elianto","#3366ff99"," "," ","1","+10","[1339]","1","2","","","13456","71","4","1","win","go","0"
"pit-trial","193","1197954","0.0-76.0","battery-v0.2","","""event"",""trial"",""time""
""fullscreenenter"",""1"",""3165""
","
","
","""event"",""trial"",""time""
""fullscreenenter"",""1"",""3165""
","
","","","641.9999999997672","","","23","13456","5798","l","elianto","#3366ff99","-1"," ","0","0","[1494]","1","2","","","13456","72","1","2","win","no-go","0"
"pit-trial","194","1201392","0.0-77.0","battery-v0.2","","""event"",""trial"",""time""
""fullscreenenter"",""1"",""3165""
","
","
","""event"",""trial"",""time""
""fullscreenenter"",""1"",""3165""
","
","","","581","","","23","13456","5798","s","elianto","#3366ff99","-1"," ","0","0","[1432]","1","2","","","13456","73","5","2","win","no-go","0"
"pit-trial","195","1205001","0.0-78.0","battery-v0.2","","""event"",""trial"",""time""
""fullscreenenter"",""1"",""3165""
","
","
","""event"",""trial"",""time""
""fullscreenenter"",""1"",""3165""
","
","","","753","","","23","13456","5798","l","elianto","#3366ff99","-1"," ","0","0","[1603]","1","2","","","13456","74","1","2","win","no-go","0"
"pit-trial","196","1208518","0.0-79.0","battery-v0.2","","""event"",""trial"",""time""
""fullscreenenter"",""1"",""3165""
","
","
","""event"",""trial"",""time""
""fullscreenenter"",""1"",""3165""
","
","","","662","","","23","13456","5798","p","elianto","#3366ff99"," "," ","1","+10","[1512]","1","2","","","13456","75","4","1","win","go","0"
"pit-trial","197","1213374","0.0-80.0","battery-v0.2","","""event"",""trial"",""time""
""fullscreenenter"",""1"",""3165""
","
","
","""event"",""trial"",""time""
""fullscreenenter"",""1"",""3165""
","
","","","-1","","","23","13456","5798","g","elianto","#f73b6a7A","-1","-1","1","0","[]","0","2","","","13456","76","3","4","lose","no-go","0"
"pit-trial","198","1216803","0.0-81.0","battery-v0.2","","""event"",""trial"",""time""
""fullscreenenter"",""1"",""3165""
","
","
","""event"",""trial"",""time""
""fullscreenenter"",""1"",""3165""
","
","","","574","","","23","13456","5798","p","elianto","#3366ff99"," "," ","1","0","[1425]","1","2","","","13456","77","4","1","win","go","1"
"pit-trial","199","1220321","0.0-82.0","battery-v0.2","","""event"",""trial"",""time""
""fullscreenenter"",""1"",""3165""
","
","
","""event"",""trial"",""time""
""fullscreenenter"",""1"",""3165""
","
","","","662.9999999997672","","","23","13456","5798","s","elianto","#3366ff99","-1"," ","0","0","[1513]","1","2","","","13456","78","5","2","win","no-go","0"
"pit-trial","200","1223636","0.0-83.0","battery-v0.2","","""event"",""trial"",""time""
""fullscreenenter"",""1"",""3165""
","
","
","""event"",""trial"",""time""
""fullscreenenter"",""1"",""3165""
","
","","","458.99999999976717","","","23","13456","5798","p","elianto","#3366ff99"," "," ","1","+10","[1310]","1","2","","","13456","79","4","1","win","go","0"
"pit-trial","201","1228492","0.0-84.0","battery-v0.2","","""event"",""trial"",""time""
""fullscreenenter"",""1"",""3165""
","
","
","""event"",""trial"",""time""
""fullscreenenter"",""1"",""3165""
","
","","","-1","","","23","13456","5798","g","elianto","#f73b6a7A","-1","-1","1","0","[]","0","2","","","13456","80","3","4","lose","no-go","0"
"pit-trial","202","1231871","0.0-85.0","battery-v0.2","","""event"",""trial"",""time""
""fullscreenenter"",""1"",""3165""
","
","
","""event"",""trial"",""time""
""fullscreenenter"",""1"",""3165""
","
","","","525","","","23","13456","5798","p","elianto","#3366ff99"," "," ","1","0","[1375]","1","2","","","13456","81","4","1","win","go","1"
"pit-trial","203","1235278","0.0-86.0","battery-v0.2","","""event"",""trial"",""time""
""fullscreenenter"",""1"",""3165""
","
","
","""event"",""trial"",""time""
""fullscreenenter"",""1"",""3165""
","
","","","552","","","23","13456","5798","s","elianto","#3366ff99","-1"," ","0","0","[1402]","1","2","","","13456","82","5","2","win","no-go","0"
"pit-trial","204","1238771","0.0-87.0","battery-v0.2","","""event"",""trial"",""time""
""fullscreenenter"",""1"",""3165""
","
","
","""event"",""trial"",""time""
""fullscreenenter"",""1"",""3165""
","
","","","637","","","23","13456","5798","e","elianto","#f73b6a7A","-1"," ","0","-10","[1488]","1","2","","","13456","83","7","4","lose","no-go","0"
"pit-trial","205","1243626","0.0-88.0","battery-v0.2","","""event"",""trial"",""time""
""fullscreenenter"",""1"",""3165""
","
","
","""event"",""trial"",""time""
""fullscreenenter"",""1"",""3165""
","
","","","-1","","","23","13456","5798","g","elianto","#f73b6a7A","-1","-1","1","0","[]","0","2","","","13456","84","3","4","lose","no-go","0"
"pit-trial","206","1247114","0.0-89.0","battery-v0.2","","""event"",""trial"",""time""
""fullscreenenter"",""1"",""3165""
","
","
","""event"",""trial"",""time""
""fullscreenenter"",""1"",""3165""
","
","","","634","","","23","13456","5798","e","elianto","#f73b6a7A","-1"," ","0","-10","[1484]","1","2","","","13456","85","7","4","lose","no-go","0"
"pit-trial","207","1250590","0.0-90.0","battery-v0.2","","""event"",""trial"",""time""
""fullscreenenter"",""1"",""3165""
","
","
","""event"",""trial"",""time""
""fullscreenenter"",""1"",""3165""
","
","","","620.0000000002328","","","23","13456","5798","s","elianto","#3366ff99","-1"," ","0","+10","[1470.0000000002328]","1","2","","","13456","86","5","2","win","no-go","1"
"pit-trial","208","1254026","0.0-91.0","battery-v0.2","","""event"",""trial"",""time""
""fullscreenenter"",""1"",""3165""
","
","
","""event"",""trial"",""time""
""fullscreenenter"",""1"",""3165""
","
","","","580.9999999997672","","","23","13456","5798","p","elianto","#3366ff99"," "," ","1","+10","[1431]","1","2","","","13456","87","4","1","win","go","0"
"pit-trial","209","1257813","0.0-92.0","battery-v0.2","","""event"",""trial"",""time""
""fullscreenenter"",""1"",""3165""
","
","
","""event"",""trial"",""time""
""fullscreenenter"",""1"",""3165""
","
","","","932","","","23","13456","5798","w","elianto","#f73b6a7A"," "," ","1","0","[1781.9999999997672]","1","2","","","13456","88","6","3","lose","go","0"
"pit-trial","210","1261383","0.0-93.0","battery-v0.2","","""event"",""trial"",""time""
""fullscreenenter"",""1"",""3165""
","
","
","""event"",""trial"",""time""
""fullscreenenter"",""1"",""3165""
","
","","","715","","","23","13456","5798","s","elianto","#3366ff99","-1"," ","0","+10","[1565]","1","2","","","13456","89","5","2","win","no-go","1"
"pit-trial","211","1265039","0.0-94.0","battery-v0.2","","""event"",""trial"",""time""
""fullscreenenter"",""1"",""3165""
","
","
","""event"",""trial"",""time""
""fullscreenenter"",""1"",""3165""
","
","","","800","","","23","13456","5798","w","elianto","#f73b6a7A"," "," ","1","-10","[1651]","1","2","","","13456","90","6","3","lose","go","1"
"pit-trial","212","1269060","0.0-95.0","battery-v0.2","","""event"",""trial"",""time""
""fullscreenenter"",""1"",""3165""
","
","
","""event"",""trial"",""time""
""fullscreenenter"",""1"",""3165""
","
","","","1166","","","23","13456","5798","e","elianto","#f73b6a7A","-1"," ","0","-10","[2016]","1","2","","","13456","91","7","4","lose","no-go","0"
"pit-trial","213","1272440","0.0-96.0","battery-v0.2","","""event"",""trial"",""time""
""fullscreenenter"",""1"",""3165""
","
","
","""event"",""trial"",""time""
""fullscreenenter"",""1"",""3165""
","
","","","524.9999999997672","","","23","13456","5798","p","elianto","#3366ff99"," "," ","1","0","[1375]","1","2","","","13456","92","4","1","win","go","1"
"pit-trial","214","1275888","0.0-97.0","battery-v0.2","","""event"",""trial"",""time""
""fullscreenenter"",""1"",""3165""
","
","
","""event"",""trial"",""time""
""fullscreenenter"",""1"",""3165""
","
","","","593","","","23","13456","5798","w","elianto","#f73b6a7A"," "," ","1","0","[1443]","1","2","","","13456","93","6","3","lose","go","0"
"pit-trial","215","1279259","0.0-98.0","battery-v0.2","","""event"",""trial"",""time""
""fullscreenenter"",""1"",""3165""
","
","
","""event"",""trial"",""time""
""fullscreenenter"",""1"",""3165""
","
","","","516","","","23","13456","5798","d","elianto","#3366ff99"," "," ","1","+10","[1366]","1","2","","","13456","94","8","1","win","go","0"
"pit-trial","216","1283196","0.0-99.0","battery-v0.2","","""event"",""trial"",""time""
""fullscreenenter"",""1"",""3165""
","
","
","""event"",""trial"",""time""
""fullscreenenter"",""1"",""3165""
","
","","","1081","","","23","13456","5798","e","elianto","#f73b6a7A","-1"," ","0","-10","[1932]","1","2","","","13456","95","7","4","lose","no-go","0"
"pit-trial","217","1286669","0.0-100.0","battery-v0.2","","""event"",""trial"",""time""
""fullscreenenter"",""1"",""3165""
","
","
","""event"",""trial"",""time""
""fullscreenenter"",""1"",""3165""
","
","","","618","","","23","13456","5798","s","elianto","#3366ff99","-1"," ","0","0","[1468]","1","2","","","13456","96","5","2","win","no-go","0"
"pit-trial","218","1290064","0.0-101.0","battery-v0.2","","""event"",""trial"",""time""
""fullscreenenter"",""1"",""3165""
","
","
","""event"",""trial"",""time""
""fullscreenenter"",""1"",""3165""
","
","","","538","","","23","13456","5798","d","elianto","#3366ff99"," "," ","1","0","[1389]","1","2","","","13456","97","8","1","win","go","1"
"pit-trial","219","1293676","0.0-102.0","battery-v0.2","","""event"",""trial"",""time""
""fullscreenenter"",""1"",""3165""
","
","
","""event"",""trial"",""time""
""fullscreenenter"",""1"",""3165""
","
","","","756","","","23","13456","5798","w","elianto","#f73b6a7A"," "," ","1","0","[1607]","1","2","","","13456","98","6","3","lose","go","0"
"pit-trial","220","1297189","0.0-103.0","battery-v0.2","","""event"",""trial"",""time""
""fullscreenenter"",""1"",""3165""
","
","
","""event"",""trial"",""time""
""fullscreenenter"",""1"",""3165""
","
","","","657","","","23","13456","5798","s","elianto","#3366ff99","-1"," ","0","+10","[1508]","1","2","","","13456","99","5","2","win","no-go","1"
"pit-trial","221","1302044","0.0-104.0","battery-v0.2","","""event"",""trial"",""time""
""fullscreenenter"",""1"",""3165""
","
","
","""event"",""trial"",""time""
""fullscreenenter"",""1"",""3165""
","
","","","-1","","","23","13456","5798","e","elianto","#f73b6a7A","-1","-1","1","0","[]","0","2","","","13456","100","7","4","lose","no-go","0"
"pit-trial","222","1306900","0.0-105.0","battery-v0.2","","""event"",""trial"",""time""
""fullscreenenter"",""1"",""3165""
","
","
","""event"",""trial"",""time""
""fullscreenenter"",""1"",""3165""
","
","","","-1","","","23","13456","5798","e","elianto","#f73b6a7A","-1","-1","1","0","[]","0","2","","","13456","101","7","4","lose","no-go","0"
"pit-trial","223","1310467","0.0-106.0","battery-v0.2","","""event"",""trial"",""time""
""fullscreenenter"",""1"",""3165""
","
","
","""event"",""trial"",""time""
""fullscreenenter"",""1"",""3165""
","
","","","711","","","23","13456","5798","j","elianto","#3366ff99"," "," ","1","+10","[1561]","1","2","","","13456","102","9","1","win","go","0"
"pit-trial","224","1314151","0.0-107.0","battery-v0.2","","""event"",""trial"",""time""
""fullscreenenter"",""1"",""3165""
","
","
","""event"",""trial"",""time""
""fullscreenenter"",""1"",""3165""
","
","","","828","","","23","13456","5798","s","elianto","#3366ff99","-1"," ","0","0","[1678]","1","2","","","13456","103","5","2","win","no-go","0"
"pit-trial","225","1317642","0.0-108.0","battery-v0.2","","""event"",""trial"",""time""
""fullscreenenter"",""1"",""3165""
","
","
","""event"",""trial"",""time""
""fullscreenenter"",""1"",""3165""
","
","","","636","","","23","13456","5798","d","elianto","#3366ff99"," "," ","1","+10","[1487]","1","2","","","13456","104","8","1","win","go","0"
"pit-trial","226","1321084","0.0-109.0","battery-v0.2","","""event"",""trial"",""time""
""fullscreenenter"",""1"",""3165""
","
","
","""event"",""trial"",""time""
""fullscreenenter"",""1"",""3165""
","
","","","584.9999999997672","","","23","13456","5798","p","elianto","#3366ff99"," "," ","1","+10","[1436]","1","2","","","13456","105","4","1","win","go","0"
"pit-trial","227","1324498","0.0-110.0","battery-v0.2","","""event"",""trial"",""time""
""fullscreenenter"",""1"",""3165""
","
","
","""event"",""trial"",""time""
""fullscreenenter"",""1"",""3165""
","
","","","558","","","23","13456","5798","d","elianto","#3366ff99"," "," ","1","0","[1409]","1","2","","","13456","106","8","1","win","go","1"
"pit-trial","228","1328124","0.0-111.0","battery-v0.2","","""event"",""trial"",""time""
""fullscreenenter"",""1"",""3165""
","
","
","""event"",""trial"",""time""
""fullscreenenter"",""1"",""3165""
","
","","","771","","","23","13456","5798","w","elianto","#f73b6a7A"," "," ","1","0","[1621]","1","2","","","13456","107","6","3","lose","go","0"
"pit-trial","229","1331539","0.0-112.0","battery-v0.2","","""event"",""trial"",""time""
""fullscreenenter"",""1"",""3165""
","
","
","""event"",""trial"",""time""
""fullscreenenter"",""1"",""3165""
","
","","","559","","","23","13456","5798","j","elianto","#3366ff99"," "," ","1","+10","[1410]","1","2","","","13456","108","9","1","win","go","0"
"pit-trial","230","1334920","0.0-113.0","battery-v0.2","","""event"",""trial"",""time""
""fullscreenenter"",""1"",""3165""
","
","
","""event"",""trial"",""time""
""fullscreenenter"",""1"",""3165""
","
","","","526.0000000002328","","","23","13456","5798","j","elianto","#3366ff99"," "," ","1","+10","[1377.0000000002328]","1","2","","","13456","109","9","1","win","go","0"
"pit-trial","231","1338471","0.0-114.0","battery-v0.2","","""event"",""trial"",""time""
""fullscreenenter"",""1"",""3165""
","
","
","""event"",""trial"",""time""
""fullscreenenter"",""1"",""3165""
","
","","","695","","","23","13456","5798","s","elianto","#3366ff99","-1"," ","0","+10","[1546]","1","2","","","13456","110","5","2","win","no-go","1"
"pit-trial","232","1341971","0.0-115.0","battery-v0.2","","""event"",""trial"",""time""
""fullscreenenter"",""1"",""3165""
","
","
","""event"",""trial"",""time""
""fullscreenenter"",""1"",""3165""
","
","","","644","","","23","13456","5798","w","elianto","#f73b6a7A"," "," ","1","0","[1495]","1","2","","","13456","111","6","3","lose","go","0"
"pit-trial","233","1345437","0.0-116.0","battery-v0.2","","""event"",""trial"",""time""
""fullscreenenter"",""1"",""3165""
","
","
","""event"",""trial"",""time""
""fullscreenenter"",""1"",""3165""
","
","","","612","","","23","13456","5798","d","elianto","#3366ff99"," "," ","1","+10","[1462]","1","2","","","13456","112","8","1","win","go","0"
"pit-trial","234","1349066","0.0-117.0","battery-v0.2","","""event"",""trial"",""time""
""fullscreenenter"",""1"",""3165""
","
","
","""event"",""trial"",""time""
""fullscreenenter"",""1"",""3165""
","
","","","774","","","23","13456","5798","w","elianto","#f73b6a7A"," "," ","1","0","[1624]","1","2","","","13456","113","6","3","lose","go","0"
"pit-trial","235","1352652","0.0-118.0","battery-v0.2","","""event"",""trial"",""time""
""fullscreenenter"",""1"",""3165""
","
","
","""event"",""trial"",""time""
""fullscreenenter"",""1"",""3165""
","
","","","732","","","23","13456","5798","j","elianto","#3366ff99"," "," ","1","+10","[1582]","1","2","","","13456","114","9","1","win","go","0"
"pit-trial","236","1356008","0.0-119.0","battery-v0.2","","""event"",""trial"",""time""
""fullscreenenter"",""1"",""3165""
","
","
","""event"",""trial"",""time""
""fullscreenenter"",""1"",""3165""
","
","","","501","","","23","13456","5798","s","elianto","#3366ff99","-1"," ","0","0","[1352]","1","2","","","13456","115","5","2","win","no-go","0"
"pit-trial","237","1359352","0.0-120.0","battery-v0.2","","""event"",""trial"",""time""
""fullscreenenter"",""1"",""3165""
","
","
","""event"",""trial"",""time""
""fullscreenenter"",""1"",""3165""
","
","","","488","","","23","13456","5798","d","elianto","#3366ff99"," "," ","1","+10","[1338]","1","2","","","13456","116","8","1","win","go","0"
"pit-trial","238","1362973","0.0-121.0","battery-v0.2","","""event"",""trial"",""time""
""fullscreenenter"",""1"",""3165""
","
","
","""event"",""trial"",""time""
""fullscreenenter"",""1"",""3165""
","
","","","766","","","23","13456","5798","w","elianto","#f73b6a7A"," "," ","1","-10","[1616]","1","2","","","13456","117","6","3","lose","go","1"
"pit-trial","239","1366470","0.0-122.0","battery-v0.2","","""event"",""trial"",""time""
""fullscreenenter"",""1"",""3165""
","
","
","""event"",""trial"",""time""
""fullscreenenter"",""1"",""3165""
","
","","","642","","","23","13456","5798","s","elianto","#3366ff99","-1"," ","0","0","[1492]","1","2","","","13456","118","5","2","win","no-go","0"
"pit-trial","240","1369861","0.0-123.0","battery-v0.2","","""event"",""trial"",""time""
""fullscreenenter"",""1"",""3165""
","
","
","""event"",""trial"",""time""
""fullscreenenter"",""1"",""3165""
","
","","","535","","","23","13456","5798","j","elianto","#3366ff99"," "," ","1","+10","[1386]","1","2","","","13456","119","9","1","win","go","0"
"pit-trial","241","1373317","0.0-124.0","battery-v0.2","","""event"",""trial"",""time""
""fullscreenenter"",""1"",""3165""
","
","
","""event"",""trial"",""time""
""fullscreenenter"",""1"",""3165""
","
","","","601","","","23","13456","5798","d","elianto","#3366ff99"," "," ","1","+10","[1451]","1","2","","","13456","120","8","1","win","go","0"
"pit-trial","242","1378174","0.0-125.0","battery-v0.2","","""event"",""trial"",""time""
""fullscreenenter"",""1"",""3165""
","
","
","""event"",""trial"",""time""
""fullscreenenter"",""1"",""3165""
","
","","","-1","","","23","13456","5798","e","elianto","#f73b6a7A","-1","-1","1","0","[]","0","2","","","13456","121","7","4","lose","no-go","0"
"pit-trial","243","1382147","0.0-126.0","battery-v0.2","","""event"",""trial"",""time""
""fullscreenenter"",""1"",""3165""
","
","
","""event"",""trial"",""time""
""fullscreenenter"",""1"",""3165""
","
","","","1118","","","23","13456","5798","j","elianto","#3366ff99"," "," ","1","+10","[1968.9999999997672]","1","2","","","13456","122","9","1","win","go","0"
"pit-trial","244","1386915","0.0-127.0","battery-v0.2","","""event"",""trial"",""time""
""fullscreenenter"",""1"",""3165""
","
","
","""event"",""trial"",""time""
""fullscreenenter"",""1"",""3165""
","
","","","1913","","","23","13456","5798","w","elianto","#f73b6a7A"," "," ","1","0","[2763]","1","2","","","13456","123","6","3","lose","go","0"
"pit-trial","245","1390457","0.0-128.0","battery-v0.2","","""event"",""trial"",""time""
""fullscreenenter"",""1"",""3165""
","
","
","""event"",""trial"",""time""
""fullscreenenter"",""1"",""3165""
","
","","","687.0000000002328","","","23","13456","5798","d","elianto","#3366ff99"," "," ","1","+10","[1537.0000000002328]","1","2","","","13456","124","8","1","win","go","0"
"pit-trial","246","1393987","0.0-129.0","battery-v0.2","","""event"",""trial"",""time""
""fullscreenenter"",""1"",""3165""
","
","
","""event"",""trial"",""time""
""fullscreenenter"",""1"",""3165""
","
","","","673.9999999997672","","","23","13456","5798","d","elianto","#3366ff99"," "," ","1","+10","[1525]","1","2","","","13456","125","8","1","win","go","0"
"pit-trial","247","1397451","0.0-130.0","battery-v0.2","","""event"",""trial"",""time""
""fullscreenenter"",""1"",""3165""
","
","
","""event"",""trial"",""time""
""fullscreenenter"",""1"",""3165""
","
","","","608","","","23","13456","5798","j","elianto","#3366ff99"," "," ","1","0","[1459]","1","2","","","13456","126","9","1","win","go","1"
"pit-trial","248","1401116","0.0-131.0","battery-v0.2","","""event"",""trial"",""time""
""fullscreenenter"",""1"",""3165""
","
","
","""event"",""trial"",""time""
""fullscreenenter"",""1"",""3165""
","
","","","810","","","23","13456","5798","w","elianto","#f73b6a7A"," "," ","1","0","[1659.9999999997672]","1","2","","","13456","127","6","3","lose","go","0"
"pit-trial","249","1405972","0.0-132.0","battery-v0.2","","""event"",""trial"",""time""
""fullscreenenter"",""1"",""3165""
","
","
","""event"",""trial"",""time""
""fullscreenenter"",""1"",""3165""
","
","","","-1","","","23","13456","5798","e","elianto","#f73b6a7A","-1","-1","1","0","[]","0","2","","","13456","128","7","4","lose","no-go","0"
"pit-trial","250","1410827","0.0-133.0","battery-v0.2","","""event"",""trial"",""time""
""fullscreenenter"",""1"",""3165""
","
","
","""event"",""trial"",""time""
""fullscreenenter"",""1"",""3165""
","
","","","-1","","","23","13456","5798","e","elianto","#f73b6a7A","-1","-1","1","0","[]","0","2","","","13456","129","7","4","lose","no-go","0"
"pit-trial","251","1414336","0.0-134.0","battery-v0.2","","""event"",""trial"",""time""
""fullscreenenter"",""1"",""3165""
","
","
","""event"",""trial"",""time""
""fullscreenenter"",""1"",""3165""
","
","","","653","","","23","13456","5798","d","elianto","#3366ff99"," "," ","1","+10","[1504]","1","2","","","13456","130","8","1","win","go","0"
"pit-trial","252","1417805","0.0-135.0","battery-v0.2","","""event"",""trial"",""time""
""fullscreenenter"",""1"",""3165""
","
","
","""event"",""trial"",""time""
""fullscreenenter"",""1"",""3165""
","
","","","613","","","23","13456","5798","j","elianto","#3366ff99"," "," ","1","+10","[1464]","1","2","","","13456","131","9","1","win","go","0"
"pit-trial","253","1421454","0.0-136.0","battery-v0.2","","""event"",""trial"",""time""
""fullscreenenter"",""1"",""3165""
","
","
","""event"",""trial"",""time""
""fullscreenenter"",""1"",""3165""
","
","","","794","","","23","13456","5798","w","elianto","#f73b6a7A"," "," ","1","0","[1645]","1","2","","","13456","132","6","3","lose","go","0"
"pit-trial","254","1424902","0.0-137.0","battery-v0.2","","""event"",""trial"",""time""
""fullscreenenter"",""1"",""3165""
","
","
","""event"",""trial"",""time""
""fullscreenenter"",""1"",""3165""
","
","","","593","","","23","13456","5798","d","elianto","#3366ff99"," "," ","1","+10","[1443]","1","2","","","13456","133","8","1","win","go","0"
"pit-trial","255","1428715","0.0-138.0","battery-v0.2","","""event"",""trial"",""time""
""fullscreenenter"",""1"",""3165""
","
","
","""event"",""trial"",""time""
""fullscreenenter"",""1"",""3165""
","
","","","957","","","23","13456","5798","e","elianto","#f73b6a7A","-1"," ","0","-10","[1807.9999999997672]","1","2","","","13456","134","7","4","lose","no-go","0"
"pit-trial","256","1432157","0.0-139.0","battery-v0.2","","""event"",""trial"",""time""
""fullscreenenter"",""1"",""3165""
","
","
","""event"",""trial"",""time""
""fullscreenenter"",""1"",""3165""
","
","","","587.9999999997672","","","23","13456","5798","j","elianto","#3366ff99"," "," ","1","+10","[1438]","1","2","","","13456","135","9","1","win","go","0"
"pit-trial","257","1436009","0.0-140.0","battery-v0.2","","""event"",""trial"",""time""
""fullscreenenter"",""1"",""3165""
","
","
","""event"",""trial"",""time""
""fullscreenenter"",""1"",""3165""
","
","","","996.9999999997672","","","23","13456","5798","w","elianto","#f73b6a7A"," "," ","1","0","[1847]","1","2","","","13456","136","6","3","lose","go","0"
"pit-trial","258","1439540","0.0-141.0","battery-v0.2","","""event"",""trial"",""time""
""fullscreenenter"",""1"",""3165""
","
","
","""event"",""trial"",""time""
""fullscreenenter"",""1"",""3165""
","
","","","676.0000000002328","","","23","13456","5798","d","elianto","#3366ff99"," "," ","1","0","[1526.0000000002328]","1","2","","","13456","137","8","1","win","go","1"
"pit-trial","259","1443091","0.0-142.0","battery-v0.2","","""event"",""trial"",""time""
""fullscreenenter"",""1"",""3165""
","
","
","""event"",""trial"",""time""
""fullscreenenter"",""1"",""3165""
","
","","","696","","","23","13456","5798","w","elianto","#f73b6a7A"," "," ","1","0","[1545]","1","2","","","13456","138","6","3","lose","go","0"
"pit-trial","260","1446550","0.0-143.0","battery-v0.2","","""event"",""trial"",""time""
""fullscreenenter"",""1"",""3165""
","
","
","""event"",""trial"",""time""
""fullscreenenter"",""1"",""3165""
","
","","","603.0000000002328","","","23","13456","5798","j","elianto","#3366ff99"," "," ","1","+10","[1454.0000000002328]","1","2","","","13456","139","9","1","win","go","0"
"pit-trial","261","1451404","0.0-144.0","battery-v0.2","","""event"",""trial"",""time""
""fullscreenenter"",""1"",""3165""
","
","
","""event"",""trial"",""time""
""fullscreenenter"",""1"",""3165""
","
","","","-1","","","23","13456","5798","e","elianto","#f73b6a7A","-1","-1","1","0","[]","0","2","","","13456","140","7","4","lose","no-go","0"
"pit-instructions","262","1465476","0.0-145.0","battery-v0.2","","""event"",""trial"",""time""
""fullscreenenter"",""1"",""3165""
","
","
","""event"",""trial"",""time""
""fullscreenenter"",""1"",""3165""
","
","","[{""page_index"":0,""viewing_time"":5800},{""page_index"":1,""viewing_time"":8268}]","14069","","","","","","","","","","","","","","","","","","","","","","","",""
"pit-trial","263","1469658","0.0-146.0","battery-v0.2","","""event"",""trial"",""time""
""fullscreenenter"",""1"",""3165""
","
","
","""event"",""trial"",""time""
""fullscreenenter"",""1"",""3165""
","
","","","1323","","","23","13456","5798","r","elianto","#3366ff99"," "," ","1","+10","[2174]","1","3","","","13456","141","1","1","win","go","0"
"pit-trial","264","1473234","0.0-147.0","battery-v0.2","","""event"",""trial"",""time""
""fullscreenenter"",""1"",""3165""
","
","
","""event"",""trial"",""time""
""fullscreenenter"",""1"",""3165""
","
","","","721","","","23","13456","5798","y","elianto","#f73b6a7A","-1"," ","0","-10","[1572]","1","3","","","13456","142","2","4","lose","no-go","0"
"pit-trial","265","1476597","0.0-148.0","battery-v0.2","","""event"",""trial"",""time""
""fullscreenenter"",""1"",""3165""
","
","
","""event"",""trial"",""time""
""fullscreenenter"",""1"",""3165""
","
","","","505","","","23","13456","5798","h","elianto","#f73b6a7A"," "," ","1","0","[1356]","1","3","","","13456","143","3","3","lose","go","0"
"pit-trial","266","1479948","0.0-149.0","battery-v0.2","","""event"",""trial"",""time""
""fullscreenenter"",""1"",""3165""
","
","
","""event"",""trial"",""time""
""fullscreenenter"",""1"",""3165""
","
","","","496","","","23","13456","5798","m","elianto","#f73b6a7A","-1"," ","0","-10","[1346]","1","3","","","13456","144","0","4","lose","no-go","0"
"pit-trial","267","1483313","0.0-150.0","battery-v0.2","","""event"",""trial"",""time""
""fullscreenenter"",""1"",""3165""
","
","
","""event"",""trial"",""time""
""fullscreenenter"",""1"",""3165""
","
","","","510","","","23","13456","5798","h","elianto","#f73b6a7A"," "," ","1","0","[1361]","1","3","","","13456","145","3","3","lose","go","0"
"pit-trial","268","1486593","0.0-151.0","battery-v0.2","","""event"",""trial"",""time""
""fullscreenenter"",""1"",""3165""
","
","
","""event"",""trial"",""time""
""fullscreenenter"",""1"",""3165""
","
","","","425","","","23","13456","5798","y","elianto","#f73b6a7A","-1"," ","0","-10","[1275]","1","3","","","13456","146","2","4","lose","no-go","0"
"pit-trial","269","1489941","0.0-152.0","battery-v0.2","","""event"",""trial"",""time""
""fullscreenenter"",""1"",""3165""
","
","
","""event"",""trial"",""time""
""fullscreenenter"",""1"",""3165""
","
","","","492","","","23","13456","5798","m","elianto","#f73b6a7A","-1"," ","0","-10","[1343]","1","3","","","13456","147","0","4","lose","no-go","0"
"pit-trial","270","1493492","0.0-153.0","battery-v0.2","","""event"",""trial"",""time""
""fullscreenenter"",""1"",""3165""
","
","
","""event"",""trial"",""time""
""fullscreenenter"",""1"",""3165""
","
","","","697","","","23","13456","5798","r","elianto","#3366ff99"," "," ","1","+10","[1547]","1","3","","","13456","148","1","1","win","go","0"
"pit-trial","271","1498348","0.0-154.0","battery-v0.2","","""event"",""trial"",""time""
""fullscreenenter"",""1"",""3165""
","
","
","""event"",""trial"",""time""
""fullscreenenter"",""1"",""3165""
","
","","","-1","","","23","13456","5798","m","elianto","#f73b6a7A","-1","-1","1","0","[]","0","3","","","13456","149","0","4","lose","no-go","0"
"pit-trial","272","1503203","0.0-155.0","battery-v0.2","","""event"",""trial"",""time""
""fullscreenenter"",""1"",""3165""
","
","
","""event"",""trial"",""time""
""fullscreenenter"",""1"",""3165""
","
","","","-1","","","23","13456","5798","y","elianto","#f73b6a7A","-1","-1","1","0","[]","0","3","","","13456","150","2","4","lose","no-go","0"
"pit-trial","273","1506617","0.0-156.0","battery-v0.2","","""event"",""trial"",""time""
""fullscreenenter"",""1"",""3165""
","
","
","""event"",""trial"",""time""
""fullscreenenter"",""1"",""3165""
","
","","","557","","","23","13456","5798","r","elianto","#3366ff99"," "," ","1","+10","[1407]","1","3","","","13456","151","1","1","win","go","0"
"pit-trial","274","1510009","0.0-157.0","battery-v0.2","","""event"",""trial"",""time""
""fullscreenenter"",""1"",""3165""
","
","
","""event"",""trial"",""time""
