"trial_type","trial_index","time_elapsed","internal_node_id","task_version","subject_id","interactions","blur_events","focus_events","fullscreenenter_events","fullscreenexit_events","success","view_history","rt","responses","num_errors","age","subject","participantId","rune","rune_set","hex","correct","choice","accuracy","outcome","keys","total_keys","block","practice","value","sub","trial","stimulus","robot","valence","action","sham"
"pavlovia","0","60","0.0-0.0","battery-v0.2","","""event"",""trial"",""time""
""fullscreenenter"",""1"",""11334""
","
","
","""event"",""trial"",""time""
""fullscreenenter"",""1"",""11334""
","
","","","","","","","","","","","","","","","","","","","","","","","","","","",""
"fullscreen","1","12099","0.0-1.0","battery-v0.2","","""event"",""trial"",""time""
""fullscreenenter"",""1"",""11334""
","
","
","""event"",""trial"",""time""
""fullscreenenter"",""1"",""11334""
","
","true","","","","","","","","","","","","","","","","","","","","","","","","","",""
"pit-instructions","2","21301","0.0-2.0-0.0","battery-v0.2","","""event"",""trial"",""time""
""fullscreenenter"",""1"",""11334""
","
","
","""event"",""trial"",""time""
""fullscreenenter"",""1"",""11334""
","
","","[{""page_index"":0,""viewing_time"":9159.600000023842}]","9161.800000071526","","","","","","","","","","","","","","","","","","","","","","","",""
"pit-comprehension","3","27646","0.0-2.0-1.0-0.0","battery-v0.2","","""event"",""trial"",""time""
""fullscreenenter"",""1"",""11334""
","
","
","""event"",""trial"",""time""
""fullscreenenter"",""1"",""11334""
","
","","","6323.300000071526","[""shark""]","0","13","3511","2085","","","","","","","","","","","","","","","","","","",""
"pit-instructions","4","32234","0.0-2.0-1.0-1.0","battery-v0.2","","""event"",""trial"",""time""
""fullscreenenter"",""1"",""11334""
","
","
","""event"",""trial"",""time""
""fullscreenenter"",""1"",""11334""
","
","","[{""page_index"":0,""viewing_time"":4502.899999976158}]","4505.100000023842","","","","","","","","","","","","","","","","","","","","","","","",""
"pit-comprehension","5","36046","0.0-2.0-2.0-0.0","battery-v0.2","","""event"",""trial"",""time""
""fullscreenenter"",""1"",""11334""
","
","
","""event"",""trial"",""time""
""fullscreenenter"",""1"",""11334""
","
","","","3788.6999999284744","[""tiger""]","0","13","3511","2085","","","","","","","","","","","","","","","","","","",""
"pit-instructions","6","37883","0.0-2.0-2.0-1.0","battery-v0.2","","""event"",""trial"",""time""
""fullscreenenter"",""1"",""11334""
","
","
","""event"",""trial"",""time""
""fullscreenenter"",""1"",""11334""
","
","","[{""page_index"":0,""viewing_time"":1820.6999999284744}]","1822.1999999284744","","","","","","","","","","","","","","","","","","","","","","","",""
"pit-instructions","7","168740","0.0-2.0-3.0","battery-v0.2","","""event"",""trial"",""time""
""fullscreenenter"",""1"",""11334""
","
","
","""event"",""trial"",""time""
""fullscreenenter"",""1"",""11334""
","
","","[{""page_index"":0,""viewing_time"":10413.799999952316},{""page_index"":1,""viewing_time"":6938.300000071526},{""page_index"":2,""viewing_time"":7650},{""page_index"":3,""viewing_time"":14681},{""page_index"":4,""viewing_time"":9093.699999928474},{""page_index"":5,""viewing_time"":7273},{""page_index"":6,""viewing_time"":8984.700000047684},{""page_index"":7,""viewing_time"":8241},{""page_index"":8,""viewing_time"":7212.899999976158},{""page_index"":9,""viewing_time"":9971.5},{""page_index"":10,""viewing_time"":12889.299999952316},{""page_index"":11,""viewing_time"":12679.600000023842},{""page_index"":12,""viewing_time"":8474},{""page_index"":13,""viewing_time"":6335.300000071526}]","130839.89999997616","","","","","","","","","","","","","","","","","","","","","","","",""
"pit-trial","8","172710","0.0-2.0-4.0-0.0","battery-v0.2","","""event"",""trial"",""time""
""fullscreenenter"",""1"",""11334""
","
","
","""event"",""trial"",""time""
""fullscreenenter"",""1"",""11334""
","
","","","1083.8999999761581","","","13","3511","2085","&#9784;","elianto","#FFFFF080"," "," ","1","&#10004","[1945.1999999284744]","1","0","0","","","","","","","",""
"pit-trial","9","177109","0.0-2.0-4.1-0.1","battery-v0.2","","""event"",""trial"",""time""
""fullscreenenter"",""1"",""11334""
","
","
","""event"",""trial"",""time""
""fullscreenenter"",""1"",""11334""
","
","","","1528.7000000476837","","","13","3511","2085","&#9784;","elianto","#FFFFF080"," "," ","1","&#10004","[2380.399999976158]","1","0","0","","","","","","","",""
"pit-trial","10","181030","0.0-2.0-4.2-0.2","battery-v0.2","","""event"",""trial"",""time""
""fullscreenenter"",""1"",""11334""
","
","
","""event"",""trial"",""time""
""fullscreenenter"",""1"",""11334""
","
","","","1033.5","","","13","3511","2085","&#9784;","elianto","#FFFFF080"," "," ","1","&#10004","[1886.6999999284744]","1","0","0","","","","","","","",""
"pit-trial","11","185920","0.0-2.0-4.3-0.3","battery-v0.2","","""event"",""trial"",""time""
""fullscreenenter"",""1"",""11334""
","
","
","""event"",""trial"",""time""
""fullscreenenter"",""1"",""11334""
","
","","","-1","","","13","3511","2085","&#9784;","elianto","#FFFFF080"," ","-1","0","&#10060","[3392.100000023842]","1","0","0","","","","","","","",""
"pit-trial","12","189421","0.0-2.0-4.4-0.4","battery-v0.2","","""event"",""trial"",""time""
""fullscreenenter"",""1"",""11334""
","
","
","""event"",""trial"",""time""
""fullscreenenter"",""1"",""11334""
","
","","","613.2000000476837","","","13","3511","2085","&#9784;","elianto","#FFFFF080"," "," ","1","&#10004","[1467.6000000238419]","1","0","0","","","","","","","",""
"pit-trial","13","192837","0.0-2.0-4.5-0.5","battery-v0.2","","""event"",""trial"",""time""
""fullscreenenter"",""1"",""11334""
","
","
","""event"",""trial"",""time""
""fullscreenenter"",""1"",""11334""
","
","","","535.8999999761581","","","13","3511","2085","&#9784;","elianto","#FFFFF080"," "," ","1","&#10004","[1387.2000000476837]","1","0","0","","","","","","","",""
"pit-trial","14","196799","0.0-2.0-4.6-0.6","battery-v0.2","","""event"",""trial"",""time""
""fullscreenenter"",""1"",""11334""
","
","
","""event"",""trial"",""time""
""fullscreenenter"",""1"",""11334""
","
","","","1086.3999999761581","","","13","3511","2085","&#9784;","elianto","#FFFFF080"," "," ","1","&#10004","[1937.0999999046326]","1","0","0","","","","","","","",""
"pit-instructions","15","211648","0.0-2.0-4.6-1.6-0.6","battery-v0.2","","""event"",""trial"",""time""
""fullscreenenter"",""1"",""11334""
","
","
","""event"",""trial"",""time""
""fullscreenenter"",""1"",""11334""
","
","","[{""page_index"":0,""viewing_time"":6736.300000071526},{""page_index"":1,""viewing_time"":8105.5}]","14842.900000095367","","","","","","","","","","","","","","","","","","","","","","","",""
"pit-instructions","16","236833","0.0-2.0-5.0","battery-v0.2","","""event"",""trial"",""time""
""fullscreenenter"",""1"",""11334""
","
","
","""event"",""trial"",""time""
""fullscreenenter"",""1"",""11334""
","
","","[{""page_index"":0,""viewing_time"":6616.300000071526},{""page_index"":1,""viewing_time"":6766.5},{""page_index"":2,""viewing_time"":5797},{""page_index"":3,""viewing_time"":5984.699999928474}]","25165.600000023842","","","","","","","","","","","","","","","","","","","","","","","",""
"pit-trial","17","241723","0.0-2.0-6.0-0.0","battery-v0.2","","""event"",""trial"",""time""
""fullscreenenter"",""1"",""11334""
","
","
","""event"",""trial"",""time""
""fullscreenenter"",""1"",""11334""
","
","","","-1","","","13","3511","2085","&#9854;","elianto","#FFFFF080","-1","-1","1","&#10004","[]","0","0","1","","","","","","","",""
"pit-trial","18","246617","0.0-2.0-6.1-0.1","battery-v0.2","","""event"",""trial"",""time""
""fullscreenenter"",""1"",""11334""
","
","
","""event"",""trial"",""time""
""fullscreenenter"",""1"",""11334""
","
","","","-1","","","13","3511","2085","&#9854;","elianto","#FFFFF080","-1","-1","1","&#10004","[]","0","0","1","","","","","","","",""
"pit-trial","19","251521","0.0-2.0-6.2-0.2","battery-v0.2","","""event"",""trial"",""time""
""fullscreenenter"",""1"",""11334""
","
","
","""event"",""trial"",""time""
""fullscreenenter"",""1"",""11334""
","
","","","-1","","","13","3511","2085","&#9854;","elianto","#FFFFF080","-1","-1","1","&#10004","[]","0","0","1","","","","","","","",""
"pit-trial","20","256401","0.0-2.0-6.3-0.3","battery-v0.2","","""event"",""trial"",""time""
""fullscreenenter"",""1"",""11334""
","
","
","""event"",""trial"",""time""
""fullscreenenter"",""1"",""11334""
","
","","","-1","","","13","3511","2085","&#9854;","elianto","#FFFFF080","-1","-1","1","&#10004","[4514.600000023842]","1","0","1","","","","","","","",""
"pit-trial","21","261296","0.0-2.0-6.4-0.4","battery-v0.2","","""event"",""trial"",""time""
""fullscreenenter"",""1"",""11334""
","
","
","""event"",""trial"",""time""
""fullscreenenter"",""1"",""11334""
","
","","","-1","","","13","3511","2085","&#9854;","elianto","#FFFFF080","-1","-1","1","&#10004","[]","0","0","1","","","","","","","",""
"pit-instructions","22","402382","0.0-2.0-7.0","battery-v0.2","","""event"",""trial"",""time""
""fullscreenenter"",""1"",""11334""
","
","
","""event"",""trial"",""time""
""fullscreenenter"",""1"",""11334""
","
","","[{""page_index"":0,""viewing_time"":8581.600000023842},{""page_index"":1,""viewing_time"":8110.399999976158},{""page_index"":2,""viewing_time"":5833.799999952316},{""page_index"":3,""viewing_time"":6968.600000023842},{""page_index"":4,""viewing_time"":5389.5},{""page_index"":5,""viewing_time"":5470.299999952316},{""page_index"":6,""viewing_time"":7637.400000095367},{""page_index"":7,""viewing_time"":9390.799999952316},{""page_index"":8,""viewing_time"":8556.200000047684},{""page_index"":9,""viewing_time"":8279.399999976158},{""page_index"":10,""viewing_time"":8573.199999928474},{""page_index"":11,""viewing_time"":7924.400000095367},{""page_index"":12,""viewing_time"":7796.599999904633},{""page_index"":13,""viewing_time"":8036.400000095367},{""page_index"":14,""viewing_time"":10243.199999928474},{""page_index"":15,""viewing_time"":8443.399999976158},{""page_index"":16,""viewing_time"":6729},{""page_index"":17,""viewing_time"":9102.700000047684}]","141068.60000002384","","","","","","","","","","","","","","","","","","","","","","","",""
"pit-trial","23","406186","0.0-2.0-8.0-0.0","battery-v0.2","","""event"",""trial"",""time""
""fullscreenenter"",""1"",""11334""
","
","
","""event"",""trial"",""time""
""fullscreenenter"",""1"",""11334""
","
","","","918.1000000238419","","","13","3511","2085","&#9776;","elianto","#3366ff99"," "," ","1","+10","[1772.2000000476837]","1","0","1","","","","","","","",""
"pit-trial","24","409579","0.0-2.0-8.0-1.0","battery-v0.2","","""event"",""trial"",""time""
""fullscreenenter"",""1"",""11334""
","
","
","""event"",""trial"",""time""
""fullscreenenter"",""1"",""11334""
","
","","","508","","","13","3511","2085","&#9776;","elianto","#3366ff99"," "," ","1","+10","[1359.2999999523163]","1","0","1","","","","","","","",""
"pit-trial","25","412987","0.0-2.0-8.0-2.0","battery-v0.2","","""event"",""trial"",""time""
""fullscreenenter"",""1"",""11334""
","
","
","""event"",""trial"",""time""
""fullscreenenter"",""1"",""11334""
","
","","","540","","","13","3511","2085","&#9776;","elianto","#3366ff99"," "," ","1","+10","[1395.7000000476837]","1","0","1","","","","","","","",""
"pit-trial","26","416479","0.0-2.0-8.0-3.0","battery-v0.2","","""event"",""trial"",""time""
""fullscreenenter"",""1"",""11334""
","
","
","""event"",""trial"",""time""
""fullscreenenter"",""1"",""11334""
","
","","","617.3000000715256","","","13","3511","2085","&#9776;","elianto","#3366ff99"," "," ","1","0","[1467.6000000238419]","1","0","1","","","","","","","",""
"pit-trial","27","420178","0.0-2.0-8.0-4.0","battery-v0.2","","""event"",""trial"",""time""
""fullscreenenter"",""1"",""11334""
","
","
","""event"",""trial"",""time""
""fullscreenenter"",""1"",""11334""
","
","","","821","","","13","3511","2085","&#9776;","elianto","#3366ff99"," "," ","1","+10","[1672.6999999284744]","1","0","1","","","","","","","",""
"pit-trial","28","423617","0.0-2.0-8.1-0.1","battery-v0.2","","""event"",""trial"",""time""
""fullscreenenter"",""1"",""11334""
","
","
","""event"",""trial"",""time""
""fullscreenenter"",""1"",""11334""
","
","","","558.7000000476837","","","13","3511","2085","&#9776;","elianto","#3366ff99"," "," ","1","+10","[1417.2000000476837]","1","0","1","","","","","","","",""
"pit-trial","29","427097","0.0-2.0-8.1-1.1","battery-v0.2","","""event"",""trial"",""time""
""fullscreenenter"",""1"",""11334""
","
","
","""event"",""trial"",""time""
""fullscreenenter"",""1"",""11334""
","
","","","582.3000000715256","","","13","3511","2085","&#9776;","elianto","#3366ff99"," "," ","1","+10","[1444.3999999761581]","1","0","1","","","","","","","",""
"pit-trial","30","430888","0.0-2.0-8.1-2.1","battery-v0.2","","""event"",""trial"",""time""
""fullscreenenter"",""1"",""11334""
","
","
","""event"",""trial"",""time""
""fullscreenenter"",""1"",""11334""
","
","","","914","","","13","3511","2085","&#9776;","elianto","#3366ff99"," "," ","1","+10","[1779.1999999284744]","1","0","1","","","","","","","",""
"pit-trial","31","434259","0.0-2.0-8.1-3.1","battery-v0.2","","""event"",""trial"",""time""
""fullscreenenter"",""1"",""11334""
","
","
","""event"",""trial"",""time""
""fullscreenenter"",""1"",""11334""
","
","","","501","","","13","3511","2085","&#9776;","elianto","#3366ff99"," "," ","1","0","[1358.1000000238419]","1","0","1","","","","","","","",""
"pit-trial","32","437828","0.0-2.0-8.1-4.1","battery-v0.2","","""event"",""trial"",""time""
""fullscreenenter"",""1"",""11334""
","
","
","""event"",""trial"",""time""
""fullscreenenter"",""1"",""11334""
","
","","","695.3999999761581","","","13","3511","2085","&#9776;","elianto","#3366ff99"," "," ","1","+10","[1552.6000000238419]","1","0","1","","","","","","","",""
"pit-trial","33","441348","0.0-2.0-8.2-0.2","battery-v0.2","","""event"",""trial"",""time""
""fullscreenenter"",""1"",""11334""
","
","
","""event"",""trial"",""time""
""fullscreenenter"",""1"",""11334""
","
","","","649","","","13","3511","2085","&#9776;","elianto","#3366ff99"," "," ","1","+10","[1502.7999999523163]","1","0","1","","","","","","","",""
"pit-trial","34","444780","0.0-2.0-8.2-1.2","battery-v0.2","","""event"",""trial"",""time""
""fullscreenenter"",""1"",""11334""
","
","
","""event"",""trial"",""time""
""fullscreenenter"",""1"",""11334""
","
","","","562.6999999284744","","","13","3511","2085","&#9776;","elianto","#3366ff99"," "," ","1","+10","[1415.3000000715256]","1","0","1","","","","","","","",""
"pit-trial","35","448204","0.0-2.0-8.2-2.2","battery-v0.2","","""event"",""trial"",""time""
""fullscreenenter"",""1"",""11334""
","
","
","""event"",""trial"",""time""
""fullscreenenter"",""1"",""11334""
","
","","","554.5999999046326","","","13","3511","2085","&#9776;","elianto","#3366ff99"," "," ","1","+10","[1407.6999999284744]","1","0","1","","","","","","","",""
"pit-trial","36","451755","0.0-2.0-8.2-3.2","battery-v0.2","","""event"",""trial"",""time""
""fullscreenenter"",""1"",""11334""
","
","
","""event"",""trial"",""time""
""fullscreenenter"",""1"",""11334""
","
","","","676.3000000715256","","","13","3511","2085","&#9776;","elianto","#3366ff99"," "," ","1","0","[1536.5]","1","0","1","","","","","","","",""
"pit-trial","37","455404","0.0-2.0-8.2-4.2","battery-v0.2","","""event"",""trial"",""time""
""fullscreenenter"",""1"",""11334""
","
","
","""event"",""trial"",""time""
""fullscreenenter"",""1"",""11334""
","
","","","774","","","13","3511","2085","&#9776;","elianto","#3366ff99"," "," ","1","+10","[1632.2999999523163]","1","0","1","","","","","","","",""
"call-function","38","455415","0.0-2.0-9.0","battery-v0.2","","""event"",""trial"",""time""
""fullscreenenter"",""1"",""11334""
","
","
","""event"",""trial"",""time""
""fullscreenenter"",""1"",""11334""
","
","","","","","","","","","","","","","","","","","","","","","","","","","","",""
"pit-instructions","39","518513","0.0-2.0-10.0","battery-v0.2","","""event"",""trial"",""time""
""fullscreenenter"",""1"",""11334""
","
","
","""event"",""trial"",""time""
""fullscreenenter"",""1"",""11334""
","
","","[{""page_index"":0,""viewing_time"":14518.099999904633},{""page_index"":1,""viewing_time"":11152.100000023842},{""page_index"":2,""viewing_time"":10992.100000023842},{""page_index"":3,""viewing_time"":14682.899999976158},{""page_index"":4,""viewing_time"":11747.300000071526}]","63093.89999997616","","","","","","","","","","","","","","","","","","","","","","","",""
"pit-trial","40","523094","0.0-2.0-11.0-0.0","battery-v0.2","","""event"",""trial"",""time""
""fullscreenenter"",""1"",""11334""
","
","
","""event"",""trial"",""time""
""fullscreenenter"",""1"",""11334""
","
","","","1694.2999999523163","","","13","3511","2085","&#9761;","elianto","#3366ff99","-1"," ","0","0","[2547.9000000953674]","1","0","2","","","","","","","",""
"pit-trial","41","526855","0.0-2.0-11.0-1.0","battery-v0.2","","""event"",""trial"",""time""
""fullscreenenter"",""1"",""11334""
","
","
","""event"",""trial"",""time""
""fullscreenenter"",""1"",""11334""
","
","","","867.8000000715256","","","13","3511","2085","&#9761;","elianto","#3366ff99","-1"," ","0","0","[1727.3999999761581]","1","0","2","","","","","","","",""
"pit-trial","42","531729","0.0-2.0-11.0-2.0","battery-v0.2","","""event"",""trial"",""time""
""fullscreenenter"",""1"",""11334""
","
","
","""event"",""trial"",""time""
""fullscreenenter"",""1"",""11334""
","
","","","-1","","","13","3511","2085","&#9761;","elianto","#3366ff99","-1","-1","1","+10","[]","0","0","2","","","","","","","",""
"pit-trial","43","536628","0.0-2.0-11.0-3.0","battery-v0.2","","""event"",""trial"",""time""
""fullscreenenter"",""1"",""11334""
","
","
","""event"",""trial"",""time""
""fullscreenenter"",""1"",""11334""
","
","","","-1","","","13","3511","2085","&#9761;","elianto","#3366ff99","-1","-1","1","0","[]","0","0","2","","","","","","","",""
"pit-trial","44","540085","0.0-2.0-11.0-4.0","battery-v0.2","","""event"",""trial"",""time""
""fullscreenenter"",""1"",""11334""
","
","
","""event"",""trial"",""time""
""fullscreenenter"",""1"",""11334""
","
","","","573.8000000715256","","","13","3511","2085","&#9761;","elianto","#3366ff99","-1"," ","0","0","[1425.8999999761581]","1","0","2","","","","","","","",""
"pit-trial","45","544973","0.0-2.0-11.1-0.1","battery-v0.2","","""event"",""trial"",""time""
""fullscreenenter"",""1"",""11334""
","
","
","""event"",""trial"",""time""
""fullscreenenter"",""1"",""11334""
","
","","","-1","","","13","3511","2085","&#9761;","elianto","#3366ff99","-1","-1","1","+10","[]","0","0","2","","","","","","","",""
"pit-trial","46","549843","0.0-2.0-11.1-1.1","battery-v0.2","","""event"",""trial"",""time""
""fullscreenenter"",""1"",""11334""
","
","
","""event"",""trial"",""time""
""fullscreenenter"",""1"",""11334""
","
","","","-1","","","13","3511","2085","&#9761;","elianto","#3366ff99","-1","-1","1","+10","[]","0","0","2","","","","","","","",""
"pit-trial","47","554715","0.0-2.0-11.1-2.1","battery-v0.2","","""event"",""trial"",""time""
""fullscreenenter"",""1"",""11334""
","
","
","""event"",""trial"",""time""
""fullscreenenter"",""1"",""11334""
","
","","","-1","","","13","3511","2085","&#9761;","elianto","#3366ff99","-1","-1","1","+10","[]","0","0","2","","","","","","","",""
"pit-trial","48","559588","0.0-2.0-11.1-3.1","battery-v0.2","","""event"",""trial"",""time""
""fullscreenenter"",""1"",""11334""
","
","
","""event"",""trial"",""time""
""fullscreenenter"",""1"",""11334""
","
","","","-1","","","13","3511","2085","&#9761;","elianto","#3366ff99","-1","-1","1","0","[]","0","0","2","","","","","","","",""
"pit-trial","49","564220","0.0-2.0-11.1-4.1","battery-v0.2","","""event"",""trial"",""time""
""fullscreenenter"",""1"",""11334""
","
","
","""event"",""trial"",""time""
""fullscreenenter"",""1"",""11334""
","
","","","1758.2999999523163","","","13","3511","2085","&#9761;","elianto","#3366ff99","-1"," ","0","0","[2613.4000000953674]","1","0","2","","","","","","","",""
"pit-trial","50","569092","0.0-2.0-11.2-0.2","battery-v0.2","","""event"",""trial"",""time""
""fullscreenenter"",""1"",""11334""
","
","
","""event"",""trial"",""time""
""fullscreenenter"",""1"",""11334""
","
","","","-1","","","13","3511","2085","&#9761;","elianto","#3366ff99","-1","-1","1","+10","[]","0","0","2","","","","","","","",""
"pit-trial","51","572636","0.0-2.0-11.2-1.2","battery-v0.2","","""event"",""trial"",""time""
""fullscreenenter"",""1"",""11334""
","
","
","""event"",""trial"",""time""
""fullscreenenter"",""1"",""11334""
","
","","","672.5999999046326","","","13","3511","2085","&#9761;","elianto","#3366ff99","-1"," ","0","0","[1527.7999999523163,1761]","2","0","2","","","","","","","",""
"pit-trial","52","577508","0.0-2.0-11.2-2.2","battery-v0.2","","""event"",""trial"",""time""
""fullscreenenter"",""1"",""11334""
","
","
","""event"",""trial"",""time""
""fullscreenenter"",""1"",""11334""
","
","","","-1","","","13","3511","2085","&#9761;","elianto","#3366ff99","-1","-1","1","+10","[]","0","0","2","","","","","","","",""
"pit-trial","53","582380","0.0-2.0-11.2-3.2","battery-v0.2","","""event"",""trial"",""time""
""fullscreenenter"",""1"",""11334""
","
","
","""event"",""trial"",""time""
""fullscreenenter"",""1"",""11334""
","
","","","-1","","","13","3511","2085","&#9761;","elianto","#3366ff99","-1","-1","1","0","[]","0","0","2","","","","","","","",""
"pit-trial","54","587251","0.0-2.0-11.2-4.2","battery-v0.2","","""event"",""trial"",""time""
""fullscreenenter"",""1"",""11334""
","
","
","""event"",""trial"",""time""
""fullscreenenter"",""1"",""11334""
","
","","","-1","","","13","3511","2085","&#9761;","elianto","#3366ff99","-1","-1","1","+10","[]","0","0","2","","","","","","","",""
"pit-trial","55","592124","0.0-2.0-11.3-0.3","battery-v0.2","","""event"",""trial"",""time""
""fullscreenenter"",""1"",""11334""
","
","
","""event"",""trial"",""time""
""fullscreenenter"",""1"",""11334""
","
","","","-1","","","13","3511","2085","&#9761;","elianto","#3366ff99","-1","-1","1","+10","[]","0","0","2","","","","","","","",""
"pit-trial","56","597004","0.0-2.0-11.3-1.3","battery-v0.2","","""event"",""trial"",""time""
""fullscreenenter"",""1"",""11334""
","
","
","""event"",""trial"",""time""
""fullscreenenter"",""1"",""11334""
","
","","","-1","","","13","3511","2085","&#9761;","elianto","#3366ff99","-1","-1","1","+10","[]","0","0","2","","","","","","","",""
"pit-trial","57","601876","0.0-2.0-11.3-2.3","battery-v0.2","","""event"",""trial"",""time""
""fullscreenenter"",""1"",""11334""
","
","
","""event"",""trial"",""time""
""fullscreenenter"",""1"",""11334""
","
","","","-1","","","13","3511","2085","&#9761;","elianto","#3366ff99","-1","-1","1","+10","[]","0","0","2","","","","","","","",""
"pit-trial","58","606747","0.0-2.0-11.3-3.3","battery-v0.2","","""event"",""trial"",""time""
""fullscreenenter"",""1"",""11334""
","
","
","""event"",""trial"",""time""
""fullscreenenter"",""1"",""11334""
","
","","","-1","","","13","3511","2085","&#9761;","elianto","#3366ff99","-1","-1","1","0","[]","0","0","2","","","","","","","",""
"pit-trial","59","611620","0.0-2.0-11.3-4.3","battery-v0.2","","""event"",""trial"",""time""
""fullscreenenter"",""1"",""11334""
","
","
","""event"",""trial"",""time""
""fullscreenenter"",""1"",""11334""
","
","","","-1","","","13","3511","2085","&#9761;","elianto","#3366ff99","-1","-1","1","+10","[]","0","0","2","","","","","","","",""
"call-function","60","611631","0.0-2.0-12.0","battery-v0.2","","""event"",""trial"",""time""
""fullscreenenter"",""1"",""11334""
","
","
","""event"",""trial"",""time""
""fullscreenenter"",""1"",""11334""
","
","","","","","","","","","","","","","","","","","","","","","","","","","","",""
"pit-instructions","61","654625","0.0-2.0-13.0","battery-v0.2","","""event"",""trial"",""time""
""fullscreenenter"",""1"",""11334""
","
","
","""event"",""trial"",""time""
""fullscreenenter"",""1"",""11334""
","
","","[{""page_index"":0,""viewing_time"":7129.5},{""page_index"":1,""viewing_time"":9148.700000047684},{""page_index"":2,""viewing_time"":6181.299999952316},{""page_index"":3,""viewing_time"":15025.600000023842},{""page_index"":4,""viewing_time"":5503.600000023842}]","42990","","","","","","","","","","","","","","","","","","","","","","","",""
"pit-trial","62","658011","0.0-2.0-14.0-0.0","battery-v0.2","","""event"",""trial"",""time""
""fullscreenenter"",""1"",""11334""
","
","
","""event"",""trial"",""time""
""fullscreenenter"",""1"",""11334""
","
","","","509","","","13","3511","2085","&#9826;","elianto","#f73b6a7A","-1"," ","0","-10","[1364.3999999761581]","1","0","3","","","","","","","",""
"pit-trial","63","662899","0.0-2.0-14.0-1.0","battery-v0.2","","""event"",""trial"",""time""
""fullscreenenter"",""1"",""11334""
","
","
","""event"",""trial"",""time""
""fullscreenenter"",""1"",""11334""
","
","","","-1","","","13","3511","2085","&#9826;","elianto","#f73b6a7A","-1","-1","1","0","[]","0","0","3","","","","","","","",""
"pit-trial","64","667791","0.0-2.0-14.0-2.0","battery-v0.2","","""event"",""trial"",""time""
""fullscreenenter"",""1"",""11334""
","
","
","""event"",""trial"",""time""
""fullscreenenter"",""1"",""11334""
","
","","","-1","","","13","3511","2085","&#9826;","elianto","#f73b6a7A","-1","-1","1","0","[]","0","0","3","","","","","","","",""
"pit-trial","65","670864","0.0-2.0-14.0-3.0","battery-v0.2","","""event"",""trial"",""time""
""fullscreenenter"",""1"",""11334""
","
","
","""event"",""trial"",""time""
""fullscreenenter"",""1"",""11334""
","
","","","195.39999997615814","","","13","3511","2085","&#9826;","elianto","#f73b6a7A","-1"," ","0","0","[1049.7999999523163]","1","0","3","","","","","","","",""
"pit-trial","66","675762","0.0-2.0-14.0-4.0","battery-v0.2","","""event"",""trial"",""time""
""fullscreenenter"",""1"",""11334""
","
","
","""event"",""trial"",""time""
""fullscreenenter"",""1"",""11334""
","
","","","-1","","","13","3511","2085","&#9826;","elianto","#f73b6a7A","-1","-1","1","0","[]","0","0","3","","","","","","","",""
"pit-trial","67","679276","0.0-2.0-14.1-0.1","battery-v0.2","","""event"",""trial"",""time""
""fullscreenenter"",""1"",""11334""
","
","
","""event"",""trial"",""time""
""fullscreenenter"",""1"",""11334""
","
","","","633","","","13","3511","2085","&#9826;","elianto","#f73b6a7A","-1"," ","0","-10","[1489.6000000238419]","1","0","3","","","","","","","",""
"pit-trial","68","684147","0.0-2.0-14.1-1.1","battery-v0.2","","""event"",""trial"",""time""
""fullscreenenter"",""1"",""11334""
","
","
","""event"",""trial"",""time""
""fullscreenenter"",""1"",""11334""
","
","","","-1","","","13","3511","2085","&#9826;","elianto","#f73b6a7A","-1","-1","1","0","[]","0","0","3","","","","","","","",""
"pit-trial","69","689019","0.0-2.0-14.1-2.1","battery-v0.2","","""event"",""trial"",""time""
""fullscreenenter"",""1"",""11334""
","
","
","""event"",""trial"",""time""
""fullscreenenter"",""1"",""11334""
","
","","","-1","","","13","3511","2085","&#9826;","elianto","#f73b6a7A","-1","-1","1","0","[]","0","0","3","","","","","","","",""
"pit-trial","70","693891","0.0-2.0-14.1-3.1","battery-v0.2","","""event"",""trial"",""time""
""fullscreenenter"",""1"",""11334""
","
","
","""event"",""trial"",""time""
""fullscreenenter"",""1"",""11334""
","
","","","-1","","","13","3511","2085","&#9826;","elianto","#f73b6a7A","-1","-1","1","-10","[]","0","0","3","","","","","","","",""
"pit-trial","71","698772","0.0-2.0-14.1-4.1","battery-v0.2","","""event"",""trial"",""time""
""fullscreenenter"",""1"",""11334""
","
","
","""event"",""trial"",""time""
""fullscreenenter"",""1"",""11334""
","
","","","-1","","","13","3511","2085","&#9826;","elianto","#f73b6a7A","-1","-1","1","0","[]","0","0","3","","","","","","","",""
"pit-trial","72","703654","0.0-2.0-14.2-0.2","battery-v0.2","","""event"",""trial"",""time""
""fullscreenenter"",""1"",""11334""
","
","
","""event"",""trial"",""time""
""fullscreenenter"",""1"",""11334""
","
","","","-1","","","13","3511","2085","&#9826;","elianto","#f73b6a7A","-1","-1","1","0","[]","0","0","3","","","","","","","",""
"pit-trial","73","706916","0.0-2.0-14.2-1.2","battery-v0.2","","""event"",""trial"",""time""
""fullscreenenter"",""1"",""11334""
","
","
","""event"",""trial"",""time""
""fullscreenenter"",""1"",""11334""
","
","","","390.60000002384186","","","13","3511","2085","&#9826;","elianto","#f73b6a7A","-1"," ","0","-10","[1241.2000000476837]","1","0","3","","","","","","","",""
"pit-trial","74","711789","0.0-2.0-14.2-2.2","battery-v0.2","","""event"",""trial"",""time""
""fullscreenenter"",""1"",""11334""
","
","
","""event"",""trial"",""time""
""fullscreenenter"",""1"",""11334""
","
","","","-1","","","13","3511","2085","&#9826;","elianto","#f73b6a7A","-1","-1","1","0","[]","0","0","3","","","","","","","",""
"pit-trial","75","716659","0.0-2.0-14.2-3.2","battery-v0.2","","""event"",""trial"",""time""
""fullscreenenter"",""1"",""11334""
","
","
","""event"",""trial"",""time""
""fullscreenenter"",""1"",""11334""
","
","","","-1","","","13","3511","2085","&#9826;","elianto","#f73b6a7A","-1","-1","1","-10","[]","0","0","3","","","","","","","",""
"pit-trial","76","720876","0.0-2.0-14.2-4.2","battery-v0.2","","""event"",""trial"",""time""
""fullscreenenter"",""1"",""11334""
","
","
","""event"",""trial"",""time""
""fullscreenenter"",""1"",""11334""
","
","","","1336.9000000953674","","","13","3511","2085","&#9826;","elianto","#f73b6a7A","-1"," ","0","-10","[2197]","1","0","3","","","","","","","",""
"pit-trial","77","725756","0.0-2.0-14.3-0.3","battery-v0.2","","""event"",""trial"",""time""
""fullscreenenter"",""1"",""11334""
","
","
","""event"",""trial"",""time""
""fullscreenenter"",""1"",""11334""
","
","","","-1","","","13","3511","2085","&#9826;","elianto","#f73b6a7A","-1","-1","1","0","[]","0","0","3","","","","","","","",""
"pit-trial","78","730626","0.0-2.0-14.3-1.3","battery-v0.2","","""event"",""trial"",""time""
""fullscreenenter"",""1"",""11334""
","
","
","""event"",""trial"",""time""
""fullscreenenter"",""1"",""11334""
","
","","","-1","","","13","3511","2085","&#9826;","elianto","#f73b6a7A","-1","-1","1","0","[]","0","0","3","","","","","","","",""
"pit-trial","79","735492","0.0-2.0-14.3-2.3","battery-v0.2","","""event"",""trial"",""time""
""fullscreenenter"",""1"",""11334""
","
","
","""event"",""trial"",""time""
""fullscreenenter"",""1"",""11334""
","
","","","-1","","","13","3511","2085","&#9826;","elianto","#f73b6a7A","-1","-1","1","0","[]","0","0","3","","","","","","","",""
"pit-trial","80","740363","0.0-2.0-14.3-3.3","battery-v0.2","","""event"",""trial"",""time""
""fullscreenenter"",""1"",""11334""
","
","
","""event"",""trial"",""time""
""fullscreenenter"",""1"",""11334""
","
","","","-1","","","13","3511","2085","&#9826;","elianto","#f73b6a7A","-1","-1","1","-10","[]","0","0","3","","","","","","","",""
"pit-trial","81","745235","0.0-2.0-14.3-4.3","battery-v0.2","","""event"",""trial"",""time""
""fullscreenenter"",""1"",""11334""
","
","
","""event"",""trial"",""time""
""fullscreenenter"",""1"",""11334""
","
","","","-1","","","13","3511","2085","&#9826;","elianto","#f73b6a7A","-1","-1","1","0","[]","0","0","3","","","","","","","",""
"call-function","82","745245","0.0-2.0-15.0","battery-v0.2","","""event"",""trial"",""time""
""fullscreenenter"",""1"",""11334""
","
","
","""event"",""trial"",""time""
""fullscreenenter"",""1"",""11334""
","
","","","","","","","","","","","","","","","","","","","","","","","","","","",""
"pit-instructions","83","785044","0.0-2.0-16.0","battery-v0.2","","""event"",""trial"",""time""
""fullscreenenter"",""1"",""11334""
","
","
","""event"",""trial"",""time""
""fullscreenenter"",""1"",""11334""
","
","","[{""page_index"":0,""viewing_time"":11991.399999976158},{""page_index"":1,""viewing_time"":12112.399999976158},{""page_index"":2,""viewing_time"":5726.400000095367},{""page_index"":3,""viewing_time"":9964.199999928474}]","39795.5","","","","","","","","","","","","","","","","","","","","","","","",""
"pit-trial","84","788266","0.0-2.0-17.0-0.0","battery-v0.2","","""event"",""trial"",""time""
""fullscreenenter"",""1"",""11334""
","
","
","""event"",""trial"",""time""
""fullscreenenter"",""1"",""11334""
","
","","","341.39999997615814","","","13","3511","2085","&#9789;","elianto","#f73b6a7A"," "," ","1","0","[1192.3000000715256]","1","0","4","","","","","","","",""
"pit-trial","85","791273","0.0-2.0-17.0-1.0","battery-v0.2","","""event"",""trial"",""time""
""fullscreenenter"",""1"",""11334""
","
","
","""event"",""trial"",""time""
""fullscreenenter"",""1"",""11334""
","
","","","123.60000002384186","","","13","3511","2085","&#9789;","elianto","#f73b6a7A"," "," ","1","0","[979.6999999284744]","1","0","4","","","","","","","",""
"pit-trial","86","794306","0.0-2.0-17.0-2.0","battery-v0.2","","""event"",""trial"",""time""
""fullscreenenter"",""1"",""11334""
","
","
","""event"",""trial"",""time""
""fullscreenenter"",""1"",""11334""
","
","","","123.69999992847443","","","13","3511","2085","&#9789;","elianto","#f73b6a7A"," "," ","1","0","[1001.7999999523163]","1","0","4","","","","","","","",""
"pit-trial","87","797257","0.0-2.0-17.0-3.0","battery-v0.2","","""event"",""trial"",""time""
""fullscreenenter"",""1"",""11334""
","
","
","""event"",""trial"",""time""
""fullscreenenter"",""1"",""11334""
","
","","","80.79999995231628","","","13","3511","2085","&#9789;","elianto","#f73b6a7A"," "," ","1","-10","[933.3999999761581]","1","0","4","","","","","","","",""
"pit-trial","88","800997","0.0-2.0-17.0-4.0","battery-v0.2","","""event"",""trial"",""time""
""fullscreenenter"",""1"",""11334""
","
","
","""event"",""trial"",""time""
""fullscreenenter"",""1"",""11334""
","
","","","853.6000000238419","","","13","3511","2085","&#9789;","elianto","#f73b6a7A"," "," ","1","0","[1721.6000000238419]","1","0","4","","","","","","","",""
"pit-trial","89","804677","0.0-2.0-17.1-0.1","battery-v0.2","","""event"",""trial"",""time""
""fullscreenenter"",""1"",""11334""
","
","
","""event"",""trial"",""time""
""fullscreenenter"",""1"",""11334""
","
","","","805.7000000476837","","","13","3511","2085","&#9789;","elianto","#f73b6a7A"," "," ","1","0","[1658.3999999761581]","1","0","4","","","","","","","",""
"pit-trial","90","808343","0.0-2.0-17.1-1.1","battery-v0.2","","""event"",""trial"",""time""
""fullscreenenter"",""1"",""11334""
","
","
","""event"",""trial"",""time""
""fullscreenenter"",""1"",""11334""
","
","","","787.7000000476837","","","13","3511","2085","&#9789;","elianto","#f73b6a7A"," "," ","1","0","[1645.6999999284744]","1","0","4","","","","","","","",""
"pit-trial","91","811580","0.0-2.0-17.1-2.1","battery-v0.2","","""event"",""trial"",""time""
""fullscreenenter"",""1"",""11334""
","
","
","""event"",""trial"",""time""
""fullscreenenter"",""1"",""11334""
","
","","","362.8000000715256","","","13","3511","2085","&#9789;","elianto","#f73b6a7A"," "," ","1","0","[1218.1000000238419]","1","0","4","","","","","","","",""
"pit-trial","92","814844","0.0-2.0-17.1-3.1","battery-v0.2","","""event"",""trial"",""time""
""fullscreenenter"",""1"",""11334""
","
","
","""event"",""trial"",""time""
""fullscreenenter"",""1"",""11334""
","
","","","395.1999999284744","","","13","3511","2085","&#9789;","elianto","#f73b6a7A"," "," ","1","-10","[1255.1000000238419]","1","0","4","","","","","","","",""
"pit-trial","93","818340","0.0-2.0-17.1-4.1","battery-v0.2","","""event"",""trial"",""time""
""fullscreenenter"",""1"",""11334""
","
","
","""event"",""trial"",""time""
""fullscreenenter"",""1"",""11334""
","
","","","629.6999999284744","","","13","3511","2085","&#9789;","elianto","#f73b6a7A"," "," ","1","0","[1483.7000000476837]","1","0","4","","","","","","","",""
"pit-trial","94","822300","0.0-2.0-17.2-0.2","battery-v0.2","","""event"",""trial"",""time""
""fullscreenenter"",""1"",""11334""
","
","
","""event"",""trial"",""time""
""fullscreenenter"",""1"",""11334""
","
","","","1088.1999999284744","","","13","3511","2085","&#9789;","elianto","#f73b6a7A"," "," ","1","0","[1940.4000000953674]","1","0","4","","","","","","","",""
"pit-trial","95","827171","0.0-2.0-17.2-1.2","battery-v0.2","","""event"",""trial"",""time""
""fullscreenenter"",""1"",""11334""
","
","
","""event"",""trial"",""time""
""fullscreenenter"",""1"",""11334""
","
","","","-1","","","13","3511","2085","&#9789;","elianto","#f73b6a7A"," ","-1","0","-10","[]","0","0","4","","","","","","","",""
"pit-trial","96","830308","0.0-2.0-17.2-2.2","battery-v0.2","","""event"",""trial"",""time""
""fullscreenenter"",""1"",""11334""
","
","
","""event"",""trial"",""time""
""fullscreenenter"",""1"",""11334""
","
","","","267.5","","","13","3511","2085","&#9789;","elianto","#f73b6a7A"," "," ","1","0","[1122.1999999284744]","1","0","4","","","","","","","",""
"pit-trial","97","833907","0.0-2.0-17.2-3.2","battery-v0.2","","""event"",""trial"",""time""
""fullscreenenter"",""1"",""11334""
","
","
","""event"",""trial"",""time""
""fullscreenenter"",""1"",""11334""
","
","","","733.8999999761581","","","13","3511","2085","&#9789;","elianto","#f73b6a7A"," "," ","1","-10","[1589.3000000715256]","1","0","4","","","","","","","",""
"pit-trial","98","837931","0.0-2.0-17.2-4.2","battery-v0.2","","""event"",""trial"",""time""
""fullscreenenter"",""1"",""11334""
","
","
","""event"",""trial"",""time""
""fullscreenenter"",""1"",""11334""
","
","","","1161.1000000238419","","","13","3511","2085","&#9789;","elianto","#f73b6a7A"," "," ","1","0","[2011]","1","0","4","","","","","","","",""
"pit-trial","99","841628","0.0-2.0-17.3-0.3","battery-v0.2","","""event"",""trial"",""time""
""fullscreenenter"",""1"",""11334""
","
","
","""event"",""trial"",""time""
""fullscreenenter"",""1"",""11334""
","
","","","822.7999999523163","","","13","3511","2085","&#9789;","elianto","#f73b6a7A"," "," ","1","0","[1684.9000000953674]","1","0","4","","","","","","","",""
"pit-trial","100","845640","0.0-2.0-17.3-1.3","battery-v0.2","","""event"",""trial"",""time""
""fullscreenenter"",""1"",""11334""
","
","
","""event"",""trial"",""time""
""fullscreenenter"",""1"",""11334""
","
","","","1141.3999999761581","","","13","3511","2085","&#9789;","elianto","#f73b6a7A"," "," ","1","0","[1993]","1","0","4","","","","","","","",""
"pit-trial","101","848796","0.0-2.0-17.3-2.3","battery-v0.2","","""event"",""trial"",""time""
""fullscreenenter"",""1"",""11334""
","
","
","""event"",""trial"",""time""
""fullscreenenter"",""1"",""11334""
","
","","","293","","","13","3511","2085","&#9789;","elianto","#f73b6a7A"," "," ","1","0","[1147]","1","0","4","","","","","","","",""
"pit-trial","102","852030","0.0-2.0-17.3-3.3","battery-v0.2","","""event"",""trial"",""time""
""fullscreenenter"",""1"",""11334""
","
","
","""event"",""trial"",""time""
""fullscreenenter"",""1"",""11334""
","
","","","364.6999999284744","","","13","3511","2085","&#9789;","elianto","#f73b6a7A"," "," ","1","-10","[1218.8000000715256]","1","0","4","","","","","","","",""
"pit-trial","103","855582","0.0-2.0-17.3-4.3","battery-v0.2","","""event"",""trial"",""time""
""fullscreenenter"",""1"",""11334""
","
","
","""event"",""trial"",""time""
""fullscreenenter"",""1"",""11334""
","
","","","686","","","13","3511","2085","&#9789;","elianto","#f73b6a7A"," "," ","1","0","[1539]","1","0","4","","","","","","","",""
"call-function","104","855592","0.0-2.0-18.0","battery-v0.2","","""event"",""trial"",""time""
""fullscreenenter"",""1"",""11334""
","
","
","""event"",""trial"",""time""
""fullscreenenter"",""1"",""11334""
","
","","","","","","","","","","","","","","","","","","","","","","","","","","",""
"pit-instructions","105","944083","0.0-2.0-19.0","battery-v0.2","","""event"",""trial"",""time""
""fullscreenenter"",""1"",""11334""
","
","
","""event"",""trial"",""time""
""fullscreenenter"",""1"",""11334""
","
","","[{""page_index"":0,""viewing_time"":8318.100000023842},{""page_index"":1,""viewing_time"":7227.100000023842},{""page_index"":2,""viewing_time"":16163.199999928474},{""page_index"":3,""viewing_time"":10269.200000047684},{""page_index"":4,""viewing_time"":9746.299999952316},{""page_index"":5,""viewing_time"":8669.700000047684},{""page_index"":6,""viewing_time"":12359.199999928474},{""page_index"":7,""viewing_time"":9485.300000071526},{""page_index"":8,""viewing_time"":6246.100000023842}]","88485.39999997616","","","","","","","","","","","","","","","","","","","","","","","",""
"pit-comprehension","106","950565","0.0-2.0-20.0-0.0","battery-v0.2","","""event"",""trial"",""time""
""fullscreenenter"",""1"",""11334""
","
","
","""event"",""trial"",""time""
""fullscreenenter"",""1"",""11334""
","
","","","6462.300000071526","[""SPACE""]","0","13","3511","2085","","","","","","","","","","","","","","","","","","",""
"pit-instructions","107","954476","0.0-2.0-20.0-1.0","battery-v0.2","","""event"",""trial"",""time""
""fullscreenenter"",""1"",""11334""
","
","
","""event"",""trial"",""time""
""fullscreenenter"",""1"",""11334""
","
","","[{""page_index"":0,""viewing_time"":3657.2999999523163}]","3658.1999999284744","","","","","","","","","","","","","","","","","","","","","","","",""
"pit-comprehension","108","962059","0.0-2.0-21.0-0.0","battery-v0.2","","""event"",""trial"",""time""
""fullscreenenter"",""1"",""11334""
","
","
","""event"",""trial"",""time""
""fullscreenenter"",""1"",""11334""
","
","","","7558.900000095367","[""10""]","0","13","3511","2085","","","","","","","","","","","","","","","","","","",""
"pit-instructions","109","963527","0.0-2.0-21.0-1.0","battery-v0.2","","""event"",""trial"",""time""
""fullscreenenter"",""1"",""11334""
","
","
","""event"",""trial"",""time""
""fullscreenenter"",""1"",""11334""
","
","","[{""page_index"":0,""viewing_time"":1271.5999999046326}]","1272.5999999046326","","","","","","","","","","","","","","","","","","","","","","","",""
"pit-comprehension","110","971854","0.0-2.0-22.0-0.0","battery-v0.2","","""event"",""trial"",""time""
""fullscreenenter"",""1"",""11334""
","
","
","""event"",""trial"",""time""
""fullscreenenter"",""1"",""11334""
","
","","","8299.599999904633","[""-10""]","1","13","3511","2085","","","","","","","","","","","","","","","","","","",""
"pit-instructions","111","978435","0.0-2.0-22.0-1.0","battery-v0.2","","""event"",""trial"",""time""
""fullscreenenter"",""1"",""11334""
","
","
","""event"",""trial"",""time""
""fullscreenenter"",""1"",""11334""
","
","","[{""page_index"":0,""viewing_time"":6378.600000023842}]","6379.699999928474","","","","","","","","","","","","","","","","","","","","","","","",""
"pit-instructions","112","980901","0.0-2.0-22.0-2.0-0.0","battery-v0.2","","""event"",""trial"",""time""
""fullscreenenter"",""1"",""11334""
","
","
","""event"",""trial"",""time""
""fullscreenenter"",""1"",""11334""
","
","","[{""page_index"":0,""viewing_time"":2457.5}]","2459.399999976158","","","","","","","","","","","","","","","","","","","","","","","",""
"pit-comprehension","113","987484","0.0-2.0-22.1-0.1","battery-v0.2","","""event"",""trial"",""time""
""fullscreenenter"",""1"",""11334""
","
","
","""event"",""trial"",""time""
""fullscreenenter"",""1"",""11334""
","
","","","6572.899999976158","[""0""]","0","13","3511","2085","","","","","","","","","","","","","","","","","","",""
"pit-instructions","114","991896","0.0-2.0-22.1-1.1","battery-v0.2","","""event"",""trial"",""time""
""fullscreenenter"",""1"",""11334""
","
","
","""event"",""trial"",""time""
""fullscreenenter"",""1"",""11334""
","
","","[{""page_index"":0,""viewing_time"":4172.299999952316}]","4173.200000047684","","","","","","","","","","","","","","","","","","","","","","","",""
"pit-comprehension","115","1001712","0.0-2.0-23.0-0.0","battery-v0.2","","""event"",""trial"",""time""
""fullscreenenter"",""1"",""11334""
","
","
","""event"",""trial"",""time""
""fullscreenenter"",""1"",""11334""
","
","","","9802.300000071526","[""True""]","0","13","3511","2085","","","","","","","","","","","","","","","","","","",""
"pit-instructions","116","1008749","0.0-2.0-23.0-1.0","battery-v0.2","","""event"",""trial"",""time""
""fullscreenenter"",""1"",""11334""
","
","
","""event"",""trial"",""time""
""fullscreenenter"",""1"",""11334""
","
","","[{""page_index"":0,""viewing_time"":6812.299999952316}]","6814.600000023842","","","","","","","","","","","","","","","","","","","","","","","",""
"pit-comprehension","117","1018104","0.0-2.0-24.0-0.0","battery-v0.2","","""event"",""trial"",""time""
""fullscreenenter"",""1"",""11334""
","
","
","""event"",""trial"",""time""
""fullscreenenter"",""1"",""11334""
","
","","","9340.200000047684","[""True""]","0","13","3511","2085","","","","","","","","","","","","","","","","","","",""
"pit-instructions","118","1020422","0.0-2.0-24.0-1.0","battery-v0.2","","""event"",""trial"",""time""
""fullscreenenter"",""1"",""11334""
","
","
","""event"",""trial"",""time""
""fullscreenenter"",""1"",""11334""
","
","","[{""page_index"":0,""viewing_time"":2106.899999976158}]","2108.5999999046326","","","","","","","","","","","","","","","","","","","","","","","",""
"pit-comprehension","119","1028577","0.0-2.0-25.0-0.0","battery-v0.2","","""event"",""trial"",""time""
""fullscreenenter"",""1"",""11334""
","
","
","""event"",""trial"",""time""
""fullscreenenter"",""1"",""11334""
","
","","","8138.700000047684","[""True""]","0","13","3511","2085","","","","","","","","","","","","","","","","","","",""
"pit-instructions","120","1030608","0.0-2.0-25.0-1.0","battery-v0.2","","""event"",""trial"",""time""
""fullscreenenter"",""1"",""11334""
","
","
","""event"",""trial"",""time""
""fullscreenenter"",""1"",""11334""
","
","","[{""page_index"":0,""viewing_time"":1795.8000000715256}]","1796.6000000238419","","","","","","","","","","","","","","","","","","","","","","","",""
"pit-comprehension","121","1037265","0.0-2.0-26.0-0.0","battery-v0.2","","""event"",""trial"",""time""
""fullscreenenter"",""1"",""11334""
","
","
","""event"",""trial"",""time""
""fullscreenenter"",""1"",""11334""
","
","","","6637.5","[""False""]","0","13","3511","2085","","","","","","","","","","","","","","","","","","",""
"pit-instructions","122","1040557","0.0-2.0-26.0-1.0","battery-v0.2","","""event"",""trial"",""time""
""fullscreenenter"",""1"",""11334""
","
","
","""event"",""trial"",""time""
""fullscreenenter"",""1"",""11334""
","
","","[{""page_index"":0,""viewing_time"":3092}]","3092.7999999523163","","","","","","","","","","","","","","","","","","","","","","","",""
"pit-instructions","123","1062421","0.0-3.0","battery-v0.2","","""event"",""trial"",""time""
""fullscreenenter"",""1"",""11334""
","
","
","""event"",""trial"",""time""
""fullscreenenter"",""1"",""11334""
","
","","[{""page_index"":0,""viewing_time"":6214.699999928474},{""page_index"":1,""viewing_time"":7092.200000047684},{""page_index"":2,""viewing_time"":8548.100000023842}]","21856.599999904633","","","","","","","","","","","","","","","","","","","","","","","",""
"pit-trial","124","1066146","0.0-4.0","battery-v0.2","","""event"",""trial"",""time""
""fullscreenenter"",""1"",""11334""
","
","
","""event"",""trial"",""time""
""fullscreenenter"",""1"",""11334""
","
","","","827","","","13","3511","2085","&#9733;","elianto","#3366ff99","-1"," ","0","0","[1685.8000000715256]","1","1","","","3511","1","2","2","win","no-go","0"
"pit-trial","125","1071029","0.0-5.0","battery-v0.2","","""event"",""trial"",""time""
""fullscreenenter"",""1"",""11334""
","
","
","""event"",""trial"",""time""
""fullscreenenter"",""1"",""11334""
","
","","","-1","","","13","3511","2085","&#9728;","elianto","#f73b6a7A","-1","-1","1","0","[]","0","1","","","3511","2","0","4","lose","no-go","0"
"pit-trial","126","1074569","0.0-6.0","battery-v0.2","","""event"",""trial"",""time""
""fullscreenenter"",""1"",""11334""
","
","
","""event"",""trial"",""time""
""fullscreenenter"",""1"",""11334""
","
","","","670.2999999523163","","","13","3511","2085","&#9730;","elianto","#3366ff99"," "," ","1","+10","[1525.0999999046326]","1","1","","","3511","3","1","1","win","go","0"
"pit-trial","127","1079454","0.0-7.0","battery-v0.2","","""event"",""trial"",""time""
""fullscreenenter"",""1"",""11334""
","
","
","""event"",""trial"",""time""
""fullscreenenter"",""1"",""11334""
","
","","","-1","","","13","3511","2085","&#9752;","elianto","#f73b6a7A"," ","-1","0","-10","[2952.4000000953674]","1","1","","","3511","4","3","3","lose","go","0"
"pit-trial","128","1083099","0.0-8.0","battery-v0.2","","""event"",""trial"",""time""
""fullscreenenter"",""1"",""11334""
","
","
","""event"",""trial"",""time""
""fullscreenenter"",""1"",""11334""
","
","","","776.2000000476837","","","13","3511","2085","&#9733;","elianto","#3366ff99","-1"," ","0","0","[1627.7999999523163]","1","1","","","3511","5","2","2","win","no-go","0"
"pit-trial","129","1086975","0.0-9.0","battery-v0.2","","""event"",""trial"",""time""
""fullscreenenter"",""1"",""11334""
","
","
","""event"",""trial"",""time""
""fullscreenenter"",""1"",""11334""
","
","","","1003.6000000238419","","","13","3511","2085","&#9730;","elianto","#3366ff99"," "," ","1","0","[1856.1000000238419]","1","1","","","3511","6","1","1","win","go","1"
"pit-trial","130","1091876","0.0-10.0","battery-v0.2","","""event"",""trial"",""time""
""fullscreenenter"",""1"",""11334""
","
","
","""event"",""trial"",""time""
""fullscreenenter"",""1"",""11334""
","
","","","-1","","","13","3511","2085","&#9752;","elianto","#f73b6a7A"," ","-1","0","-10","[]","0","1","","","3511","7","3","3","lose","go","0"
"pit-trial","131","1095668","0.0-11.0","battery-v0.2","","""event"",""trial"",""time""
""fullscreenenter"",""1"",""11334""
","
","
","""event"",""trial"",""time""
""fullscreenenter"",""1"",""11334""
","
","","","926.8000000715256","","","13","3511","2085","&#9728;","elianto","#f73b6a7A","-1"," ","0","-10","[1782.8999999761581]","1","1","","","3511","8","0","4","lose","no-go","0"
"pit-trial","132","1099327","0.0-12.0","battery-v0.2","","""event"",""trial"",""time""
""fullscreenenter"",""1"",""11334""
","
","
","""event"",""trial"",""time""
""fullscreenenter"",""1"",""11334""
","
","","","782.6999999284744","","","13","3511","2085","&#9733;","elianto","#3366ff99","-1"," ","0","0","[1641.4000000953674]","1","1","","","3511","9","2","2","win","no-go","0"
"pit-trial","133","1104204","0.0-13.0","battery-v0.2","","""event"",""trial"",""time""
""fullscreenenter"",""1"",""11334""
","
","
","""event"",""trial"",""time""
""fullscreenenter"",""1"",""11334""
","
","","","-1","","","13","3511","2085","&#9728;","elianto","#f73b6a7A","-1","-1","1","0","[]","0","1","","","3511","10","0","4","lose","no-go","0"
"pit-trial","134","1108271","0.0-14.0","battery-v0.2","","""event"",""trial"",""time""
""fullscreenenter"",""1"",""11334""
","
","
","""event"",""trial"",""time""
""fullscreenenter"",""1"",""11334""
","
","","","1190.1000000238419","","","13","3511","2085","&#9730;","elianto","#3366ff99"," "," ","1","+10","[2041.6000000238419]","1","1","","","3511","11","1","1","win","go","0"
"pit-trial","135","1113147","0.0-15.0","battery-v0.2","","""event"",""trial"",""time""
""fullscreenenter"",""1"",""11334""
","
","
","""event"",""trial"",""time""
""fullscreenenter"",""1"",""11334""
","
","","","-1","","","13","3511","2085","&#9752;","elianto","#f73b6a7A"," ","-1","0","-10","[]","0","1","","","3511","12","3","3","lose","go","0"
"pit-trial","136","1118013","0.0-16.0","battery-v0.2","","""event"",""trial"",""time""
""fullscreenenter"",""1"",""11334""
","
","
","""event"",""trial"",""time""
""fullscreenenter"",""1"",""11334""
","
","","","-1","","","13","3511","2085","&#9728;","elianto","#f73b6a7A","-1","-1","1","0","[]","0","1","","","3511","13","0","4","lose","no-go","0"
"pit-trial","137","1121941","0.0-17.0","battery-v0.2","","""event"",""trial"",""time""
""fullscreenenter"",""1"",""11334""
","
","
","""event"",""trial"",""time""
""fullscreenenter"",""1"",""11334""
","
","","","1060.7999999523163","","","13","3511","2085","&#9730;","elianto","#3366ff99"," "," ","1","+10","[1911.3000000715256]","1","1","","","3511","14","1","1","win","go","0"
"pit-trial","138","1126811","0.0-18.0","battery-v0.2","","""event"",""trial"",""time""
""fullscreenenter"",""1"",""11334""
","
","
","""event"",""trial"",""time""
""fullscreenenter"",""1"",""11334""
","
","","","-1","","","13","3511","2085","&#9752;","elianto","#f73b6a7A"," ","-1","0","-10","[]","0","1","","","3511","15","3","3","lose","go","0"
"pit-trial","139","1130763","0.0-19.0","battery-v0.2","","""event"",""trial"",""time""
""fullscreenenter"",""1"",""11334""
","
","
","""event"",""trial"",""time""
""fullscreenenter"",""1"",""11334""
","
","","","1081.3999999761581","","","13","3511","2085","&#9733;","elianto","#3366ff99","-1"," ","0","0","[1933.3999999761581]","1","1","","","3511","16","2","2","win","no-go","0"
"pit-trial","140","1134467","0.0-20.0","battery-v0.2","","""event"",""trial"",""time""
""fullscreenenter"",""1"",""11334""
","
","
","""event"",""trial"",""time""
""fullscreenenter"",""1"",""11334""
","
","","","833","","","13","3511","2085","&#9730;","elianto","#3366ff99"," "," ","1","+10","[1687.5]","1","1","","","3511","17","1","1","win","go","0"
"pit-trial","141","1139338","0.0-21.0","battery-v0.2","","""event"",""trial"",""time""
""fullscreenenter"",""1"",""11334""
","
","
","""event"",""trial"",""time""
""fullscreenenter"",""1"",""11334""
","
","","","-1","","","13","3511","2085","&#9752;","elianto","#f73b6a7A"," ","-1","0","0","[]","0","1","","","3511","18","3","3","lose","go","1"
"pit-trial","142","1143147","0.0-22.0","battery-v0.2","","""event"",""trial"",""time""
""fullscreenenter"",""1"",""11334""
","
","
","""event"",""trial"",""time""
""fullscreenenter"",""1"",""11334""
","
","","","938.3999999761581","","","13","3511","2085","&#9733;","elianto","#3366ff99","-1"," ","0","0","[1795.5999999046326]","1","1","","","3511","19","2","2","win","no-go","0"
"pit-trial","143","1148020","0.0-23.0","battery-v0.2","","""event"",""trial"",""time""
""fullscreenenter"",""1"",""11334""
","
","
","""event"",""trial"",""time""
""fullscreenenter"",""1"",""11334""
","
","","","-1","","","13","3511","2085","&#9728;","elianto","#f73b6a7A","-1","-1","1","0","[]","0","1","","","3511","20","0","4","lose","no-go","0"
"pit-instructions","144","1165388","0.0-24.0","battery-v0.2","","""event"",""trial"",""time""
""fullscreenenter"",""1"",""11334""
","
","
","""event"",""trial"",""time""
""fullscreenenter"",""1"",""11334""
","
","","[{""page_index"":0,""viewing_time"":9693},{""page_index"":1,""viewing_time"":7664.899999976158}]","17359.699999928474","","","","","","","","","","","","","","","","","","","","","","","",""
"pit-trial","145","1170277","0.0-25.0","battery-v0.2","","""event"",""trial"",""time""
""fullscreenenter"",""1"",""11334""
","
","
","""event"",""trial"",""time""
""fullscreenenter"",""1"",""11334""
","
","","","-1","","","13","3511","2085","h","elianto","#f73b6a7A","-1","-1","1","0","[]","0","2","","","3511","21","3","4","lose","no-go","0"
"pit-trial","146","1175167","0.0-26.0","battery-v0.2","","""event"",""trial"",""time""
""fullscreenenter"",""1"",""11334""
","
","
","""event"",""trial"",""time""
""fullscreenenter"",""1"",""11334""
","
","","","-1","","","13","3511","2085","m","elianto","#f73b6a7A"," ","-1","0","-10","[]","0","2","","","3511","22","0","3","lose","go","0"
"pit-trial","147","1178757","0.0-27.0","battery-v0.2","","""event"",""trial"",""time""
""fullscreenenter"",""1"",""11334""
","
","
","""event"",""trial"",""time""
""fullscreenenter"",""1"",""11334""
","
","","","711.1000000238419","","","13","3511","2085","r","elianto","#3366ff99","-1"," ","0","0","[1577]","1","2","","","3511","23","1","2","win","no-go","0"
"pit-trial","148","1183637","0.0-28.0","battery-v0.2","","""event"",""trial"",""time""
""fullscreenenter"",""1"",""11334""
","
","
","""event"",""trial"",""time""
""fullscreenenter"",""1"",""11334""
","
","","","-1","","","13","3511","2085","y","elianto","#f73b6a7A"," ","-1","0","-10","[]","0","2","","","3511","24","2","3","lose","go","0"
"pit-trial","149","1187028","0.0-29.0","battery-v0.2","","""event"",""trial"",""time""
""fullscreenenter"",""1"",""11334""
","
","
","""event"",""trial"",""time""
""fullscreenenter"",""1"",""11334""
","
","","","524.7000000476837","","","13","3511","2085","r","elianto","#3366ff99","-1"," ","0","0","[1381]","1","2","","","3511","25","1","2","win","no-go","0"
"pit-trial","150","1191907","0.0-30.0","battery-v0.2","","""event"",""trial"",""time""
""fullscreenenter"",""1"",""11334""
","
","
","""event"",""trial"",""time""
""fullscreenenter"",""1"",""11334""
","
","","","-1","","","13","3511","2085","h","elianto","#f73b6a7A","-1","-1","1","0","[]","0","2","","","3511","26","3","4","lose","no-go","0"
"pit-trial","151","1196778","0.0-31.0","battery-v0.2","","""event"",""trial"",""time""
""fullscreenenter"",""1"",""11334""
","
","
","""event"",""trial"",""time""
""fullscreenenter"",""1"",""11334""
","
","","","-1","","","13","3511","2085","m","elianto","#f73b6a7A"," ","-1","0","-10","[]","0","2","","","3511","27","0","3","lose","go","0"
"pit-trial","152","1201643","0.0-32.0","battery-v0.2","","""event"",""trial"",""time""
""fullscreenenter"",""1"",""11334""
","
","
","""event"",""trial"",""time""
""fullscreenenter"",""1"",""11334""
","
","","","-1","","","13","3511","2085","y","elianto","#f73b6a7A"," ","-1","0","-10","[]","0","2","","","3511","28","2","3","lose","go","0"
"pit-trial","153","1206516","0.0-33.0","battery-v0.2","","""event"",""trial"",""time""
""fullscreenenter"",""1"",""11334""
","
","
","""event"",""trial"",""time""
""fullscreenenter"",""1"",""11334""
","
","","","-1","","","13","3511","2085","y","elianto","#f73b6a7A"," ","-1","0","0","[]","0","2","","","3511","29","2","3","lose","go","1"
"pit-trial","154","1210493","0.0-34.0","battery-v0.2","","""event"",""trial"",""time""
""fullscreenenter"",""1"",""11334""
","
","
","""event"",""trial"",""time""
""fullscreenenter"",""1"",""11334""
","
","","","1108.8000000715256","","","13","3511","2085","r","elianto","#3366ff99","-1"," ","0","0","[1961.7999999523163]","1","2","","","3511","30","1","2","win","no-go","0"
"pit-trial","155","1215364","0.0-35.0","battery-v0.2","","""event"",""trial"",""time""
""fullscreenenter"",""1"",""11334""
","
","
","""event"",""trial"",""time""
""fullscreenenter"",""1"",""11334""
","
","","","-1","","","13","3511","2085","h","elianto","#f73b6a7A","-1","-1","1","0","[]","0","2","","","3511","31","3","4","lose","no-go","0"
"pit-trial","156","1220238","0.0-36.0","battery-v0.2","","""event"",""trial"",""time""
""fullscreenenter"",""1"",""11334""
","
","
","""event"",""trial"",""time""
""fullscreenenter"",""1"",""11334""
","
","","","-1","","","13","3511","2085","m","elianto","#f73b6a7A"," ","-1","0","-10","[]","0","2","","","3511","32","0","3","lose","go","0"
"pit-trial","157","1225108","0.0-37.0","battery-v0.2","","""event"",""trial"",""time""
""fullscreenenter"",""1"",""11334""
","
","
","""event"",""trial"",""time""
""fullscreenenter"",""1"",""11334""
","
","","","-1","","","13","3511","2085","h","elianto","#f73b6a7A","-1","-1","1","0","[]","0","2","","","3511","33","3","4","lose","no-go","0"
"pit-trial","158","1229981","0.0-38.0","battery-v0.2","","""event"",""trial"",""time""
""fullscreenenter"",""1"",""11334""
","
","
","""event"",""trial"",""time""
""fullscreenenter"",""1"",""11334""
","
","","","-1","","","13","3511","2085","y","elianto","#f73b6a7A"," ","-1","0","-10","[]","0","2","","","3511","34","2","3","lose","go","0"
"pit-trial","159","1233699","0.0-39.0","battery-v0.2","","""event"",""trial"",""time""
""fullscreenenter"",""1"",""11334""
","
","
","""event"",""trial"",""time""
""fullscreenenter"",""1"",""11334""
","
","","","846.1000000238419","","","13","3511","2085","r","elianto","#3366ff99","-1"," ","0","0","[1704.6000000238419]","1","2","","","3511","35","1","2","win","no-go","0"
"pit-trial","160","1238571","0.0-40.0","battery-v0.2","","""event"",""trial"",""time""
""fullscreenenter"",""1"",""11334""
","
","
","""event"",""trial"",""time""
""fullscreenenter"",""1"",""11334""
","
","","","-1","","","13","3511","2085","m","elianto","#f73b6a7A"," ","-1","0","-10","[]","0","2","","","3511","36","0","3","lose","go","0"
"pit-trial","161","1242101","0.0-41.0","battery-v0.2","","""event"",""trial"",""time""
""fullscreenenter"",""1"",""11334""
","
","
","""event"",""trial"",""time""
""fullscreenenter"",""1"",""11334""
","
","","","656.9000000953674","","","13","3511","2085","r","elianto","#3366ff99","-1"," ","0","0","[1510.7000000476837]","1","2","","","3511","37","1","2","win","no-go","0"
"pit-trial","162","1246975","0.0-42.0","battery-v0.2","","""event"",""trial"",""time""
""fullscreenenter"",""1"",""11334""
","
","
","""event"",""trial"",""time""
""fullscreenenter"",""1"",""11334""
","
","","","-1","","","13","3511","2085","h","elianto","#f73b6a7A","-1","-1","1","0","[]","0","2","","","3511","38","3","4","lose","no-go","0"
"pit-trial","163","1251861","0.0-43.0","battery-v0.2","","""event"",""trial"",""time""
""fullscreenenter"",""1"",""11334""
","
","
","""event"",""trial"",""time""
""fullscreenenter"",""1"",""11334""
","
","","","-1","","","13","3511","2085","m","elianto","#f73b6a7A"," ","-1","0","0","[]","0","2","","","3511","39","0","3","lose","go","1"
"pit-trial","164","1256734","0.0-44.0","battery-v0.2","","""event"",""trial"",""time""
""fullscreenenter"",""1"",""11334""
","
","
","""event"",""trial"",""time""
""fullscreenenter"",""1"",""11334""
","
","","","-1","","","13","3511","2085","y","elianto","#f73b6a7A"," ","-1","0","-10","[]","0","2","","","3511","40","2","3","lose","go","0"
"pit-trial","165","1261605","0.0-45.0","battery-v0.2","","""event"",""trial"",""time""
""fullscreenenter"",""1"",""11334""
","
","
","""event"",""trial"",""time""
""fullscreenenter"",""1"",""11334""
","
","","","-1","","","13","3511","2085","h","elianto","#f73b6a7A","-1","-1","1","0","[]","0","2","","","3511","41","3","4","lose","no-go","0"
"pit-trial","166","1265804","0.0-46.0","battery-v0.2","","""event"",""trial"",""time""
""fullscreenenter"",""1"",""11334""
","
","
","""event"",""trial"",""time""
""fullscreenenter"",""1"",""11334""
","
","","","1313.1999999284744","","","13","3511","2085","y","elianto","#f73b6a7A"," "," ","1","0","[2169.6999999284744]","1","2","","","3511","42","2","3","lose","go","0"
"pit-trial","167","1270676","0.0-47.0","battery-v0.2","","""event"",""trial"",""time""
""fullscreenenter"",""1"",""11334""
","
","
","""event"",""trial"",""time""
""fullscreenenter"",""1"",""11334""
","
","","","-1","","","13","3511","2085","m","elianto","#f73b6a7A"," ","-1","0","-10","[]","0","2","","","3511","43","0","3","lose","go","0"
"pit-trial","168","1274299","0.0-48.0","battery-v0.2","","""event"",""trial"",""time""
""fullscreenenter"",""1"",""11334""
","
","
","""event"",""trial"",""time""
""fullscreenenter"",""1"",""11334""
","
","","","726.2000000476837","","","13","3511","2085","r","elianto","#3366ff99","-1"," ","0","0","[1607]","1","2","","","3511","44","1","2","win","no-go","0"
"pit-trial","169","1279172","0.0-49.0","battery-v0.2","","""event"",""trial"",""time""
""fullscreenenter"",""1"",""11334""
","
","
","""event"",""trial"",""time""
""fullscreenenter"",""1"",""11334""
","
","","","-1","","","13","3511","2085","h","elianto","#f73b6a7A","-1","-1","1","-10","[]","0","2","","","3511","45","3","4","lose","no-go","1"
"pit-trial","170","1283326","0.0-50.0","battery-v0.2","","""event"",""trial"",""time""
""fullscreenenter"",""1"",""11334""
","
","
","""event"",""trial"",""time""
""fullscreenenter"",""1"",""11334""
","
","","","1273.6999999284744","","","13","3511","2085","m","elianto","#f73b6a7A"," "," ","1","0","[2140.100000023842]","1","2","","","3511","46","0","3","lose","go","0"
"pit-trial","171","1288205","0.0-51.0","battery-v0.2","","""event"",""trial"",""time""
""fullscreenenter"",""1"",""11334""
","
","
","""event"",""trial"",""time""
""fullscreenenter"",""1"",""11334""
","
","","","-1","","","13","3511","2085","y","elianto","#f73b6a7A"," ","-1","0","0","[3471.3000000715256]","1","2","","","3511","47","2","3","lose","go","1"
"pit-trial","172","1293076","0.0-52.0","battery-v0.2","","""event"",""trial"",""time""
""fullscreenenter"",""1"",""11334""
","
","
","""event"",""trial"",""time""
""fullscreenenter"",""1"",""11334""
","
","","","-1","","","13","3511","2085","r","elianto","#3366ff99","-1","-1","1","+10","[]","0","2","","","3511","48","1","2","win","no-go","0"
"pit-trial","173","1297963","0.0-53.0","battery-v0.2","","""event"",""trial"",""time""
""fullscreenenter"",""1"",""11334""
","
","
","""event"",""trial"",""time""
""fullscreenenter"",""1"",""11334""
","
","","","-1","","","13","3511","2085","r","elianto","#3366ff99","-1","-1","1","+10","[]","0","2","","","3511","49","1","2","win","no-go","0"
"pit-trial","174","1301868","0.0-54.0","battery-v0.2","","""event"",""trial"",""time""
""fullscreenenter"",""1"",""11334""
","
","
","""event"",""trial"",""time""
""fullscreenenter"",""1"",""11334""
","
","","","1033.8999999761581","","","13","3511","2085","m","elianto","#f73b6a7A"," "," ","1","-10","[1884.1999999284744]","1","2","","","3511","50","0","3","lose","go","1"
"pit-trial","175","1306788","0.0-55.0","battery-v0.2","","""event"",""trial"",""time""
""fullscreenenter"",""1"",""11334""
","
","
","""event"",""trial"",""time""
""fullscreenenter"",""1"",""11334""
","
","","","-1","","","13","3511","2085","h","elianto","#f73b6a7A","-1","-1","1","-10","[]","0","2","","","3511","51","3","4","lose","no-go","1"
"pit-trial","176","1311660","0.0-56.0","battery-v0.2","","""event"",""trial"",""time""
""fullscreenenter"",""1"",""11334""
","
","
","""event"",""trial"",""time""
""fullscreenenter"",""1"",""11334""
","
","","","-1","","","13","3511","2085","y","elianto","#f73b6a7A"," ","-1","0","-10","[]","0","2","","","3511","52","2","3","lose","go","0"
"pit-trial","177","1315178","0.0-57.0","battery-v0.2","","""event"",""trial"",""time""
""fullscreenenter"",""1"",""11334""
","
","
","""event"",""trial"",""time""
""fullscreenenter"",""1"",""11334""
","
","","","637.6000000238419","","","13","3511","2085","m","elianto","#f73b6a7A"," "," ","1","0","[1500.5]","1","2","","","3511","53","0","3","lose","go","0"
"pit-trial","178","1320053","0.0-58.0","battery-v0.2","","""event"",""trial"",""time""
""fullscreenenter"",""1"",""11334""
","
","
","""event"",""trial"",""time""
""fullscreenenter"",""1"",""11334""
","
","","","-1","","","13","3511","2085","h","elianto","#f73b6a7A","-1","-1","1","-10","[]","0","2","","","3511","54","3","4","lose","no-go","1"
"pit-trial","179","1324924","0.0-59.0","battery-v0.2","","""event"",""trial"",""time""
""fullscreenenter"",""1"",""11334""
","
","
","""event"",""trial"",""time""
""fullscreenenter"",""1"",""11334""
","
","","","-1","","","13","3511","2085","r","elianto","#3366ff99","-1","-1","1","+10","[]","0","2","","","3511","55","1","2","win","no-go","0"
"pit-trial","180","1329797","0.0-60.0","battery-v0.2","","""event"",""trial"",""time""
""fullscreenenter"",""1"",""11334""
","
","
","""event"",""trial"",""time""
""fullscreenenter"",""1"",""11334""
","
","","","-1","","","13","3511","2085","y","elianto","#f73b6a7A"," ","-1","0","0","[]","0","2","","","3511","56","2","3","lose","go","1"
"pit-trial","181","1333813","0.0-61.0","battery-v0.2","","""event"",""trial"",""time""
""fullscreenenter"",""1"",""11334""
","
","
","""event"",""trial"",""time""
""fullscreenenter"",""1"",""11334""
","
","","","1141.2999999523163","","","13","3511","2085","z","elianto","#3366ff99"," "," ","1","+10","[1992.8999999761581]","1","2","","","3511","57","4","1","win","go","0"
"pit-trial","182","1338037","0.0-62.0","battery-v0.2","","""event"",""trial"",""time""
""fullscreenenter"",""1"",""11334""
","
","
","""event"",""trial"",""time""
""fullscreenenter"",""1"",""11334""
","
","","","1353.1999999284744","","","13","3511","2085","m","elianto","#f73b6a7A"," "," ","1","0","[2205.4000000953674]","1","2","","","3511","58","0","3","lose","go","0"
"pit-trial","183","1342908","0.0-63.0","battery-v0.2","","""event"",""trial"",""time""
""fullscreenenter"",""1"",""11334""
","
","
","""event"",""trial"",""time""
""fullscreenenter"",""1"",""11334""
","
","","","-1","","","13","3511","2085","h","elianto","#f73b6a7A","-1","-1","1","0","[]","0","2","","","3511","59","3","4","lose","no-go","0"
"pit-trial","184","1347780","0.0-64.0","battery-v0.2","","""event"",""trial"",""time""
""fullscreenenter"",""1"",""11334""
","
","
","""event"",""trial"",""time""
""fullscreenenter"",""1"",""11334""
","
","","","-1","","","13","3511","2085","y","elianto","#f73b6a7A"," ","-1","0","0","[]","0","2","","","3511","60","2","3","lose","go","1"
"pit-trial","185","1352654","0.0-65.0","battery-v0.2","","""event"",""trial"",""time""
""fullscreenenter"",""1"",""11334""
","
","
","""event"",""trial"",""time""
""fullscreenenter"",""1"",""11334""
","
","","","-1","","","13","3511","2085","z","elianto","#3366ff99"," ","-1","0","0","[]","0","2","","","3511","61","4","1","win","go","0"
"pit-trial","186","1357076","0.0-66.0","battery-v0.2","","""event"",""trial"",""time""
""fullscreenenter"",""1"",""11334""
","
","
","""event"",""trial"",""time""
""fullscreenenter"",""1"",""11334""
","
","","","1551.3999999761581","","","13","3511","2085","h","elianto","#f73b6a7A","-1"," ","0","-10","[2404.100000023842]","1","2","","","3511","62","3","4","lose","no-go","0"
"pit-trial","187","1361948","0.0-67.0","battery-v0.2","","""event"",""trial"",""time""
""fullscreenenter"",""1"",""11334""
","
","
","""event"",""trial"",""time""
""fullscreenenter"",""1"",""11334""
","
","","","-1","","","13","3511","2085","y","elianto","#f73b6a7A"," ","-1","0","0","[2933.2000000476837]","1","2","","","3511","63","2","3","lose","go","1"
"pit-trial","188","1366820","0.0-68.0","battery-v0.2","","""event"",""trial"",""time""
""fullscreenenter"",""1"",""11334""
","
","
","""event"",""trial"",""time""
""fullscreenenter"",""1"",""11334""
","
","","","-1","","","13","3511","2085","r","elianto","#3366ff99","-1","-1","1","0","[]","0","2","","","3511","64","1","2","win","no-go","1"
"pit-trial","189","1371693","0.0-69.0","battery-v0.2","","""event"",""trial"",""time""
""fullscreenenter"",""1"",""11334""
","
","
","""event"",""trial"",""time""
""fullscreenenter"",""1"",""11334""
","
","","","-1","","","13","3511","2085","h","elianto","#f73b6a7A","-1","-1","1","0","[]","0","2","","","3511","65","3","4","lose","no-go","0"
"pit-trial","190","1376053","0.0-70.0","battery-v0.2","","""event"",""trial"",""time""
""fullscreenenter"",""1"",""11334""
","
","
","""event"",""trial"",""time""
""fullscreenenter"",""1"",""11334""
","
","","","1494.6999999284744","","","13","3511","2085","z","elianto","#3366ff99"," "," ","1","+10","[2345.899999976158]","1","2","","","3511","66","4","1","win","go","0"
"pit-trial","191","1380923","0.0-71.0","battery-v0.2","","""event"",""trial"",""time""
""fullscreenenter"",""1"",""11334""
","
","
","""event"",""trial"",""time""
""fullscreenenter"",""1"",""11334""
","
","","","-1","","","13","3511","2085","r","elianto","#3366ff99","-1","-1","1","0","[]","0","2","","","3511","67","1","2","win","no-go","1"
"pit-trial","192","1385573","0.0-72.0","battery-v0.2","","""event"",""trial"",""time""
""fullscreenenter"",""1"",""11334""
","
","
","""event"",""trial"",""time""
""fullscreenenter"",""1"",""11334""
","
","","","1778.0999999046326","","","13","3511","2085","c","elianto","#3366ff99","-1"," ","0","0","[2628.4000000953674]","1","2","","","3511","68","5","2","win","no-go","0"
"pit-trial","193","1389469","0.0-73.0","battery-v0.2","","""event"",""trial"",""time""
""fullscreenenter"",""1"",""11334""
","
","
","""event"",""trial"",""time""
""fullscreenenter"",""1"",""11334""
","
","","","1024.7000000476837","","","13","3511","2085","z","elianto","#3366ff99"," "," ","1","+10","[1878]","1","2","","","3511","69","4","1","win","go","0"
"pit-trial","194","1393996","0.0-74.0","battery-v0.2","","""event"",""trial"",""time""
""fullscreenenter"",""1"",""11334""
","
","
","""event"",""trial"",""time""
""fullscreenenter"",""1"",""11334""
","
","","","1644.9000000953674","","","13","3511","2085","y","elianto","#f73b6a7A"," "," ","1","0","[2496.399999976158]","1","2","","","3511","70","2","3","lose","go","0"
"pit-trial","195","1397901","0.0-75.0","battery-v0.2","","""event"",""trial"",""time""
""fullscreenenter"",""1"",""11334""
","
","
","""event"",""trial"",""time""
""fullscreenenter"",""1"",""11334""
","
","","","1031.1000000238419","","","13","3511","2085","c","elianto","#3366ff99","-1"," ","0","0","[1886.2000000476837]","1","2","","","3511","71","5","2","win","no-go","0"
"pit-trial","196","1402772","0.0-76.0","battery-v0.2","","""event"",""trial"",""time""
""fullscreenenter"",""1"",""11334""
","
","
","""event"",""trial"",""time""
""fullscreenenter"",""1"",""11334""
","
","","","-1","","","13","3511","2085","r","elianto","#3366ff99","-1","-1","1","+10","[3012.899999976158]","1","2","","","3511","72","1","2","win","no-go","0"
"pit-trial","197","1407644","0.0-77.0","battery-v0.2","","""event"",""trial"",""time""
""fullscreenenter"",""1"",""11334""
","
","
","""event"",""trial"",""time""
""fullscreenenter"",""1"",""11334""
","
","","","-1","","","13","3511","2085","h","elianto","#f73b6a7A","-1","-1","1","0","[]","0","2","","","3511","73","3","4","lose","no-go","0"
"pit-trial","198","1412516","0.0-78.0","battery-v0.2","","""event"",""trial"",""time""
""fullscreenenter"",""1"",""11334""
","
","
","""event"",""trial"",""time""
""fullscreenenter"",""1"",""11334""
","
","","","-1","","","13","3511","2085","r","elianto","#3366ff99","-1","-1","1","+10","[]","0","2","","","3511","74","1","2","win","no-go","0"
"pit-trial","199","1416035","0.0-79.0","battery-v0.2","","""event"",""trial"",""time""
""fullscreenenter"",""1"",""11334""
","
","
","""event"",""trial"",""time""
""fullscreenenter"",""1"",""11334""
","
","","","653","","","13","3511","2085","c","elianto","#3366ff99","-1"," ","0","0","[1506.6000000238419]","1","2","","","3511","75","5","2","win","no-go","0"
"pit-trial","200","1419661","0.0-80.0","battery-v0.2","","""event"",""trial"",""time""
""fullscreenenter"",""1"",""11334""
","
","
","""event"",""trial"",""time""
""fullscreenenter"",""1"",""11334""
","
","","","748.7999999523163","","","13","3511","2085","z","elianto","#3366ff99"," "," ","1","+10","[1607.8000000715256]","1","2","","","3511","76","4","1","win","go","0"
"pit-trial","201","1423500","0.0-81.0","battery-v0.2","","""event"",""trial"",""time""
""fullscreenenter"",""1"",""11334""
","
","
","""event"",""trial"",""time""
""fullscreenenter"",""1"",""11334""
","
","","","967.8999999761581","","","13","3511","2085","z","elianto","#3366ff99"," "," ","1","+10","[1823.3999999761581]","1","2","","","3511","77","4","1","win","go","0"
"pit-trial","202","1427557","0.0-82.0","battery-v0.2","","""event"",""trial"",""time""
""fullscreenenter"",""1"",""11334""
","
","
","""event"",""trial"",""time""
""fullscreenenter"",""1"",""11334""
","
","","","1185.6999999284744","","","13","3511","2085","c","elianto","#3366ff99","-1"," ","0","0","[2040.1999999284744]","1","2","","","3511","78","5","2","win","no-go","0"
"pit-trial","203","1431188","0.0-83.0","battery-v0.2","","""event"",""trial"",""time""
""fullscreenenter"",""1"",""11334""
","
","
","""event"",""trial"",""time""
""fullscreenenter"",""1"",""11334""
","
","","","758.7000000476837","","","13","3511","2085","z","elianto","#3366ff99"," "," ","1","+10","[1609.8999999761581]","1","2","","","3511","79","4","1","win","go","0"
"pit-trial","204","1436065","0.0-84.0","battery-v0.2","","""event"",""trial"",""time""
""fullscreenenter"",""1"",""11334""
","
","
","""event"",""trial"",""time""
""fullscreenenter"",""1"",""11334""
","
","","","-1","","","13","3511","2085","h","elianto","#f73b6a7A","-1","-1","1","-10","[]","0","2","","","3511","80","3","4","lose","no-go","1"
"pit-trial","205","1440264","0.0-85.0","battery-v0.2","","""event"",""trial"",""time""
""fullscreenenter"",""1"",""11334""
","
","
","""event"",""trial"",""time""
""fullscreenenter"",""1"",""11334""
","
","","","1329.2000000476837","","","13","3511","2085","z","elianto","#3366ff99"," "," ","1","0","[2179.600000023842]","1","2","","","3511","81","4","1","win","go","1"
"pit-trial","206","1444090","0.0-86.0","battery-v0.2","","""event"",""trial"",""time""
""fullscreenenter"",""1"",""11334""
","
","
","""event"",""trial"",""time""
""fullscreenenter"",""1"",""11334""
","
","","","960.1000000238419","","","13","3511","2085","c","elianto","#3366ff99","-1"," ","0","+10","[1815.8999999761581]","1","2","","","3511","82","5","2","win","no-go","1"
"pit-trial","207","1448955","0.0-87.0","battery-v0.2","","""event"",""trial"",""time""
""fullscreenenter"",""1"",""11334""
","
","
","""event"",""trial"",""time""
""fullscreenenter"",""1"",""11334""
","
","","","-1","","","13","3511","2085","h","elianto","#f73b6a7A","-1","-1","1","0","[]","0","2","","","3511","83","3","4","lose","no-go","0"
"pit-trial","208","1453829","0.0-88.0","battery-v0.2","","""event"",""trial"",""time""
""fullscreenenter"",""1"",""11334""
","
","
","""event"",""trial"",""time""
""fullscreenenter"",""1"",""11334""
","
","","","-1","","","13","3511","2085","t","elianto","#f73b6a7A","-1","-1","1","0","[]","0","2","","","3511","84","7","4","lose","no-go","0"
"pit-trial","209","1458699","0.0-89.0","battery-v0.2","","""event"",""trial"",""time""
""fullscreenenter"",""1"",""11334""
","
","
","""event"",""trial"",""time""
""fullscreenenter"",""1"",""11334""
","
","","","-1","","","13","3511","2085","t","elianto","#f73b6a7A","-1","-1","1","0","[2892.7000000476837]","1","2","","","3511","85","7","4","lose","no-go","0"
"pit-trial","210","1463557","0.0-90.0","battery-v0.2","","""event"",""trial"",""time""
""fullscreenenter"",""1"",""11334""
","
","
","""event"",""trial"",""time""
""fullscreenenter"",""1"",""11334""
","
","","","1982.8999999761581","","","13","3511","2085","z","elianto","#3366ff99"," "," ","1","+10","[2842.6999999284744]","1","2","","","3511","86","4","1","win","go","0"
"pit-trial","211","1467261","0.0-91.0","battery-v0.2","","""event"",""trial"",""time""
""fullscreenenter"",""1"",""11334""
","
","
","""event"",""trial"",""time""
""fullscreenenter"",""1"",""11334""
","
","","","840.3999999761581","","","13","3511","2085","c","elianto","#3366ff99","-1"," ","0","+10","[1691]","1","2","","","3511","87","5","2","win","no-go","1"
"pit-trial","212","1471756","0.0-92.0","battery-v0.2","","""event"",""trial"",""time""
""fullscreenenter"",""1"",""11334""
","
","
","""event"",""trial"",""time""
""fullscreenenter"",""1"",""11334""
","
","","","1624.7000000476837","","","13","3511","2085","b","elianto","#f73b6a7A"," "," ","1","0","[2477.6999999284744]","1","2","","","3511","88","6","3","lose","go","0"
"pit-trial","213","1475756","0.0-93.0","battery-v0.2","","""event"",""trial"",""time""
""fullscreenenter"",""1"",""11334""
","
","
","""event"",""trial"",""time""
""fullscreenenter"",""1"",""11334""
","
","","","1128.8999999761581","","","13","3511","2085","b","elianto","#f73b6a7A"," "," ","1","0","[1983.1999999284744]","1","2","","","3511","89","6","3","lose","go","0"
"pit-trial","214","1479572","0.0-94.0","battery-v0.2","","""event"",""trial"",""time""
""fullscreenenter"",""1"",""11334""
","
","
","""event"",""trial"",""time""
""fullscreenenter"",""1"",""11334""
","
","","","940.9000000953674","","","13","3511","2085","z","elianto","#3366ff99"," "," ","1","+10","[1802.5]","1","2","","","3511","90","4","1","win","go","0"
"pit-trial","215","1483227","0.0-95.0","battery-v0.2","","""event"",""trial"",""time""
""fullscreenenter"",""1"",""11334""
","
","
","""event"",""trial"",""time""
""fullscreenenter"",""1"",""11334""
","
","","","780.8000000715256","","","13","3511","2085","t","elianto","#f73b6a7A","-1"," ","0","-10","[1641.6000000238419]","1","2","","","3511","91","7","4","lose","no-go","0"
"pit-trial","216","1486788","0.0-96.0","battery-v0.2","","""event"",""trial"",""time""
""fullscreenenter"",""1"",""11334""
","
","
","""event"",""trial"",""time""
""fullscreenenter"",""1"",""11334""
","
","","","692.3000000715256","","","13","3511","2085","c","elianto","#3366ff99","-1"," ","0","0","[1547.5]","1","2","","","3511","92","5","2","win","no-go","0"
"pit-trial","217","1490540","0.0-97.0","battery-v0.2","","""event"",""trial"",""time""
""fullscreenenter"",""1"",""11334""
","
","
","""event"",""trial"",""time""
""fullscreenenter"",""1"",""11334""
","
","","","875.2999999523163","","","13","3511","2085","c","elianto","#3366ff99","-1"," ","0","0","[1733.0999999046326]","1","2","","","3511","93","5","2","win","no-go","0"
"pit-trial","218","1494644","0.0-98.0","battery-v0.2","","""event"",""trial"",""time""
""fullscreenenter"",""1"",""11334""
","
","
","""event"",""trial"",""time""
""fullscreenenter"",""1"",""11334""
","
","","","1230.7999999523163","","","13","3511","2085","b","elianto","#f73b6a7A"," "," ","1","0","[2084.3000000715256]","1","2","","","3511","94","6","3","lose","go","0"
"pit-trial","219","1498468","0.0-99.0","battery-v0.2","","""event"",""trial"",""time""
""fullscreenenter"",""1"",""11334""
","
","
","""event"",""trial"",""time""
""fullscreenenter"",""1"",""11334""
","
","","","961.5","","","13","3511","2085","f","elianto","#3366ff99"," "," ","1","+10","[1812.3000000715256]","1","2","","","3511","95","8","1","win","go","0"
"pit-trial","220","1502773","0.0-100.0","battery-v0.2","","""event"",""trial"",""time""
""fullscreenenter"",""1"",""11334""
","
","
","""event"",""trial"",""time""
""fullscreenenter"",""1"",""11334""
","
","","","1429.2000000476837","","","13","3511","2085","t","elianto","#f73b6a7A","-1"," ","0","-10","[2284.2999999523163]","1","2","","","3511","96","7","4","lose","no-go","0"
"pit-trial","221","1506421","0.0-101.0","battery-v0.2","","""event"",""trial"",""time""
""fullscreenenter"",""1"",""11334""
","
","
","""event"",""trial"",""time""
""fullscreenenter"",""1"",""11334""
","
","","","779.1000000238419","","","13","3511","2085","c","elianto","#3366ff99","-1"," ","0","0","[1631.3999999761581]","1","2","","","3511","97","5","2","win","no-go","0"
"pit-trial","222","1510700","0.0-102.0","battery-v0.2","","""event"",""trial"",""time""
""fullscreenenter"",""1"",""11334""
","
","
","""event"",""trial"",""time""
""fullscreenenter"",""1"",""11334""
","
","","","1394.1000000238419","","","13","3511","2085","t","elianto","#f73b6a7A","-1"," ","0","-10","[2257.7000000476837]","1","2","","","3511","98","7","4","lose","no-go","0"
"pit-trial","223","1514452","0.0-103.0","battery-v0.2","","""event"",""trial"",""time""
""fullscreenenter"",""1"",""11334""
","
","
","""event"",""trial"",""time""
""fullscreenenter"",""1"",""11334""
","
","","","883.6000000238419","","","13","3511","2085","f","elianto","#3366ff99"," "," ","1","0","[1735.2999999523163]","1","2","","","3511","99","8","1","win","go","1"
"pit-trial","224","1519325","0.0-104.0","battery-v0.2","","""event"",""trial"",""time""
""fullscreenenter"",""1"",""11334""
","
","
","""event"",""trial"",""time""
""fullscreenenter"",""1"",""11334""
","
","","","-1","","","13","3511","2085","b","elianto","#f73b6a7A"," ","-1","0","-10","[]","0","2","","","3511","100","6","3","lose","go","0"
"pit-trial","225","1522908","0.0-105.0","battery-v0.2","","""event"",""trial"",""time""
""fullscreenenter"",""1"",""11334""
","
","
","""event"",""trial"",""time""
""fullscreenenter"",""1"",""11334""
","
","","","712.1999999284744","","","13","3511","2085","n","elianto","#3366ff99"," "," ","1","+10","[1566.3000000715256]","1","2","","","3511","101","9","1","win","go","0"
"pit-trial","226","1527780","0.0-106.0","battery-v0.2","","""event"",""trial"",""time""
""fullscreenenter"",""1"",""11334""
","
","
","""event"",""trial"",""time""
""fullscreenenter"",""1"",""11334""
","
","","","-1","","","13","3511","2085","t","elianto","#f73b6a7A","-1","-1","1","0","[]","0","2","","","3511","102","7","4","lose","no-go","0"
"pit-trial","227","1531483","0.0-107.0","battery-v0.2","","""event"",""trial"",""time""
""fullscreenenter"",""1"",""11334""
","
","
","""event"",""trial"",""time""
""fullscreenenter"",""1"",""11334""
","
","","","836.1999999284744","","","13","3511","2085","c","elianto","#3366ff99","-1"," ","0","0","[1689.4000000953674]","1","2","","","3511","103","5","2","win","no-go","0"
"pit-trial","228","1535163","0.0-108.0","battery-v0.2","","""event"",""trial"",""time""
""fullscreenenter"",""1"",""11334""
","
","
","""event"",""trial"",""time""
""fullscreenenter"",""1"",""11334""
","
","","","803.8999999761581","","","13","3511","2085","f","elianto","#3366ff99"," "," ","1","0","[1667.7999999523163]","1","2","","","3511","104","8","1","win","go","1"
"pit-trial","229","1539230","0.0-109.0","battery-v0.2","","""event"",""trial"",""time""
""fullscreenenter"",""1"",""11334""
","
","
","""event"",""trial"",""time""
""fullscreenenter"",""1"",""11334""
","
","","","1188","","","13","3511","2085","z","elianto","#3366ff99"," "," ","1","0","[2047.3000000715256]","1","2","","","3511","105","4","1","win","go","1"
"pit-trial","230","1542781","0.0-110.0","battery-v0.2","","""event"",""trial"",""time""
""fullscreenenter"",""1"",""11334""
","
","
","""event"",""trial"",""time""
""fullscreenenter"",""1"",""11334""
","
","","","679.3999999761581","","","13","3511","2085","b","elianto","#f73b6a7A"," "," ","1","0","[1531]","1","2","","","3511","106","6","3","lose","go","0"
"pit-trial","231","1546403","0.0-111.0","battery-v0.2","","""event"",""trial"",""time""
""fullscreenenter"",""1"",""11334""
","
","
","""event"",""trial"",""time""
""fullscreenenter"",""1"",""11334""
","
","","","748.7000000476837","","","13","3511","2085","n","elianto","#3366ff99"," "," ","1","+10","[1609]","1","2","","","3511","107","9","1","win","go","0"
"pit-trial","232","1550595","0.0-112.0","battery-v0.2","","""event"",""trial"",""time""
""fullscreenenter"",""1"",""11334""
","
","
","""event"",""trial"",""time""
""fullscreenenter"",""1"",""11334""
","
","","","1328.3999999761581","","","13","3511","2085","f","elianto","#3366ff99"," "," ","1","+10","[2179.5]","1","2","","","3511","108","8","1","win","go","0"
"pit-trial","233","1555068","0.0-113.0","battery-v0.2","","""event"",""trial"",""time""
""fullscreenenter"",""1"",""11334""
","
","
","""event"",""trial"",""time""
""fullscreenenter"",""1"",""11334""
","
","","","1597.7000000476837","","","13","3511","2085","c","elianto","#3366ff99","-1"," ","0","0","[2449]","1","2","","","3511","109","5","2","win","no-go","0"
"pit-trial","234","1559011","0.0-114.0","battery-v0.2","","""event"",""trial"",""time""
""fullscreenenter"",""1"",""11334""
","
","
","""event"",""trial"",""time""
""fullscreenenter"",""1"",""11334""
","
","","","1073.3999999761581","","","13","3511","2085","f","elianto","#3366ff99"," "," ","1","+10","[1928]","1","2","","","3511","110","8","1","win","go","0"
"pit-trial","235","1562748","0.0-115.0","battery-v0.2","","""event"",""trial"",""time""
""fullscreenenter"",""1"",""11334""
","
","
","""event"",""trial"",""time""
""fullscreenenter"",""1"",""11334""
","
","","","863.5","","","13","3511","2085","n","elianto","#3366ff99"," "," ","1","+10","[1716.6000000238419]","1","2","","","3511","111","9","1","win","go","0"
"pit-trial","236","1567619","0.0-116.0","battery-v0.2","","""event"",""trial"",""time""
""fullscreenenter"",""1"",""11334""
","
","
","""event"",""trial"",""time""
""fullscreenenter"",""1"",""11334""
","
","","","-1","","","13","3511","2085","b","elianto","#f73b6a7A"," ","-1","0","-10","[]","0","2","","","3511","112","6","3","lose","go","0"
"pit-trial","237","1571244","0.0-117.0","battery-v0.2","","""event"",""trial"",""time""
""fullscreenenter"",""1"",""11334""
","
","
","""event"",""trial"",""time""
""fullscreenenter"",""1"",""11334""
","
","","","749.7000000476837","","","13","3511","2085","n","elianto","#3366ff99"," "," ","1","+10","[1609.5]","1","2","","","3511","113","9","1","win","go","0"
"pit-trial","238","1575700","0.0-118.0","battery-v0.2","","""event"",""trial"",""time""
""fullscreenenter"",""1"",""11334""
","
","
","""event"",""trial"",""time""
""fullscreenenter"",""1"",""11334""
","
","","","1586.7000000476837","","","13","3511","2085","b","elianto","#f73b6a7A"," "," ","1","0","[2436.899999976158]","1","2","","","3511","114","6","3","lose","go","0"
"pit-trial","239","1579219","0.0-119.0","battery-v0.2","","""event"",""trial"",""time""
""fullscreenenter"",""1"",""11334""
","
","
","""event"",""trial"",""time""
""fullscreenenter"",""1"",""11334""
","
","","","648.6000000238419","","","13","3511","2085","c","elianto","#3366ff99","-1"," ","0","0","[1511.3999999761581]","1","2","","","3511","115","5","2","win","no-go","0"
"pit-trial","240","1583220","0.0-120.0","battery-v0.2","","""event"",""trial"",""time""
""fullscreenenter"",""1"",""11334""
","
","
","""event"",""trial"",""time""
""fullscreenenter"",""1"",""11334""
","
","","","1131","","","13","3511","2085","f","elianto","#3366ff99"," "," ","1","0","[1984.8000000715256]","1","2","","","3511","116","8","1","win","go","1"
"pit-trial","241","1586717","0.0-121.0","battery-v0.2","","""event"",""trial"",""time""
""fullscreenenter"",""1"",""11334""
","
","
","""event"",""trial"",""time""
""fullscreenenter"",""1"",""11334""
","
","","","626.1000000238419","","","13","3511","2085","c","elianto","#3366ff99","-1"," ","0","0","[1476.7000000476837]","1","2","","","3511","117","5","2","win","no-go","0"
"pit-trial","242","1590883","0.0-122.0","battery-v0.2","","""event"",""trial"",""time""
""fullscreenenter"",""1"",""11334""
","
","
","""event"",""trial"",""time""
""fullscreenenter"",""1"",""11334""
","
","","","1297.8999999761581","","","13","3511","2085","b","elianto","#f73b6a7A"," "," ","1","0","[2151.1999999284744]","1","2","","","3511","118","6","3","lose","go","0"
"pit-trial","243","1595754","0.0-123.0","battery-v0.2","","""event"",""trial"",""time""
""fullscreenenter"",""1"",""11334""
","
","
","""event"",""trial"",""time""
""fullscreenenter"",""1"",""11334""
","
","","","-1","","","13","3511","2085","f","elianto","#3366ff99"," ","-1","0","+10","[]","0","2","","","3511","119","8","1","win","go","1"
"pit-trial","244","1599340","0.0-124.0","battery-v0.2","","""event"",""trial"",""time""
""fullscreenenter"",""1"",""11334""
","
","
","""event"",""trial"",""time""
""fullscreenenter"",""1"",""11334""
","
","","","702.7999999523163","","","13","3511","2085","n","elianto","#3366ff99"," "," ","1","+10","[1569.9000000953674]","1","2","","","3511","120","9","1","win","go","0"
"pit-trial","245","1604211","0.0-125.0","battery-v0.2","","""event"",""trial"",""time""
""fullscreenenter"",""1"",""11334""
","
","
","""event"",""trial"",""time""
""fullscreenenter"",""1"",""11334""
","
","","","-1","","","13","3511","2085","n","elianto","#3366ff99"," ","-1","0","0","[]","0","2","","","3511","121","9","1","win","go","0"
"pit-trial","246","1608869","0.0-126.0","battery-v0.2","","""event"",""trial"",""time""
""fullscreenenter"",""1"",""11334""
","
","
","""event"",""trial"",""time""
""fullscreenenter"",""1"",""11334""
","
","","","1785.3000000715256","","","13","3511","2085","t","elianto","#f73b6a7A","-1"," ","0","0","[2635.5]","1","2","","","3511","122","7","4","lose","no-go","1"
"pit-trial","247","1612549","0.0-127.0","battery-v0.2","","""event"",""trial"",""time""
""fullscreenenter"",""1"",""11334""
","
","
","""event"",""trial"",""time""
""fullscreenenter"",""1"",""11334""
","
","","","803.6999999284744","","","13","3511","2085","f","elianto","#3366ff99"," "," ","1","0","[1660.0999999046326]","1","2","","","3511","123","8","1","win","go","1"
"pit-trial","248","1616596","0.0-128.0","battery-v0.2","","""event"",""trial"",""time""
""fullscreenenter"",""1"",""11334""
","
","
","""event"",""trial"",""time""
""fullscreenenter"",""1"",""11334""
","
","","","1176.5","","","13","3511","2085","b","elianto","#f73b6a7A"," "," ","1","0","[2029]","1","2","","","3511","124","6","3","lose","go","0"
"pit-trial","249","1621468","0.0-129.0","battery-v0.2","","""event"",""trial"",""time""
""fullscreenenter"",""1"",""11334""
","
","
","""event"",""trial"",""time""
""fullscreenenter"",""1"",""11334""
","
","","","-1","","","13","3511","2085","b","elianto","#f73b6a7A"," ","-1","0","-10","[]","0","2","","","3511","125","6","3","lose","go","0"
"pit-trial","250","1624845","0.0-130.0","battery-v0.2","","""event"",""trial"",""time""
""fullscreenenter"",""1"",""11334""
","
","
","""event"",""trial"",""time""
""fullscreenenter"",""1"",""11334""
","
","","","500.89999997615814","","","13","3511","2085","t","elianto","#f73b6a7A","-1"," ","0","-10","[1356.7999999523163]","1","2","","","3511","126","7","4","lose","no-go","0"
"pit-trial","251","1628276","0.0-131.0","battery-v0.2","","""event"",""trial"",""time""
""fullscreenenter"",""1"",""11334""
","
","
","""event"",""trial"",""time""
""fullscreenenter"",""1"",""11334""
","
","","","551.3999999761581","","","13","3511","2085","f","elianto","#3366ff99"," "," ","1","+10","[1412.8999999761581]","1","2","","","3511","127","8","1","win","go","0"
"pit-trial","252","1632476","0.0-132.0","battery-v0.2","","""event"",""trial"",""time""
""fullscreenenter"",""1"",""11334""
","
","
","""event"",""trial"",""time""
""fullscreenenter"",""1"",""11334""
","
","","","1322.1000000238419","","","13","3511","2085","n","elianto","#3366ff99"," "," ","1","+10","[2184.8000000715256]","1","2","","","3511","128","9","1","win","go","0"
"pit-trial","253","1636533","0.0-133.0","battery-v0.2","","""event"",""trial"",""time""
""fullscreenenter"",""1"",""11334""
","
","
","""event"",""trial"",""time""
""fullscreenenter"",""1"",""11334""
","
","","","1176.7000000476837","","","13","3511","2085","n","elianto","#3366ff99"," "," ","1","+10","[2037.2999999523163]","1","2","","","3511","129","9","1","win","go","0"
"pit-trial","254","1641404","0.0-134.0","battery-v0.2","","""event"",""trial"",""time""
""fullscreenenter"",""1"",""11334""
","
","
","""event"",""trial"",""time""
""fullscreenenter"",""1"",""11334""
","
","","","-1","","","13","3511","2085","b","elianto","#f73b6a7A"," ","-1","0","0","[]","0","2","","","3511","130","6","3","lose","go","1"
"pit-trial","255","1645292","0.0-135.0","battery-v0.2","","""event"",""trial"",""time""
""fullscreenenter"",""1"",""11334""
","
","
","""event"",""trial"",""time""
""fullscreenenter"",""1"",""11334""
","
","","","1013.8999999761581","","","13","3511","2085","t","elianto","#f73b6a7A","-1"," ","0","-10","[1876.7000000476837]","1","2","","","3511","131","7","4","lose","no-go","0"
"pit-trial","256","1649100","0.0-136.0","battery-v0.2","","""event"",""trial"",""time""
""fullscreenenter"",""1"",""11334""
","
","
","""event"",""trial"",""time""
""fullscreenenter"",""1"",""11334""
","
","","","935.6999999284744","","","13","3511","2085","f","elianto","#3366ff99"," "," ","1","+10","[1790.8999999761581]","1","2","","","3511","132","8","1","win","go","0"
"pit-trial","257","1652884","0.0-137.0","battery-v0.2","","""event"",""trial"",""time""
""fullscreenenter"",""1"",""11334""
","
","
","""event"",""trial"",""time""
""fullscreenenter"",""1"",""11334""
","
","","","905.5","","","13","3511","2085","b","elianto","#f73b6a7A"," "," ","1","0","[1770.5]","1","2","","","3511","133","6","3","lose","go","0"
"pit-trial","258","1656756","0.0-138.0","battery-v0.2","","""event"",""trial"",""time""
""fullscreenenter"",""1"",""11334""
","
","
","""event"",""trial"",""time""
""fullscreenenter"",""1"",""11334""
","
","","","1004.3000000715256","","","13","3511","2085","n","elianto","#3366ff99"," "," ","1","+10","[1857]","1","2","","","3511","134","9","1","win","go","0"
"pit-trial","259","1661619","0.0-139.0","battery-v0.2","","""event"",""trial"",""time""
""fullscreenenter"",""1"",""11334""
","
","
","""event"",""trial"",""time""
""fullscreenenter"",""1"",""11334""
","
","","","1993.8000000715256","","","13","3511","2085","f","elianto","#3366ff99"," "," ","1","+10","[2845.7999999523163]","1","2","","","3511","135","8","1","win","go","0"
"pit-trial","260","1666493","0.0-140.0","battery-v0.2","","""event"",""trial"",""time""
""fullscreenenter"",""1"",""11334""
","
","
","""event"",""trial"",""time""
""fullscreenenter"",""1"",""11334""
","
","","","-1","","","13","3511","2085","t","elianto","#f73b6a7A","-1","-1","1","0","[]","0","2","","","3511","136","7","4","lose","no-go","0"
"pit-trial","261","1670363","0.0-141.0","battery-v0.2","","""event"",""trial"",""time""
""fullscreenenter"",""1"",""11334""
","
","
","""event"",""trial"",""time""
""fullscreenenter"",""1"",""11334""
","
","","","1004.3000000715256","","","13","3511","2085","n","elianto","#3366ff99"," "," ","1","0","[1857.7999999523163]","1","2","","","3511","137","9","1","win","go","1"
"pit-trial","262","1674499","0.0-142.0","battery-v0.2","","""event"",""trial"",""time""
""fullscreenenter"",""1"",""11334""
","
","
","""event"",""trial"",""time""
""fullscreenenter"",""1"",""11334""
","
","","","1263.1000000238419","","","13","3511","2085","b","elianto","#f73b6a7A"," "," ","1","0","[2122.899999976158]","1","2","","","3511","138","6","3","lose","go","0"
"pit-trial","263","1678532","0.0-143.0","battery-v0.2","","""event"",""trial"",""time""
""fullscreenenter"",""1"",""11334""
","
","
","""event"",""trial"",""time""
""fullscreenenter"",""1"",""11334""
","
","","","1164.4000000953674","","","13","3511","2085","t","elianto","#f73b6a7A","-1"," ","0","-10","[2020.6000000238419]","1","2","","","3511","139","7","4","lose","no-go","0"
"pit-trial","264","1682229","0.0-144.0","battery-v0.2","","""event"",""trial"",""time""
""fullscreenenter"",""1"",""11334""
","
","
","""event"",""trial"",""time""
""fullscreenenter"",""1"",""11334""
","
","","","832.1000000238419","","","13","3511","2085","f","elianto","#3366ff99"," "," ","1","+10","[1682]","1","2","","","3511","140","8","1","win","go","0"
"pit-instructions","265","1794793","0.0-145.0","battery-v0.2","","""event"",""trial"",""time""
