"trial_type","trial_index","time_elapsed","internal_node_id","task_version","subject_id","interactions","blur_events","focus_events","fullscreenenter_events","fullscreenexit_events","success","view_history","rt","responses","num_errors","age","subject","participantId","rune","rune_set","hex","correct","choice","accuracy","outcome","keys","total_keys","block","practice","value","sub","trial","stimulus","robot","valence","action","sham"
"pavlovia","0","10","0.0-0.0","battery-v0.2","","""event"",""trial"",""time""
""fullscreenenter"",""1"",""1873""
","
","
","""event"",""trial"",""time""
""fullscreenenter"",""1"",""1873""
","
","","","","","","","","","","","","","","","","","","","","","","","","","","",""
"fullscreen","1","2855","0.0-1.0","battery-v0.2","","""event"",""trial"",""time""
""fullscreenenter"",""1"",""1873""
","
","
","""event"",""trial"",""time""
""fullscreenenter"",""1"",""1873""
","
","true","","","","","","","","","","","","","","","","","","","","","","","","","",""
"pit-instructions","2","8365","0.0-2.0-0.0","battery-v0.2","","""event"",""trial"",""time""
""fullscreenenter"",""1"",""1873""
","
","
","""event"",""trial"",""time""
""fullscreenenter"",""1"",""1873""
","
","","[{""page_index"":0,""viewing_time"":5504.600000023842}]","5504.899999976158","","","","","","","","","","","","","","","","","","","","","","","",""
"pit-comprehension","3","12021","0.0-2.0-1.0-0.0","battery-v0.2","","""event"",""trial"",""time""
""fullscreenenter"",""1"",""1873""
","
","
","""event"",""trial"",""time""
""fullscreenenter"",""1"",""1873""
","
","","","3650.5","[""shark""]","0","25","10970","534","","","","","","","","","","","","","","","","","","",""
"pit-instructions","4","15060","0.0-2.0-1.0-1.0","battery-v0.2","","""event"",""trial"",""time""
""fullscreenenter"",""1"",""1873""
","
","
","""event"",""trial"",""time""
""fullscreenenter"",""1"",""1873""
","
","","[{""page_index"":0,""viewing_time"":3017.8000000715256}]","3018.3000000715256","","","","","","","","","","","","","","","","","","","","","","","",""
"pit-comprehension","5","17649","0.0-2.0-2.0-0.0","battery-v0.2","","""event"",""trial"",""time""
""fullscreenenter"",""1"",""1873""
","
","
","""event"",""trial"",""time""
""fullscreenenter"",""1"",""1873""
","
","","","2582.600000023842","[""tiger""]","0","25","10970","534","","","","","","","","","","","","","","","","","","",""
"pit-instructions","6","18928","0.0-2.0-2.0-1.0","battery-v0.2","","""event"",""trial"",""time""
""fullscreenenter"",""1"",""1873""
","
","
","""event"",""trial"",""time""
""fullscreenenter"",""1"",""1873""
","
","","[{""page_index"":0,""viewing_time"":1274.3999999761581}]","1274.7999999523163","","","","","","","","","","","","","","","","","","","","","","","",""
"pit-instructions","7","197284","0.0-2.0-3.0","battery-v0.2","","""event"",""trial"",""time""
""fullscreenenter"",""1"",""1873""
","
","
","""event"",""trial"",""time""
""fullscreenenter"",""1"",""1873""
","
","","[{""page_index"":0,""viewing_time"":17236.400000095367},{""page_index"":1,""viewing_time"":12023.099999904633},{""page_index"":2,""viewing_time"":7735.800000071526},{""page_index"":3,""viewing_time"":7763.600000023842},{""page_index"":4,""viewing_time"":8155.399999976158},{""page_index"":5,""viewing_time"":7389.199999928474},{""page_index"":6,""viewing_time"":9874.200000047684},{""page_index"":7,""viewing_time"":10192.399999976158},{""page_index"":8,""viewing_time"":8949.600000023842},{""page_index"":9,""viewing_time"":21960.399999976158},{""page_index"":10,""viewing_time"":13522.100000023842},{""page_index"":11,""viewing_time"":2809.2999999523163},{""page_index"":10,""viewing_time"":884.1000000238419},{""page_index"":9,""viewing_time"":1006.6000000238419},{""page_index"":8,""viewing_time"":1603.7999999523163},{""page_index"":9,""viewing_time"":6463.900000095367},{""page_index"":10,""viewing_time"":8707.199999928474},{""page_index"":11,""viewing_time"":11720.700000047684},{""page_index"":12,""viewing_time"":11584.799999952316},{""page_index"":13,""viewing_time"":8775.800000071526}]","178358.80000007153","","","","","","","","","","","","","","","","","","","","","","","",""
"pit-trial","8","200704","0.0-2.0-4.0-0.0","battery-v0.2","","""event"",""trial"",""time""
""fullscreenenter"",""1"",""1873""
","
","
","""event"",""trial"",""time""
""fullscreenenter"",""1"",""1873""
","
","","","548","","","25","10970","534","&#9784;","elianto","#FFFFF080"," "," ","1","&#10004","[1400.8000000715256]","1","0","0","","","","","","","",""
"pit-trial","9","204064","0.0-2.0-4.1-0.1","battery-v0.2","","""event"",""trial"",""time""
""fullscreenenter"",""1"",""1873""
","
","
","""event"",""trial"",""time""
""fullscreenenter"",""1"",""1873""
","
","","","487.6999999284744","","","25","10970","534","&#9784;","elianto","#FFFFF080"," "," ","1","&#10004","[1338.5]","1","0","0","","","","","","","",""
"pit-trial","10","207388","0.0-2.0-4.2-0.2","battery-v0.2","","""event"",""trial"",""time""
""fullscreenenter"",""1"",""1873""
","
","
","""event"",""trial"",""time""
""fullscreenenter"",""1"",""1873""
","
","","","457","","","25","10970","534","&#9784;","elianto","#FFFFF080"," "," ","1","&#10004","[1311.7000000476837]","1","0","0","","","","","","","",""
"pit-trial","11","210683","0.0-2.0-4.3-0.3","battery-v0.2","","""event"",""trial"",""time""
""fullscreenenter"",""1"",""1873""
","
","
","""event"",""trial"",""time""
""fullscreenenter"",""1"",""1873""
","
","","","426.7999999523163","","","25","10970","534","&#9784;","elianto","#FFFFF080"," "," ","1","&#10004","[1283.5999999046326]","1","0","0","","","","","","","",""
"pit-trial","12","214069","0.0-2.0-4.4-0.4","battery-v0.2","","""event"",""trial"",""time""
""fullscreenenter"",""1"",""1873""
","
","
","""event"",""trial"",""time""
""fullscreenenter"",""1"",""1873""
","
","","","518.7000000476837","","","25","10970","534","&#9784;","elianto","#FFFFF080"," "," ","1","&#10004","[1372.5]","1","0","0","","","","","","","",""
"pit-instructions","13","244037","0.0-2.0-5.0","battery-v0.2","","""event"",""trial"",""time""
""fullscreenenter"",""1"",""1873""
","
","
","""event"",""trial"",""time""
""fullscreenenter"",""1"",""1873""
","
","","[{""page_index"":0,""viewing_time"":8087.300000071526},{""page_index"":1,""viewing_time"":6676.599999904633},{""page_index"":2,""viewing_time"":8826.200000047684},{""page_index"":3,""viewing_time"":6372.5}]","29963.100000023842","","","","","","","","","","","","","","","","","","","","","","","",""
"pit-trial","14","248909","0.0-2.0-6.0-0.0","battery-v0.2","","""event"",""trial"",""time""
""fullscreenenter"",""1"",""1873""
","
","
","""event"",""trial"",""time""
""fullscreenenter"",""1"",""1873""
","
","","","-1","","","25","10970","534","&#9854;","elianto","#FFFFF080","-1","-1","1","&#10004","[]","0","0","1","","","","","","","",""
"pit-trial","15","253788","0.0-2.0-6.1-0.1","battery-v0.2","","""event"",""trial"",""time""
""fullscreenenter"",""1"",""1873""
","
","
","""event"",""trial"",""time""
""fullscreenenter"",""1"",""1873""
","
","","","-1","","","25","10970","534","&#9854;","elianto","#FFFFF080","-1","-1","1","&#10004","[]","0","0","1","","","","","","","",""
"pit-trial","16","258656","0.0-2.0-6.2-0.2","battery-v0.2","","""event"",""trial"",""time""
""fullscreenenter"",""1"",""1873""
","
","
","""event"",""trial"",""time""
""fullscreenenter"",""1"",""1873""
","
","","","-1","","","25","10970","534","&#9854;","elianto","#FFFFF080","-1","-1","1","&#10004","[]","0","0","1","","","","","","","",""
"pit-trial","17","263533","0.0-2.0-6.3-0.3","battery-v0.2","","""event"",""trial"",""time""
""fullscreenenter"",""1"",""1873""
","
","
","""event"",""trial"",""time""
""fullscreenenter"",""1"",""1873""
","
","","","-1","","","25","10970","534","&#9854;","elianto","#FFFFF080","-1","-1","1","&#10004","[]","0","0","1","","","","","","","",""
"pit-trial","18","268400","0.0-2.0-6.4-0.4","battery-v0.2","","""event"",""trial"",""time""
""fullscreenenter"",""1"",""1873""
","
","
","""event"",""trial"",""time""
""fullscreenenter"",""1"",""1873""
","
","","","-1","","","25","10970","534","&#9854;","elianto","#FFFFF080","-1","-1","1","&#10004","[]","0","0","1","","","","","","","",""
"pit-instructions","19","402079","0.0-2.0-7.0","battery-v0.2","","""event"",""trial"",""time""
""fullscreenenter"",""1"",""1873""
","
","
","""event"",""trial"",""time""
""fullscreenenter"",""1"",""1873""
","
","","[{""page_index"":0,""viewing_time"":9745.399999976158},{""page_index"":1,""viewing_time"":8997.700000047684},{""page_index"":2,""viewing_time"":7083.599999904633},{""page_index"":3,""viewing_time"":6022.100000023842},{""page_index"":4,""viewing_time"":5267.800000071526},{""page_index"":5,""viewing_time"":6705.099999904633},{""page_index"":6,""viewing_time"":7037.900000095367},{""page_index"":7,""viewing_time"":8297},{""page_index"":8,""viewing_time"":8997.599999904633},{""page_index"":9,""viewing_time"":7695.800000071526},{""page_index"":10,""viewing_time"":7193.699999928474},{""page_index"":11,""viewing_time"":5931.900000095367},{""page_index"":12,""viewing_time"":6936.5},{""page_index"":13,""viewing_time"":7439.5},{""page_index"":14,""viewing_time"":7512.599999904633},{""page_index"":15,""viewing_time"":7319.300000071526},{""page_index"":16,""viewing_time"":7406.299999952316},{""page_index"":17,""viewing_time"":8087.600000023842}]","133677.89999997616","","","","","","","","","","","","","","","","","","","","","","","",""
"pit-trial","20","405473","0.0-2.0-8.0-0.0","battery-v0.2","","""event"",""trial"",""time""
""fullscreenenter"",""1"",""1873""
","
","
","""event"",""trial"",""time""
""fullscreenenter"",""1"",""1873""
","
","","","528.3000000715256","","","25","10970","534","&#9776;","elianto","#3366ff99"," "," ","1","+10","[1382.8999999761581]","1","0","1","","","","","","","",""
"pit-trial","21","408989","0.0-2.0-8.0-1.0","battery-v0.2","","""event"",""trial"",""time""
""fullscreenenter"",""1"",""1873""
","
","
","""event"",""trial"",""time""
""fullscreenenter"",""1"",""1873""
","
","","","642.8999999761581","","","25","10970","534","&#9776;","elianto","#3366ff99"," "," ","1","+10","[1501.2000000476837]","1","0","1","","","","","","","",""
"pit-trial","22","412316","0.0-2.0-8.0-2.0","battery-v0.2","","""event"",""trial"",""time""
""fullscreenenter"",""1"",""1873""
","
","
","""event"",""trial"",""time""
""fullscreenenter"",""1"",""1873""
","
","","","461.5","","","25","10970","534","&#9776;","elianto","#3366ff99"," "," ","1","+10","[1312.8999999761581]","1","0","1","","","","","","","",""
"pit-trial","23","415596","0.0-2.0-8.0-3.0","battery-v0.2","","""event"",""trial"",""time""
""fullscreenenter"",""1"",""1873""
","
","
","""event"",""trial"",""time""
""fullscreenenter"",""1"",""1873""
","
","","","407.89999997615814","","","25","10970","534","&#9776;","elianto","#3366ff99"," "," ","1","0","[1260.7000000476837]","1","0","1","","","","","","","",""
"pit-trial","24","418851","0.0-2.0-8.0-4.0","battery-v0.2","","""event"",""trial"",""time""
""fullscreenenter"",""1"",""1873""
","
","
","""event"",""trial"",""time""
""fullscreenenter"",""1"",""1873""
","
","","","388.10000002384186","","","25","10970","534","&#9776;","elianto","#3366ff99"," "," ","1","+10","[1243.1000000238419]","1","0","1","","","","","","","",""
"pit-trial","25","422187","0.0-2.0-8.1-0.1","battery-v0.2","","""event"",""trial"",""time""
""fullscreenenter"",""1"",""1873""
","
","
","""event"",""trial"",""time""
""fullscreenenter"",""1"",""1873""
","
","","","470.3000000715256","","","25","10970","534","&#9776;","elianto","#3366ff99"," "," ","1","+10","[1321.8000000715256]","1","0","1","","","","","","","",""
"pit-trial","26","425451","0.0-2.0-8.1-1.1","battery-v0.2","","""event"",""trial"",""time""
""fullscreenenter"",""1"",""1873""
","
","
","""event"",""trial"",""time""
""fullscreenenter"",""1"",""1873""
","
","","","402.8000000715256","","","25","10970","534","&#9776;","elianto","#3366ff99"," "," ","1","+10","[1253.7000000476837]","1","0","1","","","","","","","",""
"pit-trial","27","429340","0.0-2.0-8.1-2.1","battery-v0.2","","""event"",""trial"",""time""
""fullscreenenter"",""1"",""1873""
","
","
","""event"",""trial"",""time""
""fullscreenenter"",""1"",""1873""
","
","","","1022.4000000953674","","","25","10970","534","&#9776;","elianto","#3366ff99"," "," ","1","+10","[1876.8999999761581]","1","0","1","","","","","","","",""
"pit-trial","28","432627","0.0-2.0-8.1-3.1","battery-v0.2","","""event"",""trial"",""time""
""fullscreenenter"",""1"",""1873""
","
","
","""event"",""trial"",""time""
""fullscreenenter"",""1"",""1873""
","
","","","419.10000002384186","","","25","10970","534","&#9776;","elianto","#3366ff99"," "," ","1","0","[1272.5]","1","0","1","","","","","","","",""
"pit-trial","29","435843","0.0-2.0-8.1-4.1","battery-v0.2","","""event"",""trial"",""time""
""fullscreenenter"",""1"",""1873""
","
","
","""event"",""trial"",""time""
""fullscreenenter"",""1"",""1873""
","
","","","344.7000000476837","","","25","10970","534","&#9776;","elianto","#3366ff99"," "," ","1","+10","[1199.1000000238419]","1","0","1","","","","","","","",""
"pit-trial","30","439127","0.0-2.0-8.2-0.2","battery-v0.2","","""event"",""trial"",""time""
""fullscreenenter"",""1"",""1873""
","
","
","""event"",""trial"",""time""
""fullscreenenter"",""1"",""1873""
","
","","","417.39999997615814","","","25","10970","534","&#9776;","elianto","#3366ff99"," "," ","1","+10","[1271.6000000238419]","1","0","1","","","","","","","",""
"pit-trial","31","442403","0.0-2.0-8.2-1.2","battery-v0.2","","""event"",""trial"",""time""
""fullscreenenter"",""1"",""1873""
","
","
","""event"",""trial"",""time""
""fullscreenenter"",""1"",""1873""
","
","","","402.10000002384186","","","25","10970","534","&#9776;","elianto","#3366ff99"," "," ","1","+10","[1262.1999999284744]","1","0","1","","","","","","","",""
"pit-trial","32","445706","0.0-2.0-8.2-2.2","battery-v0.2","","""event"",""trial"",""time""
""fullscreenenter"",""1"",""1873""
","
","
","""event"",""trial"",""time""
""fullscreenenter"",""1"",""1873""
","
","","","435.3000000715256","","","25","10970","534","&#9776;","elianto","#3366ff99"," "," ","1","+10","[1287.4000000953674]","1","0","1","","","","","","","",""
"pit-trial","33","448934","0.0-2.0-8.2-3.2","battery-v0.2","","""event"",""trial"",""time""
""fullscreenenter"",""1"",""1873""
","
","
","""event"",""trial"",""time""
""fullscreenenter"",""1"",""1873""
","
","","","367","","","25","10970","534","&#9776;","elianto","#3366ff99"," "," ","1","0","[1218.8999999761581]","1","0","1","","","","","","","",""
"pit-trial","34","452201","0.0-2.0-8.2-4.2","battery-v0.2","","""event"",""trial"",""time""
""fullscreenenter"",""1"",""1873""
","
","
","""event"",""trial"",""time""
""fullscreenenter"",""1"",""1873""
","
","","","396.6999999284744","","","25","10970","534","&#9776;","elianto","#3366ff99"," "," ","1","+10","[1251.0999999046326]","1","0","1","","","","","","","",""
"call-function","35","452208","0.0-2.0-9.0","battery-v0.2","","""event"",""trial"",""time""
""fullscreenenter"",""1"",""1873""
","
","
","""event"",""trial"",""time""
""fullscreenenter"",""1"",""1873""
","
","","","","","","","","","","","","","","","","","","","","","","","","","","",""
"pit-instructions","36","499644","0.0-2.0-10.0","battery-v0.2","","""event"",""trial"",""time""
""fullscreenenter"",""1"",""1873""
","
","
","""event"",""trial"",""time""
""fullscreenenter"",""1"",""1873""
","
","","[{""page_index"":0,""viewing_time"":7222.399999976158},{""page_index"":1,""viewing_time"":7083},{""page_index"":2,""viewing_time"":12403.300000071526},{""page_index"":3,""viewing_time"":12156.799999952316},{""page_index"":4,""viewing_time"":8571}]","47437.200000047684","","","","","","","","","","","","","","","","","","","","","","","",""
"pit-trial","37","503865","0.0-2.0-11.0-0.0","battery-v0.2","","""event"",""trial"",""time""
""fullscreenenter"",""1"",""1873""
","
","
","""event"",""trial"",""time""
""fullscreenenter"",""1"",""1873""
","
","","","1346.3999999761581","","","25","10970","534","&#9761;","elianto","#3366ff99","-1"," ","0","0","[2206.1999999284744]","1","0","2","","","","","","","",""
"pit-trial","38","507264","0.0-2.0-11.0-1.0","battery-v0.2","","""event"",""trial"",""time""
""fullscreenenter"",""1"",""1873""
","
","
","""event"",""trial"",""time""
""fullscreenenter"",""1"",""1873""
","
","","","529.8999999761581","","","25","10970","534","&#9761;","elianto","#3366ff99","-1"," ","0","0","[1383.9000000953674]","1","0","2","","","","","","","",""
"pit-trial","39","510994","0.0-2.0-11.0-2.0","battery-v0.2","","""event"",""trial"",""time""
""fullscreenenter"",""1"",""1873""
","
","
","""event"",""trial"",""time""
""fullscreenenter"",""1"",""1873""
","
","","","864.7000000476837","","","25","10970","534","&#9761;","elianto","#3366ff99","-1"," ","0","0","[1718.7000000476837]","1","0","2","","","","","","","",""
"pit-trial","40","515872","0.0-2.0-11.0-3.0","battery-v0.2","","""event"",""trial"",""time""
""fullscreenenter"",""1"",""1873""
","
","
","""event"",""trial"",""time""
""fullscreenenter"",""1"",""1873""
","
","","","-1","","","25","10970","534","&#9761;","elianto","#3366ff99","-1","-1","1","0","[]","0","0","2","","","","","","","",""
"pit-trial","41","520742","0.0-2.0-11.0-4.0","battery-v0.2","","""event"",""trial"",""time""
""fullscreenenter"",""1"",""1873""
","
","
","""event"",""trial"",""time""
""fullscreenenter"",""1"",""1873""
","
","","","-1","","","25","10970","534","&#9761;","elianto","#3366ff99","-1","-1","1","+10","[]","0","0","2","","","","","","","",""
"pit-trial","42","525615","0.0-2.0-11.1-0.1","battery-v0.2","","""event"",""trial"",""time""
""fullscreenenter"",""1"",""1873""
","
","
","""event"",""trial"",""time""
""fullscreenenter"",""1"",""1873""
","
","","","-1","","","25","10970","534","&#9761;","elianto","#3366ff99","-1","-1","1","+10","[]","0","0","2","","","","","","","",""
"pit-trial","43","530482","0.0-2.0-11.1-1.1","battery-v0.2","","""event"",""trial"",""time""
""fullscreenenter"",""1"",""1873""
","
","
","""event"",""trial"",""time""
""fullscreenenter"",""1"",""1873""
","
","","","-1","","","25","10970","534","&#9761;","elianto","#3366ff99","-1","-1","1","+10","[]","0","0","2","","","","","","","",""
"pit-trial","44","535358","0.0-2.0-11.1-2.1","battery-v0.2","","""event"",""trial"",""time""
""fullscreenenter"",""1"",""1873""
","
","
","""event"",""trial"",""time""
""fullscreenenter"",""1"",""1873""
","
","","","-1","","","25","10970","534","&#9761;","elianto","#3366ff99","-1","-1","1","+10","[]","0","0","2","","","","","","","",""
"pit-trial","45","540228","0.0-2.0-11.1-3.1","battery-v0.2","","""event"",""trial"",""time""
""fullscreenenter"",""1"",""1873""
","
","
","""event"",""trial"",""time""
""fullscreenenter"",""1"",""1873""
","
","","","-1","","","25","10970","534","&#9761;","elianto","#3366ff99","-1","-1","1","0","[]","0","0","2","","","","","","","",""
"pit-trial","46","545102","0.0-2.0-11.1-4.1","battery-v0.2","","""event"",""trial"",""time""
""fullscreenenter"",""1"",""1873""
","
","
","""event"",""trial"",""time""
""fullscreenenter"",""1"",""1873""
","
","","","-1","","","25","10970","534","&#9761;","elianto","#3366ff99","-1","-1","1","+10","[]","0","0","2","","","","","","","",""
"pit-trial","47","549974","0.0-2.0-11.2-0.2","battery-v0.2","","""event"",""trial"",""time""
""fullscreenenter"",""1"",""1873""
","
","
","""event"",""trial"",""time""
""fullscreenenter"",""1"",""1873""
","
","","","-1","","","25","10970","534","&#9761;","elianto","#3366ff99","-1","-1","1","+10","[]","0","0","2","","","","","","","",""
"pit-trial","48","554845","0.0-2.0-11.2-1.2","battery-v0.2","","""event"",""trial"",""time""
""fullscreenenter"",""1"",""1873""
","
","
","""event"",""trial"",""time""
""fullscreenenter"",""1"",""1873""
","
","","","-1","","","25","10970","534","&#9761;","elianto","#3366ff99","-1","-1","1","+10","[]","0","0","2","","","","","","","",""
"pit-trial","49","559717","0.0-2.0-11.2-2.2","battery-v0.2","","""event"",""trial"",""time""
""fullscreenenter"",""1"",""1873""
","
","
","""event"",""trial"",""time""
""fullscreenenter"",""1"",""1873""
","
","","","-1","","","25","10970","534","&#9761;","elianto","#3366ff99","-1","-1","1","+10","[]","0","0","2","","","","","","","",""
"pit-trial","50","564589","0.0-2.0-11.2-3.2","battery-v0.2","","""event"",""trial"",""time""
""fullscreenenter"",""1"",""1873""
","
","
","""event"",""trial"",""time""
""fullscreenenter"",""1"",""1873""
","
","","","-1","","","25","10970","534","&#9761;","elianto","#3366ff99","-1","-1","1","0","[]","0","0","2","","","","","","","",""
"pit-trial","51","569461","0.0-2.0-11.2-4.2","battery-v0.2","","""event"",""trial"",""time""
""fullscreenenter"",""1"",""1873""
","
","
","""event"",""trial"",""time""
""fullscreenenter"",""1"",""1873""
","
","","","-1","","","25","10970","534","&#9761;","elianto","#3366ff99","-1","-1","1","+10","[]","0","0","2","","","","","","","",""
"pit-trial","52","574340","0.0-2.0-11.3-0.3","battery-v0.2","","""event"",""trial"",""time""
""fullscreenenter"",""1"",""1873""
","
","
","""event"",""trial"",""time""
""fullscreenenter"",""1"",""1873""
","
","","","-1","","","25","10970","534","&#9761;","elianto","#3366ff99","-1","-1","1","+10","[]","0","0","2","","","","","","","",""
"pit-trial","53","579212","0.0-2.0-11.3-1.3","battery-v0.2","","""event"",""trial"",""time""
""fullscreenenter"",""1"",""1873""
","
","
","""event"",""trial"",""time""
""fullscreenenter"",""1"",""1873""
","
","","","-1","","","25","10970","534","&#9761;","elianto","#3366ff99","-1","-1","1","+10","[]","0","0","2","","","","","","","",""
"pit-trial","54","584083","0.0-2.0-11.3-2.3","battery-v0.2","","""event"",""trial"",""time""
""fullscreenenter"",""1"",""1873""
","
","
","""event"",""trial"",""time""
""fullscreenenter"",""1"",""1873""
","
","","","-1","","","25","10970","534","&#9761;","elianto","#3366ff99","-1","-1","1","+10","[]","0","0","2","","","","","","","",""
"pit-trial","55","588956","0.0-2.0-11.3-3.3","battery-v0.2","","""event"",""trial"",""time""
""fullscreenenter"",""1"",""1873""
","
","
","""event"",""trial"",""time""
""fullscreenenter"",""1"",""1873""
","
","","","-1","","","25","10970","534","&#9761;","elianto","#3366ff99","-1","-1","1","0","[]","0","0","2","","","","","","","",""
"pit-trial","56","593828","0.0-2.0-11.3-4.3","battery-v0.2","","""event"",""trial"",""time""
""fullscreenenter"",""1"",""1873""
","
","
","""event"",""trial"",""time""
""fullscreenenter"",""1"",""1873""
","
","","","-1","","","25","10970","534","&#9761;","elianto","#3366ff99","-1","-1","1","+10","[]","0","0","2","","","","","","","",""
"call-function","57","593835","0.0-2.0-12.0","battery-v0.2","","""event"",""trial"",""time""
""fullscreenenter"",""1"",""1873""
","
","
","""event"",""trial"",""time""
""fullscreenenter"",""1"",""1873""
","
","","","","","","","","","","","","","","","","","","","","","","","","","","",""
"pit-instructions","58","633772","0.0-2.0-13.0","battery-v0.2","","""event"",""trial"",""time""
""fullscreenenter"",""1"",""1873""
","
","
","""event"",""trial"",""time""
""fullscreenenter"",""1"",""1873""
","
","","[{""page_index"":0,""viewing_time"":8052.200000047684},{""page_index"":1,""viewing_time"":9299.399999976158},{""page_index"":2,""viewing_time"":4797.899999976158},{""page_index"":3,""viewing_time"":12636.300000071526},{""page_index"":4,""viewing_time"":5152}]","39938.200000047684","","","","","","","","","","","","","","","","","","","","","","","",""
"pit-trial","59","638641","0.0-2.0-14.0-0.0","battery-v0.2","","""event"",""trial"",""time""
""fullscreenenter"",""1"",""1873""
","
","
","""event"",""trial"",""time""
""fullscreenenter"",""1"",""1873""
","
","","","-1","","","25","10970","534","&#9826;","elianto","#f73b6a7A","-1","-1","1","0","[]","0","0","3","","","","","","","",""
"pit-trial","60","641894","0.0-2.0-14.0-1.0","battery-v0.2","","""event"",""trial"",""time""
""fullscreenenter"",""1"",""1873""
","
","
","""event"",""trial"",""time""
""fullscreenenter"",""1"",""1873""
","
","","","393.89999997615814","","","25","10970","534","&#9826;","elianto","#f73b6a7A","-1"," ","0","-10","[1245.7999999523163]","1","0","3","","","","","","","",""
"pit-trial","61","646769","0.0-2.0-14.0-2.0","battery-v0.2","","""event"",""trial"",""time""
""fullscreenenter"",""1"",""1873""
","
","
","""event"",""trial"",""time""
""fullscreenenter"",""1"",""1873""
","
","","","-1","","","25","10970","534","&#9826;","elianto","#f73b6a7A","-1","-1","1","0","[]","0","0","3","","","","","","","",""
"pit-trial","62","651641","0.0-2.0-14.0-3.0","battery-v0.2","","""event"",""trial"",""time""
""fullscreenenter"",""1"",""1873""
","
","
","""event"",""trial"",""time""
""fullscreenenter"",""1"",""1873""
","
","","","-1","","","25","10970","534","&#9826;","elianto","#f73b6a7A","-1","-1","1","-10","[]","0","0","3","","","","","","","",""
"pit-trial","63","656513","0.0-2.0-14.0-4.0","battery-v0.2","","""event"",""trial"",""time""
""fullscreenenter"",""1"",""1873""
","
","
","""event"",""trial"",""time""
""fullscreenenter"",""1"",""1873""
","
","","","-1","","","25","10970","534","&#9826;","elianto","#f73b6a7A","-1","-1","1","0","[]","0","0","3","","","","","","","",""
"pit-trial","64","661391","0.0-2.0-14.1-0.1","battery-v0.2","","""event"",""trial"",""time""
""fullscreenenter"",""1"",""1873""
","
","
","""event"",""trial"",""time""
""fullscreenenter"",""1"",""1873""
","
","","","-1","","","25","10970","534","&#9826;","elianto","#f73b6a7A","-1","-1","1","0","[]","0","0","3","","","","","","","",""
"pit-trial","65","666263","0.0-2.0-14.1-1.1","battery-v0.2","","""event"",""trial"",""time""
""fullscreenenter"",""1"",""1873""
","
","
","""event"",""trial"",""time""
""fullscreenenter"",""1"",""1873""
","
","","","-1","","","25","10970","534","&#9826;","elianto","#f73b6a7A","-1","-1","1","0","[]","0","0","3","","","","","","","",""
"pit-trial","66","671134","0.0-2.0-14.1-2.1","battery-v0.2","","""event"",""trial"",""time""
""fullscreenenter"",""1"",""1873""
","
","
","""event"",""trial"",""time""
""fullscreenenter"",""1"",""1873""
","
","","","-1","","","25","10970","534","&#9826;","elianto","#f73b6a7A","-1","-1","1","0","[]","0","0","3","","","","","","","",""
"pit-trial","67","676008","0.0-2.0-14.1-3.1","battery-v0.2","","""event"",""trial"",""time""
""fullscreenenter"",""1"",""1873""
","
","
","""event"",""trial"",""time""
""fullscreenenter"",""1"",""1873""
","
","","","-1","","","25","10970","534","&#9826;","elianto","#f73b6a7A","-1","-1","1","-10","[]","0","0","3","","","","","","","",""
"pit-trial","68","680879","0.0-2.0-14.1-4.1","battery-v0.2","","""event"",""trial"",""time""
""fullscreenenter"",""1"",""1873""
","
","
","""event"",""trial"",""time""
""fullscreenenter"",""1"",""1873""
","
","","","-1","","","25","10970","534","&#9826;","elianto","#f73b6a7A","-1","-1","1","0","[]","0","0","3","","","","","","","",""
"pit-trial","69","685751","0.0-2.0-14.2-0.2","battery-v0.2","","""event"",""trial"",""time""
""fullscreenenter"",""1"",""1873""
","
","
","""event"",""trial"",""time""
""fullscreenenter"",""1"",""1873""
","
","","","-1","","","25","10970","534","&#9826;","elianto","#f73b6a7A","-1","-1","1","0","[]","0","0","3","","","","","","","",""
"pit-trial","70","690623","0.0-2.0-14.2-1.2","battery-v0.2","","""event"",""trial"",""time""
""fullscreenenter"",""1"",""1873""
","
","
","""event"",""trial"",""time""
""fullscreenenter"",""1"",""1873""
","
","","","-1","","","25","10970","534","&#9826;","elianto","#f73b6a7A","-1","-1","1","0","[]","0","0","3","","","","","","","",""
"pit-trial","71","695495","0.0-2.0-14.2-2.2","battery-v0.2","","""event"",""trial"",""time""
""fullscreenenter"",""1"",""1873""
","
","
","""event"",""trial"",""time""
""fullscreenenter"",""1"",""1873""
","
","","","-1","","","25","10970","534","&#9826;","elianto","#f73b6a7A","-1","-1","1","0","[]","0","0","3","","","","","","","",""
"pit-trial","72","700366","0.0-2.0-14.2-3.2","battery-v0.2","","""event"",""trial"",""time""
""fullscreenenter"",""1"",""1873""
","
","
","""event"",""trial"",""time""
""fullscreenenter"",""1"",""1873""
","
","","","-1","","","25","10970","534","&#9826;","elianto","#f73b6a7A","-1","-1","1","-10","[]","0","0","3","","","","","","","",""
"pit-trial","73","705239","0.0-2.0-14.2-4.2","battery-v0.2","","""event"",""trial"",""time""
""fullscreenenter"",""1"",""1873""
","
","
","""event"",""trial"",""time""
""fullscreenenter"",""1"",""1873""
","
","","","-1","","","25","10970","534","&#9826;","elianto","#f73b6a7A","-1","-1","1","0","[]","0","0","3","","","","","","","",""
"pit-trial","74","710110","0.0-2.0-14.3-0.3","battery-v0.2","","""event"",""trial"",""time""
""fullscreenenter"",""1"",""1873""
","
","
","""event"",""trial"",""time""
""fullscreenenter"",""1"",""1873""
","
","","","-1","","","25","10970","534","&#9826;","elianto","#f73b6a7A","-1","-1","1","0","[]","0","0","3","","","","","","","",""
"pit-trial","75","714981","0.0-2.0-14.3-1.3","battery-v0.2","","""event"",""trial"",""time""
""fullscreenenter"",""1"",""1873""
","
","
","""event"",""trial"",""time""
""fullscreenenter"",""1"",""1873""
","
","","","-1","","","25","10970","534","&#9826;","elianto","#f73b6a7A","-1","-1","1","0","[]","0","0","3","","","","","","","",""
"pit-trial","76","719851","0.0-2.0-14.3-2.3","battery-v0.2","","""event"",""trial"",""time""
""fullscreenenter"",""1"",""1873""
","
","
","""event"",""trial"",""time""
""fullscreenenter"",""1"",""1873""
","
","","","-1","","","25","10970","534","&#9826;","elianto","#f73b6a7A","-1","-1","1","0","[]","0","0","3","","","","","","","",""
"pit-trial","77","724724","0.0-2.0-14.3-3.3","battery-v0.2","","""event"",""trial"",""time""
""fullscreenenter"",""1"",""1873""
","
","
","""event"",""trial"",""time""
""fullscreenenter"",""1"",""1873""
","
","","","-1","","","25","10970","534","&#9826;","elianto","#f73b6a7A","-1","-1","1","-10","[]","0","0","3","","","","","","","",""
"pit-trial","78","729597","0.0-2.0-14.3-4.3","battery-v0.2","","""event"",""trial"",""time""
""fullscreenenter"",""1"",""1873""
","
","
","""event"",""trial"",""time""
""fullscreenenter"",""1"",""1873""
","
","","","-1","","","25","10970","534","&#9826;","elianto","#f73b6a7A","-1","-1","1","0","[]","0","0","3","","","","","","","",""
"call-function","79","729603","0.0-2.0-15.0","battery-v0.2","","""event"",""trial"",""time""
""fullscreenenter"",""1"",""1873""
","
","
","""event"",""trial"",""time""
""fullscreenenter"",""1"",""1873""
","
","","","","","","","","","","","","","","","","","","","","","","","","","","",""
"pit-instructions","80","764638","0.0-2.0-16.0","battery-v0.2","","""event"",""trial"",""time""
""fullscreenenter"",""1"",""1873""
","
","
","""event"",""trial"",""time""
""fullscreenenter"",""1"",""1873""
","
","","[{""page_index"":0,""viewing_time"":10845.700000047684},{""page_index"":1,""viewing_time"":8117.799999952316},{""page_index"":2,""viewing_time"":5482.300000071526},{""page_index"":3,""viewing_time"":10589.899999976158}]","35036.200000047684","","","","","","","","","","","","","","","","","","","","","","","",""
"pit-trial","81","768292","0.0-2.0-17.0-0.0","battery-v0.2","","""event"",""trial"",""time""
""fullscreenenter"",""1"",""1873""
","
","
","""event"",""trial"",""time""
""fullscreenenter"",""1"",""1873""
","
","","","783.2999999523163","","","25","10970","534","&#9789;","elianto","#f73b6a7A"," "," ","1","0","[1634.8999999761581]","1","0","4","","","","","","","",""
"pit-trial","82","771584","0.0-2.0-17.0-1.0","battery-v0.2","","""event"",""trial"",""time""
""fullscreenenter"",""1"",""1873""
","
","
","""event"",""trial"",""time""
""fullscreenenter"",""1"",""1873""
","
","","","428.5","","","25","10970","534","&#9789;","elianto","#f73b6a7A"," "," ","1","0","[1281.6000000238419]","1","0","4","","","","","","","",""
"pit-trial","83","774649","0.0-2.0-17.0-2.0","battery-v0.2","","""event"",""trial"",""time""
""fullscreenenter"",""1"",""1873""
","
","
","""event"",""trial"",""time""
""fullscreenenter"",""1"",""1873""
","
","","","198.10000002384186","","","25","10970","534","&#9789;","elianto","#f73b6a7A"," "," ","1","0","[1052.3000000715256]","1","0","4","","","","","","","",""
"pit-trial","84","777794","0.0-2.0-17.0-3.0","battery-v0.2","","""event"",""trial"",""time""
""fullscreenenter"",""1"",""1873""
","
","
","""event"",""trial"",""time""
""fullscreenenter"",""1"",""1873""
","
","","","276.8000000715256","","","25","10970","534","&#9789;","elianto","#f73b6a7A"," "," ","1","-10","[1132.7000000476837]","1","0","4","","","","","","","",""
"pit-trial","85","780850","0.0-2.0-17.0-4.0","battery-v0.2","","""event"",""trial"",""time""
""fullscreenenter"",""1"",""1873""
","
","
","""event"",""trial"",""time""
""fullscreenenter"",""1"",""1873""
","
","","","181.79999995231628","","","25","10970","534","&#9789;","elianto","#f73b6a7A"," "," ","1","0","[1034.2000000476837]","1","0","4","","","","","","","",""
"pit-trial","86","783878","0.0-2.0-17.1-0.1","battery-v0.2","","""event"",""trial"",""time""
""fullscreenenter"",""1"",""1873""
","
","
","""event"",""trial"",""time""
""fullscreenenter"",""1"",""1873""
","
","","","157.70000004768372","","","25","10970","534","&#9789;","elianto","#f73b6a7A"," "," ","1","0","[1011.7000000476837]","1","0","4","","","","","","","",""
"pit-trial","87","787128","0.0-2.0-17.1-1.1","battery-v0.2","","""event"",""trial"",""time""
""fullscreenenter"",""1"",""1873""
","
","
","""event"",""trial"",""time""
""fullscreenenter"",""1"",""1873""
","
","","","376.89999997615814","","","25","10970","534","&#9789;","elianto","#f73b6a7A"," "," ","1","0","[1235.8999999761581]","1","0","4","","","","","","","",""
"pit-trial","88","790466","0.0-2.0-17.1-2.1","battery-v0.2","","""event"",""trial"",""time""
""fullscreenenter"",""1"",""1873""
","
","
","""event"",""trial"",""time""
""fullscreenenter"",""1"",""1873""
","
","","","468.90000009536743","","","25","10970","534","&#9789;","elianto","#f73b6a7A"," "," ","1","0","[1324.7000000476837]","1","0","4","","","","","","","",""
"pit-trial","89","793807","0.0-2.0-17.1-3.1","battery-v0.2","","""event"",""trial"",""time""
""fullscreenenter"",""1"",""1873""
","
","
","""event"",""trial"",""time""
""fullscreenenter"",""1"",""1873""
","
","","","476.89999997615814","","","25","10970","534","&#9789;","elianto","#f73b6a7A"," "," ","1","-10","[1328.5]","1","0","4","","","","","","","",""
"pit-trial","90","797138","0.0-2.0-17.1-4.1","battery-v0.2","","""event"",""trial"",""time""
""fullscreenenter"",""1"",""1873""
","
","
","""event"",""trial"",""time""
""fullscreenenter"",""1"",""1873""
","
","","","455.7000000476837","","","25","10970","534","&#9789;","elianto","#f73b6a7A"," "," ","1","0","[1309.6000000238419]","1","0","4","","","","","","","",""
"pit-trial","91","800393","0.0-2.0-17.2-0.2","battery-v0.2","","""event"",""trial"",""time""
""fullscreenenter"",""1"",""1873""
","
","
","""event"",""trial"",""time""
""fullscreenenter"",""1"",""1873""
","
","","","388.40000009536743","","","25","10970","534","&#9789;","elianto","#f73b6a7A"," "," ","1","0","[1239]","1","0","4","","","","","","","",""
"pit-trial","92","803655","0.0-2.0-17.2-1.2","battery-v0.2","","""event"",""trial"",""time""
""fullscreenenter"",""1"",""1873""
","
","
","""event"",""trial"",""time""
""fullscreenenter"",""1"",""1873""
","
","","","395.2999999523163","","","25","10970","534","&#9789;","elianto","#f73b6a7A"," "," ","1","0","[1249.1999999284744]","1","0","4","","","","","","","",""
"pit-trial","93","806680","0.0-2.0-17.2-2.2","battery-v0.2","","""event"",""trial"",""time""
""fullscreenenter"",""1"",""1873""
","
","
","""event"",""trial"",""time""
""fullscreenenter"",""1"",""1873""
","
","","","163.20000004768372","","","25","10970","534","&#9789;","elianto","#f73b6a7A"," "," ","1","0","[1015]","1","0","4","","","","","","","",""
"pit-trial","94","809865","0.0-2.0-17.2-3.2","battery-v0.2","","""event"",""trial"",""time""
""fullscreenenter"",""1"",""1873""
","
","
","""event"",""trial"",""time""
""fullscreenenter"",""1"",""1873""
","
","","","314.89999997615814","","","25","10970","534","&#9789;","elianto","#f73b6a7A"," "," ","1","-10","[1170.6000000238419]","1","0","4","","","","","","","",""
"pit-trial","95","812968","0.0-2.0-17.2-4.2","battery-v0.2","","""event"",""trial"",""time""
""fullscreenenter"",""1"",""1873""
","
","
","""event"",""trial"",""time""
""fullscreenenter"",""1"",""1873""
","
","","","235.70000004768372","","","25","10970","534","&#9789;","elianto","#f73b6a7A"," "," ","1","0","[1089.8000000715256]","1","0","4","","","","","","","",""
"pit-trial","96","816097","0.0-2.0-17.3-0.3","battery-v0.2","","""event"",""trial"",""time""
""fullscreenenter"",""1"",""1873""
","
","
","""event"",""trial"",""time""
""fullscreenenter"",""1"",""1873""
","
","","","262.40000009536743","","","25","10970","534","&#9789;","elianto","#f73b6a7A"," "," ","1","0","[1114.4000000953674]","1","0","4","","","","","","","",""
"pit-trial","97","819159","0.0-2.0-17.3-1.3","battery-v0.2","","""event"",""trial"",""time""
""fullscreenenter"",""1"",""1873""
","
","
","""event"",""trial"",""time""
""fullscreenenter"",""1"",""1873""
","
","","","192.19999992847443","","","25","10970","534","&#9789;","elianto","#f73b6a7A"," "," ","1","0","[1045.7000000476837]","1","0","4","","","","","","","",""
"pit-trial","98","822387","0.0-2.0-17.3-2.3","battery-v0.2","","""event"",""trial"",""time""
""fullscreenenter"",""1"",""1873""
","
","
","""event"",""trial"",""time""
""fullscreenenter"",""1"",""1873""
","
","","","357.90000009536743","","","25","10970","534","&#9789;","elianto","#f73b6a7A"," "," ","1","0","[1214]","1","0","4","","","","","","","",""
"pit-trial","99","825561","0.0-2.0-17.3-3.3","battery-v0.2","","""event"",""trial"",""time""
""fullscreenenter"",""1"",""1873""
","
","
","""event"",""trial"",""time""
""fullscreenenter"",""1"",""1873""
","
","","","303.39999997615814","","","25","10970","534","&#9789;","elianto","#f73b6a7A"," "," ","1","-10","[1156.5]","1","0","4","","","","","","","",""
"pit-trial","100","828768","0.0-2.0-17.3-4.3","battery-v0.2","","""event"",""trial"",""time""
""fullscreenenter"",""1"",""1873""
","
","
","""event"",""trial"",""time""
""fullscreenenter"",""1"",""1873""
","
","","","338.7999999523163","","","25","10970","534","&#9789;","elianto","#f73b6a7A"," "," ","1","0","[1192]","1","0","4","","","","","","","",""
"call-function","101","828774","0.0-2.0-18.0","battery-v0.2","","""event"",""trial"",""time""
""fullscreenenter"",""1"",""1873""
","
","
","""event"",""trial"",""time""
""fullscreenenter"",""1"",""1873""
","
","","","","","","","","","","","","","","","","","","","","","","","","","","",""
"pit-instructions","102","902703","0.0-2.0-19.0","battery-v0.2","","""event"",""trial"",""time""
""fullscreenenter"",""1"",""1873""
","
","
","""event"",""trial"",""time""
""fullscreenenter"",""1"",""1873""
","
","","[{""page_index"":0,""viewing_time"":8258.199999928474},{""page_index"":1,""viewing_time"":6812.800000071526},{""page_index"":2,""viewing_time"":13308.199999928474},{""page_index"":3,""viewing_time"":8322.300000071526},{""page_index"":4,""viewing_time"":9800.600000023842},{""page_index"":5,""viewing_time"":8183.5},{""page_index"":6,""viewing_time"":8568.5},{""page_index"":7,""viewing_time"":6303},{""page_index"":8,""viewing_time"":4374.099999904633}]","73931.79999995232","","","","","","","","","","","","","","","","","","","","","","","",""
"pit-comprehension","103","907194","0.0-2.0-20.0-0.0","battery-v0.2","","""event"",""trial"",""time""
""fullscreenenter"",""1"",""1873""
","
","
","""event"",""trial"",""time""
""fullscreenenter"",""1"",""1873""
","
","","","4485.100000023842","[""SPACE""]","0","25","10970","534","","","","","","","","","","","","","","","","","","",""
"pit-instructions","104","912223","0.0-2.0-20.0-1.0","battery-v0.2","","""event"",""trial"",""time""
""fullscreenenter"",""1"",""1873""
","
","
","""event"",""trial"",""time""
""fullscreenenter"",""1"",""1873""
","
","","[{""page_index"":0,""viewing_time"":5001.600000023842}]","5002.100000023842","","","","","","","","","","","","","","","","","","","","","","","",""
"pit-comprehension","105","918437","0.0-2.0-21.0-0.0","battery-v0.2","","""event"",""trial"",""time""
""fullscreenenter"",""1"",""1873""
","
","
","""event"",""trial"",""time""
""fullscreenenter"",""1"",""1873""
","
","","","6207.100000023842","[""10""]","0","25","10970","534","","","","","","","","","","","","","","","","","","",""
"pit-instructions","106","923473","0.0-2.0-21.0-1.0","battery-v0.2","","""event"",""trial"",""time""
""fullscreenenter"",""1"",""1873""
","
","
","""event"",""trial"",""time""
""fullscreenenter"",""1"",""1873""
","
","","[{""page_index"":0,""viewing_time"":5010.299999952316}]","5010.699999928474","","","","","","","","","","","","","","","","","","","","","","","",""
"pit-comprehension","107","931100","0.0-2.0-22.0-0.0","battery-v0.2","","""event"",""trial"",""time""
""fullscreenenter"",""1"",""1873""
","
","
","""event"",""trial"",""time""
""fullscreenenter"",""1"",""1873""
","
","","","7622.100000023842","[""0""]","0","25","10970","534","","","","","","","","","","","","","","","","","","",""
"pit-instructions","108","932791","0.0-2.0-22.0-1.0","battery-v0.2","","""event"",""trial"",""time""
""fullscreenenter"",""1"",""1873""
","
","
","""event"",""trial"",""time""
""fullscreenenter"",""1"",""1873""
","
","","[{""page_index"":0,""viewing_time"":1666.0999999046326}]","1666.5999999046326","","","","","","","","","","","","","","","","","","","","","","","",""
"pit-comprehension","109","944573","0.0-2.0-23.0-0.0","battery-v0.2","","""event"",""trial"",""time""
""fullscreenenter"",""1"",""1873""
","
","
","""event"",""trial"",""time""
""fullscreenenter"",""1"",""1873""
","
","","","11776","[""True""]","0","25","10970","534","","","","","","","","","","","","","","","","","","",""
"pit-instructions","110","946065","0.0-2.0-23.0-1.0","battery-v0.2","","""event"",""trial"",""time""
""fullscreenenter"",""1"",""1873""
","
","
","""event"",""trial"",""time""
""fullscreenenter"",""1"",""1873""
","
","","[{""page_index"":0,""viewing_time"":1464.2000000476837}]","1464.6000000238419","","","","","","","","","","","","","","","","","","","","","","","",""
"pit-comprehension","111","953627","0.0-2.0-24.0-0.0","battery-v0.2","","""event"",""trial"",""time""
""fullscreenenter"",""1"",""1873""
","
","
","""event"",""trial"",""time""
""fullscreenenter"",""1"",""1873""
","
","","","7554.799999952316","[""True""]","0","25","10970","534","","","","","","","","","","","","","","","","","","",""
"pit-instructions","112","955501","0.0-2.0-24.0-1.0","battery-v0.2","","""event"",""trial"",""time""
""fullscreenenter"",""1"",""1873""
","
","
","""event"",""trial"",""time""
""fullscreenenter"",""1"",""1873""
","
","","[{""page_index"":0,""viewing_time"":1846.9000000953674}]","1847.3000000715256","","","","","","","","","","","","","","","","","","","","","","","",""
"pit-comprehension","113","962027","0.0-2.0-25.0-0.0","battery-v0.2","","""event"",""trial"",""time""
""fullscreenenter"",""1"",""1873""
","
","
","""event"",""trial"",""time""
""fullscreenenter"",""1"",""1873""
","
","","","6520.600000023842","[""True""]","0","25","10970","534","","","","","","","","","","","","","","","","","","",""
"pit-instructions","114","963901","0.0-2.0-25.0-1.0","battery-v0.2","","""event"",""trial"",""time""
""fullscreenenter"",""1"",""1873""
","
","
","""event"",""trial"",""time""
""fullscreenenter"",""1"",""1873""
","
","","[{""page_index"":0,""viewing_time"":1846.2999999523163}]","1846.6999999284744","","","","","","","","","","","","","","","","","","","","","","","",""
"pit-comprehension","115","968664","0.0-2.0-26.0-0.0","battery-v0.2","","""event"",""trial"",""time""
""fullscreenenter"",""1"",""1873""
","
","
","""event"",""trial"",""time""
""fullscreenenter"",""1"",""1873""
","
","","","4757.599999904633","[""False""]","0","25","10970","534","","","","","","","","","","","","","","","","","","",""
"pit-instructions","116","970473","0.0-2.0-26.0-1.0","battery-v0.2","","""event"",""trial"",""time""
""fullscreenenter"",""1"",""1873""
","
","
","""event"",""trial"",""time""
""fullscreenenter"",""1"",""1873""
","
","","[{""page_index"":0,""viewing_time"":1782.6000000238419}]","1782.8000000715256","","","","","","","","","","","","","","","","","","","","","","","",""
"pit-instructions","117","990055","0.0-3.0","battery-v0.2","","""event"",""trial"",""time""
""fullscreenenter"",""1"",""1873""
","
","
","""event"",""trial"",""time""
""fullscreenenter"",""1"",""1873""
","
","","[{""page_index"":0,""viewing_time"":6949.400000095367},{""page_index"":1,""viewing_time"":5200},{""page_index"":2,""viewing_time"":7429.299999952316}]","19578.900000095367","","","","","","","","","","","","","","","","","","","","","","","",""
"pit-trial","118","993944","0.0-4.0","battery-v0.2","","""event"",""trial"",""time""
""fullscreenenter"",""1"",""1873""
","
","
","""event"",""trial"",""time""
""fullscreenenter"",""1"",""1873""
","
","","","1019","","","25","10970","534","&#9728;","elianto","#f73b6a7A","-1"," ","0","-10","[1870.1000000238419]","1","1","","","10970","1","0","4","lose","no-go","0"
"pit-trial","119","997535","0.0-5.0","battery-v0.2","","""event"",""trial"",""time""
""fullscreenenter"",""1"",""1873""
","
","
","""event"",""trial"",""time""
""fullscreenenter"",""1"",""1873""
","
","","","726.6999999284744","","","25","10970","534","&#9730;","elianto","#3366ff99"," "," ","1","+10","[1579.8999999761581]","1","1","","","10970","2","1","1","win","go","0"
"pit-trial","120","1002405","0.0-6.0","battery-v0.2","","""event"",""trial"",""time""
""fullscreenenter"",""1"",""1873""
","
","
","""event"",""trial"",""time""
""fullscreenenter"",""1"",""1873""
","
","","","-1","","","25","10970","534","&#9752;","elianto","#f73b6a7A"," ","-1","0","-10","[]","0","1","","","10970","3","3","3","lose","go","0"
"pit-trial","121","1006014","0.0-7.0","battery-v0.2","","""event"",""trial"",""time""
""fullscreenenter"",""1"",""1873""
","
","
","""event"",""trial"",""time""
""fullscreenenter"",""1"",""1873""
","
","","","740.8999999761581","","","25","10970","534","&#9733;","elianto","#3366ff99","-1"," ","0","+10","[1591.2000000476837]","1","1","","","10970","4","2","2","win","no-go","1"
"pit-trial","122","1009564","0.0-8.0","battery-v0.2","","""event"",""trial"",""time""
""fullscreenenter"",""1"",""1873""
","
","
","""event"",""trial"",""time""
""fullscreenenter"",""1"",""1873""
","
","","","682.3999999761581","","","25","10970","534","&#9730;","elianto","#3366ff99"," "," ","1","+10","[1539.5]","1","1","","","10970","5","1","1","win","go","0"
"pit-trial","123","1013023","0.0-9.0","battery-v0.2","","""event"",""trial"",""time""
""fullscreenenter"",""1"",""1873""
","
","
","""event"",""trial"",""time""
""fullscreenenter"",""1"",""1873""
","
","","","584.8000000715256","","","25","10970","534","&#9733;","elianto","#3366ff99","-1"," ","0","0","[1439.9000000953674]","1","1","","","10970","6","2","2","win","no-go","0"
"pit-trial","124","1017893","0.0-10.0","battery-v0.2","","""event"",""trial"",""time""
""fullscreenenter"",""1"",""1873""
","
","
","""event"",""trial"",""time""
""fullscreenenter"",""1"",""1873""
","
","","","-1","","","25","10970","534","&#9728;","elianto","#f73b6a7A","-1","-1","1","-10","[]","0","1","","","10970","7","0","4","lose","no-go","1"
"pit-trial","125","1021567","0.0-11.0","battery-v0.2","","""event"",""trial"",""time""
""fullscreenenter"",""1"",""1873""
","
","
","""event"",""trial"",""time""
""fullscreenenter"",""1"",""1873""
","
","","","798.6999999284744","","","25","10970","534","&#9752;","elianto","#f73b6a7A"," "," ","1","0","[1655.1000000238419]","1","1","","","10970","8","3","3","lose","go","0"
"pit-trial","126","1025018","0.0-12.0","battery-v0.2","","""event"",""trial"",""time""
""fullscreenenter"",""1"",""1873""
","
","
","""event"",""trial"",""time""
""fullscreenenter"",""1"",""1873""
","
","","","587","","","25","10970","534","&#9752;","elianto","#f73b6a7A"," "," ","1","0","[1439.5]","1","1","","","10970","9","3","3","lose","go","0"
"pit-trial","127","1028257","0.0-13.0","battery-v0.2","","""event"",""trial"",""time""
""fullscreenenter"",""1"",""1873""
","
","
","""event"",""trial"",""time""
""fullscreenenter"",""1"",""1873""
","
","","","371.39999997615814","","","25","10970","534","&#9733;","elianto","#3366ff99","-1"," ","0","0","[1225]","1","1","","","10970","10","2","2","win","no-go","0"
"pit-trial","128","1031334","0.0-14.0","battery-v0.2","","""event"",""trial"",""time""
""fullscreenenter"",""1"",""1873""
","
","
","""event"",""trial"",""time""
""fullscreenenter"",""1"",""1873""
","
","","","203.90000009536743","","","25","10970","534","&#9730;","elianto","#3366ff99"," "," ","1","+10","[1063]","1","1","","","10970","11","1","1","win","go","0"
"pit-trial","129","1034452","0.0-15.0","battery-v0.2","","""event"",""trial"",""time""
""fullscreenenter"",""1"",""1873""
","
","
","""event"",""trial"",""time""
""fullscreenenter"",""1"",""1873""
","
","","","250.19999992847443","","","25","10970","534","&#9728;","elianto","#f73b6a7A","-1"," ","0","-10","[1104.7000000476837]","1","1","","","10970","12","0","4","lose","no-go","0"
"pit-trial","130","1037533","0.0-16.0","battery-v0.2","","""event"",""trial"",""time""
""fullscreenenter"",""1"",""1873""
","
","
","""event"",""trial"",""time""
""fullscreenenter"",""1"",""1873""
","
","","","216.5","","","25","10970","534","&#9752;","elianto","#f73b6a7A"," "," ","1","-10","[1068.4000000953674]","1","1","","","10970","13","3","3","lose","go","1"
"pit-trial","131","1040715","0.0-17.0","battery-v0.2","","""event"",""trial"",""time""
""fullscreenenter"",""1"",""1873""
","
","
","""event"",""trial"",""time""
""fullscreenenter"",""1"",""1873""
","
","","","309.39999997615814","","","25","10970","534","&#9733;","elianto","#3366ff99","-1"," ","0","+10","[1166.1000000238419]","1","1","","","10970","14","2","2","win","no-go","1"
"pit-trial","132","1043942","0.0-18.0","battery-v0.2","","""event"",""trial"",""time""
""fullscreenenter"",""1"",""1873""
","
","
","""event"",""trial"",""time""
""fullscreenenter"",""1"",""1873""
","
","","","350.09999990463257","","","25","10970","534","&#9730;","elianto","#3366ff99"," "," ","1","+10","[1205.6999999284744]","1","1","","","10970","15","1","1","win","go","0"
"pit-trial","133","1047029","0.0-19.0","battery-v0.2","","""event"",""trial"",""time""
""fullscreenenter"",""1"",""1873""
","
","
","""event"",""trial"",""time""
""fullscreenenter"",""1"",""1873""
","
","","","216.5","","","25","10970","534","&#9728;","elianto","#f73b6a7A","-1"," ","0","0","[1067.6000000238419]","1","1","","","10970","16","0","4","lose","no-go","1"
"pit-trial","134","1050028","0.0-20.0","battery-v0.2","","""event"",""trial"",""time""
""fullscreenenter"",""1"",""1873""
","
","
","""event"",""trial"",""time""
""fullscreenenter"",""1"",""1873""
","
","","","132.89999997615814","","","25","10970","534","&#9733;","elianto","#3366ff99","-1"," ","0","0","[986.5]","1","1","","","10970","17","2","2","win","no-go","0"
"pit-trial","135","1053043","0.0-21.0","battery-v0.2","","""event"",""trial"",""time""
""fullscreenenter"",""1"",""1873""
","
","
","""event"",""trial"",""time""
""fullscreenenter"",""1"",""1873""
","
","","","147.20000004768372","","","25","10970","534","&#9730;","elianto","#3366ff99"," "," ","1","+10","[1002.7000000476837]","1","1","","","10970","18","1","1","win","go","0"
"pit-trial","136","1056045","0.0-22.0","battery-v0.2","","""event"",""trial"",""time""
""fullscreenenter"",""1"",""1873""
","
","
","""event"",""trial"",""time""
""fullscreenenter"",""1"",""1873""
","
","","","127.19999992847443","","","25","10970","534","&#9752;","elianto","#f73b6a7A"," "," ","1","0","[983.1000000238419]","1","1","","","10970","19","3","3","lose","go","0"
"pit-trial","137","1059108","0.0-23.0","battery-v0.2","","""event"",""trial"",""time""
""fullscreenenter"",""1"",""1873""
","
","
","""event"",""trial"",""time""
""fullscreenenter"",""1"",""1873""
","
","","","192.70000004768372","","","25","10970","534","&#9728;","elianto","#f73b6a7A","-1"," ","0","-10","[1046.7000000476837]","1","1","","","10970","20","0","4","lose","no-go","0"
"pit-instructions","138","1074038","0.0-24.0","battery-v0.2","","""event"",""trial"",""time""
""fullscreenenter"",""1"",""1873""
","
","
","""event"",""trial"",""time""
""fullscreenenter"",""1"",""1873""
","
","","[{""page_index"":0,""viewing_time"":5702.900000095367},{""page_index"":1,""viewing_time"":9224.399999976158}]","14927.5","","","","","","","","","","","","","","","","","","","","","","","",""
"pit-trial","139","1077675","0.0-25.0","battery-v0.2","","""event"",""trial"",""time""
""fullscreenenter"",""1"",""1873""
","
","
","""event"",""trial"",""time""
""fullscreenenter"",""1"",""1873""
","
","","","773.6999999284744","","","25","10970","534","f","elianto","#3366ff99","-1"," ","0","0","[1625.5999999046326]","1","2","","","10970","21","1","2","win","no-go","0"
"pit-trial","140","1080881","0.0-26.0","battery-v0.2","","""event"",""trial"",""time""
""fullscreenenter"",""1"",""1873""
","
","
","""event"",""trial"",""time""
""fullscreenenter"",""1"",""1873""
","
","","","344.10000002384186","","","25","10970","534","n","elianto","#f73b6a7A"," "," ","1","0","[1194.5]","1","2","","","10970","22","0","3","lose","go","0"
"pit-trial","141","1083912","0.0-27.0","battery-v0.2","","""event"",""trial"",""time""
""fullscreenenter"",""1"",""1873""
","
","
","""event"",""trial"",""time""
""fullscreenenter"",""1"",""1873""
","
","","","158","","","25","10970","534","b","elianto","#f73b6a7A","-1"," ","0","-10","[1014.5]","1","2","","","10970","23","3","4","lose","no-go","0"
"pit-trial","142","1087104","0.0-28.0","battery-v0.2","","""event"",""trial"",""time""
""fullscreenenter"",""1"",""1873""
","
","
","""event"",""trial"",""time""
""fullscreenenter"",""1"",""1873""
","
","","","318.89999997615814","","","25","10970","534","t","elianto","#f73b6a7A"," "," ","1","0","[1175.5]","1","2","","","10970","24","2","3","lose","go","0"
"pit-trial","143","1090131","0.0-29.0","battery-v0.2","","""event"",""trial"",""time""
""fullscreenenter"",""1"",""1873""
","
","
","""event"",""trial"",""time""
""fullscreenenter"",""1"",""1873""
","
","","","155.20000004768372","","","25","10970","534","t","elianto","#f73b6a7A"," "," ","1","-10","[1005.5]","1","2","","","10970","25","2","3","lose","go","1"
"pit-trial","144","1093219","0.0-30.0","battery-v0.2","","""event"",""trial"",""time""
""fullscreenenter"",""1"",""1873""
","
","
","""event"",""trial"",""time""
""fullscreenenter"",""1"",""1873""
","
","","","217.70000004768372","","","25","10970","534","f","elianto","#3366ff99","-1"," ","0","+10","[1071.7000000476837]","1","2","","","10970","26","1","2","win","no-go","1"
"pit-trial","145","1096699","0.0-31.0","battery-v0.2","","""event"",""trial"",""time""
""fullscreenenter"",""1"",""1873""
","
","
","""event"",""trial"",""time""
""fullscreenenter"",""1"",""1873""
","
","","","611","","","25","10970","534","b","elianto","#f73b6a7A","-1"," ","0","-10","[1464.1000000238419]","1","2","","","10970","27","3","4","lose","no-go","0"
"pit-trial","146","1100311","0.0-32.0","battery-v0.2","","""event"",""trial"",""time""
""fullscreenenter"",""1"",""1873""
","
","
","""event"",""trial"",""time""
""fullscreenenter"",""1"",""1873""
","
","","","747","","","25","10970","534","n","elianto","#f73b6a7A"," "," ","1","0","[1604.3999999761581]","1","2","","","10970","28","0","3","lose","go","0"
"pit-trial","147","1103942","0.0-33.0","battery-v0.2","","""event"",""trial"",""time""
""fullscreenenter"",""1"",""1873""
","
","
","""event"",""trial"",""time""
""fullscreenenter"",""1"",""1873""
","
","","","757.6000000238419","","","25","10970","534","n","elianto","#f73b6a7A"," "," ","1","0","[1616]","1","2","","","10970","29","0","3","lose","go","0"
"pit-trial","148","1107673","0.0-34.0","battery-v0.2","","""event"",""trial"",""time""
""fullscreenenter"",""1"",""1873""
","
","
","""event"",""trial"",""time""
""fullscreenenter"",""1"",""1873""
","
","","","853.3000000715256","","","25","10970","534","f","elianto","#3366ff99","-1"," ","0","0","[1711.8000000715256]","1","2","","","10970","30","1","2","win","no-go","0"
"pit-trial","149","1110994","0.0-35.0","battery-v0.2","","""event"",""trial"",""time""
""fullscreenenter"",""1"",""1873""
","
","
","""event"",""trial"",""time""
""fullscreenenter"",""1"",""1873""
","
","","","453.60000002384186","","","25","10970","534","t","elianto","#f73b6a7A"," "," ","1","0","[1304.1999999284744]","1","2","","","10970","31","2","3","lose","go","0"
"pit-trial","150","1115866","0.0-36.0","battery-v0.2","","""event"",""trial"",""time""
""fullscreenenter"",""1"",""1873""
","
","
","""event"",""trial"",""time""
""fullscreenenter"",""1"",""1873""
","
","","","-1","","","25","10970","534","b","elianto","#f73b6a7A","-1","-1","1","-10","[]","0","2","","","10970","32","3","4","lose","no-go","1"
"pit-trial","151","1120746","0.0-37.0","battery-v0.2","","""event"",""trial"",""time""
""fullscreenenter"",""1"",""1873""
","
","
","""event"",""trial"",""time""
""fullscreenenter"",""1"",""1873""
","
","","","-1","","","25","10970","534","b","elianto","#f73b6a7A","-1","-1","1","0","[]","0","2","","","10970","33","3","4","lose","no-go","0"
"pit-trial","152","1124834","0.0-38.0","battery-v0.2","","""event"",""trial"",""time""
""fullscreenenter"",""1"",""1873""
","
","
","""event"",""trial"",""time""
""fullscreenenter"",""1"",""1873""
","
","","","1219.6999999284744","","","25","10970","534","n","elianto","#f73b6a7A"," "," ","1","-10","[2074.899999976158]","1","2","","","10970","34","0","3","lose","go","1"
"pit-trial","153","1128256","0.0-39.0","battery-v0.2","","""event"",""trial"",""time""
""fullscreenenter"",""1"",""1873""
","
","
","""event"",""trial"",""time""
""fullscreenenter"",""1"",""1873""
","
","","","553.5","","","25","10970","534","f","elianto","#3366ff99","-1"," ","0","0","[1407.2000000476837]","1","2","","","10970","35","1","2","win","no-go","0"
"pit-trial","154","1132177","0.0-40.0","battery-v0.2","","""event"",""trial"",""time""
""fullscreenenter"",""1"",""1873""
","
","
","""event"",""trial"",""time""
""fullscreenenter"",""1"",""1873""
","
","","","1051","","","25","10970","534","t","elianto","#f73b6a7A"," "," ","1","0","[1901.2000000476837]","1","2","","","10970","36","2","3","lose","go","0"
"pit-trial","155","1135568","0.0-41.0","battery-v0.2","","""event"",""trial"",""time""
""fullscreenenter"",""1"",""1873""
","
","
","""event"",""trial"",""time""
""fullscreenenter"",""1"",""1873""
","
","","","518.5","","","25","10970","534","f","elianto","#3366ff99","-1"," ","0","0","[1371.1000000238419]","1","2","","","10970","37","1","2","win","no-go","0"
"pit-trial","156","1139040","0.0-42.0","battery-v0.2","","""event"",""trial"",""time""
""fullscreenenter"",""1"",""1873""
","
","
","""event"",""trial"",""time""
""fullscreenenter"",""1"",""1873""
","
","","","599.4000000953674","","","25","10970","534","b","elianto","#f73b6a7A","-1"," ","0","-10","[1452.3999999761581]","1","2","","","10970","38","3","4","lose","no-go","0"
"pit-trial","157","1142855","0.0-43.0","battery-v0.2","","""event"",""trial"",""time""
""fullscreenenter"",""1"",""1873""
","
","
","""event"",""trial"",""time""
""fullscreenenter"",""1"",""1873""
","
","","","949.6000000238419","","","25","10970","534","t","elianto","#f73b6a7A"," "," ","1","0","[1802.6000000238419]","1","2","","","10970","39","2","3","lose","go","0"
"pit-trial","158","1146225","0.0-44.0","battery-v0.2","","""event"",""trial"",""time""
""fullscreenenter"",""1"",""1873""
","
","
","""event"",""trial"",""time""
""fullscreenenter"",""1"",""1873""
","
","","","496.7999999523163","","","25","10970","534","n","elianto","#f73b6a7A"," "," ","1","0","[1350.7999999523163]","1","2","","","10970","40","0","3","lose","go","0"
"pit-trial","159","1151096","0.0-45.0","battery-v0.2","","""event"",""trial"",""time""
""fullscreenenter"",""1"",""1873""
","
","
","""event"",""trial"",""time""
""fullscreenenter"",""1"",""1873""
","
","","","-1","","","25","10970","534","b","elianto","#f73b6a7A","-1","-1","1","0","[]","0","2","","","10970","41","3","4","lose","no-go","0"
"pit-trial","160","1154464","0.0-46.0","battery-v0.2","","""event"",""trial"",""time""
""fullscreenenter"",""1"",""1873""
","
","
","""event"",""trial"",""time""
""fullscreenenter"",""1"",""1873""
","
","","","499.5","","","25","10970","534","n","elianto","#f73b6a7A"," "," ","1","0","[1353.7999999523163]","1","2","","","10970","42","0","3","lose","go","0"
"pit-trial","161","1157864","0.0-47.0","battery-v0.2","","""event"",""trial"",""time""
""fullscreenenter"",""1"",""1873""
","
","
","""event"",""trial"",""time""
""fullscreenenter"",""1"",""1873""
","
","","","526.6000000238419","","","25","10970","534","t","elianto","#f73b6a7A"," "," ","1","0","[1381.1999999284744]","1","2","","","10970","43","2","3","lose","go","0"
"pit-trial","162","1161280","0.0-48.0","battery-v0.2","","""event"",""trial"",""time""
""fullscreenenter"",""1"",""1873""
","
","
","""event"",""trial"",""time""
""fullscreenenter"",""1"",""1873""
","
","","","543.3000000715256","","","25","10970","534","f","elianto","#3366ff99","-1"," ","0","0","[1397.7000000476837]","1","2","","","10970","44","1","2","win","no-go","0"
"pit-trial","163","1164557","0.0-49.0","battery-v0.2","","""event"",""trial"",""time""
""fullscreenenter"",""1"",""1873""
","
","
","""event"",""trial"",""time""
""fullscreenenter"",""1"",""1873""
","
","","","411.3000000715256","","","25","10970","534","t","elianto","#f73b6a7A"," "," ","1","0","[1264.2000000476837]","1","2","","","10970","45","2","3","lose","go","0"
"pit-trial","164","1167878","0.0-50.0","battery-v0.2","","""event"",""trial"",""time""
""fullscreenenter"",""1"",""1873""
","
","
","""event"",""trial"",""time""
""fullscreenenter"",""1"",""1873""
","
","","","456.60000002384186","","","25","10970","534","n","elianto","#f73b6a7A"," "," ","1","0","[1307.6999999284744]","1","2","","","10970","46","0","3","lose","go","0"
"pit-trial","165","1171222","0.0-51.0","battery-v0.2","","""event"",""trial"",""time""
""fullscreenenter"",""1"",""1873""
","
","
","""event"",""trial"",""time""
""fullscreenenter"",""1"",""1873""
","
","","","473.60000002384186","","","25","10970","534","b","elianto","#f73b6a7A","-1"," ","0","-10","[1327.5]","1","2","","","10970","47","3","4","lose","no-go","0"
"pit-trial","166","1174592","0.0-52.0","battery-v0.2","","""event"",""trial"",""time""
""fullscreenenter"",""1"",""1873""
","
","
","""event"",""trial"",""time""
""fullscreenenter"",""1"",""1873""
","
","","","502.3000000715256","","","25","10970","534","f","elianto","#3366ff99","-1"," ","0","0","[1355.7000000476837]","1","2","","","10970","48","1","2","win","no-go","0"
"pit-trial","167","1178052","0.0-53.0","battery-v0.2","","""event"",""trial"",""time""
""fullscreenenter"",""1"",""1873""
","
","
","""event"",""trial"",""time""
""fullscreenenter"",""1"",""1873""
","
","","","597.5","","","25","10970","534","t","elianto","#f73b6a7A"," "," ","1","0","[1448]","1","2","","","10970","49","2","3","lose","go","0"
"pit-trial","168","1181527","0.0-54.0","battery-v0.2","","""event"",""trial"",""time""
""fullscreenenter"",""1"",""1873""
","
","
","""event"",""trial"",""time""
""fullscreenenter"",""1"",""1873""
","
","","","607.8999999761581","","","25","10970","534","n","elianto","#f73b6a7A"," "," ","1","0","[1461.5]","1","2","","","10970","50","0","3","lose","go","0"
"pit-trial","169","1184951","0.0-55.0","battery-v0.2","","""event"",""trial"",""time""
""fullscreenenter"",""1"",""1873""
","
","
","""event"",""trial"",""time""
""fullscreenenter"",""1"",""1873""
","
","","","552.8999999761581","","","25","10970","534","f","elianto","#3366ff99","-1"," ","0","0","[1405.6999999284744]","1","2","","","10970","51","1","2","win","no-go","0"
"pit-trial","170","1189821","0.0-56.0","battery-v0.2","","""event"",""trial"",""time""
""fullscreenenter"",""1"",""1873""
","
","
","""event"",""trial"",""time""
""fullscreenenter"",""1"",""1873""
","
","","","-1","","","25","10970","534","b","elianto","#f73b6a7A","-1","-1","1","0","[]","0","2","","","10970","52","3","4","lose","no-go","0"
"pit-trial","171","1193298","0.0-57.0","battery-v0.2","","""event"",""trial"",""time""
""fullscreenenter"",""1"",""1873""
","
","
","""event"",""trial"",""time""
""fullscreenenter"",""1"",""1873""
","
","","","610.7000000476837","","","25","10970","534","f","elianto","#3366ff99","-1"," ","0","0","[1461]","1","2","","","10970","53","1","2","win","no-go","0"
"pit-trial","172","1196949","0.0-58.0","battery-v0.2","","""event"",""trial"",""time""
""fullscreenenter"",""1"",""1873""
","
","
","""event"",""trial"",""time""
""fullscreenenter"",""1"",""1873""
","
","","","774.6999999284744","","","25","10970","534","n","elianto","#f73b6a7A"," "," ","1","0","[1634]","1","2","","","10970","54","0","3","lose","go","0"
"pit-trial","173","1200385","0.0-59.0","battery-v0.2","","""event"",""trial"",""time""
""fullscreenenter"",""1"",""1873""
","
","
","""event"",""trial"",""time""
""fullscreenenter"",""1"",""1873""
","
","","","574.1999999284744","","","25","10970","534","t","elianto","#f73b6a7A"," "," ","1","0","[1429]","1","2","","","10970","55","2","3","lose","go","0"
"pit-trial","174","1205260","0.0-60.0","battery-v0.2","","""event"",""trial"",""time""
""fullscreenenter"",""1"",""1873""
","
","
","""event"",""trial"",""time""
""fullscreenenter"",""1"",""1873""
","
","","","-1","","","25","10970","534","b","elianto","#f73b6a7A","-1","-1","1","0","[]","0","2","","","10970","56","3","4","lose","no-go","0"
"pit-trial","175","1210129","0.0-61.0","battery-v0.2","","""event"",""trial"",""time""
""fullscreenenter"",""1"",""1873""
","
","
","""event"",""trial"",""time""
""fullscreenenter"",""1"",""1873""
","
","","","-1","","","25","10970","534","b","elianto","#f73b6a7A","-1","-1","1","-10","[]","0","2","","","10970","57","3","4","lose","no-go","1"
"pit-trial","176","1213629","0.0-62.0","battery-v0.2","","""event"",""trial"",""time""
""fullscreenenter"",""1"",""1873""
","
","
","""event"",""trial"",""time""
""fullscreenenter"",""1"",""1873""
","
","","","624.6000000238419","","","25","10970","534","t","elianto","#f73b6a7A"," "," ","1","0","[1482.6000000238419]","1","2","","","10970","58","2","3","lose","go","0"
"pit-trial","177","1217044","0.0-63.0","battery-v0.2","","""event"",""trial"",""time""
""fullscreenenter"",""1"",""1873""
","
","
","""event"",""trial"",""time""
""fullscreenenter"",""1"",""1873""
","
","","","544.3999999761581","","","25","10970","534","c","elianto","#3366ff99"," "," ","1","+10","[1397.6000000238419]","1","2","","","10970","59","4","1","win","go","0"
"pit-trial","178","1220629","0.0-64.0","battery-v0.2","","""event"",""trial"",""time""
""fullscreenenter"",""1"",""1873""
","
","
","""event"",""trial"",""time""
""fullscreenenter"",""1"",""1873""
","
","","","712.4000000953674","","","25","10970","534","n","elianto","#f73b6a7A"," "," ","1","-10","[1566.4000000953674]","1","2","","","10970","60","0","3","lose","go","1"
"pit-trial","179","1224049","0.0-65.0","battery-v0.2","","""event"",""trial"",""time""
""fullscreenenter"",""1"",""1873""
","
","
","""event"",""trial"",""time""
""fullscreenenter"",""1"",""1873""
","
","","","557.8000000715256","","","25","10970","534","t","elianto","#f73b6a7A"," "," ","1","-10","[1410.8999999761581]","1","2","","","10970","61","2","3","lose","go","1"
"pit-trial","180","1227571","0.0-66.0","battery-v0.2","","""event"",""trial"",""time""
""fullscreenenter"",""1"",""1873""
","
","
","""event"",""trial"",""time""
""fullscreenenter"",""1"",""1873""
","
","","","649.8999999761581","","","25","10970","534","f","elianto","#3366ff99","-1"," ","0","+10","[1505.7999999523163]","1","2","","","10970","62","1","2","win","no-go","1"
"pit-trial","181","1232444","0.0-67.0","battery-v0.2","","""event"",""trial"",""time""
""fullscreenenter"",""1"",""1873""
","
","
","""event"",""trial"",""time""
""fullscreenenter"",""1"",""1873""
","
","","","-1","","","25","10970","534","b","elianto","#f73b6a7A","-1","-1","1","0","[]","0","2","","","10970","63","3","4","lose","no-go","0"
"pit-trial","182","1235684","0.0-68.0","battery-v0.2","","""event"",""trial"",""time""
""fullscreenenter"",""1"",""1873""
","
","
","""event"",""trial"",""time""
""fullscreenenter"",""1"",""1873""
","
","","","370.5","","","25","10970","534","c","elianto","#3366ff99"," "," ","1","+10","[1221.6000000238419]","1","2","","","10970","64","4","1","win","go","0"
"pit-trial","183","1240552","0.0-69.0","battery-v0.2","","""event"",""trial"",""time""
""fullscreenenter"",""1"",""1873""
","
","
","""event"",""trial"",""time""
""fullscreenenter"",""1"",""1873""
","
","","","-1","","","25","10970","534","b","elianto","#f73b6a7A","-1","-1","1","-10","[]","0","2","","","10970","65","3","4","lose","no-go","1"
"pit-trial","184","1244008","0.0-70.0","battery-v0.2","","""event"",""trial"",""time""
""fullscreenenter"",""1"",""1873""
","
","
","""event"",""trial"",""time""
""fullscreenenter"",""1"",""1873""
","
","","","589.5","","","25","10970","534","z","elianto","#3366ff99","-1"," ","0","0","[1441.6999999284744]","1","2","","","10970","66","5","2","win","no-go","0"
"pit-trial","185","1247403","0.0-71.0","battery-v0.2","","""event"",""trial"",""time""
""fullscreenenter"",""1"",""1873""
","
","
","""event"",""trial"",""time""
""fullscreenenter"",""1"",""1873""
","
","","","520.2999999523163","","","25","10970","534","c","elianto","#3366ff99"," "," ","1","0","[1377]","1","2","","","10970","67","4","1","win","go","1"
"pit-trial","186","1252275","0.0-72.0","battery-v0.2","","""event"",""trial"",""time""
""fullscreenenter"",""1"",""1873""
","
","
","""event"",""trial"",""time""
""fullscreenenter"",""1"",""1873""
","
","","","-1","","","25","10970","534","f","elianto","#3366ff99","-1","-1","1","+10","[]","0","2","","","10970","68","1","2","win","no-go","0"
"pit-trial","187","1256834","0.0-73.0","battery-v0.2","","""event"",""trial"",""time""
""fullscreenenter"",""1"",""1873""
","
","
","""event"",""trial"",""time""
""fullscreenenter"",""1"",""1873""
","
","","","1693","","","25","10970","534","t","elianto","#f73b6a7A"," "," ","1","0","[2545.5999999046326]","1","2","","","10970","69","2","3","lose","go","0"
"pit-trial","188","1261706","0.0-74.0","battery-v0.2","","""event"",""trial"",""time""
""fullscreenenter"",""1"",""1873""
","
","
","""event"",""trial"",""time""
""fullscreenenter"",""1"",""1873""
","
","","","-1","","","25","10970","534","f","elianto","#3366ff99","-1","-1","1","0","[]","0","2","","","10970","70","1","2","win","no-go","1"
"pit-trial","189","1266577","0.0-75.0","battery-v0.2","","""event"",""trial"",""time""
""fullscreenenter"",""1"",""1873""
","
","
","""event"",""trial"",""time""
""fullscreenenter"",""1"",""1873""
","
","","","-1","","","25","10970","534","z","elianto","#3366ff99","-1","-1","1","+10","[]","0","2","","","10970","71","5","2","win","no-go","0"
"pit-trial","190","1271446","0.0-76.0","battery-v0.2","","""event"",""trial"",""time""
""fullscreenenter"",""1"",""1873""
","
","
","""event"",""trial"",""time""
""fullscreenenter"",""1"",""1873""
","
","","","-1","","","25","10970","534","c","elianto","#3366ff99"," ","-1","0","0","[]","0","2","","","10970","72","4","1","win","go","0"
"pit-trial","191","1275765","0.0-77.0","battery-v0.2","","""event"",""trial"",""time""
""fullscreenenter"",""1"",""1873""
","
","
","""event"",""trial"",""time""
""fullscreenenter"",""1"",""1873""
","
","","","1452.2999999523163","","","25","10970","534","z","elianto","#3366ff99","-1"," ","0","0","[2302.5999999046326]","1","2","","","10970","73","5","2","win","no-go","0"
"pit-trial","192","1280641","0.0-78.0","battery-v0.2","","""event"",""trial"",""time""
""fullscreenenter"",""1"",""1873""
","
","
","""event"",""trial"",""time""
""fullscreenenter"",""1"",""1873""
","
","","","-1","","","25","10970","534","b","elianto","#f73b6a7A","-1","-1","1","-10","[]","0","2","","","10970","74","3","4","lose","no-go","1"
"pit-trial","193","1285079","0.0-79.0","battery-v0.2","","""event"",""trial"",""time""
""fullscreenenter"",""1"",""1873""
","
","
","""event"",""trial"",""time""
""fullscreenenter"",""1"",""1873""
","
","","","1570.7000000476837","","","25","10970","534","f","elianto","#3366ff99","-1"," ","0","0","[2421.100000023842]","1","2","","","10970","75","1","2","win","no-go","0"
"pit-trial","194","1289169","0.0-80.0","battery-v0.2","","""event"",""trial"",""time""
""fullscreenenter"",""1"",""1873""
","
","
","""event"",""trial"",""time""
""fullscreenenter"",""1"",""1873""
","
","","","1213.3000000715256","","","25","10970","534","c","elianto","#3366ff99"," "," ","1","+10","[2068.600000023842]","1","2","","","10970","76","4","1","win","go","0"
"pit-trial","195","1293457","0.0-81.0","battery-v0.2","","""event"",""trial"",""time""
""fullscreenenter"",""1"",""1873""
","
","
","""event"",""trial"",""time""
""fullscreenenter"",""1"",""1873""
","
","","","1419.1999999284744","","","25","10970","534","z","elianto","#3366ff99","-1"," ","0","0","[2271.899999976158]","1","2","","","10970","77","5","2","win","no-go","0"
"pit-trial","196","1297865","0.0-82.0","battery-v0.2","","""event"",""trial"",""time""
""fullscreenenter"",""1"",""1873""
","
","
","""event"",""trial"",""time""
""fullscreenenter"",""1"",""1873""
","
","","","1534.6999999284744","","","25","10970","534","c","elianto","#3366ff99"," "," ","1","+10","[2386.5999999046326]","1","2","","","10970","78","4","1","win","go","0"
"pit-trial","197","1301519","0.0-83.0","battery-v0.2","","""event"",""trial"",""time""
""fullscreenenter"",""1"",""1873""
","
","
","""event"",""trial"",""time""
""fullscreenenter"",""1"",""1873""
","
","","","785.2000000476837","","","25","10970","534","c","elianto","#3366ff99"," "," ","1","+10","[1639.7999999523163]","1","2","","","10970","79","4","1","win","go","0"
"pit-trial","198","1306392","0.0-84.0","battery-v0.2","","""event"",""trial"",""time""
""fullscreenenter"",""1"",""1873""
","
","
","""event"",""trial"",""time""
""fullscreenenter"",""1"",""1873""
","
","","","-1","","","25","10970","534","b","elianto","#f73b6a7A","-1","-1","1","0","[]","0","2","","","10970","80","3","4","lose","no-go","0"
"pit-trial","199","1311263","0.0-85.0","battery-v0.2","","""event"",""trial"",""time""
""fullscreenenter"",""1"",""1873""
","
","
","""event"",""trial"",""time""
""fullscreenenter"",""1"",""1873""
","
","","","-1","","","25","10970","534","b","elianto","#f73b6a7A","-1","-1","1","-10","[]","0","2","","","10970","81","3","4","lose","no-go","1"
"pit-trial","200","1315568","0.0-86.0","battery-v0.2","","""event"",""trial"",""time""
""fullscreenenter"",""1"",""1873""
","
","
","""event"",""trial"",""time""
""fullscreenenter"",""1"",""1873""
","
","","","1431","","","25","10970","534","z","elianto","#3366ff99","-1"," ","0","0","[2284.399999976158]","1","2","","","10970","82","5","2","win","no-go","0"
"pit-trial","201","1320439","0.0-87.0","battery-v0.2","","""event"",""trial"",""time""
""fullscreenenter"",""1"",""1873""
","
","
","""event"",""trial"",""time""
""fullscreenenter"",""1"",""1873""
","
","","","-1","","","25","10970","534","y","elianto","#f73b6a7A","-1","-1","1","0","[]","0","2","","","10970","83","7","4","lose","no-go","0"
"pit-trial","202","1324773","0.0-88.0","battery-v0.2","","""event"",""trial"",""time""
""fullscreenenter"",""1"",""1873""
","
","
","""event"",""trial"",""time""
""fullscreenenter"",""1"",""1873""
","
","","","1471.2000000476837","","","25","10970","534","c","elianto","#3366ff99"," "," ","1","+10","[2322.600000023842]","1","2","","","10970","84","4","1","win","go","0"
"pit-trial","203","1328767","0.0-89.0","battery-v0.2","","""event"",""trial"",""time""
""fullscreenenter"",""1"",""1873""
","
","
","""event"",""trial"",""time""
""fullscreenenter"",""1"",""1873""
","
","","","1128.8999999761581","","","25","10970","534","c","elianto","#3366ff99"," "," ","1","0","[1980.1999999284744]","1","2","","","10970","85","4","1","win","go","1"
"pit-trial","204","1333638","0.0-90.0","battery-v0.2","","""event"",""trial"",""time""
""fullscreenenter"",""1"",""1873""
","
","
","""event"",""trial"",""time""
""fullscreenenter"",""1"",""1873""
","
","","","-1","","","25","10970","534","y","elianto","#f73b6a7A","-1","-1","1","0","[]","0","2","","","10970","86","7","4","lose","no-go","0"
"pit-trial","205","1338511","0.0-91.0","battery-v0.2","","""event"",""trial"",""time""
""fullscreenenter"",""1"",""1873""
","
","
","""event"",""trial"",""time""
""fullscreenenter"",""1"",""1873""
","
","","","-1","","","25","10970","534","h","elianto","#f73b6a7A"," ","-1","0","-10","[]","0","2","","","10970","87","6","3","lose","go","0"
"pit-trial","206","1342797","0.0-92.0","battery-v0.2","","""event"",""trial"",""time""
""fullscreenenter"",""1"",""1873""
","
","
","""event"",""trial"",""time""
""fullscreenenter"",""1"",""1873""
","
","","","1420.8999999761581","","","25","10970","534","z","elianto","#3366ff99","-1"," ","0","+10","[2275.5999999046326]","1","2","","","10970","88","5","2","win","no-go","1"
"pit-trial","207","1346658","0.0-93.0","battery-v0.2","","""event"",""trial"",""time""
""fullscreenenter"",""1"",""1873""
","
","
","""event"",""trial"",""time""
""fullscreenenter"",""1"",""1873""
","
","","","990.6999999284744","","","25","10970","534","z","elianto","#3366ff99","-1"," ","0","0","[1845.2000000476837]","1","2","","","10970","89","5","2","win","no-go","0"
"pit-trial","208","1351534","0.0-94.0","battery-v0.2","","""event"",""trial"",""time""
""fullscreenenter"",""1"",""1873""
","
","
","""event"",""trial"",""time""
""fullscreenenter"",""1"",""1873""
","
","","","-1","","","25","10970","534","y","elianto","#f73b6a7A","-1","-1","1","0","[]","0","2","","","10970","90","7","4","lose","no-go","0"
"pit-trial","209","1355669","0.0-95.0","battery-v0.2","","""event"",""trial"",""time""
""fullscreenenter"",""1"",""1873""
","
","
","""event"",""trial"",""time""
""fullscreenenter"",""1"",""1873""
","
","","","1264.8000000715256","","","25","10970","534","c","elianto","#3366ff99"," "," ","1","+10","[2120.7000000476837]","1","2","","","10970","91","4","1","win","go","0"
"pit-trial","210","1360542","0.0-96.0","battery-v0.2","","""event"",""trial"",""time""
""fullscreenenter"",""1"",""1873""
","
","
","""event"",""trial"",""time""
""fullscreenenter"",""1"",""1873""
","
","","","-1","","","25","10970","534","h","elianto","#f73b6a7A"," ","-1","0","0","[]","0","2","","","10970","92","6","3","lose","go","1"
"pit-trial","211","1364644","0.0-97.0","battery-v0.2","","""event"",""trial"",""time""
""fullscreenenter"",""1"",""1873""
","
","
","""event"",""trial"",""time""
""fullscreenenter"",""1"",""1873""
","
","","","1230.3000000715256","","","25","10970","534","z","elianto","#3366ff99","-1"," ","0","+10","[2083.2000000476837]","1","2","","","10970","93","5","2","win","no-go","1"
"pit-trial","212","1369516","0.0-98.0","battery-v0.2","","""event"",""trial"",""time""
""fullscreenenter"",""1"",""1873""
","
","
","""event"",""trial"",""time""
""fullscreenenter"",""1"",""1873""
","
","","","-1","","","25","10970","534","h","elianto","#f73b6a7A"," ","-1","0","0","[]","0","2","","","10970","94","6","3","lose","go","1"
"pit-trial","213","1373349","0.0-99.0","battery-v0.2","","""event"",""trial"",""time""
""fullscreenenter"",""1"",""1873""
","
","
","""event"",""trial"",""time""
""fullscreenenter"",""1"",""1873""
","
","","","961.1000000238419","","","25","10970","534","r","elianto","#3366ff99"," "," ","1","+10","[1816.7000000476837]","1","2","","","10970","95","8","1","win","go","0"
"pit-trial","214","1378221","0.0-100.0","battery-v0.2","","""event"",""trial"",""time""
""fullscreenenter"",""1"",""1873""
","
","
","""event"",""trial"",""time""
""fullscreenenter"",""1"",""1873""
","
","","","-1","","","25","10970","534","y","elianto","#f73b6a7A","-1","-1","1","0","[]","0","2","","","10970","96","7","4","lose","no-go","0"
"pit-trial","215","1382420","0.0-101.0","battery-v0.2","","""event"",""trial"",""time""
""fullscreenenter"",""1"",""1873""
","
","
","""event"",""trial"",""time""
""fullscreenenter"",""1"",""1873""
","
","","","1331.5","","","25","10970","534","z","elianto","#3366ff99","-1"," ","0","+10","[2184.2000000476837]","1","2","","","10970","97","5","2","win","no-go","1"
"pit-trial","216","1386163","0.0-102.0","battery-v0.2","","""event"",""trial"",""time""
""fullscreenenter"",""1"",""1873""
","
","
","""event"",""trial"",""time""
""fullscreenenter"",""1"",""1873""
","
","","","873.5","","","25","10970","534","r","elianto","#3366ff99"," "," ","1","+10","[1724]","1","2","","","10970","98","8","1","win","go","0"
"pit-trial","217","1391035","0.0-103.0","battery-v0.2","","""event"",""trial"",""time""
""fullscreenenter"",""1"",""1873""
","
","
","""event"",""trial"",""time""
""fullscreenenter"",""1"",""1873""
","
","","","-1","","","25","10970","534","h","elianto","#f73b6a7A"," ","-1","0","-10","[]","0","2","","","10970","99","6","3","lose","go","0"
"pit-trial","218","1395908","0.0-104.0","battery-v0.2","","""event"",""trial"",""time""
""fullscreenenter"",""1"",""1873""
","
","
","""event"",""trial"",""time""
""fullscreenenter"",""1"",""1873""
","
","","","-1","","","25","10970","534","y","elianto","#f73b6a7A","-1","-1","1","-10","[]","0","2","","","10970","100","7","4","lose","no-go","1"
"pit-trial","219","1399660","0.0-105.0","battery-v0.2","","""event"",""trial"",""time""
""fullscreenenter"",""1"",""1873""
","
","
","""event"",""trial"",""time""
""fullscreenenter"",""1"",""1873""
","
","","","887.7999999523163","","","25","10970","534","m","elianto","#3366ff99"," "," ","1","+10","[1738.1000000238419]","1","2","","","10970","101","9","1","win","go","0"
"pit-trial","220","1403964","0.0-106.0","battery-v0.2","","""event"",""trial"",""time""
""fullscreenenter"",""1"",""1873""
","
","
","""event"",""trial"",""time""
""fullscreenenter"",""1"",""1873""
","
","","","1435.2999999523163","","","25","10970","534","z","elianto","#3366ff99","-1"," ","0","+10","[2288.2999999523163]","1","2","","","10970","102","5","2","win","no-go","1"
"pit-trial","221","1407635","0.0-107.0","battery-v0.2","","""event"",""trial"",""time""
""fullscreenenter"",""1"",""1873""
","
","
","""event"",""trial"",""time""
""fullscreenenter"",""1"",""1873""
","
","","","803.5","","","25","10970","534","r","elianto","#3366ff99"," "," ","1","+10","[1656.2000000476837]","1","2","","","10970","103","8","1","win","go","0"
"pit-trial","222","1412506","0.0-108.0","battery-v0.2","","""event"",""trial"",""time""
""fullscreenenter"",""1"",""1873""
","
","
","""event"",""trial"",""time""
""fullscreenenter"",""1"",""1873""
","
","","","-1","","","25","10970","534","y","elianto","#f73b6a7A","-1","-1","1","0","[]","0","2","","","10970","104","7","4","lose","no-go","0"
"pit-trial","223","1416235","0.0-109.0","battery-v0.2","","""event"",""trial"",""time""
""fullscreenenter"",""1"",""1873""
","
","
","""event"",""trial"",""time""
""fullscreenenter"",""1"",""1873""
","
","","","862.6000000238419","","","25","10970","534","c","elianto","#3366ff99"," "," ","1","+10","[1712.7999999523163]","1","2","","","10970","105","4","1","win","go","0"
"pit-trial","224","1419873","0.0-110.0","battery-v0.2","","""event"",""trial"",""time""
""fullscreenenter"",""1"",""1873""
","
","
","""event"",""trial"",""time""
""fullscreenenter"",""1"",""1873""
","
","","","771.7999999523163","","","25","10970","534","m","elianto","#3366ff99"," "," ","1","+10","[1626.1999999284744]","1","2","","","10970","106","9","1","win","go","0"
"pit-trial","225","1423619","0.0-111.0","battery-v0.2","","""event"",""trial"",""time""
""fullscreenenter"",""1"",""1873""
","
","
","""event"",""trial"",""time""
""fullscreenenter"",""1"",""1873""
","
","","","881.3999999761581","","","25","10970","534","r","elianto","#3366ff99"," "," ","1","+10","[1732.1999999284744]","1","2","","","10970","107","8","1","win","go","0"
"pit-trial","226","1428489","0.0-112.0","battery-v0.2","","""event"",""trial"",""time""
""fullscreenenter"",""1"",""1873""
","
","
","""event"",""trial"",""time""
""fullscreenenter"",""1"",""1873""
","
","","","-1","","","25","10970","534","h","elianto","#f73b6a7A"," ","-1","0","-10","[]","0","2","","","10970","108","6","3","lose","go","0"
"pit-trial","227","1432370","0.0-113.0","battery-v0.2","","""event"",""trial"",""time""
""fullscreenenter"",""1"",""1873""
","
","
","""event"",""trial"",""time""
""fullscreenenter"",""1"",""1873""
","
","","","1015.6000000238419","","","25","10970","534","z","elianto","#3366ff99","-1"," ","0","+10","[1866.8000000715256]","1","2","","","10970","109","5","2","win","no-go","1"
"pit-trial","228","1435912","0.0-114.0","battery-v0.2","","""event"",""trial"",""time""
""fullscreenenter"",""1"",""1873""
","
","
","""event"",""trial"",""time""
""fullscreenenter"",""1"",""1873""
","
","","","673.1999999284744","","","25","10970","534","r","elianto","#3366ff99"," "," ","1","+10","[1525.6999999284744]","1","2","","","10970","110","8","1","win","go","0"
"pit-trial","229","1440785","0.0-115.0","battery-v0.2","","""event"",""trial"",""time""
""fullscreenenter"",""1"",""1873""
","
","
","""event"",""trial"",""time""
""fullscreenenter"",""1"",""1873""
","
","","","-1","","","25","10970","534","h","elianto","#f73b6a7A"," ","-1","0","-10","[]","0","2","","","10970","111","6","3","lose","go","0"
"pit-trial","230","1444410","0.0-116.0","battery-v0.2","","""event"",""trial"",""time""
""fullscreenenter"",""1"",""1873""
","
","
","""event"",""trial"",""time""
""fullscreenenter"",""1"",""1873""
","
","","","755","","","25","10970","534","m","elianto","#3366ff99"," "," ","1","+10","[1609.1000000238419]","1","2","","","10970","112","9","1","win","go","0"
"pit-trial","231","1448137","0.0-117.0","battery-v0.2","","""event"",""trial"",""time""
""fullscreenenter"",""1"",""1873""
","
","
","""event"",""trial"",""time""
""fullscreenenter"",""1"",""1873""
","
","","","859.8000000715256","","","25","10970","534","m","elianto","#3366ff99"," "," ","1","+10","[1713.1000000238419]","1","2","","","10970","113","9","1","win","go","0"
"pit-trial","232","1453009","0.0-118.0","battery-v0.2","","""event"",""trial"",""time""
""fullscreenenter"",""1"",""1873""
","
","
","""event"",""trial"",""time""
""fullscreenenter"",""1"",""1873""
","
","","","-1","","","25","10970","534","h","elianto","#f73b6a7A"," ","-1","0","-10","[]","0","2","","","10970","114","6","3","lose","go","0"
"pit-trial","233","1456951","0.0-119.0","battery-v0.2","","""event"",""trial"",""time""
""fullscreenenter"",""1"",""1873""
","
","
","""event"",""trial"",""time""
""fullscreenenter"",""1"",""1873""
","
","","","1077","","","25","10970","534","z","elianto","#3366ff99","-1"," ","0","0","[1929.3000000715256]","1","2","","","10970","115","5","2","win","no-go","0"
"pit-trial","234","1460401","0.0-120.0","battery-v0.2","","""event"",""trial"",""time""
""fullscreenenter"",""1"",""1873""
","
","
","""event"",""trial"",""time""
""fullscreenenter"",""1"",""1873""
","
","","","579","","","25","10970","534","r","elianto","#3366ff99"," "," ","1","+10","[1431.6999999284744]","1","2","","","10970","116","8","1","win","go","0"
"pit-trial","235","1463993","0.0-121.0","battery-v0.2","","""event"",""trial"",""time""
""fullscreenenter"",""1"",""1873""
","
","
","""event"",""trial"",""time""
""fullscreenenter"",""1"",""1873""
","
","","","723.2000000476837","","","25","10970","534","r","elianto","#3366ff99"," "," ","1","+10","[1578.2000000476837]","1","2","","","10970","117","8","1","win","go","0"
"pit-trial","236","1467540","0.0-122.0","battery-v0.2","","""event"",""trial"",""time""
""fullscreenenter"",""1"",""1873""
","
","
","""event"",""trial"",""time""
""fullscreenenter"",""1"",""1873""
","
","","","685.6999999284744","","","25","10970","534","m","elianto","#3366ff99"," "," ","1","+10","[1538.7000000476837]","1","2","","","10970","118","9","1","win","go","0"
"pit-trial","237","1471588","0.0-123.0","battery-v0.2","","""event"",""trial"",""time""
""fullscreenenter"",""1"",""1873""
","
","
","""event"",""trial"",""time""
""fullscreenenter"",""1"",""1873""
","
","","","1187.7000000476837","","","25","10970","534","h","elianto","#f73b6a7A"," "," ","1","0","[2039.7000000476837]","1","2","","","10970","119","6","3","lose","go","0"
"pit-trial","238","1475288","0.0-124.0","battery-v0.2","","""event"",""trial"",""time""
""fullscreenenter"",""1"",""1873""
","
","
","""event"",""trial"",""time""
""fullscreenenter"",""1"",""1873""
","
","","","828.3000000715256","","","25","10970","534","z","elianto","#3366ff99","-1"," ","0","+10","[1679.9000000953674]","1","2","","","10970","120","5","2","win","no-go","1"
"pit-trial","239","1478687","0.0-125.0","battery-v0.2","","""event"",""trial"",""time""
""fullscreenenter"",""1"",""1873""
","
","
","""event"",""trial"",""time""
""fullscreenenter"",""1"",""1873""
","
","","","533.9000000953674","","","25","10970","534","r","elianto","#3366ff99"," "," ","1","+10","[1384.3000000715256]","1","2","","","10970","121","8","1","win","go","0"
"pit-trial","240","1482116","0.0-126.0","battery-v0.2","","""event"",""trial"",""time""
""fullscreenenter"",""1"",""1873""
","
","
","""event"",""trial"",""time""
""fullscreenenter"",""1"",""1873""
","
","","","562.7000000476837","","","25","10970","534","h","elianto","#f73b6a7A"," "," ","1","0","[1414.8000000715256]","1","2","","","10970","122","6","3","lose","go","0"
"pit-trial","241","1485774","0.0-127.0","battery-v0.2","","""event"",""trial"",""time""
""fullscreenenter"",""1"",""1873""
","
","
","""event"",""trial"",""time""
""fullscreenenter"",""1"",""1873""
","
","","","790.1999999284744","","","25","10970","534","m","elianto","#3366ff99"," "," ","1","0","[1645.8000000715256]","1","2","","","10970","123","9","1","win","go","1"
"pit-trial","242","1490647","0.0-128.0","battery-v0.2","","""event"",""trial"",""time""
""fullscreenenter"",""1"",""1873""
","
","
","""event"",""trial"",""time""
""fullscreenenter"",""1"",""1873""
","
","","","-1","","","25","10970","534","y","elianto","#f73b6a7A","-1","-1","1","0","[]","0","2","","","10970","124","7","4","lose","no-go","0"
"pit-trial","243","1494199","0.0-129.0","battery-v0.2","","""event"",""trial"",""time""
""fullscreenenter"",""1"",""1873""
","
","
","""event"",""trial"",""time""
""fullscreenenter"",""1"",""1873""
","
","","","684","","","25","10970","534","h","elianto","#f73b6a7A"," "," ","1","0","[1538.0999999046326]","1","2","","","10970","125","6","3","lose","go","0"
"pit-trial","244","1497807","0.0-130.0","battery-v0.2","","""event"",""trial"",""time""
""fullscreenenter"",""1"",""1873""
","
","
","""event"",""trial"",""time""
""fullscreenenter"",""1"",""1873""
","
","","","735.2999999523163","","","25","10970","534","m","elianto","#3366ff99"," "," ","1","0","[1590.2999999523163]","1","2","","","10970","126","9","1","win","go","1"
"pit-trial","245","1502678","0.0-131.0","battery-v0.2","","""event"",""trial"",""time""
""fullscreenenter"",""1"",""1873""
","
","
","""event"",""trial"",""time""
""fullscreenenter"",""1"",""1873""
","
","","","-1","","","25","10970","534","y","elianto","#f73b6a7A","-1","-1","1","0","[]","0","2","","","10970","127","7","4","lose","no-go","0"
"pit-trial","246","1506406","0.0-132.0","battery-v0.2","","""event"",""trial"",""time""
""fullscreenenter"",""1"",""1873""
","
","
","""event"",""trial"",""time""
""fullscreenenter"",""1"",""1873""
","
","","","855.5","","","25","10970","534","r","elianto","#3366ff99"," "," ","1","+10","[1709.1000000238419]","1","2","","","10970","128","8","1","win","go","0"
"pit-trial","247","1511275","0.0-133.0","battery-v0.2","","""event"",""trial"",""time""
""fullscreenenter"",""1"",""1873""
","
","
","""event"",""trial"",""time""
""fullscreenenter"",""1"",""1873""
","
","","","-1","","","25","10970","534","m","elianto","#3366ff99"," ","-1","0","0","[]","0","2","","","10970","129","9","1","win","go","0"
"pit-trial","248","1516150","0.0-134.0","battery-v0.2","","""event"",""trial"",""time""
""fullscreenenter"",""1"",""1873""
","
","
","""event"",""trial"",""time""
""fullscreenenter"",""1"",""1873""
","
","","","-1","","","25","10970","534","y","elianto","#f73b6a7A","-1","-1","1","0","[]","0","2","","","10970","130","7","4","lose","no-go","0"
"pit-trial","249","1519621","0.0-135.0","battery-v0.2","","""event"",""trial"",""time""
""fullscreenenter"",""1"",""1873""
","
","
","""event"",""trial"",""time""
""fullscreenenter"",""1"",""1873""
","
","","","600.1000000238419","","","25","10970","534","h","elianto","#f73b6a7A"," "," ","1","-10","[1453.2000000476837]","1","2","","","10970","131","6","3","lose","go","1"
"pit-trial","250","1523238","0.0-136.0","battery-v0.2","","""event"",""trial"",""time""
""fullscreenenter"",""1"",""1873""
","
","
","""event"",""trial"",""time""
""fullscreenenter"",""1"",""1873""
","
","","","748.8999999761581","","","25","10970","534","r","elianto","#3366ff99"," "," ","1","+10","[1599.7999999523163]","1","2","","","10970","132","8","1","win","go","0"
"pit-trial","251","1526954","0.0-137.0","battery-v0.2","","""event"",""trial"",""time""
""fullscreenenter"",""1"",""1873""
","
","
","""event"",""trial"",""time""
""fullscreenenter"",""1"",""1873""
","
","","","851.6000000238419","","","25","10970","534","m","elianto","#3366ff99"," "," ","1","+10","[1703.3000000715256]","1","2","","","10970","133","9","1","win","go","0"
"pit-trial","252","1531829","0.0-138.0","battery-v0.2","","""event"",""trial"",""time""
""fullscreenenter"",""1"",""1873""
","
","
","""event"",""trial"",""time""
""fullscreenenter"",""1"",""1873""
","
","","","-1","","","25","10970","534","h","elianto","#f73b6a7A"," ","-1","0","-10","[]","0","2","","","10970","134","6","3","lose","go","0"
"pit-trial","253","1535621","0.0-139.0","battery-v0.2","","""event"",""trial"",""time""
""fullscreenenter"",""1"",""1873""
","
","
","""event"",""trial"",""time""
""fullscreenenter"",""1"",""1873""
","
","","","923.0999999046326","","","25","10970","534","r","elianto","#3366ff99"," "," ","1","+10","[1777.1999999284744]","1","2","","","10970","135","8","1","win","go","0"
"pit-trial","254","1540490","0.0-140.0","battery-v0.2","","""event"",""trial"",""time""
""fullscreenenter"",""1"",""1873""
","
","
","""event"",""trial"",""time""
""fullscreenenter"",""1"",""1873""
","
","","","-1","","","25","10970","534","y","elianto","#f73b6a7A","-1","-1","1","0","[]","0","2","","","10970","136","7","4","lose","no-go","0"
"pit-trial","255","1545363","0.0-141.0","battery-v0.2","","""event"",""trial"",""time""
""fullscreenenter"",""1"",""1873""
","
","
","""event"",""trial"",""time""
""fullscreenenter"",""1"",""1873""
","
","","","-1","","","25","10970","534","y","elianto","#f73b6a7A","-1","-1","1","-10","[]","0","2","","","10970","137","7","4","lose","no-go","1"
"pit-trial","256","1549040","0.0-142.0","battery-v0.2","","""event"",""trial"",""time""
""fullscreenenter"",""1"",""1873""
","
","
","""event"",""trial"",""time""
""fullscreenenter"",""1"",""1873""
","
","","","808.8999999761581","","","25","10970","534","r","elianto","#3366ff99"," "," ","1","0","[1663.2000000476837]","1","2","","","10970","138","8","1","win","go","1"
"pit-trial","257","1552555","0.0-143.0","battery-v0.2","","""event"",""trial"",""time""
""fullscreenenter"",""1"",""1873""
","
","
","""event"",""trial"",""time""
""fullscreenenter"",""1"",""1873""
","
","","","646.8999999761581","","","25","10970","534","m","elianto","#3366ff99"," "," ","1","+10","[1497.9000000953674]","1","2","","","10970","139","9","1","win","go","0"
"pit-trial","258","1556231","0.0-144.0","battery-v0.2","","""event"",""trial"",""time""
""fullscreenenter"",""1"",""1873""
","
","
","""event"",""trial"",""time""
""fullscreenenter"",""1"",""1873""
","
","","","811.5","","","25","10970","534","h","elianto","#f73b6a7A"," "," ","1","0","[1664.7999999523163]","1","2","","","10970","140","6","3","lose","go","0"
"pit-instructions","259","1633114","0.0-145.0","battery-v0.2","","""event"",""trial"",""time""
""fullscreenenter"",""1"",""1873""
","
","
","""event"",""trial"",""time""
""fullscreenenter"",""1"",""1873""
","
","","[{""page_index"":0,""viewing_time"":67566.5},{""page_index"":1,""viewing_time"":9311.5}]","76878.59999990463","","","","","","","","","","","","","","","","","","","","","","","",""
"pit-trial","260","1636749","0.0-146.0","battery-v0.2","","""event"",""trial"",""time""
""fullscreenenter"",""1"",""1873""
","
","
","""event"",""trial"",""time""
""fullscreenenter"",""1"",""1873""
","
","","","765","","","25","10970","534","d","elianto","#3366ff99"," "," ","1","+10","[1621.5]","1","3","","","10970","141","1","1","win","go","0"
"pit-trial","261","1641623","0.0-147.0","battery-v0.2","","""event"",""trial"",""time""
""fullscreenenter"",""1"",""1873""
","
","
","""event"",""trial"",""time""
""fullscreenenter"",""1"",""1873""
","
","","","-1","","","25","10970","534","j","elianto","#f73b6a7A","-1","-1","1","0","[]","0","3","","","10970","142","0","4","lose","no-go","0"
"pit-trial","262","1645068","0.0-148.0","battery-v0.2","","""event"",""trial"",""time""
""fullscreenenter"",""1"",""1873""
","
","
","""event"",""trial"",""time""
""fullscreenenter"",""1"",""1873""
","
","","","577.1000000238419","","","25","10970","534","w","elianto","#f73b6a7A"," "," ","1","0","[1428]","1","3","","","10970","143","3","3","lose","go","0"
"pit-trial","263","1648876","0.0-149.0","battery-v0.2","","""event"",""trial"",""time""
""fullscreenenter"",""1"",""1873""
","
","
","""event"",""trial"",""time""
""fullscreenenter"",""1"",""1873""
","
","","","938.8999999761581","","","25","10970","534","e","elianto","#f73b6a7A","-1"," ","0","-10","[1793.8999999761581]","1","3","","","10970","144","2","4","lose","no-go","0"
"pit-trial","264","1653751","0.0-150.0","battery-v0.2","","""event"",""trial"",""time""
""fullscreenenter"",""1"",""1873""
","
","
","""event"",""trial"",""time""
""fullscreenenter"",""1"",""1873""
","
