"trial_type","trial_index","time_elapsed","internal_node_id","task_version","subject_id","interactions","blur_events","focus_events","fullscreenenter_events","fullscreenexit_events","success","view_history","rt","responses","num_errors","age","subject","participantId","rune","rune_set","hex","correct","choice","accuracy","outcome","keys","total_keys","block","practice","value","sub","trial","stimulus","robot","valence","action","sham"
"pavlovia","0","7","0.0-0.0","battery-v0.2","","""event"",""trial"",""time""
""fullscreenenter"",""1"",""1473""
","
","
","""event"",""trial"",""time""
""fullscreenenter"",""1"",""1473""
","
","","","","","","","","","","","","","","","","","","","","","","","","","","",""
"fullscreen","1","2476","0.0-1.0","battery-v0.2","","""event"",""trial"",""time""
""fullscreenenter"",""1"",""1473""
","
","
","""event"",""trial"",""time""
""fullscreenenter"",""1"",""1473""
","
","true","","","","","","","","","","","","","","","","","","","","","","","","","",""
"pit-instructions","2","8952","0.0-2.0-0.0","battery-v0.2","","""event"",""trial"",""time""
""fullscreenenter"",""1"",""1473""
","
","
","""event"",""trial"",""time""
""fullscreenenter"",""1"",""1473""
","
","","[{""page_index"":0,""viewing_time"":6472.200000047684}]","6472.5","","","","","","","","","","","","","","","","","","","","","","","",""
"pit-comprehension","3","12273","0.0-2.0-1.0-0.0","battery-v0.2","","""event"",""trial"",""time""
""fullscreenenter"",""1"",""1473""
","
","
","""event"",""trial"",""time""
""fullscreenenter"",""1"",""1473""
","
","","","3319.3000000715256","[""shark""]","0","23","20691","7692","","","","","","","","","","","","","","","","","","",""
"pit-instructions","4","14374","0.0-2.0-1.0-1.0","battery-v0.2","","""event"",""trial"",""time""
""fullscreenenter"",""1"",""1473""
","
","
","""event"",""trial"",""time""
""fullscreenenter"",""1"",""1473""
","
","","[{""page_index"":0,""viewing_time"":2091.399999976158}]","2091.8000000715256","","","","","","","","","","","","","","","","","","","","","","","",""
"pit-comprehension","5","17075","0.0-2.0-2.0-0.0","battery-v0.2","","""event"",""trial"",""time""
""fullscreenenter"",""1"",""1473""
","
","
","""event"",""trial"",""time""
""fullscreenenter"",""1"",""1473""
","
","","","2698.899999976158","[""tiger""]","0","23","20691","7692","","","","","","","","","","","","","","","","","","",""
"pit-instructions","6","18574","0.0-2.0-2.0-1.0","battery-v0.2","","""event"",""trial"",""time""
""fullscreenenter"",""1"",""1473""
","
","
","""event"",""trial"",""time""
""fullscreenenter"",""1"",""1473""
","
","","[{""page_index"":0,""viewing_time"":1497.1000000238419}]","1497.2999999523163","","","","","","","","","","","","","","","","","","","","","","","",""
"pit-instructions","7","125330","0.0-2.0-3.0","battery-v0.2","","""event"",""trial"",""time""
""fullscreenenter"",""1"",""1473""
","
","
","""event"",""trial"",""time""
""fullscreenenter"",""1"",""1473""
","
","","[{""page_index"":0,""viewing_time"":9209.5},{""page_index"":1,""viewing_time"":5894.899999976158},{""page_index"":2,""viewing_time"":6254.700000047684},{""page_index"":3,""viewing_time"":5039.399999976158},{""page_index"":4,""viewing_time"":5918.399999976158},{""page_index"":5,""viewing_time"":6158},{""page_index"":6,""viewing_time"":6906.600000023842},{""page_index"":7,""viewing_time"":7073.5},{""page_index"":8,""viewing_time"":8084.5},{""page_index"":9,""viewing_time"":14206},{""page_index"":10,""viewing_time"":7814.5},{""page_index"":11,""viewing_time"":7702.699999928474},{""page_index"":12,""viewing_time"":10162.600000023842},{""page_index"":13,""viewing_time"":6329.899999976158}]","106755.29999995232","","","","","","","","","","","","","","","","","","","","","","","",""
"pit-trial","8","128743","0.0-2.0-4.0-0.0","battery-v0.2","","""event"",""trial"",""time""
""fullscreenenter"",""1"",""1473""
","
","
","""event"",""trial"",""time""
""fullscreenenter"",""1"",""1473""
","
","","","545","","","23","20691","7692","&#9784;","elianto","#FFFFF080"," "," ","1","&#10004","[1401.6000000238419]","1","0","0","","","","","","","",""
"pit-trial","9","132203","0.0-2.0-4.1-0.1","battery-v0.2","","""event"",""trial"",""time""
""fullscreenenter"",""1"",""1473""
","
","
","""event"",""trial"",""time""
""fullscreenenter"",""1"",""1473""
","
","","","604.1000000238419","","","23","20691","7692","&#9784;","elianto","#FFFFF080"," "," ","1","&#10004","[1454]","1","0","0","","","","","","","",""
"pit-trial","10","135631","0.0-2.0-4.2-0.2","battery-v0.2","","""event"",""trial"",""time""
""fullscreenenter"",""1"",""1473""
","
","
","""event"",""trial"",""time""
""fullscreenenter"",""1"",""1473""
","
","","","563.5","","","23","20691","7692","&#9784;","elianto","#FFFFF080"," "," ","1","&#10004","[1413.8999999761581]","1","0","0","","","","","","","",""
"pit-trial","11","138993","0.0-2.0-4.3-0.3","battery-v0.2","","""event"",""trial"",""time""
""fullscreenenter"",""1"",""1473""
","
","
","""event"",""trial"",""time""
""fullscreenenter"",""1"",""1473""
","
","","","501.10000002384186","","","23","20691","7692","&#9784;","elianto","#FFFFF080"," "," ","1","&#10004","[1352.9000000953674]","1","0","0","","","","","","","",""
"pit-trial","12","142357","0.0-2.0-4.4-0.4","battery-v0.2","","""event"",""trial"",""time""
""fullscreenenter"",""1"",""1473""
","
","
","""event"",""trial"",""time""
""fullscreenenter"",""1"",""1473""
","
","","","496.60000002384186","","","23","20691","7692","&#9784;","elianto","#FFFFF080"," "," ","1","&#10004","[1348.8999999761581]","1","0","0","","","","","","","",""
"pit-instructions","13","167767","0.0-2.0-5.0","battery-v0.2","","""event"",""trial"",""time""
""fullscreenenter"",""1"",""1473""
","
","
","""event"",""trial"",""time""
""fullscreenenter"",""1"",""1473""
","
","","[{""page_index"":0,""viewing_time"":6499.299999952316},{""page_index"":1,""viewing_time"":6315},{""page_index"":2,""viewing_time"":7499.700000047684},{""page_index"":3,""viewing_time"":5093.100000023842}]","25407.299999952316","","","","","","","","","","","","","","","","","","","","","","","",""
"pit-trial","14","172640","0.0-2.0-6.0-0.0","battery-v0.2","","""event"",""trial"",""time""
""fullscreenenter"",""1"",""1473""
","
","
","""event"",""trial"",""time""
""fullscreenenter"",""1"",""1473""
","
","","","-1","","","23","20691","7692","&#9854;","elianto","#FFFFF080","-1","-1","1","&#10004","[]","0","0","1","","","","","","","",""
"pit-trial","15","177513","0.0-2.0-6.1-0.1","battery-v0.2","","""event"",""trial"",""time""
""fullscreenenter"",""1"",""1473""
","
","
","""event"",""trial"",""time""
""fullscreenenter"",""1"",""1473""
","
","","","-1","","","23","20691","7692","&#9854;","elianto","#FFFFF080","-1","-1","1","&#10004","[]","0","0","1","","","","","","","",""
"pit-trial","16","182381","0.0-2.0-6.2-0.2","battery-v0.2","","""event"",""trial"",""time""
""fullscreenenter"",""1"",""1473""
","
","
","""event"",""trial"",""time""
""fullscreenenter"",""1"",""1473""
","
","","","-1","","","23","20691","7692","&#9854;","elianto","#FFFFF080","-1","-1","1","&#10004","[]","0","0","1","","","","","","","",""
"pit-trial","17","187245","0.0-2.0-6.3-0.3","battery-v0.2","","""event"",""trial"",""time""
""fullscreenenter"",""1"",""1473""
","
","
","""event"",""trial"",""time""
""fullscreenenter"",""1"",""1473""
","
","","","-1","","","23","20691","7692","&#9854;","elianto","#FFFFF080","-1","-1","1","&#10004","[]","0","0","1","","","","","","","",""
"pit-trial","18","192111","0.0-2.0-6.4-0.4","battery-v0.2","","""event"",""trial"",""time""
""fullscreenenter"",""1"",""1473""
","
","
","""event"",""trial"",""time""
""fullscreenenter"",""1"",""1473""
","
","","","-1","","","23","20691","7692","&#9854;","elianto","#FFFFF080","-1","-1","1","&#10004","[]","0","0","1","","","","","","","",""
"pit-instructions","19","322914","0.0-2.0-7.0","battery-v0.2","","""event"",""trial"",""time""
""fullscreenenter"",""1"",""1473""
","
","
","""event"",""trial"",""time""
""fullscreenenter"",""1"",""1473""
","
","","[{""page_index"":0,""viewing_time"":7820.799999952316},{""page_index"":1,""viewing_time"":9886.400000095367},{""page_index"":2,""viewing_time"":6494.299999952316},{""page_index"":3,""viewing_time"":6494.799999952316},{""page_index"":4,""viewing_time"":5618.900000095367},{""page_index"":5,""viewing_time"":5923.899999976158},{""page_index"":6,""viewing_time"":5415.5},{""page_index"":7,""viewing_time"":7530},{""page_index"":8,""viewing_time"":6180.899999976158},{""page_index"":9,""viewing_time"":6261.700000047684},{""page_index"":10,""viewing_time"":7358.199999928474},{""page_index"":11,""viewing_time"":5114.899999976158},{""page_index"":12,""viewing_time"":10313},{""page_index"":13,""viewing_time"":10582.400000095367},{""page_index"":14,""viewing_time"":7538},{""page_index"":15,""viewing_time"":7784.5},{""page_index"":16,""viewing_time"":7087.599999904633},{""page_index"":17,""viewing_time"":7395.5}]","130801.60000002384","","","","","","","","","","","","","","","","","","","","","","","",""
"pit-trial","20","327013","0.0-2.0-8.0-0.0","battery-v0.2","","""event"",""trial"",""time""
""fullscreenenter"",""1"",""1473""
","
","
","""event"",""trial"",""time""
""fullscreenenter"",""1"",""1473""
","
","","","1234.2999999523163","","","23","20691","7692","&#9776;","elianto","#3366ff99"," "," ","1","+10","[2088]","1","0","1","","","","","","","",""
"pit-trial","21","330395","0.0-2.0-8.0-1.0","battery-v0.2","","""event"",""trial"",""time""
""fullscreenenter"",""1"",""1473""
","
","
","""event"",""trial"",""time""
""fullscreenenter"",""1"",""1473""
","
","","","520.5","","","23","20691","7692","&#9776;","elianto","#3366ff99"," "," ","1","+10","[1372.2999999523163]","1","0","1","","","","","","","",""
"pit-trial","22","333727","0.0-2.0-8.0-2.0","battery-v0.2","","""event"",""trial"",""time""
""fullscreenenter"",""1"",""1473""
","
","
","""event"",""trial"",""time""
""fullscreenenter"",""1"",""1473""
","
","","","476.1999999284744","","","23","20691","7692","&#9776;","elianto","#3366ff99"," "," ","1","+10","[1330.7999999523163]","1","0","1","","","","","","","",""
"pit-trial","23","337057","0.0-2.0-8.0-3.0","battery-v0.2","","""event"",""trial"",""time""
""fullscreenenter"",""1"",""1473""
","
","
","""event"",""trial"",""time""
""fullscreenenter"",""1"",""1473""
","
","","","470.6999999284744","","","23","20691","7692","&#9776;","elianto","#3366ff99"," "," ","1","0","[1325]","1","0","1","","","","","","","",""
"pit-trial","24","340343","0.0-2.0-8.0-4.0","battery-v0.2","","""event"",""trial"",""time""
""fullscreenenter"",""1"",""1473""
","
","
","""event"",""trial"",""time""
""fullscreenenter"",""1"",""1473""
","
","","","419.10000002384186","","","23","20691","7692","&#9776;","elianto","#3366ff99"," "," ","1","+10","[1269.5]","1","0","1","","","","","","","",""
"pit-trial","25","343730","0.0-2.0-8.1-0.1","battery-v0.2","","""event"",""trial"",""time""
""fullscreenenter"",""1"",""1473""
","
","
","""event"",""trial"",""time""
""fullscreenenter"",""1"",""1473""
","
","","","532.8000000715256","","","23","20691","7692","&#9776;","elianto","#3366ff99"," "," ","1","+10","[1384.3000000715256]","1","0","1","","","","","","","",""
"pit-trial","26","347035","0.0-2.0-8.1-1.1","battery-v0.2","","""event"",""trial"",""time""
""fullscreenenter"",""1"",""1473""
","
","
","""event"",""trial"",""time""
""fullscreenenter"",""1"",""1473""
","
","","","447.2999999523163","","","23","20691","7692","&#9776;","elianto","#3366ff99"," "," ","1","+10","[1297.8999999761581]","1","0","1","","","","","","","",""
"pit-trial","27","350374","0.0-2.0-8.1-2.1","battery-v0.2","","""event"",""trial"",""time""
""fullscreenenter"",""1"",""1473""
","
","
","""event"",""trial"",""time""
""fullscreenenter"",""1"",""1473""
","
","","","474.60000002384186","","","23","20691","7692","&#9776;","elianto","#3366ff99"," "," ","1","+10","[1325.7000000476837]","1","0","1","","","","","","","",""
"pit-trial","28","353654","0.0-2.0-8.1-3.1","battery-v0.2","","""event"",""trial"",""time""
""fullscreenenter"",""1"",""1473""
","
","
","""event"",""trial"",""time""
""fullscreenenter"",""1"",""1473""
","
","","","426.59999990463257","","","23","20691","7692","&#9776;","elianto","#3366ff99"," "," ","1","0","[1276.8000000715256]","1","0","1","","","","","","","",""
"pit-trial","29","356981","0.0-2.0-8.1-4.1","battery-v0.2","","""event"",""trial"",""time""
""fullscreenenter"",""1"",""1473""
","
","
","""event"",""trial"",""time""
""fullscreenenter"",""1"",""1473""
","
","","","474","","","23","20691","7692","&#9776;","elianto","#3366ff99"," "," ","1","+10","[1324.3000000715256]","1","0","1","","","","","","","",""
"pit-trial","30","360417","0.0-2.0-8.2-0.2","battery-v0.2","","""event"",""trial"",""time""
""fullscreenenter"",""1"",""1473""
","
","
","""event"",""trial"",""time""
""fullscreenenter"",""1"",""1473""
","
","","","583.4000000953674","","","23","20691","7692","&#9776;","elianto","#3366ff99"," "," ","1","+10","[1434.3000000715256]","1","0","1","","","","","","","",""
"pit-trial","31","363594","0.0-2.0-8.2-1.2","battery-v0.2","","""event"",""trial"",""time""
""fullscreenenter"",""1"",""1473""
","
","
","""event"",""trial"",""time""
""fullscreenenter"",""1"",""1473""
","
","","","324.39999997615814","","","23","20691","7692","&#9776;","elianto","#3366ff99"," "," ","1","+10","[1174.3999999761581]","1","0","1","","","","","","","",""
"pit-trial","32","366782","0.0-2.0-8.2-2.2","battery-v0.2","","""event"",""trial"",""time""
""fullscreenenter"",""1"",""1473""
","
","
","""event"",""trial"",""time""
""fullscreenenter"",""1"",""1473""
","
","","","334.10000002384186","","","23","20691","7692","&#9776;","elianto","#3366ff99"," "," ","1","+10","[1185.2000000476837]","1","0","1","","","","","","","",""
"pit-trial","33","370085","0.0-2.0-8.2-3.2","battery-v0.2","","""event"",""trial"",""time""
""fullscreenenter"",""1"",""1473""
","
","
","""event"",""trial"",""time""
""fullscreenenter"",""1"",""1473""
","
","","","451.1999999284744","","","23","20691","7692","&#9776;","elianto","#3366ff99"," "," ","1","0","[1301.0999999046326]","1","0","1","","","","","","","",""
"pit-trial","34","373305","0.0-2.0-8.2-4.2","battery-v0.2","","""event"",""trial"",""time""
""fullscreenenter"",""1"",""1473""
","
","
","""event"",""trial"",""time""
""fullscreenenter"",""1"",""1473""
","
","","","368.10000002384186","","","23","20691","7692","&#9776;","elianto","#3366ff99"," "," ","1","+10","[1218.7000000476837]","1","0","1","","","","","","","",""
"call-function","35","373307","0.0-2.0-9.0","battery-v0.2","","""event"",""trial"",""time""
""fullscreenenter"",""1"",""1473""
","
","
","""event"",""trial"",""time""
""fullscreenenter"",""1"",""1473""
","
","","","","","","","","","","","","","","","","","","","","","","","","","","",""
"pit-instructions","36","413622","0.0-2.0-10.0","battery-v0.2","","""event"",""trial"",""time""
""fullscreenenter"",""1"",""1473""
","
","
","""event"",""trial"",""time""
""fullscreenenter"",""1"",""1473""
","
","","[{""page_index"":0,""viewing_time"":8205.399999976158},{""page_index"":1,""viewing_time"":6562.800000071526},{""page_index"":2,""viewing_time"":9277.699999928474},{""page_index"":3,""viewing_time"":8647.700000047684},{""page_index"":4,""viewing_time"":7620.399999976158}]","40314.39999997616","","","","","","","","","","","","","","","","","","","","","","","",""
"pit-trial","37","417013","0.0-2.0-11.0-0.0","battery-v0.2","","""event"",""trial"",""time""
""fullscreenenter"",""1"",""1473""
","
","
","""event"",""trial"",""time""
""fullscreenenter"",""1"",""1473""
","
","","","528","","","23","20691","7692","&#9761;","elianto","#3366ff99","-1"," ","0","0","[1380.5]","1","0","2","","","","","","","",""
"pit-trial","38","420283","0.0-2.0-11.0-1.0","battery-v0.2","","""event"",""trial"",""time""
""fullscreenenter"",""1"",""1473""
","
","
","""event"",""trial"",""time""
""fullscreenenter"",""1"",""1473""
","
","","","403.09999990463257","","","23","20691","7692","&#9761;","elianto","#3366ff99","-1"," ","0","0","[1256.3000000715256]","1","0","2","","","","","","","",""
"pit-trial","39","425154","0.0-2.0-11.0-2.0","battery-v0.2","","""event"",""trial"",""time""
""fullscreenenter"",""1"",""1473""
","
","
","""event"",""trial"",""time""
""fullscreenenter"",""1"",""1473""
","
","","","-1","","","23","20691","7692","&#9761;","elianto","#3366ff99","-1","-1","1","+10","[]","0","0","2","","","","","","","",""
"pit-trial","40","428591","0.0-2.0-11.0-3.0","battery-v0.2","","""event"",""trial"",""time""
""fullscreenenter"",""1"",""1473""
","
","
","""event"",""trial"",""time""
""fullscreenenter"",""1"",""1473""
","
","","","581.2999999523163","","","23","20691","7692","&#9761;","elianto","#3366ff99","-1"," ","0","+10","[1432.2999999523163]","1","0","2","","","","","","","",""
"pit-trial","41","433461","0.0-2.0-11.0-4.0","battery-v0.2","","""event"",""trial"",""time""
""fullscreenenter"",""1"",""1473""
","
","
","""event"",""trial"",""time""
""fullscreenenter"",""1"",""1473""
","
","","","-1","","","23","20691","7692","&#9761;","elianto","#3366ff99","-1","-1","1","+10","[]","0","0","2","","","","","","","",""
"pit-trial","42","436862","0.0-2.0-11.1-0.1","battery-v0.2","","""event"",""trial"",""time""
""fullscreenenter"",""1"",""1473""
","
","
","""event"",""trial"",""time""
""fullscreenenter"",""1"",""1473""
","
","","","547.2999999523163","","","23","20691","7692","&#9761;","elianto","#3366ff99","-1"," ","0","0","[1397.6000000238419]","1","0","2","","","","","","","",""
"pit-trial","43","441741","0.0-2.0-11.1-1.1","battery-v0.2","","""event"",""trial"",""time""
""fullscreenenter"",""1"",""1473""
","
","
","""event"",""trial"",""time""
""fullscreenenter"",""1"",""1473""
","
","","","-1","","","23","20691","7692","&#9761;","elianto","#3366ff99","-1","-1","1","+10","[]","0","0","2","","","","","","","",""
"pit-trial","44","446595","0.0-2.0-11.1-2.1","battery-v0.2","","""event"",""trial"",""time""
""fullscreenenter"",""1"",""1473""
","
","
","""event"",""trial"",""time""
""fullscreenenter"",""1"",""1473""
","
","","","-1","","","23","20691","7692","&#9761;","elianto","#3366ff99","-1","-1","1","+10","[]","0","0","2","","","","","","","",""
"pit-trial","45","451462","0.0-2.0-11.1-3.1","battery-v0.2","","""event"",""trial"",""time""
""fullscreenenter"",""1"",""1473""
","
","
","""event"",""trial"",""time""
""fullscreenenter"",""1"",""1473""
","
","","","-1","","","23","20691","7692","&#9761;","elianto","#3366ff99","-1","-1","1","0","[]","0","0","2","","","","","","","",""
"pit-trial","46","454624","0.0-2.0-11.1-4.1","battery-v0.2","","""event"",""trial"",""time""
""fullscreenenter"",""1"",""1473""
","
","
","""event"",""trial"",""time""
""fullscreenenter"",""1"",""1473""
","
","","","309.89999997615814","","","23","20691","7692","&#9761;","elianto","#3366ff99","-1"," ","0","0","[1159.8999999761581]","1","0","2","","","","","","","",""
"pit-trial","47","458730","0.0-2.0-11.2-0.2","battery-v0.2","","""event"",""trial"",""time""
""fullscreenenter"",""1"",""1473""
","
","
","""event"",""trial"",""time""
""fullscreenenter"",""1"",""1473""
","
","","","1252.6999999284744","","","23","20691","7692","&#9761;","elianto","#3366ff99","-1"," ","0","0","[2103.4000000953674]","1","0","2","","","","","","","",""
"pit-trial","48","462685","0.0-2.0-11.2-1.2","battery-v0.2","","""event"",""trial"",""time""
""fullscreenenter"",""1"",""1473""
","
","
","""event"",""trial"",""time""
""fullscreenenter"",""1"",""1473""
","
","","","1101.7000000476837","","","23","20691","7692","&#9761;","elianto","#3366ff99","-1"," ","0","0","[1952.3000000715256]","1","0","2","","","","","","","",""
"pit-trial","49","467156","0.0-2.0-11.2-2.2","battery-v0.2","","""event"",""trial"",""time""
""fullscreenenter"",""1"",""1473""
","
","
","""event"",""trial"",""time""
""fullscreenenter"",""1"",""1473""
","
","","","1617.7000000476837","","","23","20691","7692","&#9761;","elianto","#3366ff99","-1"," ","0","0","[2468.2999999523163]","1","0","2","","","","","","","",""
"pit-trial","50","470365","0.0-2.0-11.2-3.2","battery-v0.2","","""event"",""trial"",""time""
""fullscreenenter"",""1"",""1473""
","
","
","""event"",""trial"",""time""
""fullscreenenter"",""1"",""1473""
","
","","","356.60000002384186","","","23","20691","7692","&#9761;","elianto","#3366ff99","-1"," ","0","+10","[1207.3999999761581]","1","0","2","","","","","","","",""
"pit-trial","51","473602","0.0-2.0-11.2-4.2","battery-v0.2","","""event"",""trial"",""time""
""fullscreenenter"",""1"",""1473""
","
","
","""event"",""trial"",""time""
""fullscreenenter"",""1"",""1473""
","
","","","385.2000000476837","","","23","20691","7692","&#9761;","elianto","#3366ff99","-1"," ","0","0","[1235.3999999761581]","1","0","2","","","","","","","",""
"pit-trial","52","476776","0.0-2.0-11.3-0.3","battery-v0.2","","""event"",""trial"",""time""
""fullscreenenter"",""1"",""1473""
","
","
","""event"",""trial"",""time""
""fullscreenenter"",""1"",""1473""
","
","","","320.89999997615814","","","23","20691","7692","&#9761;","elianto","#3366ff99","-1"," ","0","0","[1171.6000000238419]","1","0","2","","","","","","","",""
"pit-trial","53","480037","0.0-2.0-11.3-1.3","battery-v0.2","","""event"",""trial"",""time""
""fullscreenenter"",""1"",""1473""
","
","
","""event"",""trial"",""time""
""fullscreenenter"",""1"",""1473""
","
","","","408.2999999523163","","","23","20691","7692","&#9761;","elianto","#3366ff99","-1"," ","0","0","[1258.3999999761581]","1","0","2","","","","","","","",""
"pit-trial","54","483053","0.0-2.0-11.3-2.3","battery-v0.2","","""event"",""trial"",""time""
""fullscreenenter"",""1"",""1473""
","
","
","""event"",""trial"",""time""
""fullscreenenter"",""1"",""1473""
","
","","","163.79999995231628","","","23","20691","7692","&#9761;","elianto","#3366ff99","-1"," ","0","0","[1014.1999999284744]","1","0","2","","","","","","","",""
"pit-trial","55","486085","0.0-2.0-11.3-3.3","battery-v0.2","","""event"",""trial"",""time""
""fullscreenenter"",""1"",""1473""
","
","
","""event"",""trial"",""time""
""fullscreenenter"",""1"",""1473""
","
","","","179.79999995231628","","","23","20691","7692","&#9761;","elianto","#3366ff99","-1"," ","0","+10","[1030.0999999046326]","1","0","2","","","","","","","",""
"pit-trial","56","489144","0.0-2.0-11.3-4.3","battery-v0.2","","""event"",""trial"",""time""
""fullscreenenter"",""1"",""1473""
","
","
","""event"",""trial"",""time""
""fullscreenenter"",""1"",""1473""
","
","","","206","","","23","20691","7692","&#9761;","elianto","#3366ff99","-1"," ","0","0","[1056.5]","1","0","2","","","","","","","",""
"call-function","57","489145","0.0-2.0-12.0","battery-v0.2","","""event"",""trial"",""time""
""fullscreenenter"",""1"",""1473""
","
","
","""event"",""trial"",""time""
""fullscreenenter"",""1"",""1473""
","
","","","","","","","","","","","","","","","","","","","","","","","","","","",""
"pit-instructions","58","522726","0.0-2.0-13.0","battery-v0.2","","""event"",""trial"",""time""
""fullscreenenter"",""1"",""1473""
","
","
","""event"",""trial"",""time""
""fullscreenenter"",""1"",""1473""
","
","","[{""page_index"":0,""viewing_time"":6962.899999976158},{""page_index"":1,""viewing_time"":7529.300000071526},{""page_index"":2,""viewing_time"":4035.6999999284744},{""page_index"":3,""viewing_time"":10049},{""page_index"":4,""viewing_time"":5003.700000047684}]","33580.89999997616","","","","","","","","","","","","","","","","","","","","","","","",""
"pit-trial","59","526331","0.0-2.0-14.0-0.0","battery-v0.2","","""event"",""trial"",""time""
""fullscreenenter"",""1"",""1473""
","
","
","""event"",""trial"",""time""
""fullscreenenter"",""1"",""1473""
","
","","","743","","","23","20691","7692","&#9826;","elianto","#f73b6a7A","-1"," ","0","-10","[1593.3999999761581]","1","0","3","","","","","","","",""
"pit-trial","60","531187","0.0-2.0-14.0-1.0","battery-v0.2","","""event"",""trial"",""time""
""fullscreenenter"",""1"",""1473""
","
","
","""event"",""trial"",""time""
""fullscreenenter"",""1"",""1473""
","
","","","-1","","","23","20691","7692","&#9826;","elianto","#f73b6a7A","-1","-1","1","0","[]","0","0","3","","","","","","","",""
"pit-trial","61","536051","0.0-2.0-14.0-2.0","battery-v0.2","","""event"",""trial"",""time""
""fullscreenenter"",""1"",""1473""
","
","
","""event"",""trial"",""time""
""fullscreenenter"",""1"",""1473""
","
","","","-1","","","23","20691","7692","&#9826;","elianto","#f73b6a7A","-1","-1","1","0","[]","0","0","3","","","","","","","",""
"pit-trial","62","540917","0.0-2.0-14.0-3.0","battery-v0.2","","""event"",""trial"",""time""
""fullscreenenter"",""1"",""1473""
","
","
","""event"",""trial"",""time""
""fullscreenenter"",""1"",""1473""
","
","","","-1","","","23","20691","7692","&#9826;","elianto","#f73b6a7A","-1","-1","1","-10","[]","0","0","3","","","","","","","",""
"pit-trial","63","545781","0.0-2.0-14.0-4.0","battery-v0.2","","""event"",""trial"",""time""
""fullscreenenter"",""1"",""1473""
","
","
","""event"",""trial"",""time""
""fullscreenenter"",""1"",""1473""
","
","","","-1","","","23","20691","7692","&#9826;","elianto","#f73b6a7A","-1","-1","1","0","[]","0","0","3","","","","","","","",""
"pit-trial","64","550647","0.0-2.0-14.1-0.1","battery-v0.2","","""event"",""trial"",""time""
""fullscreenenter"",""1"",""1473""
","
","
","""event"",""trial"",""time""
""fullscreenenter"",""1"",""1473""
","
","","","-1","","","23","20691","7692","&#9826;","elianto","#f73b6a7A","-1","-1","1","0","[]","0","0","3","","","","","","","",""
"pit-trial","65","555499","0.0-2.0-14.1-1.1","battery-v0.2","","""event"",""trial"",""time""
""fullscreenenter"",""1"",""1473""
","
","
","""event"",""trial"",""time""
""fullscreenenter"",""1"",""1473""
","
","","","-1","","","23","20691","7692","&#9826;","elianto","#f73b6a7A","-1","-1","1","0","[]","0","0","3","","","","","","","",""
"pit-trial","66","560351","0.0-2.0-14.1-2.1","battery-v0.2","","""event"",""trial"",""time""
""fullscreenenter"",""1"",""1473""
","
","
","""event"",""trial"",""time""
""fullscreenenter"",""1"",""1473""
","
","","","-1","","","23","20691","7692","&#9826;","elianto","#f73b6a7A","-1","-1","1","0","[]","0","0","3","","","","","","","",""
"pit-trial","67","565205","0.0-2.0-14.1-3.1","battery-v0.2","","""event"",""trial"",""time""
""fullscreenenter"",""1"",""1473""
","
","
","""event"",""trial"",""time""
""fullscreenenter"",""1"",""1473""
","
","","","-1","","","23","20691","7692","&#9826;","elianto","#f73b6a7A","-1","-1","1","-10","[]","0","0","3","","","","","","","",""
"pit-trial","68","568594","0.0-2.0-14.1-4.1","battery-v0.2","","""event"",""trial"",""time""
""fullscreenenter"",""1"",""1473""
","
","
","""event"",""trial"",""time""
""fullscreenenter"",""1"",""1473""
","
","","","535.6000000238419","","","23","20691","7692","&#9826;","elianto","#f73b6a7A","-1"," ","0","-10","[1386.5]","1","0","3","","","","","","","",""
"pit-trial","69","573448","0.0-2.0-14.2-0.2","battery-v0.2","","""event"",""trial"",""time""
""fullscreenenter"",""1"",""1473""
","
","
","""event"",""trial"",""time""
""fullscreenenter"",""1"",""1473""
","
","","","-1","","","23","20691","7692","&#9826;","elianto","#f73b6a7A","-1","-1","1","0","[]","0","0","3","","","","","","","",""
"pit-trial","70","578301","0.0-2.0-14.2-1.2","battery-v0.2","","""event"",""trial"",""time""
""fullscreenenter"",""1"",""1473""
","
","
","""event"",""trial"",""time""
""fullscreenenter"",""1"",""1473""
","
","","","-1","","","23","20691","7692","&#9826;","elianto","#f73b6a7A","-1","-1","1","0","[]","0","0","3","","","","","","","",""
"pit-trial","71","583153","0.0-2.0-14.2-2.2","battery-v0.2","","""event"",""trial"",""time""
""fullscreenenter"",""1"",""1473""
","
","
","""event"",""trial"",""time""
""fullscreenenter"",""1"",""1473""
","
","","","-1","","","23","20691","7692","&#9826;","elianto","#f73b6a7A","-1","-1","1","0","[]","0","0","3","","","","","","","",""
"pit-trial","72","588007","0.0-2.0-14.2-3.2","battery-v0.2","","""event"",""trial"",""time""
""fullscreenenter"",""1"",""1473""
","
","
","""event"",""trial"",""time""
""fullscreenenter"",""1"",""1473""
","
","","","-1","","","23","20691","7692","&#9826;","elianto","#f73b6a7A","-1","-1","1","-10","[]","0","0","3","","","","","","","",""
"pit-trial","73","592859","0.0-2.0-14.2-4.2","battery-v0.2","","""event"",""trial"",""time""
""fullscreenenter"",""1"",""1473""
","
","
","""event"",""trial"",""time""
""fullscreenenter"",""1"",""1473""
","
","","","-1","","","23","20691","7692","&#9826;","elianto","#f73b6a7A","-1","-1","1","0","[]","0","0","3","","","","","","","",""
"pit-trial","74","597713","0.0-2.0-14.3-0.3","battery-v0.2","","""event"",""trial"",""time""
""fullscreenenter"",""1"",""1473""
","
","
","""event"",""trial"",""time""
""fullscreenenter"",""1"",""1473""
","
","","","-1","","","23","20691","7692","&#9826;","elianto","#f73b6a7A","-1","-1","1","0","[]","0","0","3","","","","","","","",""
"pit-trial","75","602566","0.0-2.0-14.3-1.3","battery-v0.2","","""event"",""trial"",""time""
""fullscreenenter"",""1"",""1473""
","
","
","""event"",""trial"",""time""
""fullscreenenter"",""1"",""1473""
","
","","","-1","","","23","20691","7692","&#9826;","elianto","#f73b6a7A","-1","-1","1","0","[]","0","0","3","","","","","","","",""
"pit-trial","76","607419","0.0-2.0-14.3-2.3","battery-v0.2","","""event"",""trial"",""time""
""fullscreenenter"",""1"",""1473""
","
","
","""event"",""trial"",""time""
""fullscreenenter"",""1"",""1473""
","
","","","-1","","","23","20691","7692","&#9826;","elianto","#f73b6a7A","-1","-1","1","0","[]","0","0","3","","","","","","","",""
"pit-trial","77","612272","0.0-2.0-14.3-3.3","battery-v0.2","","""event"",""trial"",""time""
""fullscreenenter"",""1"",""1473""
","
","
","""event"",""trial"",""time""
""fullscreenenter"",""1"",""1473""
","
","","","-1","","","23","20691","7692","&#9826;","elianto","#f73b6a7A","-1","-1","1","-10","[]","0","0","3","","","","","","","",""
"pit-trial","78","617125","0.0-2.0-14.3-4.3","battery-v0.2","","""event"",""trial"",""time""
""fullscreenenter"",""1"",""1473""
","
","
","""event"",""trial"",""time""
""fullscreenenter"",""1"",""1473""
","
","","","-1","","","23","20691","7692","&#9826;","elianto","#f73b6a7A","-1","-1","1","0","[]","0","0","3","","","","","","","",""
"call-function","79","617127","0.0-2.0-15.0","battery-v0.2","","""event"",""trial"",""time""
""fullscreenenter"",""1"",""1473""
","
","
","""event"",""trial"",""time""
""fullscreenenter"",""1"",""1473""
","
","","","","","","","","","","","","","","","","","","","","","","","","","","",""
"pit-instructions","80","647777","0.0-2.0-16.0","battery-v0.2","","""event"",""trial"",""time""
""fullscreenenter"",""1"",""1473""
","
","
","""event"",""trial"",""time""
""fullscreenenter"",""1"",""1473""
","
","","[{""page_index"":0,""viewing_time"":11254.399999976158},{""page_index"":1,""viewing_time"":9172.100000023842},{""page_index"":2,""viewing_time"":4830.199999928474},{""page_index"":3,""viewing_time"":5392.900000095367}]","30649.799999952316","","","","","","","","","","","","","","","","","","","","","","","",""
"pit-trial","81","652637","0.0-2.0-17.0-0.0","battery-v0.2","","""event"",""trial"",""time""
""fullscreenenter"",""1"",""1473""
","
","
","""event"",""trial"",""time""
""fullscreenenter"",""1"",""1473""
","
","","","-1","","","23","20691","7692","&#9789;","elianto","#f73b6a7A"," ","-1","0","-10","[]","0","0","4","","","","","","","",""
"pit-trial","82","657519","0.0-2.0-17.0-1.0","battery-v0.2","","""event"",""trial"",""time""
""fullscreenenter"",""1"",""1473""
","
","
","""event"",""trial"",""time""
""fullscreenenter"",""1"",""1473""
","
","","","-1","","","23","20691","7692","&#9789;","elianto","#f73b6a7A"," ","-1","0","-10","[]","0","0","4","","","","","","","",""
"pit-trial","83","660729","0.0-2.0-17.0-2.0","battery-v0.2","","""event"",""trial"",""time""
""fullscreenenter"",""1"",""1473""
","
","
","""event"",""trial"",""time""
""fullscreenenter"",""1"",""1473""
","
","","","352.1999999284744","","","23","20691","7692","&#9789;","elianto","#f73b6a7A"," "," ","1","0","[1202.3999999761581]","1","0","4","","","","","","","",""
"pit-trial","84","663703","0.0-2.0-17.0-3.0","battery-v0.2","","""event"",""trial"",""time""
""fullscreenenter"",""1"",""1473""
","
","
","""event"",""trial"",""time""
""fullscreenenter"",""1"",""1473""
","
","","","113.20000004768372","","","23","20691","7692","&#9789;","elianto","#f73b6a7A"," "," ","1","-10","[968.8999999761581]","1","0","4","","","","","","","",""
"pit-trial","85","667396","0.0-2.0-17.0-4.0","battery-v0.2","","""event"",""trial"",""time""
""fullscreenenter"",""1"",""1473""
","
","
","""event"",""trial"",""time""
""fullscreenenter"",""1"",""1473""
","
","","","828.5","","","23","20691","7692","&#9789;","elianto","#f73b6a7A"," "," ","1","0","[1682.5]","1","0","4","","","","","","","",""
"pit-trial","86","672263","0.0-2.0-17.1-0.1","battery-v0.2","","""event"",""trial"",""time""
""fullscreenenter"",""1"",""1473""
","
","
","""event"",""trial"",""time""
""fullscreenenter"",""1"",""1473""
","
","","","-1","","","23","20691","7692","&#9789;","elianto","#f73b6a7A"," ","-1","0","-10","[]","0","0","4","","","","","","","",""
"pit-trial","87","675636","0.0-2.0-17.1-1.1","battery-v0.2","","""event"",""trial"",""time""
""fullscreenenter"",""1"",""1473""
","
","
","""event"",""trial"",""time""
""fullscreenenter"",""1"",""1473""
","
","","","505.2999999523163","","","23","20691","7692","&#9789;","elianto","#f73b6a7A"," "," ","1","0","[1355.7000000476837]","1","0","4","","","","","","","",""
"pit-trial","88","680490","0.0-2.0-17.1-2.1","battery-v0.2","","""event"",""trial"",""time""
""fullscreenenter"",""1"",""1473""
","
","
","""event"",""trial"",""time""
""fullscreenenter"",""1"",""1473""
","
","","","-1","","","23","20691","7692","&#9789;","elianto","#f73b6a7A"," ","-1","0","-10","[]","0","0","4","","","","","","","",""
"pit-trial","89","685343","0.0-2.0-17.1-3.1","battery-v0.2","","""event"",""trial"",""time""
""fullscreenenter"",""1"",""1473""
","
","
","""event"",""trial"",""time""
""fullscreenenter"",""1"",""1473""
","
","","","-1","","","23","20691","7692","&#9789;","elianto","#f73b6a7A"," ","-1","0","0","[2940.100000023842]","1","0","4","","","","","","","",""
"pit-trial","90","690196","0.0-2.0-17.1-4.1","battery-v0.2","","""event"",""trial"",""time""
""fullscreenenter"",""1"",""1473""
","
","
","""event"",""trial"",""time""
""fullscreenenter"",""1"",""1473""
","
","","","-1","","","23","20691","7692","&#9789;","elianto","#f73b6a7A"," ","-1","0","-10","[]","0","0","4","","","","","","","",""
"pit-trial","91","693626","0.0-2.0-17.2-0.2","battery-v0.2","","""event"",""trial"",""time""
""fullscreenenter"",""1"",""1473""
","
","
","""event"",""trial"",""time""
""fullscreenenter"",""1"",""1473""
","
","","","576.8999999761581","","","23","20691","7692","&#9789;","elianto","#f73b6a7A"," "," ","1","0","[1427.3999999761581]","1","0","4","","","","","","","",""
"pit-trial","92","697022","0.0-2.0-17.2-1.2","battery-v0.2","","""event"",""trial"",""time""
""fullscreenenter"",""1"",""1473""
","
","
","""event"",""trial"",""time""
""fullscreenenter"",""1"",""1473""
","
","","","542.9000000953674","","","23","20691","7692","&#9789;","elianto","#f73b6a7A"," "," ","1","0","[1393.3000000715256]","1","0","4","","","","","","","",""
"pit-trial","93","701875","0.0-2.0-17.2-2.2","battery-v0.2","","""event"",""trial"",""time""
""fullscreenenter"",""1"",""1473""
","
","
","""event"",""trial"",""time""
""fullscreenenter"",""1"",""1473""
","
","","","-1","","","23","20691","7692","&#9789;","elianto","#f73b6a7A"," ","-1","0","-10","[]","0","0","4","","","","","","","",""
"pit-trial","94","704956","0.0-2.0-17.2-3.2","battery-v0.2","","""event"",""trial"",""time""
""fullscreenenter"",""1"",""1473""
","
","
","""event"",""trial"",""time""
""fullscreenenter"",""1"",""1473""
","
","","","228.60000002384186","","","23","20691","7692","&#9789;","elianto","#f73b6a7A"," "," ","1","-10","[1078.8999999761581]","1","0","4","","","","","","","",""
"pit-trial","95","708863","0.0-2.0-17.2-4.2","battery-v0.2","","""event"",""trial"",""time""
""fullscreenenter"",""1"",""1473""
","
","
","""event"",""trial"",""time""
""fullscreenenter"",""1"",""1473""
","
","","","1054.5","","","23","20691","7692","&#9789;","elianto","#f73b6a7A"," "," ","1","0","[1904.7000000476837]","1","0","4","","","","","","","",""
"pit-trial","96","713589","0.0-2.0-17.3-0.3","battery-v0.2","","""event"",""trial"",""time""
""fullscreenenter"",""1"",""1473""
","
","
","""event"",""trial"",""time""
""fullscreenenter"",""1"",""1473""
","
","","","1873.3000000715256","","","23","20691","7692","&#9789;","elianto","#f73b6a7A"," "," ","1","0","[2723.4000000953674]","1","0","4","","","","","","","",""
"pit-trial","97","718442","0.0-2.0-17.3-1.3","battery-v0.2","","""event"",""trial"",""time""
""fullscreenenter"",""1"",""1473""
","
","
","""event"",""trial"",""time""
""fullscreenenter"",""1"",""1473""
","
","","","-1","","","23","20691","7692","&#9789;","elianto","#f73b6a7A"," ","-1","0","-10","[]","0","0","4","","","","","","","",""
"pit-trial","98","722682","0.0-2.0-17.3-2.3","battery-v0.2","","""event"",""trial"",""time""
""fullscreenenter"",""1"",""1473""
","
","
","""event"",""trial"",""time""
""fullscreenenter"",""1"",""1473""
","
","","","1386.2999999523163","","","23","20691","7692","&#9789;","elianto","#f73b6a7A"," "," ","1","0","[2237.3000000715256]","1","0","4","","","","","","","",""
"pit-trial","99","727535","0.0-2.0-17.3-3.3","battery-v0.2","","""event"",""trial"",""time""
""fullscreenenter"",""1"",""1473""
","
","
","""event"",""trial"",""time""
""fullscreenenter"",""1"",""1473""
","
","","","-1","","","23","20691","7692","&#9789;","elianto","#f73b6a7A"," ","-1","0","0","[3492.7999999523163]","1","0","4","","","","","","","",""
"pit-trial","100","731018","0.0-2.0-17.3-4.3","battery-v0.2","","""event"",""trial"",""time""
""fullscreenenter"",""1"",""1473""
","
","
","""event"",""trial"",""time""
""fullscreenenter"",""1"",""1473""
","
","","","630.8000000715256","","","23","20691","7692","&#9789;","elianto","#f73b6a7A"," "," ","1","0","[1481.1000000238419]","1","0","4","","","","","","","",""
"call-function","101","731020","0.0-2.0-18.0","battery-v0.2","","""event"",""trial"",""time""
""fullscreenenter"",""1"",""1473""
","
","
","""event"",""trial"",""time""
""fullscreenenter"",""1"",""1473""
","
","","","","","","","","","","","","","","","","","","","","","","","","","","",""
"pit-instructions","102","796782","0.0-2.0-19.0","battery-v0.2","","""event"",""trial"",""time""
""fullscreenenter"",""1"",""1473""
","
","
","""event"",""trial"",""time""
""fullscreenenter"",""1"",""1473""
","
","","[{""page_index"":0,""viewing_time"":6811.699999928474},{""page_index"":1,""viewing_time"":5640},{""page_index"":2,""viewing_time"":9328.600000023842},{""page_index"":3,""viewing_time"":8275.899999976158},{""page_index"":4,""viewing_time"":8580},{""page_index"":5,""viewing_time"":8072.200000047684},{""page_index"":6,""viewing_time"":8148.799999952316},{""page_index"":7,""viewing_time"":6330.399999976158},{""page_index"":8,""viewing_time"":4574.300000071526}]","65762.09999990463","","","","","","","","","","","","","","","","","","","","","","","",""
"pit-comprehension","103","801253","0.0-2.0-20.0-0.0","battery-v0.2","","""event"",""trial"",""time""
""fullscreenenter"",""1"",""1473""
","
","
","""event"",""trial"",""time""
""fullscreenenter"",""1"",""1473""
","
","","","4469.700000047684","[""SPACE""]","0","23","20691","7692","","","","","","","","","","","","","","","","","","",""
"pit-instructions","104","804402","0.0-2.0-20.0-1.0","battery-v0.2","","""event"",""trial"",""time""
""fullscreenenter"",""1"",""1473""
","
","
","""event"",""trial"",""time""
""fullscreenenter"",""1"",""1473""
","
","","[{""page_index"":0,""viewing_time"":3124.8000000715256}]","3125","","","","","","","","","","","","","","","","","","","","","","","",""
"pit-comprehension","105","809466","0.0-2.0-21.0-0.0","battery-v0.2","","""event"",""trial"",""time""
""fullscreenenter"",""1"",""1473""
","
","
","""event"",""trial"",""time""
""fullscreenenter"",""1"",""1473""
","
","","","5062.299999952316","[""10""]","0","23","20691","7692","","","","","","","","","","","","","","","","","","",""
"pit-instructions","106","811205","0.0-2.0-21.0-1.0","battery-v0.2","","""event"",""trial"",""time""
""fullscreenenter"",""1"",""1473""
","
","
","""event"",""trial"",""time""
""fullscreenenter"",""1"",""1473""
","
","","[{""page_index"":0,""viewing_time"":1719.3999999761581}]","1719.7999999523163","","","","","","","","","","","","","","","","","","","","","","","",""
"pit-comprehension","107","817663","0.0-2.0-22.0-0.0","battery-v0.2","","""event"",""trial"",""time""
""fullscreenenter"",""1"",""1473""
","
","
","""event"",""trial"",""time""
""fullscreenenter"",""1"",""1473""
","
","","","6456.200000047684","[""-10""]","1","23","20691","7692","","","","","","","","","","","","","","","","","","",""
"pit-instructions","108","821645","0.0-2.0-22.0-1.0","battery-v0.2","","""event"",""trial"",""time""
""fullscreenenter"",""1"",""1473""
","
","
","""event"",""trial"",""time""
""fullscreenenter"",""1"",""1473""
","
","","[{""page_index"":0,""viewing_time"":3961.7000000476837}]","3961.7999999523163","","","","","","","","","","","","","","","","","","","","","","","",""
"pit-instructions","109","823167","0.0-2.0-22.0-2.0-0.0","battery-v0.2","","""event"",""trial"",""time""
""fullscreenenter"",""1"",""1473""
","
","
","""event"",""trial"",""time""
""fullscreenenter"",""1"",""1473""
","
","","[{""page_index"":0,""viewing_time"":1521.3999999761581}]","1521.5999999046326","","","","","","","","","","","","","","","","","","","","","","","",""
"pit-comprehension","110","829596","0.0-2.0-22.1-0.1","battery-v0.2","","""event"",""trial"",""time""
""fullscreenenter"",""1"",""1473""
","
","
","""event"",""trial"",""time""
""fullscreenenter"",""1"",""1473""
","
","","","6427.200000047684","[""0""]","0","23","20691","7692","","","","","","","","","","","","","","","","","","",""
"pit-instructions","111","831132","0.0-2.0-22.1-1.1","battery-v0.2","","""event"",""trial"",""time""
""fullscreenenter"",""1"",""1473""
","
","
","""event"",""trial"",""time""
""fullscreenenter"",""1"",""1473""
","
","","[{""page_index"":0,""viewing_time"":1512.0999999046326}]","1512.2999999523163","","","","","","","","","","","","","","","","","","","","","","","",""
"pit-comprehension","112","839556","0.0-2.0-23.0-0.0","battery-v0.2","","""event"",""trial"",""time""
""fullscreenenter"",""1"",""1473""
","
","
","""event"",""trial"",""time""
""fullscreenenter"",""1"",""1473""
","
","","","8422.299999952316","[""True""]","0","23","20691","7692","","","","","","","","","","","","","","","","","","",""
"pit-instructions","113","841176","0.0-2.0-23.0-1.0","battery-v0.2","","""event"",""trial"",""time""
""fullscreenenter"",""1"",""1473""
","
","
","""event"",""trial"",""time""
""fullscreenenter"",""1"",""1473""
","
","","[{""page_index"":0,""viewing_time"":1594.1000000238419}]","1594.4000000953674","","","","","","","","","","","","","","","","","","","","","","","",""
"pit-comprehension","114","849050","0.0-2.0-24.0-0.0","battery-v0.2","","""event"",""trial"",""time""
""fullscreenenter"",""1"",""1473""
","
","
","""event"",""trial"",""time""
""fullscreenenter"",""1"",""1473""
","
","","","7872.600000023842","[""True""]","0","23","20691","7692","","","","","","","","","","","","","","","","","","",""
"pit-instructions","115","851682","0.0-2.0-24.0-1.0","battery-v0.2","","""event"",""trial"",""time""
""fullscreenenter"",""1"",""1473""
","
","
","""event"",""trial"",""time""
""fullscreenenter"",""1"",""1473""
","
","","[{""page_index"":0,""viewing_time"":2607.100000023842}]","2607.2000000476837","","","","","","","","","","","","","","","","","","","","","","","",""
"pit-comprehension","116","858966","0.0-2.0-25.0-0.0","battery-v0.2","","""event"",""trial"",""time""
""fullscreenenter"",""1"",""1473""
","
","
","""event"",""trial"",""time""
""fullscreenenter"",""1"",""1473""
","
","","","7282.299999952316","[""True""]","0","23","20691","7692","","","","","","","","","","","","","","","","","","",""
"pit-instructions","117","860450","0.0-2.0-25.0-1.0","battery-v0.2","","""event"",""trial"",""time""
""fullscreenenter"",""1"",""1473""
","
","
","""event"",""trial"",""time""
""fullscreenenter"",""1"",""1473""
","
","","[{""page_index"":0,""viewing_time"":1462.3999999761581}]","1462.6000000238419","","","","","","","","","","","","","","","","","","","","","","","",""
"pit-comprehension","118","865003","0.0-2.0-26.0-0.0","battery-v0.2","","""event"",""trial"",""time""
""fullscreenenter"",""1"",""1473""
","
","
","""event"",""trial"",""time""
""fullscreenenter"",""1"",""1473""
","
","","","4551.200000047684","[""False""]","0","23","20691","7692","","","","","","","","","","","","","","","","","","",""
"pit-instructions","119","866496","0.0-2.0-26.0-1.0","battery-v0.2","","""event"",""trial"",""time""
""fullscreenenter"",""1"",""1473""
","
","
","""event"",""trial"",""time""
""fullscreenenter"",""1"",""1473""
","
","","[{""page_index"":0,""viewing_time"":1470.6999999284744}]","1471","","","","","","","","","","","","","","","","","","","","","","","",""
"pit-instructions","120","884188","0.0-3.0","battery-v0.2","","""event"",""trial"",""time""
""fullscreenenter"",""1"",""1473""
","
","
","""event"",""trial"",""time""
""fullscreenenter"",""1"",""1473""
","
","","[{""page_index"":0,""viewing_time"":3508.600000023842},{""page_index"":1,""viewing_time"":6689.800000071526},{""page_index"":2,""viewing_time"":7492.099999904633}]","17690.600000023842","","","","","","","","","","","","","","","","","","","","","","","",""
"pit-trial","121","887933","0.0-4.0","battery-v0.2","","""event"",""trial"",""time""
""fullscreenenter"",""1"",""1473""
","
","
","""event"",""trial"",""time""
""fullscreenenter"",""1"",""1473""
","
","","","877.1999999284744","","","23","20691","7692","&#9730;","elianto","#3366ff99"," "," ","1","+10","[1730.5]","1","1","","","20691","1","1","1","win","go","0"
"pit-trial","122","891471","0.0-5.0","battery-v0.2","","""event"",""trial"",""time""
""fullscreenenter"",""1"",""1473""
","
","
","""event"",""trial"",""time""
""fullscreenenter"",""1"",""1473""
","
","","","675.1999999284744","","","23","20691","7692","&#9733;","elianto","#3366ff99","-1"," ","0","0","[1526.3999999761581]","1","1","","","20691","2","2","2","win","no-go","0"
"pit-trial","123","896337","0.0-6.0","battery-v0.2","","""event"",""trial"",""time""
""fullscreenenter"",""1"",""1473""
","
","
","""event"",""trial"",""time""
""fullscreenenter"",""1"",""1473""
","
","","","-1","","","23","20691","7692","&#9728;","elianto","#f73b6a7A","-1","-1","1","0","[]","0","1","","","20691","3","0","4","lose","no-go","0"
"pit-trial","124","900573","0.0-7.0","battery-v0.2","","""event"",""trial"",""time""
""fullscreenenter"",""1"",""1473""
","
","
","""event"",""trial"",""time""
""fullscreenenter"",""1"",""1473""
","
","","","1372.5999999046326","","","23","20691","7692","&#9752;","elianto","#f73b6a7A"," "," ","1","0","[2224.399999976158]","1","1","","","20691","4","3","3","lose","go","0"
"pit-trial","125","904816","0.0-8.0","battery-v0.2","","""event"",""trial"",""time""
""fullscreenenter"",""1"",""1473""
","
","
","""event"",""trial"",""time""
""fullscreenenter"",""1"",""1473""
","
","","","1374.6999999284744","","","23","20691","7692","&#9752;","elianto","#f73b6a7A"," "," ","1","-10","[2225]","1","1","","","20691","5","3","3","lose","go","1"
"pit-trial","126","908231","0.0-9.0","battery-v0.2","","""event"",""trial"",""time""
""fullscreenenter"",""1"",""1473""
","
","
","""event"",""trial"",""time""
""fullscreenenter"",""1"",""1473""
","
","","","555.1000000238419","","","23","20691","7692","&#9730;","elianto","#3366ff99"," "," ","1","0","[1409.2000000476837]","1","1","","","20691","6","1","1","win","go","1"
"pit-trial","127","913092","0.0-10.0","battery-v0.2","","""event"",""trial"",""time""
""fullscreenenter"",""1"",""1473""
","
","
","""event"",""trial"",""time""
""fullscreenenter"",""1"",""1473""
","
","","","-1","","","23","20691","7692","&#9728;","elianto","#f73b6a7A","-1","-1","1","-10","[]","0","1","","","20691","7","0","4","lose","no-go","1"
"pit-trial","128","916651","0.0-11.0","battery-v0.2","","""event"",""trial"",""time""
""fullscreenenter"",""1"",""1473""
","
","
","""event"",""trial"",""time""
""fullscreenenter"",""1"",""1473""
","
","","","705","","","23","20691","7692","&#9733;","elianto","#3366ff99","-1"," ","0","+10","[1556.3000000715256]","1","1","","","20691","8","2","2","win","no-go","1"
"pit-trial","129","920158","0.0-12.0","battery-v0.2","","""event"",""trial"",""time""
""fullscreenenter"",""1"",""1473""
","
","
","""event"",""trial"",""time""
""fullscreenenter"",""1"",""1473""
","
","","","654.6000000238419","","","23","20691","7692","&#9733;","elianto","#3366ff99","-1"," ","0","0","[1505]","1","1","","","20691","9","2","2","win","no-go","0"
"pit-trial","130","924615","0.0-13.0","battery-v0.2","","""event"",""trial"",""time""
""fullscreenenter"",""1"",""1473""
","
","
","""event"",""trial"",""time""
""fullscreenenter"",""1"",""1473""
","
","","","1603.5","","","23","20691","7692","&#9730;","elianto","#3366ff99"," "," ","1","+10","[2453.7999999523163]","1","1","","","20691","10","1","1","win","go","0"
"pit-trial","131","929468","0.0-14.0","battery-v0.2","","""event"",""trial"",""time""
""fullscreenenter"",""1"",""1473""
","
","
","""event"",""trial"",""time""
""fullscreenenter"",""1"",""1473""
","
","","","-1","","","23","20691","7692","&#9752;","elianto","#f73b6a7A"," ","-1","0","-10","[]","0","1","","","20691","11","3","3","lose","go","0"
"pit-trial","132","933258","0.0-15.0","battery-v0.2","","""event"",""trial"",""time""
""fullscreenenter"",""1"",""1473""
","
","
","""event"",""trial"",""time""
""fullscreenenter"",""1"",""1473""
","
","","","937.2999999523163","","","23","20691","7692","&#9728;","elianto","#f73b6a7A","-1"," ","0","-10","[1787.4000000953674]","1","1","","","20691","12","0","4","lose","no-go","0"
"pit-trial","133","936646","0.0-16.0","battery-v0.2","","""event"",""trial"",""time""
""fullscreenenter"",""1"",""1473""
","
","
","""event"",""trial"",""time""
""fullscreenenter"",""1"",""1473""
","
","","","534.5999999046326","","","23","20691","7692","&#9733;","elianto","#3366ff99","-1"," ","0","0","[1385.5999999046326]","1","1","","","20691","13","2","2","win","no-go","0"
"pit-trial","134","940863","0.0-17.0","battery-v0.2","","""event"",""trial"",""time""
""fullscreenenter"",""1"",""1473""
","
","
","""event"",""trial"",""time""
""fullscreenenter"",""1"",""1473""
","
","","","1364.6999999284744","","","23","20691","7692","&#9752;","elianto","#f73b6a7A"," "," ","1","0","[2214.899999976158]","1","1","","","20691","14","3","3","lose","go","0"
"pit-trial","135","944421","0.0-18.0","battery-v0.2","","""event"",""trial"",""time""
""fullscreenenter"",""1"",""1473""
","
","
","""event"",""trial"",""time""
""fullscreenenter"",""1"",""1473""
","
","","","704.9000000953674","","","23","20691","7692","&#9728;","elianto","#f73b6a7A","-1"," ","0","0","[1555.2000000476837]","1","1","","","20691","15","0","4","lose","no-go","1"
"pit-trial","136","947654","0.0-19.0","battery-v0.2","","""event"",""trial"",""time""
""fullscreenenter"",""1"",""1473""
","
","
","""event"",""trial"",""time""
""fullscreenenter"",""1"",""1473""
","
","","","381","","","23","20691","7692","&#9730;","elianto","#3366ff99"," "," ","1","+10","[1231.1000000238419]","1","1","","","20691","16","1","1","win","go","0"
"pit-trial","137","950881","0.0-20.0","battery-v0.2","","""event"",""trial"",""time""
""fullscreenenter"",""1"",""1473""
","
","
","""event"",""trial"",""time""
""fullscreenenter"",""1"",""1473""
","
","","","374","","","23","20691","7692","&#9733;","elianto","#3366ff99","-1"," ","0","0","[1224.4000000953674]","1","1","","","20691","17","2","2","win","no-go","0"
"pit-trial","138","954112","0.0-21.0","battery-v0.2","","""event"",""trial"",""time""
""fullscreenenter"",""1"",""1473""
","
","
","""event"",""trial"",""time""
""fullscreenenter"",""1"",""1473""
","
","","","376.90000009536743","","","23","20691","7692","&#9730;","elianto","#3366ff99"," "," ","1","+10","[1228.7000000476837]","1","1","","","20691","18","1","1","win","go","0"
"pit-trial","139","958964","0.0-22.0","battery-v0.2","","""event"",""trial"",""time""
""fullscreenenter"",""1"",""1473""
","
","
","""event"",""trial"",""time""
""fullscreenenter"",""1"",""1473""
","
","","","-1","","","23","20691","7692","&#9728;","elianto","#f73b6a7A","-1","-1","1","0","[]","0","1","","","20691","19","0","4","lose","no-go","0"
"pit-trial","140","963817","0.0-23.0","battery-v0.2","","""event"",""trial"",""time""
""fullscreenenter"",""1"",""1473""
","
","
","""event"",""trial"",""time""
""fullscreenenter"",""1"",""1473""
","
","","","-1","","","23","20691","7692","&#9752;","elianto","#f73b6a7A"," ","-1","0","-10","[]","0","1","","","20691","20","3","3","lose","go","0"
"pit-instructions","141","977063","0.0-24.0","battery-v0.2","","""event"",""trial"",""time""
""fullscreenenter"",""1"",""1473""
","
","
","""event"",""trial"",""time""
""fullscreenenter"",""1"",""1473""
","
","","[{""page_index"":0,""viewing_time"":6037.399999976158},{""page_index"":1,""viewing_time"":7207.400000095367}]","13245","","","","","","","","","","","","","","","","","","","","","","","",""
"pit-trial","142","980436","0.0-25.0","battery-v0.2","","""event"",""trial"",""time""
""fullscreenenter"",""1"",""1473""
","
","
","""event"",""trial"",""time""
""fullscreenenter"",""1"",""1473""
","
","","","504.3000000715256","","","23","20691","7692","r","elianto","#3366ff99","-1"," ","0","0","[1355.7000000476837]","1","2","","","20691","21","1","2","win","no-go","0"
"pit-trial","143","984886","0.0-26.0","battery-v0.2","","""event"",""trial"",""time""
""fullscreenenter"",""1"",""1473""
","
","
","""event"",""trial"",""time""
""fullscreenenter"",""1"",""1473""
","
","","","1584.6000000238419","","","23","20691","7692","h","elianto","#f73b6a7A","-1"," ","0","0","[2437.5]","1","2","","","20691","22","3","4","lose","no-go","1"
"pit-trial","144","988984","0.0-27.0","battery-v0.2","","""event"",""trial"",""time""
""fullscreenenter"",""1"",""1473""
","
","
","""event"",""trial"",""time""
""fullscreenenter"",""1"",""1473""
","
","","","1235.6000000238419","","","23","20691","7692","y","elianto","#f73b6a7A"," "," ","1","0","[2086.8000000715256]","1","2","","","20691","23","2","3","lose","go","0"
"pit-trial","145","992718","0.0-28.0","battery-v0.2","","""event"",""trial"",""time""
""fullscreenenter"",""1"",""1473""
","
","
","""event"",""trial"",""time""
""fullscreenenter"",""1"",""1473""
","
","","","874.2999999523163","","","23","20691","7692","m","elianto","#f73b6a7A"," "," ","1","0","[1726.5]","1","2","","","20691","24","0","3","lose","go","0"
"pit-trial","146","996100","0.0-29.0","battery-v0.2","","""event"",""trial"",""time""
""fullscreenenter"",""1"",""1473""
","
","
","""event"",""trial"",""time""
""fullscreenenter"",""1"",""1473""
","
","","","518.2000000476837","","","23","20691","7692","m","elianto","#f73b6a7A"," "," ","1","0","[1369.5]","1","2","","","20691","25","0","3","lose","go","0"
"pit-trial","147","999426","0.0-30.0","battery-v0.2","","""event"",""trial"",""time""
""fullscreenenter"",""1"",""1473""
","
","
","""event"",""trial"",""time""
""fullscreenenter"",""1"",""1473""
","
","","","458.8000000715256","","","23","20691","7692","h","elianto","#f73b6a7A","-1"," ","0","-10","[1311.7000000476837]","1","2","","","20691","26","3","4","lose","no-go","0"
"pit-trial","148","1003058","0.0-31.0","battery-v0.2","","""event"",""trial"",""time""
""fullscreenenter"",""1"",""1473""
","
","
","""event"",""trial"",""time""
""fullscreenenter"",""1"",""1473""
","
","","","765","","","23","20691","7692","y","elianto","#f73b6a7A"," "," ","1","-10","[1615.9000000953674]","1","2","","","20691","27","2","3","lose","go","1"
"pit-trial","149","1006907","0.0-32.0","battery-v0.2","","""event"",""trial"",""time""
""fullscreenenter"",""1"",""1473""
","
","
","""event"",""trial"",""time""
""fullscreenenter"",""1"",""1473""
","
","","","990","","","23","20691","7692","r","elianto","#3366ff99","-1"," ","0","0","[1840.7999999523163]","1","2","","","20691","28","1","2","win","no-go","0"
"pit-trial","150","1010498","0.0-33.0","battery-v0.2","","""event"",""trial"",""time""
""fullscreenenter"",""1"",""1473""
","
","
","""event"",""trial"",""time""
""fullscreenenter"",""1"",""1473""
","
","","","737.6000000238419","","","23","20691","7692","y","elianto","#f73b6a7A"," "," ","1","0","[1588.8999999761581]","1","2","","","20691","29","2","3","lose","go","0"
"pit-trial","151","1013815","0.0-34.0","battery-v0.2","","""event"",""trial"",""time""
""fullscreenenter"",""1"",""1473""
","
","
","""event"",""trial"",""time""
""fullscreenenter"",""1"",""1473""
","
","","","464.5","","","23","20691","7692","r","elianto","#3366ff99","-1"," ","0","0","[1315]","1","2","","","20691","30","1","2","win","no-go","0"
"pit-trial","152","1017553","0.0-35.0","battery-v0.2","","""event"",""trial"",""time""
""fullscreenenter"",""1"",""1473""
","
","
","""event"",""trial"",""time""
""fullscreenenter"",""1"",""1473""
","
","","","884","","","23","20691","7692","h","elianto","#f73b6a7A","-1"," ","0","-10","[1734.4000000953674]","1","2","","","20691","31","3","4","lose","no-go","0"
"pit-trial","153","1022406","0.0-36.0","battery-v0.2","","""event"",""trial"",""time""
""fullscreenenter"",""1"",""1473""
","
","
","""event"",""trial"",""time""
""fullscreenenter"",""1"",""1473""
","
","","","-1","","","23","20691","7692","m","elianto","#f73b6a7A"," ","-1","0","-10","[]","0","2","","","20691","32","0","3","lose","go","0"
"pit-trial","154","1026075","0.0-37.0","battery-v0.2","","""event"",""trial"",""time""
""fullscreenenter"",""1"",""1473""
","
","
","""event"",""trial"",""time""
""fullscreenenter"",""1"",""1473""
","
","","","816.5","","","23","20691","7692","r","elianto","#3366ff99","-1"," ","0","0","[1667]","1","2","","","20691","33","1","2","win","no-go","0"
"pit-trial","155","1030172","0.0-38.0","battery-v0.2","","""event"",""trial"",""time""
""fullscreenenter"",""1"",""1473""
","
","
","""event"",""trial"",""time""
""fullscreenenter"",""1"",""1473""
","
","","","1244.7000000476837","","","23","20691","7692","h","elianto","#f73b6a7A","-1"," ","0","-10","[2095]","1","2","","","20691","34","3","4","lose","no-go","0"
"pit-trial","156","1034518","0.0-39.0","battery-v0.2","","""event"",""trial"",""time""
""fullscreenenter"",""1"",""1473""
","
","
","""event"",""trial"",""time""
""fullscreenenter"",""1"",""1473""
","
","","","1492.7000000476837","","","23","20691","7692","y","elianto","#f73b6a7A"," "," ","1","0","[2343.600000023842]","1","2","","","20691","35","2","3","lose","go","0"
"pit-trial","157","1038602","0.0-40.0","battery-v0.2","","""event"",""trial"",""time""
""fullscreenenter"",""1"",""1473""
","
","
","""event"",""trial"",""time""
""fullscreenenter"",""1"",""1473""
","
","","","1230.1000000238419","","","23","20691","7692","m","elianto","#f73b6a7A"," "," ","1","0","[2080.6999999284744]","1","2","","","20691","36","0","3","lose","go","0"
"pit-trial","158","1043456","0.0-41.0","battery-v0.2","","""event"",""trial"",""time""
""fullscreenenter"",""1"",""1473""
","
","
","""event"",""trial"",""time""
""fullscreenenter"",""1"",""1473""
","
","","","-1","","","23","20691","7692","m","elianto","#f73b6a7A"," ","-1","0","0","[]","0","2","","","20691","37","0","3","lose","go","1"
"pit-trial","159","1047673","0.0-42.0","battery-v0.2","","""event"",""trial"",""time""
""fullscreenenter"",""1"",""1473""
","
","
","""event"",""trial"",""time""
""fullscreenenter"",""1"",""1473""
","
","","","1364.7999999523163","","","23","20691","7692","h","elianto","#f73b6a7A","-1"," ","0","-10","[2215]","1","2","","","20691","38","3","4","lose","no-go","0"
"pit-trial","160","1052512","0.0-43.0","battery-v0.2","","""event"",""trial"",""time""
""fullscreenenter"",""1"",""1473""
","
","
","""event"",""trial"",""time""
""fullscreenenter"",""1"",""1473""
","
","","","1986.7000000476837","","","23","20691","7692","y","elianto","#f73b6a7A"," "," ","1","0","[2837]","1","2","","","20691","39","2","3","lose","go","0"
"pit-trial","161","1056481","0.0-44.0","battery-v0.2","","""event"",""trial"",""time""
""fullscreenenter"",""1"",""1473""
","
","
","""event"",""trial"",""time""
""fullscreenenter"",""1"",""1473""
","
","","","1115.7999999523163","","","23","20691","7692","r","elianto","#3366ff99","-1"," ","0","0","[1966]","1","2","","","20691","40","1","2","win","no-go","0"
"pit-trial","162","1061334","0.0-45.0","battery-v0.2","","""event"",""trial"",""time""
""fullscreenenter"",""1"",""1473""
","
","
","""event"",""trial"",""time""
""fullscreenenter"",""1"",""1473""
","
","","","-1","","","23","20691","7692","h","elianto","#f73b6a7A","-1","-1","1","0","[]","0","2","","","20691","41","3","4","lose","no-go","0"
"pit-trial","163","1066187","0.0-46.0","battery-v0.2","","""event"",""trial"",""time""
""fullscreenenter"",""1"",""1473""
","
","
","""event"",""trial"",""time""
""fullscreenenter"",""1"",""1473""
","
","","","-1","","","23","20691","7692","r","elianto","#3366ff99","-1","-1","1","+10","[]","0","2","","","20691","42","1","2","win","no-go","0"
"pit-trial","164","1071041","0.0-47.0","battery-v0.2","","""event"",""trial"",""time""
""fullscreenenter"",""1"",""1473""
","
","
","""event"",""trial"",""time""
""fullscreenenter"",""1"",""1473""
","
","","","-1","","","23","20691","7692","m","elianto","#f73b6a7A"," ","-1","0","-10","[]","0","2","","","20691","43","0","3","lose","go","0"
"pit-trial","165","1074757","0.0-48.0","battery-v0.2","","""event"",""trial"",""time""
""fullscreenenter"",""1"",""1473""
","
","
","""event"",""trial"",""time""
""fullscreenenter"",""1"",""1473""
","
","","","862.7000000476837","","","23","20691","7692","y","elianto","#f73b6a7A"," "," ","1","0","[1713.2000000476837]","1","2","","","20691","44","2","3","lose","go","0"
"pit-trial","166","1079610","0.0-49.0","battery-v0.2","","""event"",""trial"",""time""
""fullscreenenter"",""1"",""1473""
","
","
","""event"",""trial"",""time""
""fullscreenenter"",""1"",""1473""
","
","","","-1","","","23","20691","7692","h","elianto","#f73b6a7A","-1","-1","1","0","[]","0","2","","","20691","45","3","4","lose","no-go","0"
"pit-trial","167","1084464","0.0-50.0","battery-v0.2","","""event"",""trial"",""time""
""fullscreenenter"",""1"",""1473""
","
","
","""event"",""trial"",""time""
""fullscreenenter"",""1"",""1473""
","
","","","-1","","","23","20691","7692","y","elianto","#f73b6a7A"," ","-1","0","-10","[]","0","2","","","20691","46","2","3","lose","go","0"
"pit-trial","168","1089316","0.0-51.0","battery-v0.2","","""event"",""trial"",""time""
""fullscreenenter"",""1"",""1473""
","
","
","""event"",""trial"",""time""
""fullscreenenter"",""1"",""1473""
","
","","","-1","","","23","20691","7692","r","elianto","#3366ff99","-1","-1","1","+10","[]","0","2","","","20691","47","1","2","win","no-go","0"
"pit-trial","169","1093263","0.0-52.0","battery-v0.2","","""event"",""trial"",""time""
""fullscreenenter"",""1"",""1473""
","
","
","""event"",""trial"",""time""
""fullscreenenter"",""1"",""1473""
","
","","","1093.1000000238419","","","23","20691","7692","m","elianto","#f73b6a7A"," "," ","1","0","[1943.6000000238419]","1","2","","","20691","48","0","3","lose","go","0"
"pit-trial","170","1098116","0.0-53.0","battery-v0.2","","""event"",""trial"",""time""
""fullscreenenter"",""1"",""1473""
","
","
","""event"",""trial"",""time""
""fullscreenenter"",""1"",""1473""
","
","","","-1","","","23","20691","7692","r","elianto","#3366ff99","-1","-1","1","+10","[]","0","2","","","20691","49","1","2","win","no-go","0"
"pit-trial","171","1102969","0.0-54.0","battery-v0.2","","""event"",""trial"",""time""
""fullscreenenter"",""1"",""1473""
","
","
","""event"",""trial"",""time""
""fullscreenenter"",""1"",""1473""
","
","","","-1","","","23","20691","7692","m","elianto","#f73b6a7A"," ","-1","0","-10","[]","0","2","","","20691","50","0","3","lose","go","0"
"pit-trial","172","1106532","0.0-55.0","battery-v0.2","","""event"",""trial"",""time""
""fullscreenenter"",""1"",""1473""
","
","
","""event"",""trial"",""time""
""fullscreenenter"",""1"",""1473""
","
","","","708.5","","","23","20691","7692","h","elianto","#f73b6a7A","-1"," ","0","-10","[1560]","1","2","","","20691","51","3","4","lose","no-go","0"
"pit-trial","173","1111386","0.0-56.0","battery-v0.2","","""event"",""trial"",""time""
""fullscreenenter"",""1"",""1473""
","
","
","""event"",""trial"",""time""
""fullscreenenter"",""1"",""1473""
","
","","","-1","","","23","20691","7692","y","elianto","#f73b6a7A"," ","-1","0","0","[]","0","2","","","20691","52","2","3","lose","go","1"
"pit-trial","174","1115289","0.0-57.0","battery-v0.2","","""event"",""trial"",""time""
""fullscreenenter"",""1"",""1473""
","
","
","""event"",""trial"",""time""
""fullscreenenter"",""1"",""1473""
","
","","","1050.5","","","23","20691","7692","y","elianto","#f73b6a7A"," "," ","1","0","[1900.5]","1","2","","","20691","53","2","3","lose","go","0"
"pit-trial","175","1120142","0.0-58.0","battery-v0.2","","""event"",""trial"",""time""
""fullscreenenter"",""1"",""1473""
","
","
","""event"",""trial"",""time""
""fullscreenenter"",""1"",""1473""
","
","","","-1","","","23","20691","7692","r","elianto","#3366ff99","-1","-1","1","0","[]","0","2","","","20691","54","1","2","win","no-go","1"
"pit-trial","176","1124995","0.0-59.0","battery-v0.2","","""event"",""trial"",""time""
""fullscreenenter"",""1"",""1473""
","
","
","""event"",""trial"",""time""
""fullscreenenter"",""1"",""1473""
","
","","","-1","","","23","20691","7692","m","elianto","#f73b6a7A"," ","-1","0","0","[]","0","2","","","20691","55","0","3","lose","go","1"
"pit-trial","177","1129008","0.0-60.0","battery-v0.2","","""event"",""trial"",""time""
""fullscreenenter"",""1"",""1473""
","
","
","""event"",""trial"",""time""
""fullscreenenter"",""1"",""1473""
","
","","","1160.2000000476837","","","23","20691","7692","h","elianto","#f73b6a7A","-1"," ","0","-10","[2010.7000000476837]","1","2","","","20691","56","3","4","lose","no-go","0"
"pit-trial","178","1132934","0.0-61.0","battery-v0.2","","""event"",""trial"",""time""
""fullscreenenter"",""1"",""1473""
","
","
","""event"",""trial"",""time""
""fullscreenenter"",""1"",""1473""
","
","","","1073.7999999523163","","","23","20691","7692","y","elianto","#f73b6a7A"," "," ","1","0","[1923.9000000953674]","1","2","","","20691","57","2","3","lose","go","0"
"pit-trial","179","1137787","0.0-62.0","battery-v0.2","","""event"",""trial"",""time""
""fullscreenenter"",""1"",""1473""
","
","
","""event"",""trial"",""time""
""fullscreenenter"",""1"",""1473""
","
","","","-1","","","23","20691","7692","h","elianto","#f73b6a7A","-1","-1","1","-10","[]","0","2","","","20691","58","3","4","lose","no-go","1"
"pit-trial","180","1141518","0.0-63.0","battery-v0.2","","""event"",""trial"",""time""
""fullscreenenter"",""1"",""1473""
","
","
","""event"",""trial"",""time""
""fullscreenenter"",""1"",""1473""
","
","","","876","","","23","20691","7692","z","elianto","#3366ff99"," "," ","1","+10","[1727.8999999761581]","1","2","","","20691","59","4","1","win","go","0"
"pit-trial","181","1146376","0.0-64.0","battery-v0.2","","""event"",""trial"",""time""
""fullscreenenter"",""1"",""1473""
","
","
","""event"",""trial"",""time""
""fullscreenenter"",""1"",""1473""
","
","","","-1","","","23","20691","7692","m","elianto","#f73b6a7A"," ","-1","0","0","[]","0","2","","","20691","60","0","3","lose","go","1"
"pit-trial","182","1150732","0.0-65.0","battery-v0.2","","""event"",""trial"",""time""
""fullscreenenter"",""1"",""1473""
","
","
","""event"",""trial"",""time""
""fullscreenenter"",""1"",""1473""
","
","","","1502.5","","","23","20691","7692","h","elianto","#f73b6a7A","-1"," ","0","-10","[2352.5]","1","2","","","20691","61","3","4","lose","no-go","0"
"pit-trial","183","1154718","0.0-66.0","battery-v0.2","","""event"",""trial"",""time""
""fullscreenenter"",""1"",""1473""
","
","
","""event"",""trial"",""time""
""fullscreenenter"",""1"",""1473""
","
","","","1133.5","","","23","20691","7692","y","elianto","#f73b6a7A"," "," ","1","0","[1983.7999999523163]","1","2","","","20691","62","2","3","lose","go","0"
"pit-trial","184","1158256","0.0-67.0","battery-v0.2","","""event"",""trial"",""time""
""fullscreenenter"",""1"",""1473""
","
","
","""event"",""trial"",""time""
""fullscreenenter"",""1"",""1473""
","
","","","684.8000000715256","","","23","20691","7692","r","elianto","#3366ff99","-1"," ","0","+10","[1535.1000000238419]","1","2","","","20691","63","1","2","win","no-go","1"
"pit-trial","185","1161902","0.0-68.0","battery-v0.2","","""event"",""trial"",""time""
""fullscreenenter"",""1"",""1473""
","
","
","""event"",""trial"",""time""
""fullscreenenter"",""1"",""1473""
","
","","","793.3999999761581","","","23","20691","7692","z","elianto","#3366ff99"," "," ","1","+10","[1643.8999999761581]","1","2","","","20691","64","4","1","win","go","0"
"pit-trial","186","1165560","0.0-69.0","battery-v0.2","","""event"",""trial"",""time""
""fullscreenenter"",""1"",""1473""
","
","
","""event"",""trial"",""time""
""fullscreenenter"",""1"",""1473""
","
","","","803.6000000238419","","","23","20691","7692","z","elianto","#3366ff99"," "," ","1","+10","[1654.6000000238419]","1","2","","","20691","65","4","1","win","go","0"
"pit-trial","187","1168956","0.0-70.0","battery-v0.2","","""event"",""trial"",""time""
""fullscreenenter"",""1"",""1473""
","
","
","""event"",""trial"",""time""
""fullscreenenter"",""1"",""1473""
","
","","","543.6000000238419","","","23","20691","7692","c","elianto","#3366ff99","-1"," ","0","0","[1394.1000000238419]","1","2","","","20691","66","5","2","win","no-go","0"
"pit-trial","188","1173810","0.0-71.0","battery-v0.2","","""event"",""trial"",""time""
""fullscreenenter"",""1"",""1473""
","
","
","""event"",""trial"",""time""
""fullscreenenter"",""1"",""1473""
","
","","","-1","","","23","20691","7692","h","elianto","#f73b6a7A","-1","-1","1","0","[]","0","2","","","20691","67","3","4","lose","no-go","0"
"pit-trial","189","1177191","0.0-72.0","battery-v0.2","","""event"",""trial"",""time""
""fullscreenenter"",""1"",""1473""
","
","
","""event"",""trial"",""time""
""fullscreenenter"",""1"",""1473""
","
","","","527.8999999761581","","","23","20691","7692","r","elianto","#3366ff99","-1"," ","0","0","[1378.5]","1","2","","","20691","68","1","2","win","no-go","0"
"pit-trial","190","1180868","0.0-73.0","battery-v0.2","","""event"",""trial"",""time""
""fullscreenenter"",""1"",""1473""
","
","
","""event"",""trial"",""time""
""fullscreenenter"",""1"",""1473""
","
","","","824.5","","","23","20691","7692","c","elianto","#3366ff99","-1"," ","0","0","[1674.6000000238419]","1","2","","","20691","69","5","2","win","no-go","0"
"pit-trial","191","1184355","0.0-74.0","battery-v0.2","","""event"",""trial"",""time""
""fullscreenenter"",""1"",""1473""
","
","
","""event"",""trial"",""time""
""fullscreenenter"",""1"",""1473""
","
","","","633.6000000238419","","","23","20691","7692","z","elianto","#3366ff99"," "," ","1","0","[1484.7000000476837]","1","2","","","20691","70","4","1","win","go","1"
"pit-trial","192","1189209","0.0-75.0","battery-v0.2","","""event"",""trial"",""time""
""fullscreenenter"",""1"",""1473""
","
","
","""event"",""trial"",""time""
""fullscreenenter"",""1"",""1473""
","
","","","-1","","","23","20691","7692","r","elianto","#3366ff99","-1","-1","1","+10","[]","0","2","","","20691","71","1","2","win","no-go","0"
"pit-trial","193","1193119","0.0-76.0","battery-v0.2","","""event"",""trial"",""time""
""fullscreenenter"",""1"",""1473""
","
","
","""event"",""trial"",""time""
""fullscreenenter"",""1"",""1473""
","
","","","1057","","","23","20691","7692","y","elianto","#f73b6a7A"," "," ","1","0","[1907.7999999523163]","1","2","","","20691","72","2","3","lose","go","0"
"pit-trial","194","1197972","0.0-77.0","battery-v0.2","","""event"",""trial"",""time""
""fullscreenenter"",""1"",""1473""
","
","
","""event"",""trial"",""time""
""fullscreenenter"",""1"",""1473""
","
","","","-1","","","23","20691","7692","z","elianto","#3366ff99"," ","-1","0","0","[]","0","2","","","20691","73","4","1","win","go","0"
"pit-trial","195","1201403","0.0-78.0","battery-v0.2","","""event"",""trial"",""time""
""fullscreenenter"",""1"",""1473""
","
","
","""event"",""trial"",""time""
""fullscreenenter"",""1"",""1473""
","
","","","577.7999999523163","","","23","20691","7692","c","elianto","#3366ff99","-1"," ","0","+10","[1428]","1","2","","","20691","74","5","2","win","no-go","1"
"pit-trial","196","1204691","0.0-79.0","battery-v0.2","","""event"",""trial"",""time""
""fullscreenenter"",""1"",""1473""
","
","
","""event"",""trial"",""time""
""fullscreenenter"",""1"",""1473""
","
","","","434.39999997615814","","","23","20691","7692","r","elianto","#3366ff99","-1"," ","0","0","[1285.2999999523163]","1","2","","","20691","75","1","2","win","no-go","0"
"pit-trial","197","1208704","0.0-80.0","battery-v0.2","","""event"",""trial"",""time""
""fullscreenenter"",""1"",""1473""
","
","
","""event"",""trial"",""time""
""fullscreenenter"",""1"",""1473""
","
","","","1160.1000000238419","","","23","20691","7692","h","elianto","#f73b6a7A","-1"," ","0","-10","[2010.2000000476837]","1","2","","","20691","76","3","4","lose","no-go","0"
"pit-trial","198","1212504","0.0-81.0","battery-v0.2","","""event"",""trial"",""time""
""fullscreenenter"",""1"",""1473""
","
","
","""event"",""trial"",""time""
""fullscreenenter"",""1"",""1473""
","
","","","947.8000000715256","","","23","20691","7692","h","elianto","#f73b6a7A","-1"," ","0","-10","[1798.4000000953674]","1","2","","","20691","77","3","4","lose","no-go","0"
"pit-trial","199","1216352","0.0-82.0","battery-v0.2","","""event"",""trial"",""time""
""fullscreenenter"",""1"",""1473""
","
","
","""event"",""trial"",""time""
""fullscreenenter"",""1"",""1473""
","
","","","993.3999999761581","","","23","20691","7692","z","elianto","#3366ff99"," "," ","1","+10","[1844.9000000953674]","1","2","","","20691","78","4","1","win","go","0"
"pit-trial","200","1219779","0.0-83.0","battery-v0.2","","""event"",""trial"",""time""
""fullscreenenter"",""1"",""1473""
","
","
","""event"",""trial"",""time""
""fullscreenenter"",""1"",""1473""
","
","","","574","","","23","20691","7692","c","elianto","#3366ff99","-1"," ","0","0","[1424.3000000715256]","1","2","","","20691","79","5","2","win","no-go","0"
"pit-trial","201","1224632","0.0-84.0","battery-v0.2","","""event"",""trial"",""time""
""fullscreenenter"",""1"",""1473""
","
","
","""event"",""trial"",""time""
""fullscreenenter"",""1"",""1473""
","
","","","-1","","","23","20691","7692","z","elianto","#3366ff99"," ","-1","0","0","[]","0","2","","","20691","80","4","1","win","go","0"
"pit-trial","202","1228163","0.0-85.0","battery-v0.2","","""event"",""trial"",""time""
""fullscreenenter"",""1"",""1473""
","
","
","""event"",""trial"",""time""
""fullscreenenter"",""1"",""1473""
","
","","","677.3999999761581","","","23","20691","7692","h","elianto","#f73b6a7A","-1"," ","0","-10","[1527.5]","1","2","","","20691","81","3","4","lose","no-go","0"
"pit-trial","203","1232110","0.0-86.0","battery-v0.2","","""event"",""trial"",""time""
""fullscreenenter"",""1"",""1473""
","
","
","""event"",""trial"",""time""
""fullscreenenter"",""1"",""1473""
","
","","","1094.5","","","23","20691","7692","t","elianto","#f73b6a7A","-1"," ","0","-10","[1944.6000000238419]","1","2","","","20691","82","7","4","lose","no-go","0"
"pit-trial","204","1235607","0.0-87.0","battery-v0.2","","""event"",""trial"",""time""
""fullscreenenter"",""1"",""1473""
","
","
","""event"",""trial"",""time""
""fullscreenenter"",""1"",""1473""
","
","","","643.8000000715256","","","23","20691","7692","c","elianto","#3366ff99","-1"," ","0","0","[1495]","1","2","","","20691","83","5","2","win","no-go","0"
"pit-trial","205","1238872","0.0-88.0","battery-v0.2","","""event"",""trial"",""time""
""fullscreenenter"",""1"",""1473""
","
","
","""event"",""trial"",""time""
""fullscreenenter"",""1"",""1473""
","
","","","409.89999997615814","","","23","20691","7692","z","elianto","#3366ff99"," "," ","1","+10","[1260.5]","1","2","","","20691","84","4","1","win","go","0"
"pit-trial","206","1243724","0.0-89.0","battery-v0.2","","""event"",""trial"",""time""
""fullscreenenter"",""1"",""1473""
","
","
","""event"",""trial"",""time""
""fullscreenenter"",""1"",""1473""
","
","","","-1","","","23","20691","7692","t","elianto","#f73b6a7A","-1","-1","1","0","[]","0","2","","","20691","85","7","4","lose","no-go","0"
"pit-trial","207","1247091","0.0-90.0","battery-v0.2","","""event"",""trial"",""time""
""fullscreenenter"",""1"",""1473""
","
","
","""event"",""trial"",""time""
""fullscreenenter"",""1"",""1473""
","
","","","513","","","23","20691","7692","c","elianto","#3366ff99","-1"," ","0","0","[1364]","1","2","","","20691","86","5","2","win","no-go","0"
"pit-trial","208","1251944","0.0-91.0","battery-v0.2","","""event"",""trial"",""time""
""fullscreenenter"",""1"",""1473""
","
","
","""event"",""trial"",""time""
""fullscreenenter"",""1"",""1473""
","
","","","-1","","","23","20691","7692","b","elianto","#f73b6a7A"," ","-1","0","-10","[]","0","2","","","20691","87","6","3","lose","go","0"
"pit-trial","209","1255348","0.0-92.0","battery-v0.2","","""event"",""trial"",""time""
""fullscreenenter"",""1"",""1473""
","
","
","""event"",""trial"",""time""
""fullscreenenter"",""1"",""1473""
","
","","","550.6999999284744","","","23","20691","7692","z","elianto","#3366ff99"," "," ","1","+10","[1401.5999999046326]","1","2","","","20691","88","4","1","win","go","0"
"pit-trial","210","1260202","0.0-93.0","battery-v0.2","","""event"",""trial"",""time""
""fullscreenenter"",""1"",""1473""
","
","
","""event"",""trial"",""time""
""fullscreenenter"",""1"",""1473""
","
","","","-1","","","23","20691","7692","t","elianto","#f73b6a7A","-1","-1","1","0","[]","0","2","","","20691","89","7","4","lose","no-go","0"
"pit-trial","211","1263480","0.0-94.0","battery-v0.2","","""event"",""trial"",""time""
""fullscreenenter"",""1"",""1473""
","
","
","""event"",""trial"",""time""
""fullscreenenter"",""1"",""1473""
","
","","","424.5","","","23","20691","7692","c","elianto","#3366ff99","-1"," ","0","0","[1274.7000000476837]","1","2","","","20691","90","5","2","win","no-go","0"
"pit-trial","212","1267466","0.0-95.0","battery-v0.2","","""event"",""trial"",""time""
""fullscreenenter"",""1"",""1473""
","
","
","""event"",""trial"",""time""
""fullscreenenter"",""1"",""1473""
","
","","","1132.1000000238419","","","23","20691","7692","b","elianto","#f73b6a7A"," "," ","1","-10","[1983.5]","1","2","","","20691","91","6","3","lose","go","1"
"pit-trial","213","1270802","0.0-96.0","battery-v0.2","","""event"",""trial"",""time""
""fullscreenenter"",""1"",""1473""
","
","
","""event"",""trial"",""time""
""fullscreenenter"",""1"",""1473""
","
","","","482.39999997615814","","","23","20691","7692","z","elianto","#3366ff99"," "," ","1","+10","[1333.3999999761581]","1","2","","","20691","92","4","1","win","go","0"
"pit-trial","214","1275655","0.0-97.0","battery-v0.2","","""event"",""trial"",""time""
""fullscreenenter"",""1"",""1473""
","
","
","""event"",""trial"",""time""
""fullscreenenter"",""1"",""1473""
","
","","","-1","","","23","20691","7692","t","elianto","#f73b6a7A","-1","-1","1","-10","[]","0","2","","","20691","93","7","4","lose","no-go","1"
"pit-trial","215","1280508","0.0-98.0","battery-v0.2","","""event"",""trial"",""time""
""fullscreenenter"",""1"",""1473""
","
","
","""event"",""trial"",""time""
""fullscreenenter"",""1"",""1473""
","
","","","-1","","","23","20691","7692","b","elianto","#f73b6a7A"," ","-1","0","-10","[]","0","2","","","20691","94","6","3","lose","go","0"
"pit-trial","216","1283859","0.0-99.0","battery-v0.2","","""event"",""trial"",""time""
""fullscreenenter"",""1"",""1473""
","
","
","""event"",""trial"",""time""
""fullscreenenter"",""1"",""1473""
","
","","","496.10000002384186","","","23","20691","7692","c","elianto","#3366ff99","-1"," ","0","0","[1348.1000000238419]","1","2","","","20691","95","5","2","win","no-go","0"
"pit-trial","217","1287629","0.0-100.0","battery-v0.2","","""event"",""trial"",""time""
""fullscreenenter"",""1"",""1473""
","
","
","""event"",""trial"",""time""
""fullscreenenter"",""1"",""1473""
","
","","","917.3999999761581","","","23","20691","7692","f","elianto","#3366ff99"," "," ","1","0","[1767.8999999761581]","1","2","","","20691","96","8","1","win","go","1"
"pit-trial","218","1292096","0.0-101.0","battery-v0.2","","""event"",""trial"",""time""
""fullscreenenter"",""1"",""1473""
","
","
","""event"",""trial"",""time""
""fullscreenenter"",""1"",""1473""
","
","","","1614.8000000715256","","","23","20691","7692","t","elianto","#f73b6a7A","-1"," ","0","-10","[2465]","1","2","","","20691","97","7","4","lose","no-go","0"
"pit-trial","219","1295850","0.0-102.0","battery-v0.2","","""event"",""trial"",""time""
""fullscreenenter"",""1"",""1473""
","
","
","""event"",""trial"",""time""
""fullscreenenter"",""1"",""1473""
","
","","","902","","","23","20691","7692","b","elianto","#f73b6a7A"," "," ","1","0","[1752.2999999523163]","1","2","","","20691","98","6","3","lose","go","0"
"pit-trial","220","1299512","0.0-103.0","battery-v0.2","","""event"",""trial"",""time""
""fullscreenenter"",""1"",""1473""
","
","
","""event"",""trial"",""time""
""fullscreenenter"",""1"",""1473""
","
","","","809","","","23","20691","7692","f","elianto","#3366ff99"," "," ","1","0","[1659.0999999046326]","1","2","","","20691","99","8","1","win","go","1"
"pit-trial","221","1303238","0.0-104.0","battery-v0.2","","""event"",""trial"",""time""
""fullscreenenter"",""1"",""1473""
","
","
","""event"",""trial"",""time""
""fullscreenenter"",""1"",""1473""
","
","","","873.7000000476837","","","23","20691","7692","c","elianto","#3366ff99","-1"," ","0","+10","[1724.5]","1","2","","","20691","100","5","2","win","no-go","1"
"pit-trial","222","1306812","0.0-105.0","battery-v0.2","","""event"",""trial"",""time""
""fullscreenenter"",""1"",""1473""
","
","
","""event"",""trial"",""time""
""fullscreenenter"",""1"",""1473""
","
","","","721.7000000476837","","","23","20691","7692","c","elianto","#3366ff99","-1"," ","0","0","[1572.1000000238419]","1","2","","","20691","101","5","2","win","no-go","0"
"pit-trial","223","1310293","0.0-106.0","battery-v0.2","","""event"",""trial"",""time""
""fullscreenenter"",""1"",""1473""
","
","
","""event"",""trial"",""time""
""fullscreenenter"",""1"",""1473""
","
","","","628.1000000238419","","","23","20691","7692","n","elianto","#3366ff99"," "," ","1","+10","[1478.5]","1","2","","","20691","102","9","1","win","go","0"
"pit-trial","224","1313841","0.0-107.0","battery-v0.2","","""event"",""trial"",""time""
""fullscreenenter"",""1"",""1473""
","
","
","""event"",""trial"",""time""
""fullscreenenter"",""1"",""1473""
","
","","","693.6000000238419","","","23","20691","7692","f","elianto","#3366ff99"," "," ","1","+10","[1544.3999999761581]","1","2","","","20691","103","8","1","win","go","0"
"pit-trial","225","1317521","0.0-108.0","battery-v0.2","","""event"",""trial"",""time""
""fullscreenenter"",""1"",""1473""
","
","
","""event"",""trial"",""time""
""fullscreenenter"",""1"",""1473""
","
","","","826.2000000476837","","","23","20691","7692","t","elianto","#f73b6a7A","-1"," ","0","0","[1677.1000000238419]","1","2","","","20691","104","7","4","lose","no-go","1"
"pit-trial","226","1321081","0.0-109.0","battery-v0.2","","""event"",""trial"",""time""
""fullscreenenter"",""1"",""1473""
","
","
","""event"",""trial"",""time""
""fullscreenenter"",""1"",""1473""
","
","","","706.7000000476837","","","23","20691","7692","f","elianto","#3366ff99"," "," ","1","+10","[1557.1000000238419]","1","2","","","20691","105","8","1","win","go","0"
"pit-trial","227","1324445","0.0-110.0","battery-v0.2","","""event"",""trial"",""time""
""fullscreenenter"",""1"",""1473""
","
","
","""event"",""trial"",""time""
""fullscreenenter"",""1"",""1473""
","
","","","510.39999997615814","","","23","20691","7692","n","elianto","#3366ff99"," "," ","1","+10","[1360.6999999284744]","1","2","","","20691","106","9","1","win","go","0"
"pit-trial","228","1328205","0.0-111.0","battery-v0.2","","""event"",""trial"",""time""
""fullscreenenter"",""1"",""1473""
","
","
","""event"",""trial"",""time""
""fullscreenenter"",""1"",""1473""
","
","","","907.1000000238419","","","23","20691","7692","b","elianto","#f73b6a7A"," "," ","1","0","[1759]","1","2","","","20691","107","6","3","lose","go","0"
"pit-trial","229","1331701","0.0-112.0","battery-v0.2","","""event"",""trial"",""time""
""fullscreenenter"",""1"",""1473""
","
","
","""event"",""trial"",""time""
""fullscreenenter"",""1"",""1473""
","
","","","641.3999999761581","","","23","20691","7692","z","elianto","#3366ff99"," "," ","1","+10","[1491.8999999761581]","1","2","","","20691","108","4","1","win","go","0"
"pit-trial","230","1335001","0.0-113.0","battery-v0.2","","""event"",""trial"",""time""
""fullscreenenter"",""1"",""1473""
","
","
","""event"",""trial"",""time""
""fullscreenenter"",""1"",""1473""
","
","","","446.7000000476837","","","23","20691","7692","n","elianto","#3366ff99"," "," ","1","0","[1297.5]","1","2","","","20691","109","9","1","win","go","1"
"pit-trial","231","1338379","0.0-114.0","battery-v0.2","","""event"",""trial"",""time""
""fullscreenenter"",""1"",""1473""
","
","
","""event"",""trial"",""time""
""fullscreenenter"",""1"",""1473""
","
","","","524.7999999523163","","","23","20691","7692","f","elianto","#3366ff99"," "," ","1","+10","[1375.6999999284744]","1","2","","","20691","110","8","1","win","go","0"
"pit-trial","232","1342266","0.0-115.0","battery-v0.2","","""event"",""trial"",""time""
""fullscreenenter"",""1"",""1473""
","
","
","""event"",""trial"",""time""
""fullscreenenter"",""1"",""1473""
","
","","","1033.7000000476837","","","23","20691","7692","b","elianto","#f73b6a7A"," "," ","1","0","[1884.8000000715256]","1","2","","","20691","111","6","3","lose","go","0"
"pit-trial","233","1345790","0.0-116.0","battery-v0.2","","""event"",""trial"",""time""
""fullscreenenter"",""1"",""1473""
","
","
","""event"",""trial"",""time""
""fullscreenenter"",""1"",""1473""
","
","","","670.6000000238419","","","23","20691","7692","c","elianto","#3366ff99","-1"," ","0","0","[1521.5]","1","2","","","20691","112","5","2","win","no-go","0"
"pit-trial","234","1349260","0.0-117.0","battery-v0.2","","""event"",""trial"",""time""
""fullscreenenter"",""1"",""1473""
","
","
","""event"",""trial"",""time""
""fullscreenenter"",""1"",""1473""
","
","","","617.5","","","23","20691","7692","n","elianto","#3366ff99"," "," ","1","+10","[1468]","1","2","","","20691","113","9","1","win","go","0"
"pit-trial","235","1353069","0.0-118.0","battery-v0.2","","""event"",""trial"",""time""
""fullscreenenter"",""1"",""1473""
","
","
","""event"",""trial"",""time""
""fullscreenenter"",""1"",""1473""
","
","","","955.3999999761581","","","23","20691","7692","b","elianto","#f73b6a7A"," "," ","1","0","[1805.7999999523163]","1","2","","","20691","114","6","3","lose","go","0"
"pit-trial","236","1356462","0.0-119.0","battery-v0.2","","""event"",""trial"",""time""
""fullscreenenter"",""1"",""1473""
","
","
","""event"",""trial"",""time""
""fullscreenenter"",""1"",""1473""
","
","","","540.8000000715256","","","23","20691","7692","f","elianto","#3366ff99"," "," ","1","+10","[1391.2000000476837]","1","2","","","20691","115","8","1","win","go","0"
"pit-trial","237","1359813","0.0-120.0","battery-v0.2","","""event"",""trial"",""time""
""fullscreenenter"",""1"",""1473""
","
","
","""event"",""trial"",""time""
""fullscreenenter"",""1"",""1473""
","
","","","498.60000002384186","","","23","20691","7692","c","elianto","#3366ff99","-1"," ","0","0","[1348.8999999761581]","1","2","","","20691","116","5","2","win","no-go","0"
"pit-trial","238","1363241","0.0-121.0","battery-v0.2","","""event"",""trial"",""time""
""fullscreenenter"",""1"",""1473""
","
","
","""event"",""trial"",""time""
""fullscreenenter"",""1"",""1473""
","
","","","574.6000000238419","","","23","20691","7692","n","elianto","#3366ff99"," "," ","1","+10","[1425.3999999761581]","1","2","","","20691","117","9","1","win","go","0"
"pit-trial","239","1366668","0.0-122.0","battery-v0.2","","""event"",""trial"",""time""
""fullscreenenter"",""1"",""1473""
","
","
","""event"",""trial"",""time""
""fullscreenenter"",""1"",""1473""
","
","","","574.2999999523163","","","23","20691","7692","f","elianto","#3366ff99"," "," ","1","+10","[1424.3999999761581]","1","2","","","20691","118","8","1","win","go","0"
"pit-trial","240","1371522","0.0-123.0","battery-v0.2","","""event"",""trial"",""time""
""fullscreenenter"",""1"",""1473""
","
","
","""event"",""trial"",""time""
""fullscreenenter"",""1"",""1473""
","
","","","-1","","","23","20691","7692","c","elianto","#3366ff99","-1","-1","1","+10","[]","0","2","","","20691","119","5","2","win","no-go","0"
"pit-trial","241","1375250","0.0-124.0","battery-v0.2","","""event"",""trial"",""time""
""fullscreenenter"",""1"",""1473""
","
","
","""event"",""trial"",""time""
""fullscreenenter"",""1"",""1473""
","
","","","874.5","","","23","20691","7692","b","elianto","#f73b6a7A"," "," ","1","0","[1724.8999999761581]","1","2","","","20691","120","6","3","lose","go","0"
"pit-trial","242","1378770","0.0-125.0","battery-v0.2","","""event"",""trial"",""time""
""fullscreenenter"",""1"",""1473""
","
","
","""event"",""trial"",""time""
""fullscreenenter"",""1"",""1473""
","
","","","667.5","","","23","20691","7692","n","elianto","#3366ff99"," "," ","1","+10","[1517.6000000238419]","1","2","","","20691","121","9","1","win","go","0"
"pit-trial","243","1382423","0.0-126.0","battery-v0.2","","""event"",""trial"",""time""
""fullscreenenter"",""1"",""1473""
","
","
","""event"",""trial"",""time""
""fullscreenenter"",""1"",""1473""
","
","","","800.9000000953674","","","23","20691","7692","t","elianto","#f73b6a7A","-1"," ","0","-10","[1651.5]","1","2","","","20691","122","7","4","lose","no-go","0"
"pit-trial","244","1386079","0.0-127.0","battery-v0.2","","""event"",""trial"",""time""
""fullscreenenter"",""1"",""1473""
","
","
","""event"",""trial"",""time""
""fullscreenenter"",""1"",""1473""
","
","","","803.3999999761581","","","23","20691","7692","b","elianto","#f73b6a7A"," "," ","1","0","[1653.8999999761581]","1","2","","","20691","123","6","3","lose","go","0"
"pit-trial","245","1389644","0.0-128.0","battery-v0.2","","""event"",""trial"",""time""
""fullscreenenter"",""1"",""1473""
","
","
","""event"",""trial"",""time""
""fullscreenenter"",""1"",""1473""
","
","","","711","","","23","20691","7692","f","elianto","#3366ff99"," "," ","1","+10","[1561.6000000238419]","1","2","","","20691","124","8","1","win","go","0"
"pit-trial","246","1393374","0.0-129.0","battery-v0.2","","""event"",""trial"",""time""
""fullscreenenter"",""1"",""1473""
","
","
","""event"",""trial"",""time""
""fullscreenenter"",""1"",""1473""
","
","","","877.9000000953674","","","23","20691","7692","b","elianto","#f73b6a7A"," "," ","1","0","[1728.5]","1","2","","","20691","125","6","3","lose","go","0"
"pit-trial","247","1396931","0.0-130.0","battery-v0.2","","""event"",""trial"",""time""
""fullscreenenter"",""1"",""1473""
","
","
","""event"",""trial"",""time""
""fullscreenenter"",""1"",""1473""
","
","","","703","","","23","20691","7692","n","elianto","#3366ff99"," "," ","1","0","[1554.6000000238419]","1","2","","","20691","126","9","1","win","go","1"
"pit-trial","248","1401784","0.0-131.0","battery-v0.2","","""event"",""trial"",""time""
""fullscreenenter"",""1"",""1473""
","
","
","""event"",""trial"",""time""
""fullscreenenter"",""1"",""1473""
","
","","","-1","","","23","20691","7692","t","elianto","#f73b6a7A","-1","-1","1","0","[]","0","2","","","20691","127","7","4","lose","no-go","0"
"pit-trial","249","1405262","0.0-132.0","battery-v0.2","","""event"",""trial"",""time""
""fullscreenenter"",""1"",""1473""
","
","
","""event"",""trial"",""time""
""fullscreenenter"",""1"",""1473""
","
","","","625.2999999523163","","","23","20691","7692","f","elianto","#3366ff99"," "," ","1","0","[1475.3999999761581]","1","2","","","20691","128","8","1","win","go","1"
"pit-trial","250","1410115","0.0-133.0","battery-v0.2","","""event"",""trial"",""time""
""fullscreenenter"",""1"",""1473""
","
","
","""event"",""trial"",""time""
""fullscreenenter"",""1"",""1473""
","
","","","-1","","","23","20691","7692","n","elianto","#3366ff99"," ","-1","0","0","[]","0","2","","","20691","129","9","1","win","go","0"
"pit-trial","251","1413620","0.0-134.0","battery-v0.2","","""event"",""trial"",""time""
""fullscreenenter"",""1"",""1473""
","
","
","""event"",""trial"",""time""
""fullscreenenter"",""1"",""1473""
","
","","","651.7000000476837","","","23","20691","7692","f","elianto","#3366ff99"," "," ","1","+10","[1502.5]","1","2","","","20691","130","8","1","win","go","0"
"pit-trial","252","1417486","0.0-135.0","battery-v0.2","","""event"",""trial"",""time""
""fullscreenenter"",""1"",""1473""
","
","
","""event"",""trial"",""time""
""fullscreenenter"",""1"",""1473""
","
","","","1014.1000000238419","","","23","20691","7692","b","elianto","#f73b6a7A"," "," ","1","0","[1864.2000000476837]","1","2","","","20691","131","6","3","lose","go","0"
"pit-trial","253","1422340","0.0-136.0","battery-v0.2","","""event"",""trial"",""time""
""fullscreenenter"",""1"",""1473""
","
","
","""event"",""trial"",""time""
""fullscreenenter"",""1"",""1473""
","
","","","-1","","","23","20691","7692","t","elianto","#f73b6a7A","-1","-1","1","0","[]","0","2","","","20691","132","7","4","lose","no-go","0"
"pit-trial","254","1427193","0.0-137.0","battery-v0.2","","""event"",""trial"",""time""
""fullscreenenter"",""1"",""1473""
","
","
","""event"",""trial"",""time""
""fullscreenenter"",""1"",""1473""
","
","","","-1","","","23","20691","7692","n","elianto","#3366ff99"," ","-1","0","+10","[]","0","2","","","20691","133","9","1","win","go","1"
"pit-trial","255","1430827","0.0-138.0","battery-v0.2","","""event"",""trial"",""time""
""fullscreenenter"",""1"",""1473""
","
","
","""event"",""trial"",""time""
""fullscreenenter"",""1"",""1473""
","
","","","779.0999999046326","","","23","20691","7692","b","elianto","#f73b6a7A"," "," ","1","0","[1631.1999999284744]","1","2","","","20691","134","6","3","lose","go","0"
"pit-trial","256","1435680","0.0-139.0","battery-v0.2","","""event"",""trial"",""time""
""fullscreenenter"",""1"",""1473""
","
","
","""event"",""trial"",""time""
""fullscreenenter"",""1"",""1473""
","
","","","-1","","","23","20691","7692","t","elianto","#f73b6a7A","-1","-1","1","-10","[]","0","2","","","20691","135","7","4","lose","no-go","1"
"pit-trial","257","1439481","0.0-140.0","battery-v0.2","","""event"",""trial"",""time""
""fullscreenenter"",""1"",""1473""
","
","
","""event"",""trial"",""time""
""fullscreenenter"",""1"",""1473""
","
","","","948.9000000953674","","","23","20691","7692","f","elianto","#3366ff99"," "," ","1","+10","[1798.8000000715256]","1","2","","","20691","136","8","1","win","go","0"
"pit-trial","258","1443388","0.0-141.0","battery-v0.2","","""event"",""trial"",""time""
""fullscreenenter"",""1"",""1473""
","
","
","""event"",""trial"",""time""
""fullscreenenter"",""1"",""1473""
","
","","","1055.6000000238419","","","23","20691","7692","f","elianto","#3366ff99"," "," ","1","0","[1905.6999999284744]","1","2","","","20691","137","8","1","win","go","1"
"pit-trial","259","1447396","0.0-142.0","battery-v0.2","","""event"",""trial"",""time""
""fullscreenenter"",""1"",""1473""
","
","
","""event"",""trial"",""time""
""fullscreenenter"",""1"",""1473""
","
","","","1154.7999999523163","","","23","20691","7692","t","elianto","#f73b6a7A","-1"," ","0","-10","[2005.3999999761581]","1","2","","","20691","138","7","4","lose","no-go","0"
"pit-trial","260","1452249","0.0-143.0","battery-v0.2","","""event"",""trial"",""time""
""fullscreenenter"",""1"",""1473""
","
","
","""event"",""trial"",""time""
""fullscreenenter"",""1"",""1473""
","
","","","-1","","","23","20691","7692","n","elianto","#3366ff99"," ","-1","0","0","[]","0","2","","","20691","139","9","1","win","go","0"
"pit-trial","261","1456039","0.0-144.0","battery-v0.2","","""event"",""trial"",""time""
""fullscreenenter"",""1"",""1473""
","
","
","""event"",""trial"",""time""
""fullscreenenter"",""1"",""1473""
","
","","","936.6000000238419","","","23","20691","7692","b","elianto","#f73b6a7A"," "," ","1","0","[1788.2000000476837]","1","2","","","20691","140","6","3","lose","go","0"
"pit-instructions","262","1608393","0.0-145.0","battery-v0.2","","""event"",""trial"",""time""
""fullscreenenter"",""1"",""1473""
","
","
","""event"",""trial"",""time""
""fullscreenenter"",""1"",""1473""
","
","","[{""page_index"":0,""viewing_time"":143780},{""page_index"":1,""viewing_time"":8572.399999976158}]","152352.70000004768","","","","","","","","","","","","","","","","","","","","","","","",""
"pit-trial","263","1611918","0.0-146.0","battery-v0.2","","""event"",""trial"",""time""
""fullscreenenter"",""1"",""1473""
","
","
","""event"",""trial"",""time""
""fullscreenenter"",""1"",""1473""
","
","","","671.6999999284744","","","23","20691","7692","l","elianto","#3366ff99"," "," ","1","0","[1522.1999999284744]","1","3","","","20691","141","1","1","win","go","1"
"pit-trial","264","1615700","0.0-147.0","battery-v0.2","","""event"",""trial"",""time""
""fullscreenenter"",""1"",""1473""
","
","
","""event"",""trial"",""time""
""fullscreenenter"",""1"",""1473""
","
","","","923.2000000476837","","","23","20691","7692","u","elianto","#f73b6a7A","-1"," ","0","-10","[1773.8999999761581]","1","3","","","20691","142","0","4","lose","no-go","0"
"pit-trial","265","1620297","0.0-148.0","battery-v0.2","","""event"",""trial"",""time""
