"trial_type","trial_index","time_elapsed","internal_node_id","task_version","subject_id","interactions","blur_events","focus_events","fullscreenenter_events","fullscreenexit_events","success","view_history","rt","responses","num_errors","age","subject","participantId","rune","rune_set","hex","correct","choice","accuracy","outcome","keys","total_keys","block","practice","value","sub","trial","stimulus","robot","valence","action","sham"
"pavlovia","0","16","0.0-0.0","battery-v0.2","","""event"",""trial"",""time""
""focus"",""0"",""2""
""fullscreenenter"",""1"",""1930""
","
","""event"",""trial"",""time""
""focus"",""0"",""2""
","""event"",""trial"",""time""
""fullscreenenter"",""1"",""1930""
","
","","","","","","","","","","","","","","","","","","","","","","","","","","",""
"fullscreen","1","2917","0.0-1.0","battery-v0.2","","""event"",""trial"",""time""
""focus"",""0"",""2""
""fullscreenenter"",""1"",""1930""
","
","""event"",""trial"",""time""
""focus"",""0"",""2""
","""event"",""trial"",""time""
""fullscreenenter"",""1"",""1930""
","
","true","","","","","","","","","","","","","","","","","","","","","","","","","",""
"pit-instructions","2","8645","0.0-2.0-0.0","battery-v0.2","","""event"",""trial"",""time""
""focus"",""0"",""2""
""fullscreenenter"",""1"",""1930""
","
","""event"",""trial"",""time""
""focus"",""0"",""2""
","""event"",""trial"",""time""
""fullscreenenter"",""1"",""1930""
","
","","[{""page_index"":0,""viewing_time"":5721}]","5722","","","","","","","","","","","","","","","","","","","","","","","",""
"pit-comprehension","3","12137","0.0-2.0-1.0-0.0","battery-v0.2","","""event"",""trial"",""time""
""focus"",""0"",""2""
""fullscreenenter"",""1"",""1930""
","
","""event"",""trial"",""time""
""focus"",""0"",""2""
","""event"",""trial"",""time""
""fullscreenenter"",""1"",""1930""
","
","","","3486","[""shark""]","0","15","14705","5004","","","","","","","","","","","","","","","","","","",""
"pit-instructions","4","18414","0.0-2.0-1.0-1.0","battery-v0.2","","""event"",""trial"",""time""
""focus"",""0"",""2""
""fullscreenenter"",""1"",""1930""
","
","""event"",""trial"",""time""
""focus"",""0"",""2""
","""event"",""trial"",""time""
""fullscreenenter"",""1"",""1930""
","
","","[{""page_index"":0,""viewing_time"":6269}]","6269","","","","","","","","","","","","","","","","","","","","","","","",""
"pit-comprehension","5","20978","0.0-2.0-2.0-0.0","battery-v0.2","","""event"",""trial"",""time""
""focus"",""0"",""2""
""fullscreenenter"",""1"",""1930""
","
","""event"",""trial"",""time""
""focus"",""0"",""2""
","""event"",""trial"",""time""
""fullscreenenter"",""1"",""1930""
","
","","","2556","[""tiger""]","0","15","14705","5004","","","","","","","","","","","","","","","","","","",""
"pit-instructions","6","22061","0.0-2.0-2.0-1.0","battery-v0.2","","""event"",""trial"",""time""
""focus"",""0"",""2""
""fullscreenenter"",""1"",""1930""
","
","""event"",""trial"",""time""
""focus"",""0"",""2""
","""event"",""trial"",""time""
""fullscreenenter"",""1"",""1930""
","
","","[{""page_index"":0,""viewing_time"":1079}]","1080","","","","","","","","","","","","","","","","","","","","","","","",""
"pit-instructions","7","138565","0.0-2.0-3.0","battery-v0.2","","""event"",""trial"",""time""
""focus"",""0"",""2""
""fullscreenenter"",""1"",""1930""
","
","""event"",""trial"",""time""
""focus"",""0"",""2""
","""event"",""trial"",""time""
""fullscreenenter"",""1"",""1930""
","
","","[{""page_index"":0,""viewing_time"":8095},{""page_index"":1,""viewing_time"":7928},{""page_index"":2,""viewing_time"":8959},{""page_index"":3,""viewing_time"":16174},{""page_index"":4,""viewing_time"":11936},{""page_index"":5,""viewing_time"":6833},{""page_index"":6,""viewing_time"":6656},{""page_index"":7,""viewing_time"":6410},{""page_index"":8,""viewing_time"":6874},{""page_index"":9,""viewing_time"":9602},{""page_index"":10,""viewing_time"":7688},{""page_index"":11,""viewing_time"":7494},{""page_index"":12,""viewing_time"":7238},{""page_index"":13,""viewing_time"":4611}]","116499","","","","","","","","","","","","","","","","","","","","","","","",""
"pit-trial","8","141823","0.0-2.0-4.0-0.0","battery-v0.2","","""event"",""trial"",""time""
""focus"",""0"",""2""
""fullscreenenter"",""1"",""1930""
","
","""event"",""trial"",""time""
""focus"",""0"",""2""
","""event"",""trial"",""time""
""fullscreenenter"",""1"",""1930""
","
","","","401","","","15","14705","5004","&#9784;","elianto","#FFFFF080"," "," ","1","&#10004","[1251,1339]","2","0","0","","","","","","","",""
"pit-trial","9","145235","0.0-2.0-4.1-0.1","battery-v0.2","","""event"",""trial"",""time""
""focus"",""0"",""2""
""fullscreenenter"",""1"",""1930""
","
","""event"",""trial"",""time""
""focus"",""0"",""2""
","""event"",""trial"",""time""
""fullscreenenter"",""1"",""1930""
","
","","","554","","","15","14705","5004","&#9784;","elianto","#FFFFF080"," "," ","1","&#10004","[1406,1498]","2","0","0","","","","","","","",""
"pit-trial","10","149831","0.0-2.0-4.2-0.2","battery-v0.2","","""event"",""trial"",""time""
""focus"",""0"",""2""
""fullscreenenter"",""1"",""1930""
","
","""event"",""trial"",""time""
""focus"",""0"",""2""
","""event"",""trial"",""time""
""fullscreenenter"",""1"",""1930""
","
","","","1738","","","15","14705","5004","&#9784;","elianto","#FFFFF080"," "," ","1","&#10004","[2589]","1","0","0","","","","","","","",""
"pit-trial","11","153362","0.0-2.0-4.3-0.3","battery-v0.2","","""event"",""trial"",""time""
""focus"",""0"",""2""
""fullscreenenter"",""1"",""1930""
","
","""event"",""trial"",""time""
""focus"",""0"",""2""
","""event"",""trial"",""time""
""fullscreenenter"",""1"",""1930""
","
","","","673","","","15","14705","5004","&#9784;","elianto","#FFFFF080"," "," ","1","&#10004","[1522,1592]","2","0","0","","","","","","","",""
"pit-trial","12","156866","0.0-2.0-4.4-0.4","battery-v0.2","","""event"",""trial"",""time""
""focus"",""0"",""2""
""fullscreenenter"",""1"",""1930""
","
","""event"",""trial"",""time""
""focus"",""0"",""2""
","""event"",""trial"",""time""
""fullscreenenter"",""1"",""1930""
","
","","","649","","","15","14705","5004","&#9784;","elianto","#FFFFF080"," "," ","1","&#10004","[1499]","1","0","0","","","","","","","",""
"pit-instructions","13","179517","0.0-2.0-5.0","battery-v0.2","","""event"",""trial"",""time""
""focus"",""0"",""2""
""fullscreenenter"",""1"",""1930""
","
","""event"",""trial"",""time""
""focus"",""0"",""2""
","""event"",""trial"",""time""
""fullscreenenter"",""1"",""1930""
","
","","[{""page_index"":0,""viewing_time"":5004},{""page_index"":1,""viewing_time"":6559},{""page_index"":2,""viewing_time"":4906},{""page_index"":3,""viewing_time"":6177}]","22646","","","","","","","","","","","","","","","","","","","","","","","",""
"pit-trial","14","184375","0.0-2.0-6.0-0.0","battery-v0.2","","""event"",""trial"",""time""
""focus"",""0"",""2""
""fullscreenenter"",""1"",""1930""
","
","""event"",""trial"",""time""
""focus"",""0"",""2""
","""event"",""trial"",""time""
""fullscreenenter"",""1"",""1930""
","
","","","-1","","","15","14705","5004","&#9854;","elianto","#FFFFF080","-1","-1","1","&#10004","[]","0","0","1","","","","","","","",""
"pit-trial","15","189233","0.0-2.0-6.1-0.1","battery-v0.2","","""event"",""trial"",""time""
""focus"",""0"",""2""
""fullscreenenter"",""1"",""1930""
","
","""event"",""trial"",""time""
""focus"",""0"",""2""
","""event"",""trial"",""time""
""fullscreenenter"",""1"",""1930""
","
","","","-1","","","15","14705","5004","&#9854;","elianto","#FFFFF080","-1","-1","1","&#10004","[]","0","0","1","","","","","","","",""
"pit-trial","16","194091","0.0-2.0-6.2-0.2","battery-v0.2","","""event"",""trial"",""time""
""focus"",""0"",""2""
""fullscreenenter"",""1"",""1930""
","
","""event"",""trial"",""time""
""focus"",""0"",""2""
","""event"",""trial"",""time""
""fullscreenenter"",""1"",""1930""
","
","","","-1","","","15","14705","5004","&#9854;","elianto","#FFFFF080","-1","-1","1","&#10004","[]","0","0","1","","","","","","","",""
"pit-trial","17","198956","0.0-2.0-6.3-0.3","battery-v0.2","","""event"",""trial"",""time""
""focus"",""0"",""2""
""fullscreenenter"",""1"",""1930""
","
","""event"",""trial"",""time""
""focus"",""0"",""2""
","""event"",""trial"",""time""
""fullscreenenter"",""1"",""1930""
","
","","","-1","","","15","14705","5004","&#9854;","elianto","#FFFFF080","-1","-1","1","&#10004","[]","0","0","1","","","","","","","",""
"pit-trial","18","203818","0.0-2.0-6.4-0.4","battery-v0.2","","""event"",""trial"",""time""
""focus"",""0"",""2""
""fullscreenenter"",""1"",""1930""
","
","""event"",""trial"",""time""
""focus"",""0"",""2""
","""event"",""trial"",""time""
""fullscreenenter"",""1"",""1930""
","
","","","-1","","","15","14705","5004","&#9854;","elianto","#FFFFF080","-1","-1","1","&#10004","[]","0","0","1","","","","","","","",""
"pit-instructions","19","343017","0.0-2.0-7.0","battery-v0.2","","""event"",""trial"",""time""
""focus"",""0"",""2""
""fullscreenenter"",""1"",""1930""
","
","""event"",""trial"",""time""
""focus"",""0"",""2""
","""event"",""trial"",""time""
""fullscreenenter"",""1"",""1930""
","
","","[{""page_index"":0,""viewing_time"":17107},{""page_index"":1,""viewing_time"":6728},{""page_index"":2,""viewing_time"":5985},{""page_index"":3,""viewing_time"":6196},{""page_index"":4,""viewing_time"":5125},{""page_index"":5,""viewing_time"":6092},{""page_index"":6,""viewing_time"":5000},{""page_index"":7,""viewing_time"":9000},{""page_index"":8,""viewing_time"":7520},{""page_index"":9,""viewing_time"":6742},{""page_index"":10,""viewing_time"":8039},{""page_index"":11,""viewing_time"":6957},{""page_index"":12,""viewing_time"":9232},{""page_index"":13,""viewing_time"":8044},{""page_index"":14,""viewing_time"":9338},{""page_index"":15,""viewing_time"":7343},{""page_index"":16,""viewing_time"":6261},{""page_index"":17,""viewing_time"":8483}]","139193","","","","","","","","","","","","","","","","","","","","","","","",""
"pit-trial","20","346408","0.0-2.0-8.0-0.0","battery-v0.2","","""event"",""trial"",""time""
""focus"",""0"",""2""
""fullscreenenter"",""1"",""1930""
","
","""event"",""trial"",""time""
""focus"",""0"",""2""
","""event"",""trial"",""time""
""fullscreenenter"",""1"",""1930""
","
","","","530","","","15","14705","5004","&#9776;","elianto","#3366ff99"," "," ","1","+10","[1381]","1","0","1","","","","","","","",""
"pit-trial","21","349659","0.0-2.0-8.0-1.0","battery-v0.2","","""event"",""trial"",""time""
""focus"",""0"",""2""
""fullscreenenter"",""1"",""1930""
","
","""event"",""trial"",""time""
""focus"",""0"",""2""
","""event"",""trial"",""time""
""fullscreenenter"",""1"",""1930""
","
","","","393","","","15","14705","5004","&#9776;","elianto","#3366ff99"," "," ","1","+10","[1247]","1","0","1","","","","","","","",""
"pit-trial","22","353404","0.0-2.0-8.0-2.0","battery-v0.2","","""event"",""trial"",""time""
""focus"",""0"",""2""
""fullscreenenter"",""1"",""1930""
","
","""event"",""trial"",""time""
""focus"",""0"",""2""
","""event"",""trial"",""time""
""fullscreenenter"",""1"",""1930""
","
","","","886","","","15","14705","5004","&#9776;","elianto","#3366ff99"," "," ","1","+10","[1739]","1","0","1","","","","","","","",""
"pit-trial","23","357549","0.0-2.0-8.0-3.0","battery-v0.2","","""event"",""trial"",""time""
""focus"",""0"",""2""
""fullscreenenter"",""1"",""1930""
","
","""event"",""trial"",""time""
""focus"",""0"",""2""
","""event"",""trial"",""time""
""fullscreenenter"",""1"",""1930""
","
","","","1287","","","15","14705","5004","&#9776;","elianto","#3366ff99"," "," ","1","0","[2140]","1","0","1","","","","","","","",""
"pit-trial","24","360925","0.0-2.0-8.0-4.0","battery-v0.2","","""event"",""trial"",""time""
""focus"",""0"",""2""
""fullscreenenter"",""1"",""1930""
","
","""event"",""trial"",""time""
""focus"",""0"",""2""
","""event"",""trial"",""time""
""fullscreenenter"",""1"",""1930""
","
","","","515","","","15","14705","5004","&#9776;","elianto","#3366ff99"," "," ","1","+10","[1368,1429]","2","0","1","","","","","","","",""
"pit-trial","25","364235","0.0-2.0-8.1-0.1","battery-v0.2","","""event"",""trial"",""time""
""focus"",""0"",""2""
""fullscreenenter"",""1"",""1930""
","
","""event"",""trial"",""time""
""focus"",""0"",""2""
","""event"",""trial"",""time""
""fullscreenenter"",""1"",""1930""
","
","","","455","","","15","14705","5004","&#9776;","elianto","#3366ff99"," "," ","1","+10","[1305]","1","0","1","","","","","","","",""
"pit-trial","26","367629","0.0-2.0-8.1-1.1","battery-v0.2","","""event"",""trial"",""time""
""focus"",""0"",""2""
""fullscreenenter"",""1"",""1930""
","
","""event"",""trial"",""time""
""focus"",""0"",""2""
","""event"",""trial"",""time""
""fullscreenenter"",""1"",""1930""
","
","","","539","","","15","14705","5004","&#9776;","elianto","#3366ff99"," "," ","1","+10","[1388]","1","0","1","","","","","","","",""
"pit-trial","27","370790","0.0-2.0-8.1-2.1","battery-v0.2","","""event"",""trial"",""time""
""focus"",""0"",""2""
""fullscreenenter"",""1"",""1930""
","
","""event"",""trial"",""time""
""focus"",""0"",""2""
","""event"",""trial"",""time""
""fullscreenenter"",""1"",""1930""
","
","","","302","","","15","14705","5004","&#9776;","elianto","#3366ff99"," "," ","1","+10","[1156]","1","0","1","","","","","","","",""
"pit-trial","28","373647","0.0-2.0-8.1-3.1","battery-v0.2","","""event"",""trial"",""time""
""focus"",""0"",""2""
""fullscreenenter"",""1"",""1930""
","
","""event"",""trial"",""time""
""focus"",""0"",""2""
","""event"",""trial"",""time""
""fullscreenenter"",""1"",""1930""
","
","","","1","","","15","14705","5004","&#9776;","elianto","#3366ff99"," "," ","1","0","[851,1464,1964,2140,2310]","5","0","1","","","","","","","",""
"pit-trial","29","376951","0.0-2.0-8.1-4.1","battery-v0.2","","""event"",""trial"",""time""
""focus"",""0"",""2""
""fullscreenenter"",""1"",""1930""
","
","""event"",""trial"",""time""
""focus"",""0"",""2""
","""event"",""trial"",""time""
""fullscreenenter"",""1"",""1930""
","
","","","444","","","15","14705","5004","&#9776;","elianto","#3366ff99"," "," ","1","+10","[1298]","1","0","1","","","","","","","",""
"pit-trial","30","380237","0.0-2.0-8.2-0.2","battery-v0.2","","""event"",""trial"",""time""
""focus"",""0"",""2""
""fullscreenenter"",""1"",""1930""
","
","""event"",""trial"",""time""
""focus"",""0"",""2""
","""event"",""trial"",""time""
""fullscreenenter"",""1"",""1930""
","
","","","427","","","15","14705","5004","&#9776;","elianto","#3366ff99"," "," ","1","+10","[1279]","1","0","1","","","","","","","",""
"pit-trial","31","383862","0.0-2.0-8.2-1.2","battery-v0.2","","""event"",""trial"",""time""
""focus"",""0"",""2""
""fullscreenenter"",""1"",""1930""
","
","""event"",""trial"",""time""
""focus"",""0"",""2""
","""event"",""trial"",""time""
""fullscreenenter"",""1"",""1930""
","
","","","770","","","15","14705","5004","&#9776;","elianto","#3366ff99"," "," ","1","+10","[1620]","1","0","1","","","","","","","",""
"pit-trial","32","387187","0.0-2.0-8.2-2.2","battery-v0.2","","""event"",""trial"",""time""
""focus"",""0"",""2""
""fullscreenenter"",""1"",""1930""
","
","""event"",""trial"",""time""
""focus"",""0"",""2""
","""event"",""trial"",""time""
""fullscreenenter"",""1"",""1930""
","
","","","468","","","15","14705","5004","&#9776;","elianto","#3366ff99"," "," ","1","+10","[1319]","1","0","1","","","","","","","",""
"pit-trial","33","390570","0.0-2.0-8.2-3.2","battery-v0.2","","""event"",""trial"",""time""
""focus"",""0"",""2""
""fullscreenenter"",""1"",""1930""
","
","""event"",""trial"",""time""
""focus"",""0"",""2""
","""event"",""trial"",""time""
""fullscreenenter"",""1"",""1930""
","
","","","526","","","15","14705","5004","&#9776;","elianto","#3366ff99"," "," ","1","0","[1379]","1","0","1","","","","","","","",""
"pit-trial","34","393654","0.0-2.0-8.2-4.2","battery-v0.2","","""event"",""trial"",""time""
""focus"",""0"",""2""
""fullscreenenter"",""1"",""1930""
","
","""event"",""trial"",""time""
""focus"",""0"",""2""
","""event"",""trial"",""time""
""fullscreenenter"",""1"",""1930""
","
","","","229","","","15","14705","5004","&#9776;","elianto","#3366ff99"," "," ","1","+10","[1079]","1","0","1","","","","","","","",""
"call-function","35","393657","0.0-2.0-9.0","battery-v0.2","","""event"",""trial"",""time""
""focus"",""0"",""2""
""fullscreenenter"",""1"",""1930""
","
","""event"",""trial"",""time""
""focus"",""0"",""2""
","""event"",""trial"",""time""
""fullscreenenter"",""1"",""1930""
","
","","","","","","","","","","","","","","","","","","","","","","","","","","",""
"pit-instructions","36","485783","0.0-2.0-10.0","battery-v0.2","","""event"",""trial"",""time""
""focus"",""0"",""2""
""fullscreenenter"",""1"",""1930""
","
","""event"",""trial"",""time""
""focus"",""0"",""2""
","""event"",""trial"",""time""
""fullscreenenter"",""1"",""1930""
","
","","[{""page_index"":0,""viewing_time"":6571},{""page_index"":1,""viewing_time"":55752},{""page_index"":2,""viewing_time"":10799},{""page_index"":3,""viewing_time"":9073},{""page_index"":4,""viewing_time"":9931}]","92126","","","","","","","","","","","","","","","","","","","","","","","",""
"pit-trial","37","490644","0.0-2.0-11.0-0.0","battery-v0.2","","""event"",""trial"",""time""
""focus"",""0"",""2""
""fullscreenenter"",""1"",""1930""
","
","""event"",""trial"",""time""
""focus"",""0"",""2""
","""event"",""trial"",""time""
""fullscreenenter"",""1"",""1930""
","
","","","-1","","","15","14705","5004","&#9761;","elianto","#3366ff99","-1","-1","1","+10","[]","0","0","2","","","","","","","",""
"pit-trial","38","495503","0.0-2.0-11.0-1.0","battery-v0.2","","""event"",""trial"",""time""
""focus"",""0"",""2""
""fullscreenenter"",""1"",""1930""
","
","""event"",""trial"",""time""
""focus"",""0"",""2""
","""event"",""trial"",""time""
""fullscreenenter"",""1"",""1930""
","
","","","-1","","","15","14705","5004","&#9761;","elianto","#3366ff99","-1","-1","1","+10","[]","0","0","2","","","","","","","",""
"pit-trial","39","500360","0.0-2.0-11.0-2.0","battery-v0.2","","""event"",""trial"",""time""
""focus"",""0"",""2""
""fullscreenenter"",""1"",""1930""
","
","""event"",""trial"",""time""
""focus"",""0"",""2""
","""event"",""trial"",""time""
""fullscreenenter"",""1"",""1930""
","
","","","-1","","","15","14705","5004","&#9761;","elianto","#3366ff99","-1","-1","1","+10","[]","0","0","2","","","","","","","",""
"pit-trial","40","505214","0.0-2.0-11.0-3.0","battery-v0.2","","""event"",""trial"",""time""
""focus"",""0"",""2""
""fullscreenenter"",""1"",""1930""
","
","""event"",""trial"",""time""
""focus"",""0"",""2""
","""event"",""trial"",""time""
""fullscreenenter"",""1"",""1930""
","
","","","-1","","","15","14705","5004","&#9761;","elianto","#3366ff99","-1","-1","1","0","[]","0","0","2","","","","","","","",""
"pit-trial","41","510070","0.0-2.0-11.0-4.0","battery-v0.2","","""event"",""trial"",""time""
""focus"",""0"",""2""
""fullscreenenter"",""1"",""1930""
","
","""event"",""trial"",""time""
""focus"",""0"",""2""
","""event"",""trial"",""time""
""fullscreenenter"",""1"",""1930""
","
","","","-1","","","15","14705","5004","&#9761;","elianto","#3366ff99","-1","-1","1","+10","[]","0","0","2","","","","","","","",""
"pit-trial","42","514926","0.0-2.0-11.1-0.1","battery-v0.2","","""event"",""trial"",""time""
""focus"",""0"",""2""
""fullscreenenter"",""1"",""1930""
","
","""event"",""trial"",""time""
""focus"",""0"",""2""
","""event"",""trial"",""time""
""fullscreenenter"",""1"",""1930""
","
","","","-1","","","15","14705","5004","&#9761;","elianto","#3366ff99","-1","-1","1","+10","[]","0","0","2","","","","","","","",""
"pit-trial","43","519784","0.0-2.0-11.1-1.1","battery-v0.2","","""event"",""trial"",""time""
""focus"",""0"",""2""
""fullscreenenter"",""1"",""1930""
","
","""event"",""trial"",""time""
""focus"",""0"",""2""
","""event"",""trial"",""time""
""fullscreenenter"",""1"",""1930""
","
","","","-1","","","15","14705","5004","&#9761;","elianto","#3366ff99","-1","-1","1","+10","[]","0","0","2","","","","","","","",""
"pit-trial","44","524643","0.0-2.0-11.1-2.1","battery-v0.2","","""event"",""trial"",""time""
""focus"",""0"",""2""
""fullscreenenter"",""1"",""1930""
","
","""event"",""trial"",""time""
""focus"",""0"",""2""
","""event"",""trial"",""time""
""fullscreenenter"",""1"",""1930""
","
","","","-1","","","15","14705","5004","&#9761;","elianto","#3366ff99","-1","-1","1","+10","[]","0","0","2","","","","","","","",""
"pit-trial","45","529496","0.0-2.0-11.1-3.1","battery-v0.2","","""event"",""trial"",""time""
""focus"",""0"",""2""
""fullscreenenter"",""1"",""1930""
","
","""event"",""trial"",""time""
""focus"",""0"",""2""
","""event"",""trial"",""time""
""fullscreenenter"",""1"",""1930""
","
","","","-1","","","15","14705","5004","&#9761;","elianto","#3366ff99","-1","-1","1","0","[]","0","0","2","","","","","","","",""
"pit-trial","46","534355","0.0-2.0-11.1-4.1","battery-v0.2","","""event"",""trial"",""time""
""focus"",""0"",""2""
""fullscreenenter"",""1"",""1930""
","
","""event"",""trial"",""time""
""focus"",""0"",""2""
","""event"",""trial"",""time""
""fullscreenenter"",""1"",""1930""
","
","","","-1","","","15","14705","5004","&#9761;","elianto","#3366ff99","-1","-1","1","+10","[]","0","0","2","","","","","","","",""
"pit-trial","47","539208","0.0-2.0-11.2-0.2","battery-v0.2","","""event"",""trial"",""time""
""focus"",""0"",""2""
""fullscreenenter"",""1"",""1930""
","
","""event"",""trial"",""time""
""focus"",""0"",""2""
","""event"",""trial"",""time""
""fullscreenenter"",""1"",""1930""
","
","","","-1","","","15","14705","5004","&#9761;","elianto","#3366ff99","-1","-1","1","+10","[]","0","0","2","","","","","","","",""
"pit-trial","48","544066","0.0-2.0-11.2-1.2","battery-v0.2","","""event"",""trial"",""time""
""focus"",""0"",""2""
""fullscreenenter"",""1"",""1930""
","
","""event"",""trial"",""time""
""focus"",""0"",""2""
","""event"",""trial"",""time""
""fullscreenenter"",""1"",""1930""
","
","","","-1","","","15","14705","5004","&#9761;","elianto","#3366ff99","-1","-1","1","+10","[]","0","0","2","","","","","","","",""
"pit-trial","49","548921","0.0-2.0-11.2-2.2","battery-v0.2","","""event"",""trial"",""time""
""focus"",""0"",""2""
""fullscreenenter"",""1"",""1930""
","
","""event"",""trial"",""time""
""focus"",""0"",""2""
","""event"",""trial"",""time""
""fullscreenenter"",""1"",""1930""
","
","","","-1","","","15","14705","5004","&#9761;","elianto","#3366ff99","-1","-1","1","+10","[]","0","0","2","","","","","","","",""
"pit-trial","50","553782","0.0-2.0-11.2-3.2","battery-v0.2","","""event"",""trial"",""time""
""focus"",""0"",""2""
""fullscreenenter"",""1"",""1930""
","
","""event"",""trial"",""time""
""focus"",""0"",""2""
","""event"",""trial"",""time""
""fullscreenenter"",""1"",""1930""
","
","","","-1","","","15","14705","5004","&#9761;","elianto","#3366ff99","-1","-1","1","0","[]","0","0","2","","","","","","","",""
"pit-trial","51","558637","0.0-2.0-11.2-4.2","battery-v0.2","","""event"",""trial"",""time""
""focus"",""0"",""2""
""fullscreenenter"",""1"",""1930""
","
","""event"",""trial"",""time""
""focus"",""0"",""2""
","""event"",""trial"",""time""
""fullscreenenter"",""1"",""1930""
","
","","","-1","","","15","14705","5004","&#9761;","elianto","#3366ff99","-1","-1","1","+10","[]","0","0","2","","","","","","","",""
"pit-trial","52","563493","0.0-2.0-11.3-0.3","battery-v0.2","","""event"",""trial"",""time""
""focus"",""0"",""2""
""fullscreenenter"",""1"",""1930""
","
","""event"",""trial"",""time""
""focus"",""0"",""2""
","""event"",""trial"",""time""
""fullscreenenter"",""1"",""1930""
","
","","","-1","","","15","14705","5004","&#9761;","elianto","#3366ff99","-1","-1","1","+10","[]","0","0","2","","","","","","","",""
"pit-trial","53","568353","0.0-2.0-11.3-1.3","battery-v0.2","","""event"",""trial"",""time""
""focus"",""0"",""2""
""fullscreenenter"",""1"",""1930""
","
","""event"",""trial"",""time""
""focus"",""0"",""2""
","""event"",""trial"",""time""
""fullscreenenter"",""1"",""1930""
","
","","","-1","","","15","14705","5004","&#9761;","elianto","#3366ff99","-1","-1","1","+10","[]","0","0","2","","","","","","","",""
"pit-trial","54","573213","0.0-2.0-11.3-2.3","battery-v0.2","","""event"",""trial"",""time""
""focus"",""0"",""2""
""fullscreenenter"",""1"",""1930""
","
","""event"",""trial"",""time""
""focus"",""0"",""2""
","""event"",""trial"",""time""
""fullscreenenter"",""1"",""1930""
","
","","","-1","","","15","14705","5004","&#9761;","elianto","#3366ff99","-1","-1","1","+10","[]","0","0","2","","","","","","","",""
"pit-trial","55","578066","0.0-2.0-11.3-3.3","battery-v0.2","","""event"",""trial"",""time""
""focus"",""0"",""2""
""fullscreenenter"",""1"",""1930""
","
","""event"",""trial"",""time""
""focus"",""0"",""2""
","""event"",""trial"",""time""
""fullscreenenter"",""1"",""1930""
","
","","","-1","","","15","14705","5004","&#9761;","elianto","#3366ff99","-1","-1","1","0","[]","0","0","2","","","","","","","",""
"pit-trial","56","582924","0.0-2.0-11.3-4.3","battery-v0.2","","""event"",""trial"",""time""
""focus"",""0"",""2""
""fullscreenenter"",""1"",""1930""
","
","""event"",""trial"",""time""
""focus"",""0"",""2""
","""event"",""trial"",""time""
""fullscreenenter"",""1"",""1930""
","
","","","-1","","","15","14705","5004","&#9761;","elianto","#3366ff99","-1","-1","1","+10","[]","0","0","2","","","","","","","",""
"call-function","57","582925","0.0-2.0-12.0","battery-v0.2","","""event"",""trial"",""time""
""focus"",""0"",""2""
""fullscreenenter"",""1"",""1930""
","
","""event"",""trial"",""time""
""focus"",""0"",""2""
","""event"",""trial"",""time""
""fullscreenenter"",""1"",""1930""
","
","","","","","","","","","","","","","","","","","","","","","","","","","","",""
"pit-instructions","58","631165","0.0-2.0-13.0","battery-v0.2","","""event"",""trial"",""time""
""focus"",""0"",""2""
""fullscreenenter"",""1"",""1930""
","
","""event"",""trial"",""time""
""focus"",""0"",""2""
","""event"",""trial"",""time""
""fullscreenenter"",""1"",""1930""
","
","","[{""page_index"":0,""viewing_time"":6838},{""page_index"":1,""viewing_time"":17343},{""page_index"":2,""viewing_time"":4074},{""page_index"":3,""viewing_time"":11710},{""page_index"":4,""viewing_time"":8273}]","48239","","","","","","","","","","","","","","","","","","","","","","","",""
"pit-trial","59","635491","0.0-2.0-14.0-0.0","battery-v0.2","","""event"",""trial"",""time""
""focus"",""0"",""2""
""fullscreenenter"",""1"",""1930""
","
","""event"",""trial"",""time""
""focus"",""0"",""2""
","""event"",""trial"",""time""
""fullscreenenter"",""1"",""1930""
","
","","","1473","","","15","14705","5004","&#9826;","elianto","#f73b6a7A","-1"," ","0","-10","[2323]","1","0","3","","","","","","","",""
"pit-trial","60","638795","0.0-2.0-14.0-1.0","battery-v0.2","","""event"",""trial"",""time""
""focus"",""0"",""2""
""fullscreenenter"",""1"",""1930""
","
","""event"",""trial"",""time""
""focus"",""0"",""2""
","""event"",""trial"",""time""
""fullscreenenter"",""1"",""1930""
","
","","","447","","","15","14705","5004","&#9826;","elianto","#f73b6a7A","-1"," ","0","-10","[1299,1336]","2","0","3","","","","","","","",""
"pit-trial","61","643648","0.0-2.0-14.0-2.0","battery-v0.2","","""event"",""trial"",""time""
""focus"",""0"",""2""
""fullscreenenter"",""1"",""1930""
","
","""event"",""trial"",""time""
""focus"",""0"",""2""
","""event"",""trial"",""time""
""fullscreenenter"",""1"",""1930""
","
","","","-1","","","15","14705","5004","&#9826;","elianto","#f73b6a7A","-1","-1","1","0","[]","0","0","3","","","","","","","",""
"pit-trial","62","648506","0.0-2.0-14.0-3.0","battery-v0.2","","""event"",""trial"",""time""
""focus"",""0"",""2""
""fullscreenenter"",""1"",""1930""
","
","""event"",""trial"",""time""
""focus"",""0"",""2""
","""event"",""trial"",""time""
""fullscreenenter"",""1"",""1930""
","
","","","-1","","","15","14705","5004","&#9826;","elianto","#f73b6a7A","-1","-1","1","-10","[]","0","0","3","","","","","","","",""
"pit-trial","63","653368","0.0-2.0-14.0-4.0","battery-v0.2","","""event"",""trial"",""time""
""focus"",""0"",""2""
""fullscreenenter"",""1"",""1930""
","
","""event"",""trial"",""time""
""focus"",""0"",""2""
","""event"",""trial"",""time""
""fullscreenenter"",""1"",""1930""
","
","","","-1","","","15","14705","5004","&#9826;","elianto","#f73b6a7A","-1","-1","1","0","[]","0","0","3","","","","","","","",""
"pit-trial","64","658223","0.0-2.0-14.1-0.1","battery-v0.2","","""event"",""trial"",""time""
""focus"",""0"",""2""
""fullscreenenter"",""1"",""1930""
","
","""event"",""trial"",""time""
""focus"",""0"",""2""
","""event"",""trial"",""time""
""fullscreenenter"",""1"",""1930""
","
","","","-1","","","15","14705","5004","&#9826;","elianto","#f73b6a7A","-1","-1","1","0","[]","0","0","3","","","","","","","",""
"pit-trial","65","663078","0.0-2.0-14.1-1.1","battery-v0.2","","""event"",""trial"",""time""
""focus"",""0"",""2""
""fullscreenenter"",""1"",""1930""
","
","""event"",""trial"",""time""
""focus"",""0"",""2""
","""event"",""trial"",""time""
""fullscreenenter"",""1"",""1930""
","
","","","-1","","","15","14705","5004","&#9826;","elianto","#f73b6a7A","-1","-1","1","0","[]","0","0","3","","","","","","","",""
"pit-trial","66","667940","0.0-2.0-14.1-2.1","battery-v0.2","","""event"",""trial"",""time""
""focus"",""0"",""2""
""fullscreenenter"",""1"",""1930""
","
","""event"",""trial"",""time""
""focus"",""0"",""2""
","""event"",""trial"",""time""
""fullscreenenter"",""1"",""1930""
","
","","","-1","","","15","14705","5004","&#9826;","elianto","#f73b6a7A","-1","-1","1","0","[]","0","0","3","","","","","","","",""
"pit-trial","67","672799","0.0-2.0-14.1-3.1","battery-v0.2","","""event"",""trial"",""time""
""focus"",""0"",""2""
""fullscreenenter"",""1"",""1930""
","
","""event"",""trial"",""time""
""focus"",""0"",""2""
","""event"",""trial"",""time""
""fullscreenenter"",""1"",""1930""
","
","","","-1","","","15","14705","5004","&#9826;","elianto","#f73b6a7A","-1","-1","1","-10","[]","0","0","3","","","","","","","",""
"pit-trial","68","677657","0.0-2.0-14.1-4.1","battery-v0.2","","""event"",""trial"",""time""
""focus"",""0"",""2""
""fullscreenenter"",""1"",""1930""
","
","""event"",""trial"",""time""
""focus"",""0"",""2""
","""event"",""trial"",""time""
""fullscreenenter"",""1"",""1930""
","
","","","-1","","","15","14705","5004","&#9826;","elianto","#f73b6a7A","-1","-1","1","0","[]","0","0","3","","","","","","","",""
"pit-trial","69","682514","0.0-2.0-14.2-0.2","battery-v0.2","","""event"",""trial"",""time""
""focus"",""0"",""2""
""fullscreenenter"",""1"",""1930""
","
","""event"",""trial"",""time""
""focus"",""0"",""2""
","""event"",""trial"",""time""
""fullscreenenter"",""1"",""1930""
","
","","","-1","","","15","14705","5004","&#9826;","elianto","#f73b6a7A","-1","-1","1","0","[]","0","0","3","","","","","","","",""
"pit-trial","70","687375","0.0-2.0-14.2-1.2","battery-v0.2","","""event"",""trial"",""time""
""focus"",""0"",""2""
""fullscreenenter"",""1"",""1930""
","
","""event"",""trial"",""time""
""focus"",""0"",""2""
","""event"",""trial"",""time""
""fullscreenenter"",""1"",""1930""
","
","","","-1","","","15","14705","5004","&#9826;","elianto","#f73b6a7A","-1","-1","1","0","[]","0","0","3","","","","","","","",""
"pit-trial","71","692233","0.0-2.0-14.2-2.2","battery-v0.2","","""event"",""trial"",""time""
""focus"",""0"",""2""
""fullscreenenter"",""1"",""1930""
","
","""event"",""trial"",""time""
""focus"",""0"",""2""
","""event"",""trial"",""time""
""fullscreenenter"",""1"",""1930""
","
","","","-1","","","15","14705","5004","&#9826;","elianto","#f73b6a7A","-1","-1","1","0","[]","0","0","3","","","","","","","",""
"pit-trial","72","697088","0.0-2.0-14.2-3.2","battery-v0.2","","""event"",""trial"",""time""
""focus"",""0"",""2""
""fullscreenenter"",""1"",""1930""
","
","""event"",""trial"",""time""
""focus"",""0"",""2""
","""event"",""trial"",""time""
""fullscreenenter"",""1"",""1930""
","
","","","-1","","","15","14705","5004","&#9826;","elianto","#f73b6a7A","-1","-1","1","-10","[]","0","0","3","","","","","","","",""
"pit-trial","73","701946","0.0-2.0-14.2-4.2","battery-v0.2","","""event"",""trial"",""time""
""focus"",""0"",""2""
""fullscreenenter"",""1"",""1930""
","
","""event"",""trial"",""time""
""focus"",""0"",""2""
","""event"",""trial"",""time""
""fullscreenenter"",""1"",""1930""
","
","","","-1","","","15","14705","5004","&#9826;","elianto","#f73b6a7A","-1","-1","1","0","[]","0","0","3","","","","","","","",""
"pit-trial","74","706808","0.0-2.0-14.3-0.3","battery-v0.2","","""event"",""trial"",""time""
""focus"",""0"",""2""
""fullscreenenter"",""1"",""1930""
","
","""event"",""trial"",""time""
""focus"",""0"",""2""
","""event"",""trial"",""time""
""fullscreenenter"",""1"",""1930""
","
","","","-1","","","15","14705","5004","&#9826;","elianto","#f73b6a7A","-1","-1","1","0","[]","0","0","3","","","","","","","",""
"pit-trial","75","711671","0.0-2.0-14.3-1.3","battery-v0.2","","""event"",""trial"",""time""
""focus"",""0"",""2""
""fullscreenenter"",""1"",""1930""
","
","""event"",""trial"",""time""
""focus"",""0"",""2""
","""event"",""trial"",""time""
""fullscreenenter"",""1"",""1930""
","
","","","-1","","","15","14705","5004","&#9826;","elianto","#f73b6a7A","-1","-1","1","0","[]","0","0","3","","","","","","","",""
"pit-trial","76","716531","0.0-2.0-14.3-2.3","battery-v0.2","","""event"",""trial"",""time""
""focus"",""0"",""2""
""fullscreenenter"",""1"",""1930""
","
","""event"",""trial"",""time""
""focus"",""0"",""2""
","""event"",""trial"",""time""
""fullscreenenter"",""1"",""1930""
","
","","","-1","","","15","14705","5004","&#9826;","elianto","#f73b6a7A","-1","-1","1","0","[]","0","0","3","","","","","","","",""
"pit-trial","77","721388","0.0-2.0-14.3-3.3","battery-v0.2","","""event"",""trial"",""time""
""focus"",""0"",""2""
""fullscreenenter"",""1"",""1930""
","
","""event"",""trial"",""time""
""focus"",""0"",""2""
","""event"",""trial"",""time""
""fullscreenenter"",""1"",""1930""
","
","","","-1","","","15","14705","5004","&#9826;","elianto","#f73b6a7A","-1","-1","1","-10","[]","0","0","3","","","","","","","",""
"pit-trial","78","726246","0.0-2.0-14.3-4.3","battery-v0.2","","""event"",""trial"",""time""
""focus"",""0"",""2""
""fullscreenenter"",""1"",""1930""
","
","""event"",""trial"",""time""
""focus"",""0"",""2""
","""event"",""trial"",""time""
""fullscreenenter"",""1"",""1930""
","
","","","-1","","","15","14705","5004","&#9826;","elianto","#f73b6a7A","-1","-1","1","0","[]","0","0","3","","","","","","","",""
"call-function","79","726248","0.0-2.0-15.0","battery-v0.2","","""event"",""trial"",""time""
""focus"",""0"",""2""
""fullscreenenter"",""1"",""1930""
","
","""event"",""trial"",""time""
""focus"",""0"",""2""
","""event"",""trial"",""time""
""fullscreenenter"",""1"",""1930""
","
","","","","","","","","","","","","","","","","","","","","","","","","","","",""
"pit-instructions","80","761145","0.0-2.0-16.0","battery-v0.2","","""event"",""trial"",""time""
""focus"",""0"",""2""
""fullscreenenter"",""1"",""1930""
","
","""event"",""trial"",""time""
""focus"",""0"",""2""
","""event"",""trial"",""time""
""fullscreenenter"",""1"",""1930""
","
","","[{""page_index"":0,""viewing_time"":7793},{""page_index"":1,""viewing_time"":14690},{""page_index"":2,""viewing_time"":7612},{""page_index"":3,""viewing_time"":4799}]","34894","","","","","","","","","","","","","","","","","","","","","","","",""
"pit-trial","81","764141","0.0-2.0-17.0-0.0","battery-v0.2","","""event"",""trial"",""time""
""focus"",""0"",""2""
""fullscreenenter"",""1"",""1930""
","
","""event"",""trial"",""time""
""focus"",""0"",""2""
","""event"",""trial"",""time""
""fullscreenenter"",""1"",""1930""
","
","","","138","","","15","14705","5004","&#9789;","elianto","#f73b6a7A"," "," ","1","0","[990]","1","0","4","","","","","","","",""
"pit-trial","82","767035","0.0-2.0-17.0-1.0","battery-v0.2","","""event"",""trial"",""time""
""focus"",""0"",""2""
""fullscreenenter"",""1"",""1930""
","
","""event"",""trial"",""time""
""focus"",""0"",""2""
","""event"",""trial"",""time""
""fullscreenenter"",""1"",""1930""
","
","","","36","","","15","14705","5004","&#9789;","elianto","#f73b6a7A"," "," ","1","0","[888]","1","0","4","","","","","","","",""
"pit-trial","83","770084","0.0-2.0-17.0-2.0","battery-v0.2","","""event"",""trial"",""time""
""focus"",""0"",""2""
""fullscreenenter"",""1"",""1930""
","
","""event"",""trial"",""time""
""focus"",""0"",""2""
","""event"",""trial"",""time""
""fullscreenenter"",""1"",""1930""
","
","","","191","","","15","14705","5004","&#9789;","elianto","#f73b6a7A"," "," ","1","0","[1046]","1","0","4","","","","","","","",""
"pit-trial","84","774285","0.0-2.0-17.0-3.0","battery-v0.2","","""event"",""trial"",""time""
""focus"",""0"",""2""
""fullscreenenter"",""1"",""1930""
","
","""event"",""trial"",""time""
""focus"",""0"",""2""
","""event"",""trial"",""time""
""fullscreenenter"",""1"",""1930""
","
","","","1344","","","15","14705","5004","&#9789;","elianto","#f73b6a7A"," "," ","1","-10","[2195]","1","0","4","","","","","","","",""
"pit-trial","85","777448","0.0-2.0-17.0-4.0","battery-v0.2","","""event"",""trial"",""time""
""focus"",""0"",""2""
""fullscreenenter"",""1"",""1930""
","
","""event"",""trial"",""time""
""focus"",""0"",""2""
","""event"",""trial"",""time""
""fullscreenenter"",""1"",""1930""
","
","","","305","","","15","14705","5004","&#9789;","elianto","#f73b6a7A"," "," ","1","0","[1158,1189]","2","0","4","","","","","","","",""
"pit-trial","86","780360","0.0-2.0-17.1-0.1","battery-v0.2","","""event"",""trial"",""time""
""focus"",""0"",""2""
""fullscreenenter"",""1"",""1930""
","
","""event"",""trial"",""time""
""focus"",""0"",""2""
","""event"",""trial"",""time""
""fullscreenenter"",""1"",""1930""
","
","","","57","","","15","14705","5004","&#9789;","elianto","#f73b6a7A"," "," ","1","0","[908,1001,1060]","3","0","4","","","","","","","",""
"pit-trial","87","784857","0.0-2.0-17.1-1.1","battery-v0.2","","""event"",""trial"",""time""
""focus"",""0"",""2""
""fullscreenenter"",""1"",""1930""
","
","""event"",""trial"",""time""
""focus"",""0"",""2""
","""event"",""trial"",""time""
""fullscreenenter"",""1"",""1930""
","
","","","1644","","","15","14705","5004","&#9789;","elianto","#f73b6a7A"," "," ","1","0","[2494]","1","0","4","","","","","","","",""
"pit-trial","88","788557","0.0-2.0-17.1-2.1","battery-v0.2","","""event"",""trial"",""time""
""focus"",""0"",""2""
""fullscreenenter"",""1"",""1930""
","
","""event"",""trial"",""time""
""focus"",""0"",""2""
","""event"",""trial"",""time""
""fullscreenenter"",""1"",""1930""
","
","","","843","","","15","14705","5004","&#9789;","elianto","#f73b6a7A"," "," ","1","0","[1693]","1","0","4","","","","","","","",""
"pit-trial","89","792317","0.0-2.0-17.1-3.1","battery-v0.2","","""event"",""trial"",""time""
""focus"",""0"",""2""
""fullscreenenter"",""1"",""1930""
","
","""event"",""trial"",""time""
""focus"",""0"",""2""
","""event"",""trial"",""time""
""fullscreenenter"",""1"",""1930""
","
","","","902","","","15","14705","5004","&#9789;","elianto","#f73b6a7A"," "," ","1","-10","[1754,1929]","2","0","4","","","","","","","",""
"pit-trial","90","795333","0.0-2.0-17.1-4.1","battery-v0.2","","""event"",""trial"",""time""
""focus"",""0"",""2""
""fullscreenenter"",""1"",""1930""
","
","""event"",""trial"",""time""
""focus"",""0"",""2""
","""event"",""trial"",""time""
""fullscreenenter"",""1"",""1930""
","
","","","159","","","15","14705","5004","&#9789;","elianto","#f73b6a7A"," "," ","1","0","[1010,1162,1319]","3","0","4","","","","","","","",""
"pit-trial","91","798424","0.0-2.0-17.2-0.2","battery-v0.2","","""event"",""trial"",""time""
""focus"",""0"",""2""
""fullscreenenter"",""1"",""1930""
","
","""event"",""trial"",""time""
""focus"",""0"",""2""
","""event"",""trial"",""time""
""fullscreenenter"",""1"",""1930""
","
","","","233","","","15","14705","5004","&#9789;","elianto","#f73b6a7A"," "," ","1","0","[815,1083,1249,1441]","4","0","4","","","","","","","",""
"pit-trial","92","801415","0.0-2.0-17.2-1.2","battery-v0.2","","""event"",""trial"",""time""
""focus"",""0"",""2""
""fullscreenenter"",""1"",""1930""
","
","""event"",""trial"",""time""
""focus"",""0"",""2""
","""event"",""trial"",""time""
""fullscreenenter"",""1"",""1930""
","
","","","137","","","15","14705","5004","&#9789;","elianto","#f73b6a7A"," "," ","1","0","[988]","1","0","4","","","","","","","",""
"pit-trial","93","804409","0.0-2.0-17.2-2.2","battery-v0.2","","""event"",""trial"",""time""
""focus"",""0"",""2""
""fullscreenenter"",""1"",""1930""
","
","""event"",""trial"",""time""
""focus"",""0"",""2""
","""event"",""trial"",""time""
""fullscreenenter"",""1"",""1930""
","
","","","138","","","15","14705","5004","&#9789;","elianto","#f73b6a7A"," "," ","1","0","[989,1085]","2","0","4","","","","","","","",""
"pit-trial","94","807293","0.0-2.0-17.2-3.2","battery-v0.2","","""event"",""trial"",""time""
""focus"",""0"",""2""
""fullscreenenter"",""1"",""1930""
","
","""event"",""trial"",""time""
""focus"",""0"",""2""
","""event"",""trial"",""time""
""fullscreenenter"",""1"",""1930""
","
","","","24","","","15","14705","5004","&#9789;","elianto","#f73b6a7A"," "," ","1","-10","[879,1007]","2","0","4","","","","","","","",""
"pit-trial","95","810396","0.0-2.0-17.2-4.2","battery-v0.2","","""event"",""trial"",""time""
""focus"",""0"",""2""
""fullscreenenter"",""1"",""1930""
","
","""event"",""trial"",""time""
""focus"",""0"",""2""
","""event"",""trial"",""time""
""fullscreenenter"",""1"",""1930""
","
","","","245","","","15","14705","5004","&#9789;","elianto","#f73b6a7A"," "," ","1","0","[1097]","1","0","4","","","","","","","",""
"pit-trial","96","813368","0.0-2.0-17.3-0.3","battery-v0.2","","""event"",""trial"",""time""
""focus"",""0"",""2""
""fullscreenenter"",""1"",""1930""
","
","""event"",""trial"",""time""
""focus"",""0"",""2""
","""event"",""trial"",""time""
""fullscreenenter"",""1"",""1930""
","
","","","114","","","15","14705","5004","&#9789;","elianto","#f73b6a7A"," "," ","1","0","[965,1004]","2","0","4","","","","","","","",""
"pit-trial","97","816876","0.0-2.0-17.3-1.3","battery-v0.2","","""event"",""trial"",""time""
""focus"",""0"",""2""
""fullscreenenter"",""1"",""1930""
","
","""event"",""trial"",""time""
""focus"",""0"",""2""
","""event"",""trial"",""time""
""fullscreenenter"",""1"",""1930""
","
","","","650","","","15","14705","5004","&#9789;","elianto","#f73b6a7A"," "," ","1","0","[1506]","1","0","4","","","","","","","",""
"pit-trial","98","820292","0.0-2.0-17.3-2.3","battery-v0.2","","""event"",""trial"",""time""
""focus"",""0"",""2""
""fullscreenenter"",""1"",""1930""
","
","""event"",""trial"",""time""
""focus"",""0"",""2""
","""event"",""trial"",""time""
""fullscreenenter"",""1"",""1930""
","
","","","559","","","15","14705","5004","&#9789;","elianto","#f73b6a7A"," "," ","1","0","[1409,2191,2228]","3","0","4","","","","","","","",""
"pit-trial","99","825154","0.0-2.0-17.3-3.3","battery-v0.2","","""event"",""trial"",""time""
""focus"",""0"",""2""
""fullscreenenter"",""1"",""1930""
","
","""event"",""trial"",""time""
""focus"",""0"",""2""
","""event"",""trial"",""time""
""fullscreenenter"",""1"",""1930""
","
","","","-1","","","15","14705","5004","&#9789;","elianto","#f73b6a7A"," ","-1","0","0","[3341]","1","0","4","","","","","","","",""
"pit-trial","100","828474","0.0-2.0-17.3-4.3","battery-v0.2","","""event"",""trial"",""time""
""focus"",""0"",""2""
""fullscreenenter"",""1"",""1930""
","
","""event"",""trial"",""time""
""focus"",""0"",""2""
","""event"",""trial"",""time""
""fullscreenenter"",""1"",""1930""
","
","","","464","","","15","14705","5004","&#9789;","elianto","#f73b6a7A"," "," ","1","0","[1316,1589]","2","0","4","","","","","","","",""
"call-function","101","828475","0.0-2.0-18.0","battery-v0.2","","""event"",""trial"",""time""
""focus"",""0"",""2""
""fullscreenenter"",""1"",""1930""
","
","""event"",""trial"",""time""
""focus"",""0"",""2""
","""event"",""trial"",""time""
""fullscreenenter"",""1"",""1930""
","
","","","","","","","","","","","","","","","","","","","","","","","","","","",""
"pit-instructions","102","941205","0.0-2.0-19.0","battery-v0.2","","""event"",""trial"",""time""
""focus"",""0"",""2""
""fullscreenenter"",""1"",""1930""
","
","""event"",""trial"",""time""
""focus"",""0"",""2""
","""event"",""trial"",""time""
""fullscreenenter"",""1"",""1930""
","
","","[{""page_index"":0,""viewing_time"":31340},{""page_index"":1,""viewing_time"":6641},{""page_index"":2,""viewing_time"":17283},{""page_index"":3,""viewing_time"":10598},{""page_index"":4,""viewing_time"":9911},{""page_index"":5,""viewing_time"":18980},{""page_index"":6,""viewing_time"":7132},{""page_index"":7,""viewing_time"":6634},{""page_index"":8,""viewing_time"":4210}]","112730","","","","","","","","","","","","","","","","","","","","","","","",""
"pit-comprehension","103","945593","0.0-2.0-20.0-0.0","battery-v0.2","","""event"",""trial"",""time""
""focus"",""0"",""2""
""fullscreenenter"",""1"",""1930""
","
","""event"",""trial"",""time""
""focus"",""0"",""2""
","""event"",""trial"",""time""
""fullscreenenter"",""1"",""1930""
","
","","","4383","[""SPACE""]","0","15","14705","5004","","","","","","","","","","","","","","","","","","",""
"pit-instructions","104","948401","0.0-2.0-20.0-1.0","battery-v0.2","","""event"",""trial"",""time""
""focus"",""0"",""2""
""fullscreenenter"",""1"",""1930""
","
","""event"",""trial"",""time""
""focus"",""0"",""2""
","""event"",""trial"",""time""
""fullscreenenter"",""1"",""1930""
","
","","[{""page_index"":0,""viewing_time"":2784}]","2784","","","","","","","","","","","","","","","","","","","","","","","",""
"pit-comprehension","105","952418","0.0-2.0-21.0-0.0","battery-v0.2","","""event"",""trial"",""time""
""focus"",""0"",""2""
""fullscreenenter"",""1"",""1930""
","
","""event"",""trial"",""time""
""focus"",""0"",""2""
","""event"",""trial"",""time""
""fullscreenenter"",""1"",""1930""
","
","","","4011","[""10""]","0","15","14705","5004","","","","","","","","","","","","","","","","","","",""
"pit-instructions","106","953666","0.0-2.0-21.0-1.0","battery-v0.2","","""event"",""trial"",""time""
""focus"",""0"",""2""
""fullscreenenter"",""1"",""1930""
","
","""event"",""trial"",""time""
""focus"",""0"",""2""
","""event"",""trial"",""time""
""fullscreenenter"",""1"",""1930""
","
","","[{""page_index"":0,""viewing_time"":1246}]","1246","","","","","","","","","","","","","","","","","","","","","","","",""
"pit-comprehension","107","961207","0.0-2.0-22.0-0.0","battery-v0.2","","""event"",""trial"",""time""
""focus"",""0"",""2""
""fullscreenenter"",""1"",""1930""
","
","""event"",""trial"",""time""
""focus"",""0"",""2""
","""event"",""trial"",""time""
""fullscreenenter"",""1"",""1930""
","
","","","7537","[""-10""]","1","15","14705","5004","","","","","","","","","","","","","","","","","","",""
"pit-instructions","108","963326","0.0-2.0-22.0-1.0","battery-v0.2","","""event"",""trial"",""time""
""focus"",""0"",""2""
""fullscreenenter"",""1"",""1930""
","
","""event"",""trial"",""time""
""focus"",""0"",""2""
","""event"",""trial"",""time""
""fullscreenenter"",""1"",""1930""
","
","","[{""page_index"":0,""viewing_time"":2093}]","2093","","","","","","","","","","","","","","","","","","","","","","","",""
"pit-instructions","109","964146","0.0-2.0-22.0-2.0-0.0","battery-v0.2","","""event"",""trial"",""time""
""focus"",""0"",""2""
""fullscreenenter"",""1"",""1930""
","
","""event"",""trial"",""time""
""focus"",""0"",""2""
","""event"",""trial"",""time""
""fullscreenenter"",""1"",""1930""
","
","","[{""page_index"":0,""viewing_time"":816}]","817","","","","","","","","","","","","","","","","","","","","","","","",""
"pit-comprehension","110","970267","0.0-2.0-22.1-0.1","battery-v0.2","","""event"",""trial"",""time""
""focus"",""0"",""2""
""fullscreenenter"",""1"",""1930""
","
","""event"",""trial"",""time""
""focus"",""0"",""2""
","""event"",""trial"",""time""
""fullscreenenter"",""1"",""1930""
","
","","","6118","[""0""]","0","15","14705","5004","","","","","","","","","","","","","","","","","","",""
"pit-instructions","111","972574","0.0-2.0-22.1-1.1","battery-v0.2","","""event"",""trial"",""time""
""focus"",""0"",""2""
""fullscreenenter"",""1"",""1930""
","
","""event"",""trial"",""time""
""focus"",""0"",""2""
","""event"",""trial"",""time""
""fullscreenenter"",""1"",""1930""
","
","","[{""page_index"":0,""viewing_time"":2284}]","2285","","","","","","","","","","","","","","","","","","","","","","","",""
"pit-comprehension","112","980783","0.0-2.0-23.0-0.0","battery-v0.2","","""event"",""trial"",""time""
""focus"",""0"",""2""
""fullscreenenter"",""1"",""1930""
","
","""event"",""trial"",""time""
""focus"",""0"",""2""
","""event"",""trial"",""time""
""fullscreenenter"",""1"",""1930""
","
","","","8205","[""True""]","0","15","14705","5004","","","","","","","","","","","","","","","","","","",""
"pit-instructions","113","983341","0.0-2.0-23.0-1.0","battery-v0.2","","""event"",""trial"",""time""
""focus"",""0"",""2""
""fullscreenenter"",""1"",""1930""
","
","""event"",""trial"",""time""
""focus"",""0"",""2""
","""event"",""trial"",""time""
""fullscreenenter"",""1"",""1930""
","
","","[{""page_index"":0,""viewing_time"":2533}]","2533","","","","","","","","","","","","","","","","","","","","","","","",""
"pit-comprehension","114","990435","0.0-2.0-24.0-0.0","battery-v0.2","","""event"",""trial"",""time""
""focus"",""0"",""2""
""fullscreenenter"",""1"",""1930""
","
","""event"",""trial"",""time""
""focus"",""0"",""2""
","""event"",""trial"",""time""
""fullscreenenter"",""1"",""1930""
","
","","","7088","[""True""]","0","15","14705","5004","","","","","","","","","","","","","","","","","","",""
"pit-instructions","115","991821","0.0-2.0-24.0-1.0","battery-v0.2","","""event"",""trial"",""time""
""focus"",""0"",""2""
""fullscreenenter"",""1"",""1930""
","
","""event"",""trial"",""time""
""focus"",""0"",""2""
","""event"",""trial"",""time""
""fullscreenenter"",""1"",""1930""
","
","","[{""page_index"":0,""viewing_time"":1383}]","1383","","","","","","","","","","","","","","","","","","","","","","","",""
"pit-comprehension","116","997991","0.0-2.0-25.0-0.0","battery-v0.2","","""event"",""trial"",""time""
""focus"",""0"",""2""
""fullscreenenter"",""1"",""1930""
","
","""event"",""trial"",""time""
""focus"",""0"",""2""
","""event"",""trial"",""time""
""fullscreenenter"",""1"",""1930""
","
","","","6166","[""True""]","0","15","14705","5004","","","","","","","","","","","","","","","","","","",""
"pit-instructions","117","1000126","0.0-2.0-25.0-1.0","battery-v0.2","","""event"",""trial"",""time""
""focus"",""0"",""2""
""fullscreenenter"",""1"",""1930""
","
","""event"",""trial"",""time""
""focus"",""0"",""2""
","""event"",""trial"",""time""
""fullscreenenter"",""1"",""1930""
","
","","[{""page_index"":0,""viewing_time"":2109}]","2109","","","","","","","","","","","","","","","","","","","","","","","",""
"pit-comprehension","118","1004221","0.0-2.0-26.0-0.0","battery-v0.2","","""event"",""trial"",""time""
""focus"",""0"",""2""
""fullscreenenter"",""1"",""1930""
","
","""event"",""trial"",""time""
""focus"",""0"",""2""
","""event"",""trial"",""time""
""fullscreenenter"",""1"",""1930""
","
","","","4093","[""False""]","0","15","14705","5004","","","","","","","","","","","","","","","","","","",""
"pit-instructions","119","1007926","0.0-2.0-26.0-1.0","battery-v0.2","","""event"",""trial"",""time""
""focus"",""0"",""2""
""fullscreenenter"",""1"",""1930""
","
","""event"",""trial"",""time""
""focus"",""0"",""2""
","""event"",""trial"",""time""
""fullscreenenter"",""1"",""1930""
","
","","[{""page_index"":0,""viewing_time"":3703}]","3703","","","","","","","","","","","","","","","","","","","","","","","",""
"pit-instructions","120","1023176","0.0-3.0","battery-v0.2","","""event"",""trial"",""time""
""focus"",""0"",""2""
""fullscreenenter"",""1"",""1930""
","
","""event"",""trial"",""time""
""focus"",""0"",""2""
","""event"",""trial"",""time""
""fullscreenenter"",""1"",""1930""
","
","","[{""page_index"":0,""viewing_time"":3825},{""page_index"":1,""viewing_time"":5306},{""page_index"":2,""viewing_time"":6117}]","15248","","","","","","","","","","","","","","","","","","","","","","","",""
"pit-trial","121","1026823","0.0-4.0","battery-v0.2","","""event"",""trial"",""time""
""focus"",""0"",""2""
""fullscreenenter"",""1"",""1930""
","
","""event"",""trial"",""time""
""focus"",""0"",""2""
","""event"",""trial"",""time""
""fullscreenenter"",""1"",""1930""
","
","","","793","","","15","14705","5004","&#9730;","elianto","#3366ff99"," "," ","1","+10","[1642]","1","1","","","14705","1","1","1","win","go","0"
"pit-trial","122","1031676","0.0-5.0","battery-v0.2","","""event"",""trial"",""time""
""focus"",""0"",""2""
""fullscreenenter"",""1"",""1930""
","
","""event"",""trial"",""time""
""focus"",""0"",""2""
","""event"",""trial"",""time""
""fullscreenenter"",""1"",""1930""
","
","","","-1","","","15","14705","5004","&#9752;","elianto","#f73b6a7A"," ","-1","0","-10","[]","0","1","","","14705","2","3","3","lose","go","0"
"pit-trial","123","1036532","0.0-6.0","battery-v0.2","","""event"",""trial"",""time""
""focus"",""0"",""2""
""fullscreenenter"",""1"",""1930""
","
","""event"",""trial"",""time""
""focus"",""0"",""2""
","""event"",""trial"",""time""
""fullscreenenter"",""1"",""1930""
","
","","","-1","","","15","14705","5004","&#9733;","elianto","#3366ff99","-1","-1","1","+10","[]","0","1","","","14705","3","2","2","win","no-go","0"
"pit-trial","124","1041390","0.0-7.0","battery-v0.2","","""event"",""trial"",""time""
""focus"",""0"",""2""
""fullscreenenter"",""1"",""1930""
","
","""event"",""trial"",""time""
""focus"",""0"",""2""
","""event"",""trial"",""time""
""fullscreenenter"",""1"",""1930""
","
","","","-1","","","15","14705","5004","&#9728;","elianto","#f73b6a7A","-1","-1","1","0","[]","0","1","","","14705","4","0","4","lose","no-go","0"
"pit-trial","125","1045304","0.0-8.0","battery-v0.2","","""event"",""trial"",""time""
""focus"",""0"",""2""
""fullscreenenter"",""1"",""1930""
","
","""event"",""trial"",""time""
""focus"",""0"",""2""
","""event"",""trial"",""time""
""fullscreenenter"",""1"",""1930""
","
","","","1055","","","15","14705","5004","&#9752;","elianto","#f73b6a7A"," "," ","1","-10","[1911]","1","1","","","14705","5","3","3","lose","go","1"
"pit-trial","126","1048902","0.0-9.0","battery-v0.2","","""event"",""trial"",""time""
""focus"",""0"",""2""
""fullscreenenter"",""1"",""1930""
","
","""event"",""trial"",""time""
""focus"",""0"",""2""
","""event"",""trial"",""time""
""fullscreenenter"",""1"",""1930""
","
","","","744","","","15","14705","5004","&#9728;","elianto","#f73b6a7A","-1"," ","0","-10","[1594]","1","1","","","14705","6","0","4","lose","no-go","0"
"pit-trial","127","1052374","0.0-10.0","battery-v0.2","","""event"",""trial"",""time""
""focus"",""0"",""2""
""fullscreenenter"",""1"",""1930""
","
","""event"",""trial"",""time""
""focus"",""0"",""2""
","""event"",""trial"",""time""
""fullscreenenter"",""1"",""1930""
","
","","","616","","","15","14705","5004","&#9730;","elianto","#3366ff99"," "," ","1","+10","[1467]","1","1","","","14705","7","1","1","win","go","0"
"pit-trial","128","1056438","0.0-11.0","battery-v0.2","","""event"",""trial"",""time""
""focus"",""0"",""2""
""fullscreenenter"",""1"",""1930""
","
","""event"",""trial"",""time""
""focus"",""0"",""2""
","""event"",""trial"",""time""
""fullscreenenter"",""1"",""1930""
","
","","","1204","","","15","14705","5004","&#9733;","elianto","#3366ff99","-1"," ","0","0","[2059]","1","1","","","14705","8","2","2","win","no-go","0"
"pit-trial","129","1061293","0.0-12.0","battery-v0.2","","""event"",""trial"",""time""
""focus"",""0"",""2""
""fullscreenenter"",""1"",""1930""
","
","""event"",""trial"",""time""
""focus"",""0"",""2""
","""event"",""trial"",""time""
""fullscreenenter"",""1"",""1930""
","
","","","-1","","","15","14705","5004","&#9752;","elianto","#f73b6a7A"," ","-1","0","-10","[]","0","1","","","14705","9","3","3","lose","go","0"
"pit-trial","130","1064775","0.0-13.0","battery-v0.2","","""event"",""trial"",""time""
""focus"",""0"",""2""
""fullscreenenter"",""1"",""1930""
","
","""event"",""trial"",""time""
""focus"",""0"",""2""
","""event"",""trial"",""time""
""fullscreenenter"",""1"",""1930""
","
","","","628","","","15","14705","5004","&#9733;","elianto","#3366ff99","-1"," ","0","0","[1479]","1","1","","","14705","10","2","2","win","no-go","0"
"pit-trial","131","1068251","0.0-14.0","battery-v0.2","","""event"",""trial"",""time""
""focus"",""0"",""2""
""fullscreenenter"",""1"",""1930""
","
","""event"",""trial"",""time""
""focus"",""0"",""2""
","""event"",""trial"",""time""
""fullscreenenter"",""1"",""1930""
","
","","","617","","","15","14705","5004","&#9730;","elianto","#3366ff99"," "," ","1","0","[1469,1520]","2","1","","","14705","11","1","1","win","go","1"
"pit-trial","132","1072630","0.0-15.0","battery-v0.2","","""event"",""trial"",""time""
""focus"",""0"",""2""
""fullscreenenter"",""1"",""1930""
","
","""event"",""trial"",""time""
""focus"",""0"",""2""
","""event"",""trial"",""time""
""fullscreenenter"",""1"",""1930""
","
","","","1522","","","15","14705","5004","&#9728;","elianto","#f73b6a7A","-1"," ","0","-10","[2373,2450]","2","1","","","14705","12","0","4","lose","no-go","0"
"pit-trial","133","1076091","0.0-16.0","battery-v0.2","","""event"",""trial"",""time""
""focus"",""0"",""2""
""fullscreenenter"",""1"",""1930""
","
","""event"",""trial"",""time""
""focus"",""0"",""2""
","""event"",""trial"",""time""
""fullscreenenter"",""1"",""1930""
","
","","","606","","","15","14705","5004","&#9728;","elianto","#f73b6a7A","-1"," ","0","-10","[1456]","1","1","","","14705","13","0","4","lose","no-go","0"
"pit-trial","134","1079520","0.0-17.0","battery-v0.2","","""event"",""trial"",""time""
""focus"",""0"",""2""
""fullscreenenter"",""1"",""1930""
","
","""event"",""trial"",""time""
""focus"",""0"",""2""
","""event"",""trial"",""time""
""fullscreenenter"",""1"",""1930""
","
","","","571","","","15","14705","5004","&#9733;","elianto","#3366ff99","-1"," ","0","0","[1423]","1","1","","","14705","14","2","2","win","no-go","0"
"pit-trial","135","1083243","0.0-18.0","battery-v0.2","","""event"",""trial"",""time""
""focus"",""0"",""2""
""fullscreenenter"",""1"",""1930""
","
","""event"",""trial"",""time""
""focus"",""0"",""2""
","""event"",""trial"",""time""
""fullscreenenter"",""1"",""1930""
","
","","","863","","","15","14705","5004","&#9730;","elianto","#3366ff99"," "," ","1","+10","[1714]","1","1","","","14705","15","1","1","win","go","0"
"pit-trial","136","1088101","0.0-19.0","battery-v0.2","","""event"",""trial"",""time""
""focus"",""0"",""2""
""fullscreenenter"",""1"",""1930""
","
","""event"",""trial"",""time""
""focus"",""0"",""2""
","""event"",""trial"",""time""
""fullscreenenter"",""1"",""1930""
","
","","","-1","","","15","14705","5004","&#9752;","elianto","#f73b6a7A"," ","-1","0","-10","[]","0","1","","","14705","16","3","3","lose","go","0"
"pit-trial","137","1091845","0.0-20.0","battery-v0.2","","""event"",""trial"",""time""
""focus"",""0"",""2""
""fullscreenenter"",""1"",""1930""
","
","""event"",""trial"",""time""
""focus"",""0"",""2""
","""event"",""trial"",""time""
""fullscreenenter"",""1"",""1930""
","
","","","885","","","15","14705","5004","&#9733;","elianto","#3366ff99","-1"," ","0","0","[1738,1765]","2","1","","","14705","17","2","2","win","no-go","0"
"pit-trial","138","1096703","0.0-21.0","battery-v0.2","","""event"",""trial"",""time""
""focus"",""0"",""2""
""fullscreenenter"",""1"",""1930""
","
","""event"",""trial"",""time""
""focus"",""0"",""2""
","""event"",""trial"",""time""
""fullscreenenter"",""1"",""1930""
","
","","","-1","","","15","14705","5004","&#9752;","elianto","#f73b6a7A"," ","-1","0","-10","[]","0","1","","","14705","18","3","3","lose","go","0"
"pit-trial","139","1100250","0.0-22.0","battery-v0.2","","""event"",""trial"",""time""
""focus"",""0"",""2""
""fullscreenenter"",""1"",""1930""
","
","""event"",""trial"",""time""
""focus"",""0"",""2""
","""event"",""trial"",""time""
""fullscreenenter"",""1"",""1930""
","
","","","691","","","15","14705","5004","&#9730;","elianto","#3366ff99"," "," ","1","+10","[1541,1651]","2","1","","","14705","19","1","1","win","go","0"
"pit-trial","140","1105112","0.0-23.0","battery-v0.2","","""event"",""trial"",""time""
""focus"",""0"",""2""
""fullscreenenter"",""1"",""1930""
","
","""event"",""trial"",""time""
""focus"",""0"",""2""
","""event"",""trial"",""time""
""fullscreenenter"",""1"",""1930""
","
","","","-1","","","15","14705","5004","&#9728;","elianto","#f73b6a7A","-1","-1","1","-10","[]","0","1","","","14705","20","0","4","lose","no-go","1"
"pit-instructions","141","1119810","0.0-24.0","battery-v0.2","","""event"",""trial"",""time""
""focus"",""0"",""2""
""fullscreenenter"",""1"",""1930""
","
","""event"",""trial"",""time""
""focus"",""0"",""2""
","""event"",""trial"",""time""
""fullscreenenter"",""1"",""1930""
","
","","[{""page_index"":0,""viewing_time"":6534},{""page_index"":1,""viewing_time"":8161}]","14695","","","","","","","","","","","","","","","","","","","","","","","",""
"pit-trial","142","1124326","0.0-25.0","battery-v0.2","","""event"",""trial"",""time""
""focus"",""0"",""2""
""fullscreenenter"",""1"",""1930""
","
","""event"",""trial"",""time""
""focus"",""0"",""2""
","""event"",""trial"",""time""
""fullscreenenter"",""1"",""1930""
","
","","","1658","","","15","14705","5004","l","elianto","#3366ff99"," "," ","1","+10","[2507]","1","2","","","14705","21","1","1","win","go","0"
"pit-trial","143","1129183","0.0-26.0","battery-v0.2","","""event"",""trial"",""time""
""focus"",""0"",""2""
""fullscreenenter"",""1"",""1930""
","
","""event"",""trial"",""time""
""focus"",""0"",""2""
","""event"",""trial"",""time""
""fullscreenenter"",""1"",""1930""
","
","","","-1","","","15","14705","5004","u","elianto","#f73b6a7A","-1","-1","1","0","[]","0","2","","","14705","22","0","4","lose","no-go","0"
"pit-trial","144","1132894","0.0-27.0","battery-v0.2","","""event"",""trial"",""time""
""focus"",""0"",""2""
""fullscreenenter"",""1"",""1930""
","
","""event"",""trial"",""time""
""focus"",""0"",""2""
","""event"",""trial"",""time""
""fullscreenenter"",""1"",""1930""
","
","","","859","","","15","14705","5004","g","elianto","#f73b6a7A"," "," ","1","0","[1710]","1","2","","","14705","23","3","3","lose","go","0"
"pit-trial","145","1136585","0.0-28.0","battery-v0.2","","""event"",""trial"",""time""
""focus"",""0"",""2""
""fullscreenenter"",""1"",""1930""
","
","""event"",""trial"",""time""
""focus"",""0"",""2""
","""event"",""trial"",""time""
""fullscreenenter"",""1"",""1930""
","
","","","833","","","15","14705","5004","a","elianto","#f73b6a7A","-1"," ","0","-10","[1688]","1","2","","","14705","24","2","4","lose","no-go","0"
"pit-trial","146","1141439","0.0-29.0","battery-v0.2","","""event"",""trial"",""time""
""focus"",""0"",""2""
""fullscreenenter"",""1"",""1930""
","
","""event"",""trial"",""time""
""focus"",""0"",""2""
","""event"",""trial"",""time""
""fullscreenenter"",""1"",""1930""
","
","","","-1","","","15","14705","5004","u","elianto","#f73b6a7A","-1","-1","1","0","[]","0","2","","","14705","25","0","4","lose","no-go","0"
"pit-trial","147","1146297","0.0-30.0","battery-v0.2","","""event"",""trial"",""time""
""focus"",""0"",""2""
""fullscreenenter"",""1"",""1930""
","
","""event"",""trial"",""time""
""focus"",""0"",""2""
","""event"",""trial"",""time""
""fullscreenenter"",""1"",""1930""
","
","","","-1","","","15","14705","5004","a","elianto","#f73b6a7A","-1","-1","1","0","[]","0","2","","","14705","26","2","4","lose","no-go","0"
"pit-trial","148","1149775","0.0-31.0","battery-v0.2","","""event"",""trial"",""time""
""focus"",""0"",""2""
""fullscreenenter"",""1"",""1930""
","
","""event"",""trial"",""time""
""focus"",""0"",""2""
","""event"",""trial"",""time""
""fullscreenenter"",""1"",""1930""
","
","","","625","","","15","14705","5004","l","elianto","#3366ff99"," "," ","1","+10","[1475]","1","2","","","14705","27","1","1","win","go","0"
"pit-trial","149","1154280","0.0-32.0","battery-v0.2","","""event"",""trial"",""time""
""focus"",""0"",""2""
""fullscreenenter"",""1"",""1930""
","
","""event"",""trial"",""time""
""focus"",""0"",""2""
","""event"",""trial"",""time""
""fullscreenenter"",""1"",""1930""
","
","","","1649","","","15","14705","5004","g","elianto","#f73b6a7A"," "," ","1","0","[2501]","1","2","","","14705","28","3","3","lose","go","0"
"pit-trial","150","1157940","0.0-33.0","battery-v0.2","","""event"",""trial"",""time""
""focus"",""0"",""2""
""fullscreenenter"",""1"",""1930""
","
","""event"",""trial"",""time""
""focus"",""0"",""2""
","""event"",""trial"",""time""
""fullscreenenter"",""1"",""1930""
","
","","","807","","","15","14705","5004","l","elianto","#3366ff99"," "," ","1","+10","[1657]","1","2","","","14705","29","1","1","win","go","0"
"pit-trial","151","1162798","0.0-34.0","battery-v0.2","","""event"",""trial"",""time""
""focus"",""0"",""2""
""fullscreenenter"",""1"",""1930""
","
","""event"",""trial"",""time""
""focus"",""0"",""2""
","""event"",""trial"",""time""
""fullscreenenter"",""1"",""1930""
","
","","","-1","","","15","14705","5004","u","elianto","#f73b6a7A","-1","-1","1","0","[]","0","2","","","14705","30","0","4","lose","no-go","0"
"pit-trial","152","1167652","0.0-35.0","battery-v0.2","","""event"",""trial"",""time""
""focus"",""0"",""2""
""fullscreenenter"",""1"",""1930""
","
","""event"",""trial"",""time""
""focus"",""0"",""2""
","""event"",""trial"",""time""
""fullscreenenter"",""1"",""1930""
","
","","","-1","","","15","14705","5004","a","elianto","#f73b6a7A","-1","-1","1","0","[]","0","2","","","14705","31","2","4","lose","no-go","0"
"pit-trial","153","1171549","0.0-36.0","battery-v0.2","","""event"",""trial"",""time""
""focus"",""0"",""2""
""fullscreenenter"",""1"",""1930""
","
","""event"",""trial"",""time""
""focus"",""0"",""2""
","""event"",""trial"",""time""
""fullscreenenter"",""1"",""1930""
","
","","","1041","","","15","14705","5004","g","elianto","#f73b6a7A"," "," ","1","-10","[1895]","1","2","","","14705","32","3","3","lose","go","1"
"pit-trial","154","1176403","0.0-37.0","battery-v0.2","","""event"",""trial"",""time""
""focus"",""0"",""2""
""fullscreenenter"",""1"",""1930""
","
","""event"",""trial"",""time""
""focus"",""0"",""2""
","""event"",""trial"",""time""
""fullscreenenter"",""1"",""1930""
","
","","","-1","","","15","14705","5004","u","elianto","#f73b6a7A","-1","-1","1","-10","[]","0","2","","","14705","33","0","4","lose","no-go","1"
"pit-trial","155","1180174","0.0-38.0","battery-v0.2","","""event"",""trial"",""time""
""focus"",""0"",""2""
""fullscreenenter"",""1"",""1930""
","
","""event"",""trial"",""time""
""focus"",""0"",""2""
","""event"",""trial"",""time""
""fullscreenenter"",""1"",""1930""
","
","","","915","","","15","14705","5004","g","elianto","#f73b6a7A"," "," ","1","0","[1765,1797]","2","2","","","14705","34","3","3","lose","go","0"
"pit-trial","156","1183715","0.0-39.0","battery-v0.2","","""event"",""trial"",""time""
""focus"",""0"",""2""
""fullscreenenter"",""1"",""1930""
","
","""event"",""trial"",""time""
""focus"",""0"",""2""
","""event"",""trial"",""time""
""fullscreenenter"",""1"",""1930""
","
","","","687","","","15","14705","5004","l","elianto","#3366ff99"," "," ","1","+10","[1539]","1","2","","","14705","35","1","1","win","go","0"
"pit-trial","157","1188568","0.0-40.0","battery-v0.2","","""event"",""trial"",""time""
""focus"",""0"",""2""
""fullscreenenter"",""1"",""1930""
","
","""event"",""trial"",""time""
""focus"",""0"",""2""
","""event"",""trial"",""time""
""fullscreenenter"",""1"",""1930""
","
","","","-1","","","15","14705","5004","a","elianto","#f73b6a7A","-1","-1","1","0","[]","0","2","","","14705","36","2","4","lose","no-go","0"
"pit-trial","158","1192040","0.0-41.0","battery-v0.2","","""event"",""trial"",""time""
""focus"",""0"",""2""
""fullscreenenter"",""1"",""1930""
","
","""event"",""trial"",""time""
""focus"",""0"",""2""
","""event"",""trial"",""time""
""fullscreenenter"",""1"",""1930""
","
","","","619","","","15","14705","5004","l","elianto","#3366ff99"," "," ","1","0","[1469]","1","2","","","14705","37","1","1","win","go","1"
"pit-trial","159","1196894","0.0-42.0","battery-v0.2","","""event"",""trial"",""time""
""focus"",""0"",""2""
""fullscreenenter"",""1"",""1930""
","
","""event"",""trial"",""time""
""focus"",""0"",""2""
","""event"",""trial"",""time""
""fullscreenenter"",""1"",""1930""
","
","","","-1","","","15","14705","5004","a","elianto","#f73b6a7A","-1","-1","1","0","[]","0","2","","","14705","38","2","4","lose","no-go","0"
"pit-trial","160","1200544","0.0-43.0","battery-v0.2","","""event"",""trial"",""time""
""focus"",""0"",""2""
""fullscreenenter"",""1"",""1930""
","
","""event"",""trial"",""time""
""focus"",""0"",""2""
","""event"",""trial"",""time""
""fullscreenenter"",""1"",""1930""
","
","","","794","","","15","14705","5004","g","elianto","#f73b6a7A"," "," ","1","-10","[1644]","1","2","","","14705","39","3","3","lose","go","1"
"pit-trial","161","1205404","0.0-44.0","battery-v0.2","","""event"",""trial"",""time""
""focus"",""0"",""2""
""fullscreenenter"",""1"",""1930""
","
","""event"",""trial"",""time""
""focus"",""0"",""2""
","""event"",""trial"",""time""
""fullscreenenter"",""1"",""1930""
","
","","","-1","","","15","14705","5004","u","elianto","#f73b6a7A","-1","-1","1","0","[]","0","2","","","14705","40","0","4","lose","no-go","0"
"pit-trial","162","1210259","0.0-45.0","battery-v0.2","","""event"",""trial"",""time""
""focus"",""0"",""2""
""fullscreenenter"",""1"",""1930""
","
","""event"",""trial"",""time""
""focus"",""0"",""2""
","""event"",""trial"",""time""
""fullscreenenter"",""1"",""1930""
","
","","","-1","","","15","14705","5004","g","elianto","#f73b6a7A"," ","-1","0","-10","[]","0","2","","","14705","41","3","3","lose","go","0"
"pit-trial","163","1215113","0.0-46.0","battery-v0.2","","""event"",""trial"",""time""
""focus"",""0"",""2""
""fullscreenenter"",""1"",""1930""
","
","""event"",""trial"",""time""
""focus"",""0"",""2""
","""event"",""trial"",""time""
""fullscreenenter"",""1"",""1930""
","
","","","-1","","","15","14705","5004","u","elianto","#f73b6a7A","-1","-1","1","0","[]","0","2","","","14705","42","0","4","lose","no-go","0"
"pit-trial","164","1219970","0.0-47.0","battery-v0.2","","""event"",""trial"",""time""
""focus"",""0"",""2""
""fullscreenenter"",""1"",""1930""
","
","""event"",""trial"",""time""
""focus"",""0"",""2""
","""event"",""trial"",""time""
""fullscreenenter"",""1"",""1930""
","
","","","-1","","","15","14705","5004","a","elianto","#f73b6a7A","-1","-1","1","-10","[]","0","2","","","14705","43","2","4","lose","no-go","1"
"pit-trial","165","1223431","0.0-48.0","battery-v0.2","","""event"",""trial"",""time""
""focus"",""0"",""2""
""fullscreenenter"",""1"",""1930""
","
","""event"",""trial"",""time""
""focus"",""0"",""2""
","""event"",""trial"",""time""
""fullscreenenter"",""1"",""1930""
","
","","","609","","","15","14705","5004","l","elianto","#3366ff99"," "," ","1","+10","[1458]","1","2","","","14705","44","1","1","win","go","0"
"pit-trial","166","1227116","0.0-49.0","battery-v0.2","","""event"",""trial"",""time""
""focus"",""0"",""2""
""fullscreenenter"",""1"",""1930""
","
","""event"",""trial"",""time""
""focus"",""0"",""2""
","""event"",""trial"",""time""
""fullscreenenter"",""1"",""1930""
","
","","","824","","","15","14705","5004","p","elianto","#3366ff99","-1"," ","0","0","[1678]","1","2","","","14705","45","4","2","win","no-go","0"
"pit-trial","167","1231973","0.0-50.0","battery-v0.2","","""event"",""trial"",""time""
""focus"",""0"",""2""
""fullscreenenter"",""1"",""1930""
","
","""event"",""trial"",""time""
""focus"",""0"",""2""
","""event"",""trial"",""time""
""fullscreenenter"",""1"",""1930""
","
","","","-1","","","15","14705","5004","a","elianto","#f73b6a7A","-1","-1","1","0","[]","0","2","","","14705","46","2","4","lose","no-go","0"
"pit-trial","168","1236833","0.0-51.0","battery-v0.2","","""event"",""trial"",""time""
""focus"",""0"",""2""
""fullscreenenter"",""1"",""1930""
","
","""event"",""trial"",""time""
""focus"",""0"",""2""
","""event"",""trial"",""time""
""fullscreenenter"",""1"",""1930""
","
","","","-1","","","15","14705","5004","u","elianto","#f73b6a7A","-1","-1","1","-10","[]","0","2","","","14705","47","0","4","lose","no-go","1"
"pit-trial","169","1241148","0.0-52.0","battery-v0.2","","""event"",""trial"",""time""
""focus"",""0"",""2""
""fullscreenenter"",""1"",""1930""
","
","""event"",""trial"",""time""
""focus"",""0"",""2""
","""event"",""trial"",""time""
""fullscreenenter"",""1"",""1930""
","
","","","1462","","","15","14705","5004","g","elianto","#f73b6a7A"," "," ","1","0","[2313]","1","2","","","14705","48","3","3","lose","go","0"
"pit-trial","170","1244657","0.0-53.0","battery-v0.2","","""event"",""trial"",""time""
""focus"",""0"",""2""
""fullscreenenter"",""1"",""1930""
","
","""event"",""trial"",""time""
""focus"",""0"",""2""
","""event"",""trial"",""time""
""fullscreenenter"",""1"",""1930""
","
","","","648","","","15","14705","5004","g","elianto","#f73b6a7A"," "," ","1","0","[1502]","1","2","","","14705","49","3","3","lose","go","0"
"pit-trial","171","1248059","0.0-54.0","battery-v0.2","","""event"",""trial"",""time""
""focus"",""0"",""2""
""fullscreenenter"",""1"",""1930""
","
","""event"",""trial"",""time""
""focus"",""0"",""2""
","""event"",""trial"",""time""
""fullscreenenter"",""1"",""1930""
","
","","","546","","","15","14705","5004","p","elianto","#3366ff99","-1"," ","0","0","[1401]","1","2","","","14705","50","4","2","win","no-go","0"
"pit-trial","172","1251600","0.0-55.0","battery-v0.2","","""event"",""trial"",""time""
""focus"",""0"",""2""
""fullscreenenter"",""1"",""1930""
","
","""event"",""trial"",""time""
""focus"",""0"",""2""
","""event"",""trial"",""time""
""fullscreenenter"",""1"",""1930""
","
","","","683","","","15","14705","5004","l","elianto","#3366ff99"," "," ","1","+10","[1535]","1","2","","","14705","51","1","1","win","go","0"
"pit-trial","173","1256454","0.0-56.0","battery-v0.2","","""event"",""trial"",""time""
""focus"",""0"",""2""
""fullscreenenter"",""1"",""1930""
","
","""event"",""trial"",""time""
""focus"",""0"",""2""
","""event"",""trial"",""time""
""fullscreenenter"",""1"",""1930""
","
","","","-1","","","15","14705","5004","u","elianto","#f73b6a7A","-1","-1","1","0","[]","0","2","","","14705","52","0","4","lose","no-go","0"
"pit-trial","174","1259947","0.0-57.0","battery-v0.2","","""event"",""trial"",""time""
""focus"",""0"",""2""
""fullscreenenter"",""1"",""1930""
","
","""event"",""trial"",""time""
""focus"",""0"",""2""
","""event"",""trial"",""time""
""fullscreenenter"",""1"",""1930""
","
","","","635","","","15","14705","5004","l","elianto","#3366ff99"," "," ","1","+10","[1486,1537]","2","2","","","14705","53","1","1","win","go","0"
"pit-trial","175","1264801","0.0-58.0","battery-v0.2","","""event"",""trial"",""time""
""focus"",""0"",""2""
""fullscreenenter"",""1"",""1930""
","
","""event"",""trial"",""time""
""focus"",""0"",""2""
","""event"",""trial"",""time""
""fullscreenenter"",""1"",""1930""
","
","","","-1","","","15","14705","5004","u","elianto","#f73b6a7A","-1","-1","1","0","[]","0","2","","","14705","54","0","4","lose","no-go","0"
"pit-trial","176","1268710","0.0-59.0","battery-v0.2","","""event"",""trial"",""time""
""focus"",""0"",""2""
""fullscreenenter"",""1"",""1930""
","
","""event"",""trial"",""time""
""focus"",""0"",""2""
","""event"",""trial"",""time""
""fullscreenenter"",""1"",""1930""
","
","","","1052","","","15","14705","5004","p","elianto","#3366ff99","-1"," ","0","0","[1903]","1","2","","","14705","55","4","2","win","no-go","0"
"pit-trial","177","1273569","0.0-60.0","battery-v0.2","","""event"",""trial"",""time""
""focus"",""0"",""2""
""fullscreenenter"",""1"",""1930""
","
","""event"",""trial"",""time""
""focus"",""0"",""2""
","""event"",""trial"",""time""
""fullscreenenter"",""1"",""1930""
","
","","","-1","","","15","14705","5004","a","elianto","#f73b6a7A","-1","-1","1","0","[]","0","2","","","14705","56","2","4","lose","no-go","0"
"pit-trial","178","1278421","0.0-61.0","battery-v0.2","","""event"",""trial"",""time""
""focus"",""0"",""2""
""fullscreenenter"",""1"",""1930""
","
","""event"",""trial"",""time""
""focus"",""0"",""2""
","""event"",""trial"",""time""
""fullscreenenter"",""1"",""1930""
","
","","","-1","","","15","14705","5004","u","elianto","#f73b6a7A","-1","-1","1","-10","[]","0","2","","","14705","57","0","4","lose","no-go","1"
"pit-trial","179","1282064","0.0-62.0","battery-v0.2","","""event"",""trial"",""time""
""focus"",""0"",""2""
""fullscreenenter"",""1"",""1930""
","
","""event"",""trial"",""time""
""focus"",""0"",""2""
","""event"",""trial"",""time""
""fullscreenenter"",""1"",""1930""
","
","","","790","","","15","14705","5004","g","elianto","#f73b6a7A"," "," ","1","0","[1640]","1","2","","","14705","58","3","3","lose","go","0"
"pit-trial","180","1285732","0.0-63.0","battery-v0.2","","""event"",""trial"",""time""
""focus"",""0"",""2""
""fullscreenenter"",""1"",""1930""
","
","""event"",""trial"",""time""
""focus"",""0"",""2""
","""event"",""trial"",""time""
""fullscreenenter"",""1"",""1930""
","
","","","812","","","15","14705","5004","p","elianto","#3366ff99","-1"," ","0","0","[1664,1791,2096]","3","2","","","14705","59","4","2","win","no-go","0"
"pit-trial","181","1289789","0.0-64.0","battery-v0.2","","""event"",""trial"",""time""
""focus"",""0"",""2""
""fullscreenenter"",""1"",""1930""
","
","""event"",""trial"",""time""
""focus"",""0"",""2""
","""event"",""trial"",""time""
""fullscreenenter"",""1"",""1930""
","
","","","1201","","","15","14705","5004","l","elianto","#3366ff99"," "," ","1","+10","[2052]","1","2","","","14705","60","1","1","win","go","0"
"pit-trial","182","1294394","0.0-65.0","battery-v0.2","","""event"",""trial"",""time""
""focus"",""0"",""2""
""fullscreenenter"",""1"",""1930""
","
","""event"",""trial"",""time""
""focus"",""0"",""2""
","""event"",""trial"",""time""
""fullscreenenter"",""1"",""1930""
","
","","","1749","","","15","14705","5004","l","elianto","#3366ff99"," "," ","1","+10","[2598]","1","2","","","14705","61","1","1","win","go","0"
"pit-trial","183","1299253","0.0-66.0","battery-v0.2","","""event"",""trial"",""time""
""focus"",""0"",""2""
""fullscreenenter"",""1"",""1930""
","
","""event"",""trial"",""time""
""focus"",""0"",""2""
","""event"",""trial"",""time""
""fullscreenenter"",""1"",""1930""
","
","","","-1","","","15","14705","5004","a","elianto","#f73b6a7A","-1","-1","1","0","[]","0","2","","","14705","62","2","4","lose","no-go","0"
"pit-trial","184","1304111","0.0-67.0","battery-v0.2","","""event"",""trial"",""time""
""focus"",""0"",""2""
""fullscreenenter"",""1"",""1930""
","
","""event"",""trial"",""time""
""focus"",""0"",""2""
","""event"",""trial"",""time""
""fullscreenenter"",""1"",""1930""
","
","","","-1","","","15","14705","5004","p","elianto","#3366ff99","-1","-1","1","0","[]","0","2","","","14705","63","4","2","win","no-go","1"
"pit-trial","185","1308119","0.0-68.0","battery-v0.2","","""event"",""trial"",""time""
""focus"",""0"",""2""
""fullscreenenter"",""1"",""1930""
","
","""event"",""trial"",""time""
""focus"",""0"",""2""
","""event"",""trial"",""time""
""fullscreenenter"",""1"",""1930""
","
","","","1152","","","15","14705","5004","g","elianto","#f73b6a7A"," "," ","1","0","[2002]","1","2","","","14705","64","3","3","lose","go","0"
"pit-trial","186","1312975","0.0-69.0","battery-v0.2","","""event"",""trial"",""time""
""focus"",""0"",""2""
""fullscreenenter"",""1"",""1930""
","
","""event"",""trial"",""time""
""focus"",""0"",""2""
","""event"",""trial"",""time""
""fullscreenenter"",""1"",""1930""
","
","","","-1","","","15","14705","5004","g","elianto","#f73b6a7A"," ","-1","0","-10","[]","0","2","","","14705","65","3","3","lose","go","0"
"pit-trial","187","1317834","0.0-70.0","battery-v0.2","","""event"",""trial"",""time""
""focus"",""0"",""2""
""fullscreenenter"",""1"",""1930""
","
","""event"",""trial"",""time""
""focus"",""0"",""2""
","""event"",""trial"",""time""
""fullscreenenter"",""1"",""1930""
","
","","","-1","","","15","14705","5004","a","elianto","#f73b6a7A","-1","-1","1","0","[]","0","2","","","14705","66","2","4","lose","no-go","0"
"pit-trial","188","1322692","0.0-71.0","battery-v0.2","","""event"",""trial"",""time""
""focus"",""0"",""2""
""fullscreenenter"",""1"",""1930""
","
","""event"",""trial"",""time""
""focus"",""0"",""2""
","""event"",""trial"",""time""
""fullscreenenter"",""1"",""1930""
","
","","","-1","","","15","14705","5004","p","elianto","#3366ff99","-1","-1","1","+10","[]","0","2","","","14705","67","4","2","win","no-go","0"
"pit-trial","189","1326281","0.0-72.0","battery-v0.2","","""event"",""trial"",""time""
""focus"",""0"",""2""
""fullscreenenter"",""1"",""1930""
","
","""event"",""trial"",""time""
""focus"",""0"",""2""
","""event"",""trial"",""time""
""fullscreenenter"",""1"",""1930""
","
","","","733","","","15","14705","5004","l","elianto","#3366ff99"," "," ","1","+10","[1582]","1","2","","","14705","68","1","1","win","go","0"
"pit-trial","190","1330458","0.0-73.0","battery-v0.2","","""event"",""trial"",""time""
""focus"",""0"",""2""
""fullscreenenter"",""1"",""1930""
","
","""event"",""trial"",""time""
""focus"",""0"",""2""
","""event"",""trial"",""time""
""fullscreenenter"",""1"",""1930""
","
","","","1318","","","15","14705","5004","s","elianto","#3366ff99"," "," ","1","+10","[2170]","1","2","","","14705","69","5","1","win","go","0"
"pit-trial","191","1334409","0.0-74.0","battery-v0.2","","""event"",""trial"",""time""
""focus"",""0"",""2""
""fullscreenenter"",""1"",""1930""
","
","""event"",""trial"",""time""
""focus"",""0"",""2""
","""event"",""trial"",""time""
""fullscreenenter"",""1"",""1930""
","
","","","1094","","","15","14705","5004","g","elianto","#f73b6a7A"," "," ","1","0","[1945]","1","2","","","14705","70","3","3","lose","go","0"
"pit-trial","192","1339263","0.0-75.0","battery-v0.2","","""event"",""trial"",""time""
""focus"",""0"",""2""
""fullscreenenter"",""1"",""1930""
","
","""event"",""trial"",""time""
""focus"",""0"",""2""
","""event"",""trial"",""time""
""fullscreenenter"",""1"",""1930""
","
","","","-1","","","15","14705","5004","p","elianto","#3366ff99","-1","-1","1","+10","[]","0","2","","","14705","71","4","2","win","no-go","0"
"pit-trial","193","1343130","0.0-76.0","battery-v0.2","","""event"",""trial"",""time""
""focus"",""0"",""2""
""fullscreenenter"",""1"",""1930""
","
","""event"",""trial"",""time""
""focus"",""0"",""2""
","""event"",""trial"",""time""
""fullscreenenter"",""1"",""1930""
","
","","","1008","","","15","14705","5004","l","elianto","#3366ff99"," "," ","1","0","[1859,2025]","2","2","","","14705","72","1","1","win","go","1"
"pit-trial","194","1347983","0.0-77.0","battery-v0.2","","""event"",""trial"",""time""
""focus"",""0"",""2""
""fullscreenenter"",""1"",""1930""
","
","""event"",""trial"",""time""
""focus"",""0"",""2""
","""event"",""trial"",""time""
""fullscreenenter"",""1"",""1930""
","
","","","-1","","","15","14705","5004","p","elianto","#3366ff99","-1","-1","1","+10","[]","0","2","","","14705","73","4","2","win","no-go","0"
"pit-trial","195","1351656","0.0-78.0","battery-v0.2","","""event"",""trial"",""time""
""focus"",""0"",""2""
""fullscreenenter"",""1"",""1930""
","
","""event"",""trial"",""time""
""focus"",""0"",""2""
","""event"",""trial"",""time""
""fullscreenenter"",""1"",""1930""
","
","","","817","","","15","14705","5004","s","elianto","#3366ff99"," "," ","1","+10","[1672]","1","2","","","14705","74","5","1","win","go","0"
"pit-trial","196","1355955","0.0-79.0","battery-v0.2","","""event"",""trial"",""time""
""focus"",""0"",""2""
""fullscreenenter"",""1"",""1930""
","
","""event"",""trial"",""time""
""focus"",""0"",""2""
","""event"",""trial"",""time""
""fullscreenenter"",""1"",""1930""
","
","","","1442","","","15","14705","5004","l","elianto","#3366ff99"," "," ","1","+10","[2293]","1","2","","","14705","75","1","1","win","go","0"
"pit-trial","197","1360808","0.0-80.0","battery-v0.2","","""event"",""trial"",""time""
""focus"",""0"",""2""
""fullscreenenter"",""1"",""1930""
","
","""event"",""trial"",""time""
""focus"",""0"",""2""
","""event"",""trial"",""time""
""fullscreenenter"",""1"",""1930""
","
","","","-1","","","15","14705","5004","g","elianto","#f73b6a7A"," ","-1","0","-10","[]","0","2","","","14705","76","3","3","lose","go","0"
"pit-trial","198","1364642","0.0-81.0","battery-v0.2","","""event"",""trial"",""time""
""focus"",""0"",""2""
""fullscreenenter"",""1"",""1930""
","
","""event"",""trial"",""time""
""focus"",""0"",""2""
","""event"",""trial"",""time""
""fullscreenenter"",""1"",""1930""
","
","","","974","","","15","14705","5004","g","elianto","#f73b6a7A"," "," ","1","0","[1826]","1","2","","","14705","77","3","3","lose","go","0"
"pit-trial","199","1368914","0.0-82.0","battery-v0.2","","""event"",""trial"",""time""
""focus"",""0"",""2""
""fullscreenenter"",""1"",""1930""
","
","""event"",""trial"",""time""
""focus"",""0"",""2""
","""event"",""trial"",""time""
""fullscreenenter"",""1"",""1930""
","
","","","1418","","","15","14705","5004","w","elianto","#f73b6a7A","-1"," ","0","-10","[2269]","1","2","","","14705","78","6","4","lose","no-go","0"
"pit-trial","200","1373769","0.0-83.0","battery-v0.2","","""event"",""trial"",""time""
""focus"",""0"",""2""
""fullscreenenter"",""1"",""1930""
","
","""event"",""trial"",""time""
""focus"",""0"",""2""
","""event"",""trial"",""time""
""fullscreenenter"",""1"",""1930""
","
","","","-1","","","15","14705","5004","p","elianto","#3366ff99","-1","-1","1","+10","[]","0","2","","","14705","79","4","2","win","no-go","0"
"pit-trial","201","1377549","0.0-84.0","battery-v0.2","","""event"",""trial"",""time""
""focus"",""0"",""2""
""fullscreenenter"",""1"",""1930""
","
","""event"",""trial"",""time""
""focus"",""0"",""2""
","""event"",""trial"",""time""
""fullscreenenter"",""1"",""1930""
","
","","","925","","","15","14705","5004","s","elianto","#3366ff99"," "," ","1","0","[1778]","1","2","","","14705","80","5","1","win","go","1"
"pit-trial","202","1381244","0.0-85.0","battery-v0.2","","""event"",""trial"",""time""
""focus"",""0"",""2""
""fullscreenenter"",""1"",""1930""
","
","""event"",""trial"",""time""
""focus"",""0"",""2""
","""event"",""trial"",""time""
""fullscreenenter"",""1"",""1930""
","
","","","839","","","15","14705","5004","s","elianto","#3366ff99"," "," ","1","0","[1693]","1","2","","","14705","81","5","1","win","go","1"
"pit-trial","203","1386104","0.0-86.0","battery-v0.2","","""event"",""trial"",""time""
""focus"",""0"",""2""
""fullscreenenter"",""1"",""1930""
","
","""event"",""trial"",""time""
""focus"",""0"",""2""
","""event"",""trial"",""time""
""fullscreenenter"",""1"",""1930""
","
","","","-1","","","15","14705","5004","p","elianto","#3366ff99","-1","-1","1","+10","[]","0","2","","","14705","82","4","2","win","no-go","0"
"pit-trial","204","1390962","0.0-87.0","battery-v0.2","","""event"",""trial"",""time""
""focus"",""0"",""2""
""fullscreenenter"",""1"",""1930""
","
","""event"",""trial"",""time""
""focus"",""0"",""2""
","""event"",""trial"",""time""
""fullscreenenter"",""1"",""1930""
","
","","","-1","","","15","14705","5004","w","elianto","#f73b6a7A","-1","-1","1","0","[]","0","2","","","14705","83","6","4","lose","no-go","0"
"pit-trial","205","1394754","0.0-88.0","battery-v0.2","","""event"",""trial"",""time""
""focus"",""0"",""2""
""fullscreenenter"",""1"",""1930""
","
","""event"",""trial"",""time""
""focus"",""0"",""2""
","""event"",""trial"",""time""
""fullscreenenter"",""1"",""1930""
","
","","","935","","","15","14705","5004","e","elianto","#f73b6a7A"," "," ","1","0","[1787]","1","2","","","14705","84","7","3","lose","go","0"
"pit-trial","206","1399612","0.0-89.0","battery-v0.2","","""event"",""trial"",""time""
""focus"",""0"",""2""
""fullscreenenter"",""1"",""1930""
","
","""event"",""trial"",""time""
""focus"",""0"",""2""
","""event"",""trial"",""time""
""fullscreenenter"",""1"",""1930""
","
","","","-1","","","15","14705","5004","s","elianto","#3366ff99"," ","-1","0","0","[]","0","2","","","14705","85","5","1","win","go","0"
"pit-trial","207","1404467","0.0-90.0","battery-v0.2","","""event"",""trial"",""time""
""focus"",""0"",""2""
""fullscreenenter"",""1"",""1930""
","
","""event"",""trial"",""time""
""focus"",""0"",""2""
","""event"",""trial"",""time""
""fullscreenenter"",""1"",""1930""
","
","","","-1","","","15","14705","5004","p","elianto","#3366ff99","-1","-1","1","+10","[]","0","2","","","14705","86","4","2","win","no-go","0"
"pit-trial","208","1408927","0.0-91.0","battery-v0.2","","""event"",""trial"",""time""
""focus"",""0"",""2""
""fullscreenenter"",""1"",""1930""
","
","""event"",""trial"",""time""
""focus"",""0"",""2""
","""event"",""trial"",""time""
""fullscreenenter"",""1"",""1930""
","
","","","1605","","","15","14705","5004","e","elianto","#f73b6a7A"," "," ","1","0","[2456]","1","2","","","14705","87","7","3","lose","go","0"
"pit-trial","209","1413783","0.0-92.0","battery-v0.2","","""event"",""trial"",""time""
""focus"",""0"",""2""
""fullscreenenter"",""1"",""1930""
","
","""event"",""trial"",""time""
""focus"",""0"",""2""
","""event"",""trial"",""time""
""fullscreenenter"",""1"",""1930""
","
","","","-1","","","15","14705","5004","w","elianto","#f73b6a7A","-1","-1","1","0","[]","0","2","","","14705","88","6","4","lose","no-go","0"
"pit-trial","210","1417702","0.0-93.0","battery-v0.2","","""event"",""trial"",""time""
""focus"",""0"",""2""
""fullscreenenter"",""1"",""1930""
","
","""event"",""trial"",""time""
""focus"",""0"",""2""
","""event"",""trial"",""time""
""fullscreenenter"",""1"",""1930""
","
","","","1063","","","15","14705","5004","w","elianto","#f73b6a7A","-1"," ","0","-10","[1914]","1","2","","","14705","89","6","4","lose","no-go","0"
"pit-trial","211","1422562","0.0-94.0","battery-v0.2","","""event"",""trial"",""time""
""focus"",""0"",""2""
""fullscreenenter"",""1"",""1930""
","
","""event"",""trial"",""time""
""focus"",""0"",""2""
","""event"",""trial"",""time""
""fullscreenenter"",""1"",""1930""
","
","","","-1","","","15","14705","5004","p","elianto","#3366ff99","-1","-1","1","+10","[]","0","2","","","14705","90","4","2","win","no-go","0"
"pit-trial","212","1427420","0.0-95.0","battery-v0.2","","""event"",""trial"",""time""
""focus"",""0"",""2""
""fullscreenenter"",""1"",""1930""
","
","""event"",""trial"",""time""
""focus"",""0"",""2""
","""event"",""trial"",""time""
""fullscreenenter"",""1"",""1930""
","
","","","-1","","","15","14705","5004","e","elianto","#f73b6a7A"," ","-1","0","-10","[]","0","2","","","14705","91","7","3","lose","go","0"
"pit-trial","213","1431873","0.0-96.0","battery-v0.2","","""event"",""trial"",""time""
""focus"",""0"",""2""
""fullscreenenter"",""1"",""1930""
","
","""event"",""trial"",""time""
""focus"",""0"",""2""
","""event"",""trial"",""time""
""fullscreenenter"",""1"",""1930""
","
","","","1597","","","15","14705","5004","s","elianto","#3366ff99"," "," ","1","+10","[2448]","1","2","","","14705","92","5","1","win","go","0"
"pit-trial","214","1435339","0.0-97.0","battery-v0.2","","""event"",""trial"",""time""
""focus"",""0"",""2""
""fullscreenenter"",""1"",""1930""
","
","""event"",""trial"",""time""
""focus"",""0"",""2""
","""event"",""trial"",""time""
""fullscreenenter"",""1"",""1930""
","
","","","611","","","15","14705","5004","s","elianto","#3366ff99"," "," ","1","0","[1462]","1","2","","","14705","93","5","1","win","go","1"
"pit-trial","215","1439206","0.0-98.0","battery-v0.2","","""event"",""trial"",""time""
""focus"",""0"",""2""
""fullscreenenter"",""1"",""1930""
","
","""event"",""trial"",""time""
""focus"",""0"",""2""
","""event"",""trial"",""time""
""fullscreenenter"",""1"",""1930""
","
","","","1011","","","15","14705","5004","d","elianto","#3366ff99","-1"," ","0","0","[1860]","1","2","","","14705","94","8","2","win","no-go","0"
"pit-trial","216","1443489","0.0-99.0","battery-v0.2","","""event"",""trial"",""time""
""focus"",""0"",""2""
""fullscreenenter"",""1"",""1930""
","
","""event"",""trial"",""time""
""focus"",""0"",""2""
","""event"",""trial"",""time""
""fullscreenenter"",""1"",""1930""
","
","","","1427","","","15","14705","5004","w","elianto","#f73b6a7A","-1"," ","0","-10","[2277]","1","2","","","14705","95","6","4","lose","no-go","0"
"pit-trial","217","1448347","0.0-100.0","battery-v0.2","","""event"",""trial"",""time""
""focus"",""0"",""2""
""fullscreenenter"",""1"",""1930""
","
","""event"",""trial"",""time""
""focus"",""0"",""2""
","""event"",""trial"",""time""
""fullscreenenter"",""1"",""1930""
","
","","","-1","","","15","14705","5004","e","elianto","#f73b6a7A"," ","-1","0","0","[]","0","2","","","14705","96","7","3","lose","go","1"
"pit-trial","218","1453206","0.0-101.0","battery-v0.2","","""event"",""trial"",""time""
""focus"",""0"",""2""
""fullscreenenter"",""1"",""1930""
","
","""event"",""trial"",""time""
""focus"",""0"",""2""
","""event"",""trial"",""time""
""fullscreenenter"",""1"",""1930""
","
","","","-1","","","15","14705","5004","s","elianto","#3366ff99"," ","-1","0","0","[]","0","2","","","14705","97","5","1","win","go","0"
"pit-trial","219","1458059","0.0-102.0","battery-v0.2","","""event"",""trial"",""time""
""focus"",""0"",""2""
""fullscreenenter"",""1"",""1930""
","
","""event"",""trial"",""time""
""focus"",""0"",""2""
","""event"",""trial"",""time""
""fullscreenenter"",""1"",""1930""
","
","","","-1","","","15","14705","5004","e","elianto","#f73b6a7A"," ","-1","0","-10","[]","0","2","","","14705","98","7","3","lose","go","0"
"pit-trial","220","1462918","0.0-103.0","battery-v0.2","","""event"",""trial"",""time""
""focus"",""0"",""2""
""fullscreenenter"",""1"",""1930""
","
","""event"",""trial"",""time""
""focus"",""0"",""2""
","""event"",""trial"",""time""
""fullscreenenter"",""1"",""1930""
","
","","","-1","","","15","14705","5004","w","elianto","#f73b6a7A","-1","-1","1","0","[]","0","2","","","14705","99","6","4","lose","no-go","0"
"pit-trial","221","1467774","0.0-104.0","battery-v0.2","","""event"",""trial"",""time""
""focus"",""0"",""2""
""fullscreenenter"",""1"",""1930""
","
","""event"",""trial"",""time""
""focus"",""0"",""2""
","""event"",""trial"",""time""
""fullscreenenter"",""1"",""1930""
","
","","","-1","","","15","14705","5004","d","elianto","#3366ff99","-1","-1","1","+10","[]","0","2","","","14705","100","8","2","win","no-go","0"
"pit-trial","222","1472632","0.0-105.0","battery-v0.2","","""event"",""trial"",""time""
""focus"",""0"",""2""
""fullscreenenter"",""1"",""1930""
","
","""event"",""trial"",""time""
""focus"",""0"",""2""
","""event"",""trial"",""time""
""fullscreenenter"",""1"",""1930""
","
","","","-1","","","15","14705","5004","j","elianto","#3366ff99","-1","-1","1","+10","[]","0","2","","","14705","101","9","2","win","no-go","0"
"pit-trial","223","1477493","0.0-106.0","battery-v0.2","","""event"",""trial"",""time""
""focus"",""0"",""2""
""fullscreenenter"",""1"",""1930""
","
","""event"",""trial"",""time""
""focus"",""0"",""2""
","""event"",""trial"",""time""
""fullscreenenter"",""1"",""1930""
","
","","","-1","","","15","14705","5004","w","elianto","#f73b6a7A","-1","-1","1","-10","[]","0","2","","","14705","102","6","4","lose","no-go","1"
"pit-trial","224","1482352","0.0-107.0","battery-v0.2","","""event"",""trial"",""time""
""focus"",""0"",""2""
""fullscreenenter"",""1"",""1930""
","
","""event"",""trial"",""time""
""focus"",""0"",""2""
","""event"",""trial"",""time""
""fullscreenenter"",""1"",""1930""
","
","","","-1","","","15","14705","5004","d","elianto","#3366ff99","-1","-1","1","+10","[]","0","2","","","14705","103","8","2","win","no-go","0"
"pit-trial","225","1487205","0.0-108.0","battery-v0.2","","""event"",""trial"",""time""
""focus"",""0"",""2""
""fullscreenenter"",""1"",""1930""
","
","""event"",""trial"",""time""
""focus"",""0"",""2""
","""event"",""trial"",""time""
""fullscreenenter"",""1"",""1930""
","
","","","-1","","","15","14705","5004","s","elianto","#3366ff99"," ","-1","0","0","[]","0","2","","","14705","104","5","1","win","go","0"
"pit-trial","226","1492063","0.0-109.0","battery-v0.2","","""event"",""trial"",""time""
""focus"",""0"",""2""
""fullscreenenter"",""1"",""1930""
","
","""event"",""trial"",""time""
""focus"",""0"",""2""
","""event"",""trial"",""time""
""fullscreenenter"",""1"",""1930""
","
","","","-1","","","15","14705","5004","s","elianto","#3366ff99"," ","-1","0","0","[]","0","2","","","14705","105","5","1","win","go","0"
"pit-trial","227","1496922","0.0-110.0","battery-v0.2","","""event"",""trial"",""time""
""focus"",""0"",""2""
""fullscreenenter"",""1"",""1930""
","
","""event"",""trial"",""time""
""focus"",""0"",""2""
","""event"",""trial"",""time""
""fullscreenenter"",""1"",""1930""
","
","","","-1","","","15","14705","5004","j","elianto","#3366ff99","-1","-1","1","0","[]","0","2","","","14705","106","9","2","win","no-go","1"
"pit-trial","228","1501290","0.0-111.0","battery-v0.2","","""event"",""trial"",""time""
""focus"",""0"",""2""
""fullscreenenter"",""1"",""1930""
","
","""event"",""trial"",""time""
""focus"",""0"",""2""
","""event"",""trial"",""time""
""fullscreenenter"",""1"",""1930""
","
","","","1510","","","15","14705","5004","w","elianto","#f73b6a7A","-1"," ","0","0","[2362]","1","2","","","14705","107","6","4","lose","no-go","1"
"pit-trial","229","1505285","0.0-112.0","battery-v0.2","","""event"",""trial"",""time""
""focus"",""0"",""2""
""fullscreenenter"",""1"",""1930""
","
","""event"",""trial"",""time""
""focus"",""0"",""2""
","""event"",""trial"",""time""
""fullscreenenter"",""1"",""1930""
","
