"trial_type","trial_index","time_elapsed","internal_node_id","task_version","subject_id","interactions","blur_events","focus_events","fullscreenenter_events","fullscreenexit_events","success","view_history","rt","responses","num_errors","age","subject","participantId","rune","rune_set","hex","correct","choice","accuracy","outcome","keys","total_keys","block","practice","value","sub","trial","stimulus","robot","valence","action","sham"
"pavlovia","0","7","0.0-0.0","battery-v0.2","","""event"",""trial"",""time""
""fullscreenenter"",""1"",""2458""
","
","
","""event"",""trial"",""time""
""fullscreenenter"",""1"",""2458""
","
","","","","","","","","","","","","","","","","","","","","","","","","","","",""
"fullscreen","1","3422","0.0-1.0","battery-v0.2","","""event"",""trial"",""time""
""fullscreenenter"",""1"",""2458""
","
","
","""event"",""trial"",""time""
""fullscreenenter"",""1"",""2458""
","
","true","","","","","","","","","","","","","","","","","","","","","","","","","",""
"pit-instructions","2","11366","0.0-2.0-0.0","battery-v0.2","","""event"",""trial"",""time""
""fullscreenenter"",""1"",""2458""
","
","
","""event"",""trial"",""time""
""fullscreenenter"",""1"",""2458""
","
","","[{""page_index"":0,""viewing_time"":7936}]","7937","","","","","","","","","","","","","","","","","","","","","","","",""
"pit-comprehension","3","15611","0.0-2.0-1.0-0.0","battery-v0.2","","""event"",""trial"",""time""
""fullscreenenter"",""1"",""2458""
","
","
","""event"",""trial"",""time""
""fullscreenenter"",""1"",""2458""
","
","","","4201","[""shark""]","0","19","5854","3394","","","","","","","","","","","","","","","","","","",""
"pit-instructions","4","18685","0.0-2.0-1.0-1.0","battery-v0.2","","""event"",""trial"",""time""
""fullscreenenter"",""1"",""2458""
","
","
","""event"",""trial"",""time""
""fullscreenenter"",""1"",""2458""
","
","","[{""page_index"":0,""viewing_time"":3067}]","3068","","","","","","","","","","","","","","","","","","","","","","","",""
"pit-comprehension","5","21875","0.0-2.0-2.0-0.0","battery-v0.2","","""event"",""trial"",""time""
""fullscreenenter"",""1"",""2458""
","
","
","""event"",""trial"",""time""
""fullscreenenter"",""1"",""2458""
","
","","","3183.9999999999964","[""tiger""]","0","19","5854","3394","","","","","","","","","","","","","","","","","","",""
"pit-instructions","6","22935","0.0-2.0-2.0-1.0","battery-v0.2","","""event"",""trial"",""time""
""fullscreenenter"",""1"",""2458""
","
","
","""event"",""trial"",""time""
""fullscreenenter"",""1"",""2458""
","
","","[{""page_index"":0,""viewing_time"":1054.9999999999964}]","1055.9999999999964","","","","","","","","","","","","","","","","","","","","","","","",""
"pit-instructions","7","149422","0.0-2.0-3.0","battery-v0.2","","""event"",""trial"",""time""
""fullscreenenter"",""1"",""2458""
","
","
","""event"",""trial"",""time""
""fullscreenenter"",""1"",""2458""
","
","","[{""page_index"":0,""viewing_time"":9491},{""page_index"":1,""viewing_time"":5940},{""page_index"":2,""viewing_time"":7379},{""page_index"":3,""viewing_time"":5875},{""page_index"":4,""viewing_time"":5693},{""page_index"":5,""viewing_time"":5465},{""page_index"":6,""viewing_time"":7533},{""page_index"":7,""viewing_time"":7398},{""page_index"":8,""viewing_time"":6299},{""page_index"":9,""viewing_time"":13341},{""page_index"":10,""viewing_time"":8226},{""page_index"":11,""viewing_time"":8750},{""page_index"":10,""viewing_time"":891},{""page_index"":9,""viewing_time"":6751},{""page_index"":10,""viewing_time"":7129.000000000015},{""page_index"":11,""viewing_time"":7819.999999999985},{""page_index"":12,""viewing_time"":6997},{""page_index"":13,""viewing_time"":5503}]","126482","","","","","","","","","","","","","","","","","","","","","","","",""
"pit-trial","8","153216","0.0-2.0-4.0-0.0","battery-v0.2","","""event"",""trial"",""time""
""fullscreenenter"",""1"",""2458""
","
","
","""event"",""trial"",""time""
""fullscreenenter"",""1"",""2458""
","
","","","936","","","19","5854","3394","&#9784;","elianto","#FFFFF080"," "," ","1","&#10004","[1786]","1","0","0","","","","","","","",""
"pit-trial","9","156772","0.0-2.0-4.1-0.1","battery-v0.2","","""event"",""trial"",""time""
""fullscreenenter"",""1"",""2458""
","
","
","""event"",""trial"",""time""
""fullscreenenter"",""1"",""2458""
","
","","","697","","","19","5854","3394","&#9784;","elianto","#FFFFF080"," "," ","1","&#10004","[1548]","1","0","0","","","","","","","",""
"pit-trial","10","161095","0.0-2.0-4.2-0.2","battery-v0.2","","""event"",""trial"",""time""
""fullscreenenter"",""1"",""2458""
","
","
","""event"",""trial"",""time""
""fullscreenenter"",""1"",""2458""
","
","","","1464","","","19","5854","3394","&#9784;","elianto","#FFFFF080"," "," ","1","&#10004","[2314]","1","0","0","","","","","","","",""
"pit-trial","11","164801","0.0-2.0-4.3-0.3","battery-v0.2","","""event"",""trial"",""time""
""fullscreenenter"",""1"",""2458""
","
","
","""event"",""trial"",""time""
""fullscreenenter"",""1"",""2458""
","
","","","848","","","19","5854","3394","&#9784;","elianto","#FFFFF080"," "," ","1","&#10004","[1698]","1","0","0","","","","","","","",""
"pit-trial","12","168057","0.0-2.0-4.4-0.4","battery-v0.2","","""event"",""trial"",""time""
""fullscreenenter"",""1"",""2458""
","
","
","""event"",""trial"",""time""
""fullscreenenter"",""1"",""2458""
","
","","","395","","","19","5854","3394","&#9784;","elianto","#FFFFF080"," "," ","1","&#10004","[1247]","1","0","0","","","","","","","",""
"pit-instructions","13","191787","0.0-2.0-5.0","battery-v0.2","","""event"",""trial"",""time""
""fullscreenenter"",""1"",""2458""
","
","
","""event"",""trial"",""time""
""fullscreenenter"",""1"",""2458""
","
","","[{""page_index"":0,""viewing_time"":5736},{""page_index"":1,""viewing_time"":6313.000000000029},{""page_index"":2,""viewing_time"":6140.999999999971},{""page_index"":3,""viewing_time"":5532}]","23723","","","","","","","","","","","","","","","","","","","","","","","",""
"pit-trial","14","196645","0.0-2.0-6.0-0.0","battery-v0.2","","""event"",""trial"",""time""
""fullscreenenter"",""1"",""2458""
","
","
","""event"",""trial"",""time""
""fullscreenenter"",""1"",""2458""
","
","","","-1","","","19","5854","3394","&#9854;","elianto","#FFFFF080","-1","-1","1","&#10004","[]","0","0","1","","","","","","","",""
"pit-trial","15","201505","0.0-2.0-6.1-0.1","battery-v0.2","","""event"",""trial"",""time""
""fullscreenenter"",""1"",""2458""
","
","
","""event"",""trial"",""time""
""fullscreenenter"",""1"",""2458""
","
","","","-1","","","19","5854","3394","&#9854;","elianto","#FFFFF080","-1","-1","1","&#10004","[]","0","0","1","","","","","","","",""
"pit-trial","16","206364","0.0-2.0-6.2-0.2","battery-v0.2","","""event"",""trial"",""time""
""fullscreenenter"",""1"",""2458""
","
","
","""event"",""trial"",""time""
""fullscreenenter"",""1"",""2458""
","
","","","-1","","","19","5854","3394","&#9854;","elianto","#FFFFF080","-1","-1","1","&#10004","[]","0","0","1","","","","","","","",""
"pit-trial","17","211222","0.0-2.0-6.3-0.3","battery-v0.2","","""event"",""trial"",""time""
""fullscreenenter"",""1"",""2458""
","
","
","""event"",""trial"",""time""
""fullscreenenter"",""1"",""2458""
","
","","","-1","","","19","5854","3394","&#9854;","elianto","#FFFFF080","-1","-1","1","&#10004","[]","0","0","1","","","","","","","",""
"pit-trial","18","216084","0.0-2.0-6.4-0.4","battery-v0.2","","""event"",""trial"",""time""
""fullscreenenter"",""1"",""2458""
","
","
","""event"",""trial"",""time""
""fullscreenenter"",""1"",""2458""
","
","","","-1","","","19","5854","3394","&#9854;","elianto","#FFFFF080","-1","-1","1","&#10004","[]","0","0","1","","","","","","","",""
"pit-instructions","19","368531","0.0-2.0-7.0","battery-v0.2","","""event"",""trial"",""time""
""fullscreenenter"",""1"",""2458""
","
","
","""event"",""trial"",""time""
""fullscreenenter"",""1"",""2458""
","
","","[{""page_index"":0,""viewing_time"":6296},{""page_index"":1,""viewing_time"":8201},{""page_index"":2,""viewing_time"":7754},{""page_index"":3,""viewing_time"":8796.00000000003},{""page_index"":4,""viewing_time"":6173.999999999971},{""page_index"":5,""viewing_time"":9080},{""page_index"":6,""viewing_time"":5708},{""page_index"":7,""viewing_time"":8163},{""page_index"":8,""viewing_time"":28781},{""page_index"":9,""viewing_time"":6555.000000000058},{""page_index"":10,""viewing_time"":7784.999999999942},{""page_index"":11,""viewing_time"":5086},{""page_index"":12,""viewing_time"":7601},{""page_index"":13,""viewing_time"":8270},{""page_index"":14,""viewing_time"":7193.000000000058},{""page_index"":15,""viewing_time"":6536},{""page_index"":16,""viewing_time"":6553.999999999942},{""page_index"":17,""viewing_time"":7908}]","152442","","","","","","","","","","","","","","","","","","","","","","","",""
"pit-trial","20","372547","0.0-2.0-8.0-0.0","battery-v0.2","","""event"",""trial"",""time""
""fullscreenenter"",""1"",""2458""
","
","
","""event"",""trial"",""time""
""fullscreenenter"",""1"",""2458""
","
","","","1158.0000000000582","","","19","5854","3394","&#9776;","elianto","#3366ff99"," "," ","1","+10","[2008]","1","0","1","","","","","","","",""
"pit-trial","21","376313","0.0-2.0-8.0-1.0","battery-v0.2","","""event"",""trial"",""time""
""fullscreenenter"",""1"",""2458""
","
","
","""event"",""trial"",""time""
""fullscreenenter"",""1"",""2458""
","
","","","908","","","19","5854","3394","&#9776;","elianto","#3366ff99"," "," ","1","+10","[1759]","1","0","1","","","","","","","",""
"pit-trial","22","379574","0.0-2.0-8.0-2.0","battery-v0.2","","""event"",""trial"",""time""
""fullscreenenter"",""1"",""2458""
","
","
","""event"",""trial"",""time""
""fullscreenenter"",""1"",""2458""
","
","","","402","","","19","5854","3394","&#9776;","elianto","#3366ff99"," "," ","1","+10","[1252.9999999999418]","1","0","1","","","","","","","",""
"pit-trial","23","382984","0.0-2.0-8.0-3.0","battery-v0.2","","""event"",""trial"",""time""
""fullscreenenter"",""1"",""2458""
","
","
","""event"",""trial"",""time""
""fullscreenenter"",""1"",""2458""
","
","","","552","","","19","5854","3394","&#9776;","elianto","#3366ff99"," "," ","1","0","[1402]","1","0","1","","","","","","","",""
"pit-trial","24","386172","0.0-2.0-8.0-4.0","battery-v0.2","","""event"",""trial"",""time""
""fullscreenenter"",""1"",""2458""
","
","
","""event"",""trial"",""time""
""fullscreenenter"",""1"",""2458""
","
","","","328.0000000000582","","","19","5854","3394","&#9776;","elianto","#3366ff99"," "," ","1","+10","[1178]","1","0","1","","","","","","","",""
"pit-trial","25","389546","0.0-2.0-8.1-0.1","battery-v0.2","","""event"",""trial"",""time""
""fullscreenenter"",""1"",""2458""
","
","
","""event"",""trial"",""time""
""fullscreenenter"",""1"",""2458""
","
","","","515","","","19","5854","3394","&#9776;","elianto","#3366ff99"," "," ","1","+10","[1366]","1","0","1","","","","","","","",""
"pit-trial","26","392906","0.0-2.0-8.1-1.1","battery-v0.2","","""event"",""trial"",""time""
""fullscreenenter"",""1"",""2458""
","
","
","""event"",""trial"",""time""
""fullscreenenter"",""1"",""2458""
","
","","","502","","","19","5854","3394","&#9776;","elianto","#3366ff99"," "," ","1","+10","[1353]","1","0","1","","","","","","","",""
"pit-trial","27","396027","0.0-2.0-8.1-2.1","battery-v0.2","","""event"",""trial"",""time""
""fullscreenenter"",""1"",""2458""
","
","
","""event"",""trial"",""time""
""fullscreenenter"",""1"",""2458""
","
","","","262","","","19","5854","3394","&#9776;","elianto","#3366ff99"," "," ","1","+10","[1113]","1","0","1","","","","","","","",""
"pit-trial","28","399317","0.0-2.0-8.1-3.1","battery-v0.2","","""event"",""trial"",""time""
""fullscreenenter"",""1"",""2458""
","
","
","""event"",""trial"",""time""
""fullscreenenter"",""1"",""2458""
","
","","","431.9999999999418","","","19","5854","3394","&#9776;","elianto","#3366ff99"," "," ","1","0","[1281]","1","0","1","","","","","","","",""
"pit-trial","29","402793","0.0-2.0-8.1-4.1","battery-v0.2","","""event"",""trial"",""time""
""fullscreenenter"",""1"",""2458""
","
","
","""event"",""trial"",""time""
""fullscreenenter"",""1"",""2458""
","
","","","616","","","19","5854","3394","&#9776;","elianto","#3366ff99"," "," ","1","+10","[1469]","1","0","1","","","","","","","",""
"pit-trial","30","406208","0.0-2.0-8.2-0.2","battery-v0.2","","""event"",""trial"",""time""
""fullscreenenter"",""1"",""2458""
","
","
","""event"",""trial"",""time""
""fullscreenenter"",""1"",""2458""
","
","","","556","","","19","5854","3394","&#9776;","elianto","#3366ff99"," "," ","1","+10","[1406.0000000000582]","1","0","1","","","","","","","",""
"pit-trial","31","409566","0.0-2.0-8.2-1.2","battery-v0.2","","""event"",""trial"",""time""
""fullscreenenter"",""1"",""2458""
","
","
","""event"",""trial"",""time""
""fullscreenenter"",""1"",""2458""
","
","","","496","","","19","5854","3394","&#9776;","elianto","#3366ff99"," "," ","1","+10","[1351]","1","0","1","","","","","","","",""
"pit-trial","32","413086","0.0-2.0-8.2-2.2","battery-v0.2","","""event"",""trial"",""time""
""fullscreenenter"",""1"",""2458""
","
","
","""event"",""trial"",""time""
""fullscreenenter"",""1"",""2458""
","
","","","664","","","19","5854","3394","&#9776;","elianto","#3366ff99"," "," ","1","+10","[1514]","1","0","1","","","","","","","",""
"pit-trial","33","416406","0.0-2.0-8.2-3.2","battery-v0.2","","""event"",""trial"",""time""
""fullscreenenter"",""1"",""2458""
","
","
","""event"",""trial"",""time""
""fullscreenenter"",""1"",""2458""
","
","","","461","","","19","5854","3394","&#9776;","elianto","#3366ff99"," "," ","1","0","[1312]","1","0","1","","","","","","","",""
"pit-trial","34","419716","0.0-2.0-8.2-4.2","battery-v0.2","","""event"",""trial"",""time""
""fullscreenenter"",""1"",""2458""
","
","
","""event"",""trial"",""time""
""fullscreenenter"",""1"",""2458""
","
","","","453","","","19","5854","3394","&#9776;","elianto","#3366ff99"," "," ","1","+10","[1302]","1","0","1","","","","","","","",""
"call-function","35","419721","0.0-2.0-9.0","battery-v0.2","","""event"",""trial"",""time""
""fullscreenenter"",""1"",""2458""
","
","
","""event"",""trial"",""time""
""fullscreenenter"",""1"",""2458""
","
","","","","","","","","","","","","","","","","","","","","","","","","","","",""
"pit-instructions","36","463093","0.0-2.0-10.0","battery-v0.2","","""event"",""trial"",""time""
""fullscreenenter"",""1"",""2458""
","
","
","""event"",""trial"",""time""
""fullscreenenter"",""1"",""2458""
","
","","[{""page_index"":0,""viewing_time"":7465.999999999942},{""page_index"":1,""viewing_time"":8440.000000000058},{""page_index"":2,""viewing_time"":10038.999999999942},{""page_index"":3,""viewing_time"":9396},{""page_index"":4,""viewing_time"":8029.000000000058}]","43370.99999999994","","","","","","","","","","","","","","","","","","","","","","","",""
"pit-trial","37","466938","0.0-2.0-11.0-0.0","battery-v0.2","","""event"",""trial"",""time""
""fullscreenenter"",""1"",""2458""
","
","
","""event"",""trial"",""time""
""fullscreenenter"",""1"",""2458""
","
","","","989","","","19","5854","3394","&#9761;","elianto","#3366ff99","-1"," ","0","0","[1838.9999999999418]","1","0","2","","","","","","","",""
"pit-trial","38","471634","0.0-2.0-11.0-1.0","battery-v0.2","","""event"",""trial"",""time""
""fullscreenenter"",""1"",""2458""
","
","
","""event"",""trial"",""time""
""fullscreenenter"",""1"",""2458""
","
","","","1837","","","19","5854","3394","&#9761;","elianto","#3366ff99","-1"," ","0","0","[2688]","1","0","2","","","","","","","",""
"pit-trial","39","476492","0.0-2.0-11.0-2.0","battery-v0.2","","""event"",""trial"",""time""
""fullscreenenter"",""1"",""2458""
","
","
","""event"",""trial"",""time""
""fullscreenenter"",""1"",""2458""
","
","","","-1","","","19","5854","3394","&#9761;","elianto","#3366ff99","-1","-1","1","+10","[]","0","0","2","","","","","","","",""
"pit-trial","40","481352","0.0-2.0-11.0-3.0","battery-v0.2","","""event"",""trial"",""time""
""fullscreenenter"",""1"",""2458""
","
","
","""event"",""trial"",""time""
""fullscreenenter"",""1"",""2458""
","
","","","-1","","","19","5854","3394","&#9761;","elianto","#3366ff99","-1","-1","1","0","[]","0","0","2","","","","","","","",""
"pit-trial","41","486209","0.0-2.0-11.0-4.0","battery-v0.2","","""event"",""trial"",""time""
""fullscreenenter"",""1"",""2458""
","
","
","""event"",""trial"",""time""
""fullscreenenter"",""1"",""2458""
","
","","","-1","","","19","5854","3394","&#9761;","elianto","#3366ff99","-1","-1","1","+10","[]","0","0","2","","","","","","","",""
"pit-trial","42","491067","0.0-2.0-11.1-0.1","battery-v0.2","","""event"",""trial"",""time""
""fullscreenenter"",""1"",""2458""
","
","
","""event"",""trial"",""time""
""fullscreenenter"",""1"",""2458""
","
","","","-1","","","19","5854","3394","&#9761;","elianto","#3366ff99","-1","-1","1","+10","[]","0","0","2","","","","","","","",""
"pit-trial","43","495925","0.0-2.0-11.1-1.1","battery-v0.2","","""event"",""trial"",""time""
""fullscreenenter"",""1"",""2458""
","
","
","""event"",""trial"",""time""
""fullscreenenter"",""1"",""2458""
","
","","","-1","","","19","5854","3394","&#9761;","elianto","#3366ff99","-1","-1","1","+10","[]","0","0","2","","","","","","","",""
"pit-trial","44","500784","0.0-2.0-11.1-2.1","battery-v0.2","","""event"",""trial"",""time""
""fullscreenenter"",""1"",""2458""
","
","
","""event"",""trial"",""time""
""fullscreenenter"",""1"",""2458""
","
","","","-1","","","19","5854","3394","&#9761;","elianto","#3366ff99","-1","-1","1","+10","[]","0","0","2","","","","","","","",""
"pit-trial","45","505643","0.0-2.0-11.1-3.1","battery-v0.2","","""event"",""trial"",""time""
""fullscreenenter"",""1"",""2458""
","
","
","""event"",""trial"",""time""
""fullscreenenter"",""1"",""2458""
","
","","","-1","","","19","5854","3394","&#9761;","elianto","#3366ff99","-1","-1","1","0","[]","0","0","2","","","","","","","",""
"pit-trial","46","510500","0.0-2.0-11.1-4.1","battery-v0.2","","""event"",""trial"",""time""
""fullscreenenter"",""1"",""2458""
","
","
","""event"",""trial"",""time""
""fullscreenenter"",""1"",""2458""
","
","","","-1","","","19","5854","3394","&#9761;","elianto","#3366ff99","-1","-1","1","+10","[]","0","0","2","","","","","","","",""
"pit-trial","47","515359","0.0-2.0-11.2-0.2","battery-v0.2","","""event"",""trial"",""time""
""fullscreenenter"",""1"",""2458""
","
","
","""event"",""trial"",""time""
""fullscreenenter"",""1"",""2458""
","
","","","-1","","","19","5854","3394","&#9761;","elianto","#3366ff99","-1","-1","1","+10","[]","0","0","2","","","","","","","",""
"pit-trial","48","520219","0.0-2.0-11.2-1.2","battery-v0.2","","""event"",""trial"",""time""
""fullscreenenter"",""1"",""2458""
","
","
","""event"",""trial"",""time""
""fullscreenenter"",""1"",""2458""
","
","","","-1","","","19","5854","3394","&#9761;","elianto","#3366ff99","-1","-1","1","+10","[]","0","0","2","","","","","","","",""
"pit-trial","49","525076","0.0-2.0-11.2-2.2","battery-v0.2","","""event"",""trial"",""time""
""fullscreenenter"",""1"",""2458""
","
","
","""event"",""trial"",""time""
""fullscreenenter"",""1"",""2458""
","
","","","-1","","","19","5854","3394","&#9761;","elianto","#3366ff99","-1","-1","1","+10","[]","0","0","2","","","","","","","",""
"pit-trial","50","529935","0.0-2.0-11.2-3.2","battery-v0.2","","""event"",""trial"",""time""
""fullscreenenter"",""1"",""2458""
","
","
","""event"",""trial"",""time""
""fullscreenenter"",""1"",""2458""
","
","","","-1","","","19","5854","3394","&#9761;","elianto","#3366ff99","-1","-1","1","0","[]","0","0","2","","","","","","","",""
"pit-trial","51","534794","0.0-2.0-11.2-4.2","battery-v0.2","","""event"",""trial"",""time""
""fullscreenenter"",""1"",""2458""
","
","
","""event"",""trial"",""time""
""fullscreenenter"",""1"",""2458""
","
","","","-1","","","19","5854","3394","&#9761;","elianto","#3366ff99","-1","-1","1","+10","[]","0","0","2","","","","","","","",""
"pit-trial","52","539652","0.0-2.0-11.3-0.3","battery-v0.2","","""event"",""trial"",""time""
""fullscreenenter"",""1"",""2458""
","
","
","""event"",""trial"",""time""
""fullscreenenter"",""1"",""2458""
","
","","","-1","","","19","5854","3394","&#9761;","elianto","#3366ff99","-1","-1","1","+10","[]","0","0","2","","","","","","","",""
"pit-trial","53","544511","0.0-2.0-11.3-1.3","battery-v0.2","","""event"",""trial"",""time""
""fullscreenenter"",""1"",""2458""
","
","
","""event"",""trial"",""time""
""fullscreenenter"",""1"",""2458""
","
","","","-1","","","19","5854","3394","&#9761;","elianto","#3366ff99","-1","-1","1","+10","[]","0","0","2","","","","","","","",""
"pit-trial","54","549370","0.0-2.0-11.3-2.3","battery-v0.2","","""event"",""trial"",""time""
""fullscreenenter"",""1"",""2458""
","
","
","""event"",""trial"",""time""
""fullscreenenter"",""1"",""2458""
","
","","","-1","","","19","5854","3394","&#9761;","elianto","#3366ff99","-1","-1","1","+10","[]","0","0","2","","","","","","","",""
"pit-trial","55","554230","0.0-2.0-11.3-3.3","battery-v0.2","","""event"",""trial"",""time""
""fullscreenenter"",""1"",""2458""
","
","
","""event"",""trial"",""time""
""fullscreenenter"",""1"",""2458""
","
","","","-1","","","19","5854","3394","&#9761;","elianto","#3366ff99","-1","-1","1","0","[]","0","0","2","","","","","","","",""
"pit-trial","56","559088","0.0-2.0-11.3-4.3","battery-v0.2","","""event"",""trial"",""time""
""fullscreenenter"",""1"",""2458""
","
","
","""event"",""trial"",""time""
""fullscreenenter"",""1"",""2458""
","
","","","-1","","","19","5854","3394","&#9761;","elianto","#3366ff99","-1","-1","1","+10","[]","0","0","2","","","","","","","",""
"call-function","57","559093","0.0-2.0-12.0","battery-v0.2","","""event"",""trial"",""time""
""fullscreenenter"",""1"",""2458""
","
","
","""event"",""trial"",""time""
""fullscreenenter"",""1"",""2458""
","
","","","","","","","","","","","","","","","","","","","","","","","","","","",""
"pit-instructions","58","591079","0.0-2.0-13.0","battery-v0.2","","""event"",""trial"",""time""
""fullscreenenter"",""1"",""2458""
","
","
","""event"",""trial"",""time""
""fullscreenenter"",""1"",""2458""
","
","","[{""page_index"":0,""viewing_time"":5887},{""page_index"":1,""viewing_time"":6987},{""page_index"":2,""viewing_time"":3303},{""page_index"":3,""viewing_time"":10475.000000000116},{""page_index"":4,""viewing_time"":5332.999999999884}]","31986","","","","","","","","","","","","","","","","","","","","","","","",""
"pit-trial","59","594707","0.0-2.0-14.0-0.0","battery-v0.2","","""event"",""trial"",""time""
""fullscreenenter"",""1"",""2458""
","
","
","""event"",""trial"",""time""
""fullscreenenter"",""1"",""2458""
","
","","","768","","","19","5854","3394","&#9826;","elianto","#f73b6a7A","-1"," ","0","-10","[1618]","1","0","3","","","","","","","",""
"pit-trial","60","599566","0.0-2.0-14.0-1.0","battery-v0.2","","""event"",""trial"",""time""
""fullscreenenter"",""1"",""2458""
","
","
","""event"",""trial"",""time""
""fullscreenenter"",""1"",""2458""
","
","","","-1","","","19","5854","3394","&#9826;","elianto","#f73b6a7A","-1","-1","1","0","[]","0","0","3","","","","","","","",""
"pit-trial","61","604424","0.0-2.0-14.0-2.0","battery-v0.2","","""event"",""trial"",""time""
""fullscreenenter"",""1"",""2458""
","
","
","""event"",""trial"",""time""
""fullscreenenter"",""1"",""2458""
","
","","","-1","","","19","5854","3394","&#9826;","elianto","#f73b6a7A","-1","-1","1","0","[]","0","0","3","","","","","","","",""
"pit-trial","62","609282","0.0-2.0-14.0-3.0","battery-v0.2","","""event"",""trial"",""time""
""fullscreenenter"",""1"",""2458""
","
","
","""event"",""trial"",""time""
""fullscreenenter"",""1"",""2458""
","
","","","-1","","","19","5854","3394","&#9826;","elianto","#f73b6a7A","-1","-1","1","-10","[]","0","0","3","","","","","","","",""
"pit-trial","63","613456","0.0-2.0-14.0-4.0","battery-v0.2","","""event"",""trial"",""time""
""fullscreenenter"",""1"",""2458""
","
","
","""event"",""trial"",""time""
""fullscreenenter"",""1"",""2458""
","
","","","1315","","","19","5854","3394","&#9826;","elianto","#f73b6a7A","-1"," ","0","-10","[2166]","1","0","3","","","","","","","",""
"pit-trial","64","618315","0.0-2.0-14.1-0.1","battery-v0.2","","""event"",""trial"",""time""
""fullscreenenter"",""1"",""2458""
","
","
","""event"",""trial"",""time""
""fullscreenenter"",""1"",""2458""
","
","","","-1","","","19","5854","3394","&#9826;","elianto","#f73b6a7A","-1","-1","1","0","[]","0","0","3","","","","","","","",""
"pit-trial","65","623174","0.0-2.0-14.1-1.1","battery-v0.2","","""event"",""trial"",""time""
""fullscreenenter"",""1"",""2458""
","
","
","""event"",""trial"",""time""
""fullscreenenter"",""1"",""2458""
","
","","","-1","","","19","5854","3394","&#9826;","elianto","#f73b6a7A","-1","-1","1","0","[]","0","0","3","","","","","","","",""
"pit-trial","66","628032","0.0-2.0-14.1-2.1","battery-v0.2","","""event"",""trial"",""time""
""fullscreenenter"",""1"",""2458""
","
","
","""event"",""trial"",""time""
""fullscreenenter"",""1"",""2458""
","
","","","-1","","","19","5854","3394","&#9826;","elianto","#f73b6a7A","-1","-1","1","0","[]","0","0","3","","","","","","","",""
"pit-trial","67","632891","0.0-2.0-14.1-3.1","battery-v0.2","","""event"",""trial"",""time""
""fullscreenenter"",""1"",""2458""
","
","
","""event"",""trial"",""time""
""fullscreenenter"",""1"",""2458""
","
","","","-1","","","19","5854","3394","&#9826;","elianto","#f73b6a7A","-1","-1","1","-10","[]","0","0","3","","","","","","","",""
"pit-trial","68","637748","0.0-2.0-14.1-4.1","battery-v0.2","","""event"",""trial"",""time""
""fullscreenenter"",""1"",""2458""
","
","
","""event"",""trial"",""time""
""fullscreenenter"",""1"",""2458""
","
","","","-1","","","19","5854","3394","&#9826;","elianto","#f73b6a7A","-1","-1","1","0","[]","0","0","3","","","","","","","",""
"pit-trial","69","642604","0.0-2.0-14.2-0.2","battery-v0.2","","""event"",""trial"",""time""
""fullscreenenter"",""1"",""2458""
","
","
","""event"",""trial"",""time""
""fullscreenenter"",""1"",""2458""
","
","","","-1","","","19","5854","3394","&#9826;","elianto","#f73b6a7A","-1","-1","1","0","[]","0","0","3","","","","","","","",""
"pit-trial","70","647462","0.0-2.0-14.2-1.2","battery-v0.2","","""event"",""trial"",""time""
""fullscreenenter"",""1"",""2458""
","
","
","""event"",""trial"",""time""
""fullscreenenter"",""1"",""2458""
","
","","","-1","","","19","5854","3394","&#9826;","elianto","#f73b6a7A","-1","-1","1","0","[]","0","0","3","","","","","","","",""
"pit-trial","71","652320","0.0-2.0-14.2-2.2","battery-v0.2","","""event"",""trial"",""time""
""fullscreenenter"",""1"",""2458""
","
","
","""event"",""trial"",""time""
""fullscreenenter"",""1"",""2458""
","
","","","-1","","","19","5854","3394","&#9826;","elianto","#f73b6a7A","-1","-1","1","0","[]","0","0","3","","","","","","","",""
"pit-trial","72","657178","0.0-2.0-14.2-3.2","battery-v0.2","","""event"",""trial"",""time""
""fullscreenenter"",""1"",""2458""
","
","
","""event"",""trial"",""time""
""fullscreenenter"",""1"",""2458""
","
","","","-1","","","19","5854","3394","&#9826;","elianto","#f73b6a7A","-1","-1","1","-10","[]","0","0","3","","","","","","","",""
"pit-trial","73","662037","0.0-2.0-14.2-4.2","battery-v0.2","","""event"",""trial"",""time""
""fullscreenenter"",""1"",""2458""
","
","
","""event"",""trial"",""time""
""fullscreenenter"",""1"",""2458""
","
","","","-1","","","19","5854","3394","&#9826;","elianto","#f73b6a7A","-1","-1","1","0","[]","0","0","3","","","","","","","",""
"pit-trial","74","666895","0.0-2.0-14.3-0.3","battery-v0.2","","""event"",""trial"",""time""
""fullscreenenter"",""1"",""2458""
","
","
","""event"",""trial"",""time""
""fullscreenenter"",""1"",""2458""
","
","","","-1","","","19","5854","3394","&#9826;","elianto","#f73b6a7A","-1","-1","1","0","[]","0","0","3","","","","","","","",""
"pit-trial","75","671755","0.0-2.0-14.3-1.3","battery-v0.2","","""event"",""trial"",""time""
""fullscreenenter"",""1"",""2458""
","
","
","""event"",""trial"",""time""
""fullscreenenter"",""1"",""2458""
","
","","","-1","","","19","5854","3394","&#9826;","elianto","#f73b6a7A","-1","-1","1","0","[]","0","0","3","","","","","","","",""
"pit-trial","76","676613","0.0-2.0-14.3-2.3","battery-v0.2","","""event"",""trial"",""time""
""fullscreenenter"",""1"",""2458""
","
","
","""event"",""trial"",""time""
""fullscreenenter"",""1"",""2458""
","
","","","-1","","","19","5854","3394","&#9826;","elianto","#f73b6a7A","-1","-1","1","0","[]","0","0","3","","","","","","","",""
"pit-trial","77","681471","0.0-2.0-14.3-3.3","battery-v0.2","","""event"",""trial"",""time""
""fullscreenenter"",""1"",""2458""
","
","
","""event"",""trial"",""time""
""fullscreenenter"",""1"",""2458""
","
","","","-1","","","19","5854","3394","&#9826;","elianto","#f73b6a7A","-1","-1","1","-10","[]","0","0","3","","","","","","","",""
"pit-trial","78","686329","0.0-2.0-14.3-4.3","battery-v0.2","","""event"",""trial"",""time""
""fullscreenenter"",""1"",""2458""
","
","
","""event"",""trial"",""time""
""fullscreenenter"",""1"",""2458""
","
","","","-1","","","19","5854","3394","&#9826;","elianto","#f73b6a7A","-1","-1","1","0","[]","0","0","3","","","","","","","",""
"call-function","79","686333","0.0-2.0-15.0","battery-v0.2","","""event"",""trial"",""time""
""fullscreenenter"",""1"",""2458""
","
","
","""event"",""trial"",""time""
""fullscreenenter"",""1"",""2458""
","
","","","","","","","","","","","","","","","","","","","","","","","","","","",""
"pit-instructions","80","711142","0.0-2.0-16.0","battery-v0.2","","""event"",""trial"",""time""
""fullscreenenter"",""1"",""2458""
","
","
","""event"",""trial"",""time""
""fullscreenenter"",""1"",""2458""
","
","","[{""page_index"":0,""viewing_time"":7210},{""page_index"":1,""viewing_time"":8271},{""page_index"":2,""viewing_time"":4390},{""page_index"":3,""viewing_time"":4937}]","24809","","","","","","","","","","","","","","","","","","","","","","","",""
"pit-trial","81","714482","0.0-2.0-17.0-0.0","battery-v0.2","","""event"",""trial"",""time""
""fullscreenenter"",""1"",""2458""
","
","
","""event"",""trial"",""time""
""fullscreenenter"",""1"",""2458""
","
","","","484","","","19","5854","3394","&#9789;","elianto","#f73b6a7A"," "," ","1","0","[1335]","1","0","4","","","","","","","",""
"pit-trial","82","717560","0.0-2.0-17.0-1.0","battery-v0.2","","""event"",""trial"",""time""
""fullscreenenter"",""1"",""2458""
","
","
","""event"",""trial"",""time""
""fullscreenenter"",""1"",""2458""
","
","","","219","","","19","5854","3394","&#9789;","elianto","#f73b6a7A"," "," ","1","0","[1071]","1","0","4","","","","","","","",""
"pit-trial","83","720704","0.0-2.0-17.0-2.0","battery-v0.2","","""event"",""trial"",""time""
""fullscreenenter"",""1"",""2458""
","
","
","""event"",""trial"",""time""
""fullscreenenter"",""1"",""2458""
","
","","","285","","","19","5854","3394","&#9789;","elianto","#f73b6a7A"," "," ","1","0","[1136]","1","0","4","","","","","","","",""
"pit-trial","84","724126","0.0-2.0-17.0-3.0","battery-v0.2","","""event"",""trial"",""time""
""fullscreenenter"",""1"",""2458""
","
","
","""event"",""trial"",""time""
""fullscreenenter"",""1"",""2458""
","
","","","560","","","19","5854","3394","&#9789;","elianto","#f73b6a7A"," "," ","1","-10","[1412]","1","0","4","","","","","","","",""
"pit-trial","85","727211","0.0-2.0-17.0-4.0","battery-v0.2","","""event"",""trial"",""time""
""fullscreenenter"",""1"",""2458""
","
","
","""event"",""trial"",""time""
""fullscreenenter"",""1"",""2458""
","
","","","227","","","19","5854","3394","&#9789;","elianto","#f73b6a7A"," "," ","1","0","[757,1078]","2","0","4","","","","","","","",""
"pit-trial","86","730547","0.0-2.0-17.1-0.1","battery-v0.2","","""event"",""trial"",""time""
""fullscreenenter"",""1"",""2458""
","
","
","""event"",""trial"",""time""
""fullscreenenter"",""1"",""2458""
","
","","","478","","","19","5854","3394","&#9789;","elianto","#f73b6a7A"," "," ","1","0","[1328]","1","0","4","","","","","","","",""
"pit-trial","87","733968","0.0-2.0-17.1-1.1","battery-v0.2","","""event"",""trial"",""time""
""fullscreenenter"",""1"",""2458""
","
","
","""event"",""trial"",""time""
""fullscreenenter"",""1"",""2458""
","
","","","563","","","19","5854","3394","&#9789;","elianto","#f73b6a7A"," "," ","1","0","[1413.0000000001164]","1","0","4","","","","","","","",""
"pit-trial","88","737392","0.0-2.0-17.1-2.1","battery-v0.2","","""event"",""trial"",""time""
""fullscreenenter"",""1"",""2458""
","
","
","""event"",""trial"",""time""
""fullscreenenter"",""1"",""2458""
","
","","","566","","","19","5854","3394","&#9789;","elianto","#f73b6a7A"," "," ","1","0","[1416]","1","0","4","","","","","","","",""
"pit-trial","89","740712","0.0-2.0-17.1-3.1","battery-v0.2","","""event"",""trial"",""time""
""fullscreenenter"",""1"",""2458""
","
","
","""event"",""trial"",""time""
""fullscreenenter"",""1"",""2458""
","
","","","460.9999999998836","","","19","5854","3394","&#9789;","elianto","#f73b6a7A"," "," ","1","-10","[1313]","1","0","4","","","","","","","",""
"pit-trial","90","743733","0.0-2.0-17.1-4.1","battery-v0.2","","""event"",""trial"",""time""
""fullscreenenter"",""1"",""2458""
","
","
","""event"",""trial"",""time""
""fullscreenenter"",""1"",""2458""
","
","","","163","","","19","5854","3394","&#9789;","elianto","#f73b6a7A"," "," ","1","0","[1013]","1","0","4","","","","","","","",""
"pit-trial","91","747082","0.0-2.0-17.2-0.2","battery-v0.2","","""event"",""trial"",""time""
""fullscreenenter"",""1"",""2458""
","
","
","""event"",""trial"",""time""
""fullscreenenter"",""1"",""2458""
","
","","","489","","","19","5854","3394","&#9789;","elianto","#f73b6a7A"," "," ","1","0","[1341]","1","0","4","","","","","","","",""
"pit-trial","92","750428","0.0-2.0-17.2-1.2","battery-v0.2","","""event"",""trial"",""time""
""fullscreenenter"",""1"",""2458""
","
","
","""event"",""trial"",""time""
""fullscreenenter"",""1"",""2458""
","
","","","484.9999999998836","","","19","5854","3394","&#9789;","elianto","#f73b6a7A"," "," ","1","0","[1339]","1","0","4","","","","","","","",""
"pit-trial","93","753820","0.0-2.0-17.2-2.2","battery-v0.2","","""event"",""trial"",""time""
""fullscreenenter"",""1"",""2458""
","
","
","""event"",""trial"",""time""
""fullscreenenter"",""1"",""2458""
","
","","","533","","","19","5854","3394","&#9789;","elianto","#f73b6a7A"," "," ","1","0","[1384]","1","0","4","","","","","","","",""
"pit-trial","94","757168","0.0-2.0-17.2-3.2","battery-v0.2","","""event"",""trial"",""time""
""fullscreenenter"",""1"",""2458""
","
","
","""event"",""trial"",""time""
""fullscreenenter"",""1"",""2458""
","
","","","490","","","19","5854","3394","&#9789;","elianto","#f73b6a7A"," "," ","1","-10","[1340]","1","0","4","","","","","","","",""
"pit-trial","95","760524","0.0-2.0-17.2-4.2","battery-v0.2","","""event"",""trial"",""time""
""fullscreenenter"",""1"",""2458""
","
","
","""event"",""trial"",""time""
""fullscreenenter"",""1"",""2458""
","
","","","498","","","19","5854","3394","&#9789;","elianto","#f73b6a7A"," "," ","1","0","[1348]","1","0","4","","","","","","","",""
"pit-trial","96","763787","0.0-2.0-17.3-0.3","battery-v0.2","","""event"",""trial"",""time""
""fullscreenenter"",""1"",""2458""
","
","
","""event"",""trial"",""time""
""fullscreenenter"",""1"",""2458""
","
","","","400","","","19","5854","3394","&#9789;","elianto","#f73b6a7A"," "," ","1","0","[1255]","1","0","4","","","","","","","",""
"pit-trial","97","767153","0.0-2.0-17.3-1.3","battery-v0.2","","""event"",""trial"",""time""
""fullscreenenter"",""1"",""2458""
","
","
","""event"",""trial"",""time""
""fullscreenenter"",""1"",""2458""
","
","","","507.9999999998836","","","19","5854","3394","&#9789;","elianto","#f73b6a7A"," "," ","1","0","[1358]","1","0","4","","","","","","","",""
"pit-trial","98","770539","0.0-2.0-17.3-2.3","battery-v0.2","","""event"",""trial"",""time""
""fullscreenenter"",""1"",""2458""
","
","
","""event"",""trial"",""time""
""fullscreenenter"",""1"",""2458""
","
","","","528.0000000001164","","","19","5854","3394","&#9789;","elianto","#f73b6a7A"," "," ","1","0","[1378.0000000001164]","1","0","4","","","","","","","",""
"pit-trial","99","773834","0.0-2.0-17.3-3.3","battery-v0.2","","""event"",""trial"",""time""
""fullscreenenter"",""1"",""2458""
","
","
","""event"",""trial"",""time""
""fullscreenenter"",""1"",""2458""
","
","","","438","","","19","5854","3394","&#9789;","elianto","#f73b6a7A"," "," ","1","-10","[1287]","1","0","4","","","","","","","",""
"pit-trial","100","777215","0.0-2.0-17.3-4.3","battery-v0.2","","""event"",""trial"",""time""
""fullscreenenter"",""1"",""2458""
","
","
","""event"",""trial"",""time""
""fullscreenenter"",""1"",""2458""
","
","","","523","","","19","5854","3394","&#9789;","elianto","#f73b6a7A"," "," ","1","0","[1371.9999999998836]","1","0","4","","","","","","","",""
"call-function","101","777220","0.0-2.0-18.0","battery-v0.2","","""event"",""trial"",""time""
""fullscreenenter"",""1"",""2458""
","
","
","""event"",""trial"",""time""
""fullscreenenter"",""1"",""2458""
","
","","","","","","","","","","","","","","","","","","","","","","","","","","",""
"pit-instructions","102","848598","0.0-2.0-19.0","battery-v0.2","","""event"",""trial"",""time""
""fullscreenenter"",""1"",""2458""
","
","
","""event"",""trial"",""time""
""fullscreenenter"",""1"",""2458""
","
","","[{""page_index"":0,""viewing_time"":6438},{""page_index"":1,""viewing_time"":5844},{""page_index"":2,""viewing_time"":13769},{""page_index"":3,""viewing_time"":7767},{""page_index"":4,""viewing_time"":9525},{""page_index"":5,""viewing_time"":8322},{""page_index"":6,""viewing_time"":8941},{""page_index"":7,""viewing_time"":6667.000000000116},{""page_index"":8,""viewing_time"":4103.999999999884}]","71378","","","","","","","","","","","","","","","","","","","","","","","",""
"pit-comprehension","103","853001","0.0-2.0-20.0-0.0","battery-v0.2","","""event"",""trial"",""time""
""fullscreenenter"",""1"",""2458""
","
","
","""event"",""trial"",""time""
""fullscreenenter"",""1"",""2458""
","
","","","4397","[""SPACE""]","0","19","5854","3394","","","","","","","","","","","","","","","","","","",""
"pit-instructions","104","855814","0.0-2.0-20.0-1.0","battery-v0.2","","""event"",""trial"",""time""
""fullscreenenter"",""1"",""2458""
","
","
","""event"",""trial"",""time""
""fullscreenenter"",""1"",""2458""
","
","","[{""page_index"":0,""viewing_time"":2788}]","2789","","","","","","","","","","","","","","","","","","","","","","","",""
"pit-comprehension","105","863762","0.0-2.0-21.0-0.0","battery-v0.2","","""event"",""trial"",""time""
""fullscreenenter"",""1"",""2458""
","
","
","""event"",""trial"",""time""
""fullscreenenter"",""1"",""2458""
","
","","","7942","[""10""]","0","19","5854","3394","","","","","","","","","","","","","","","","","","",""
"pit-instructions","106","865635","0.0-2.0-21.0-1.0","battery-v0.2","","""event"",""trial"",""time""
""fullscreenenter"",""1"",""2458""
","
","
","""event"",""trial"",""time""
""fullscreenenter"",""1"",""2458""
","
","","[{""page_index"":0,""viewing_time"":1846}]","1846","","","","","","","","","","","","","","","","","","","","","","","",""
"pit-comprehension","107","872200","0.0-2.0-22.0-0.0","battery-v0.2","","""event"",""trial"",""time""
""fullscreenenter"",""1"",""2458""
","
","
","""event"",""trial"",""time""
""fullscreenenter"",""1"",""2458""
","
","","","6561","[""0""]","0","19","5854","3394","","","","","","","","","","","","","","","","","","",""
"pit-instructions","108","874522","0.0-2.0-22.0-1.0","battery-v0.2","","""event"",""trial"",""time""
""fullscreenenter"",""1"",""2458""
","
","
","""event"",""trial"",""time""
""fullscreenenter"",""1"",""2458""
","
","","[{""page_index"":0,""viewing_time"":2295}]","2296","","","","","","","","","","","","","","","","","","","","","","","",""
"pit-comprehension","109","883066","0.0-2.0-23.0-0.0","battery-v0.2","","""event"",""trial"",""time""
""fullscreenenter"",""1"",""2458""
","
","
","""event"",""trial"",""time""
""fullscreenenter"",""1"",""2458""
","
","","","8539.000000000116","[""True""]","0","19","5854","3394","","","","","","","","","","","","","","","","","","",""
"pit-instructions","110","888375","0.0-2.0-23.0-1.0","battery-v0.2","","""event"",""trial"",""time""
""fullscreenenter"",""1"",""2458""
","
","
","""event"",""trial"",""time""
""fullscreenenter"",""1"",""2458""
","
","","[{""page_index"":0,""viewing_time"":5283}]","5284","","","","","","","","","","","","","","","","","","","","","","","",""
"pit-comprehension","111","896635","0.0-2.0-24.0-0.0","battery-v0.2","","""event"",""trial"",""time""
""fullscreenenter"",""1"",""2458""
","
","
","""event"",""trial"",""time""
""fullscreenenter"",""1"",""2458""
","
","","","8252.999999999884","[""True""]","0","19","5854","3394","","","","","","","","","","","","","","","","","","",""
"pit-instructions","112","899433","0.0-2.0-24.0-1.0","battery-v0.2","","""event"",""trial"",""time""
""fullscreenenter"",""1"",""2458""
","
","
","""event"",""trial"",""time""
""fullscreenenter"",""1"",""2458""
","
","","[{""page_index"":0,""viewing_time"":2771.9999999998836}]","2772.9999999998836","","","","","","","","","","","","","","","","","","","","","","","",""
"pit-comprehension","113","907398","0.0-2.0-25.0-0.0","battery-v0.2","","""event"",""trial"",""time""
""fullscreenenter"",""1"",""2458""
","
","
","""event"",""trial"",""time""
""fullscreenenter"",""1"",""2458""
","
","","","7959","[""True""]","0","19","5854","3394","","","","","","","","","","","","","","","","","","",""
"pit-instructions","114","910819","0.0-2.0-25.0-1.0","battery-v0.2","","""event"",""trial"",""time""
""fullscreenenter"",""1"",""2458""
","
","
","""event"",""trial"",""time""
""fullscreenenter"",""1"",""2458""
","
","","[{""page_index"":0,""viewing_time"":3389}]","3389","","","","","","","","","","","","","","","","","","","","","","","",""
"pit-comprehension","115","916274","0.0-2.0-26.0-0.0","battery-v0.2","","""event"",""trial"",""time""
""fullscreenenter"",""1"",""2458""
","
","
","""event"",""trial"",""time""
""fullscreenenter"",""1"",""2458""
","
","","","5450","[""False""]","0","19","5854","3394","","","","","","","","","","","","","","","","","","",""
"pit-instructions","116","918435","0.0-2.0-26.0-1.0","battery-v0.2","","""event"",""trial"",""time""
""fullscreenenter"",""1"",""2458""
","
","
","""event"",""trial"",""time""
""fullscreenenter"",""1"",""2458""
","
","","[{""page_index"":0,""viewing_time"":2127.0000000001164}]","2128","","","","","","","","","","","","","","","","","","","","","","","",""
"pit-instructions","117","935405","0.0-3.0","battery-v0.2","","""event"",""trial"",""time""
""fullscreenenter"",""1"",""2458""
","
","
","""event"",""trial"",""time""
""fullscreenenter"",""1"",""2458""
","
","","[{""page_index"":0,""viewing_time"":4151},{""page_index"":1,""viewing_time"":5145},{""page_index"":2,""viewing_time"":7668}]","16965.000000000116","","","","","","","","","","","","","","","","","","","","","","","",""
"pit-trial","118","939185","0.0-4.0","battery-v0.2","","""event"",""trial"",""time""
""fullscreenenter"",""1"",""2458""
","
","
","""event"",""trial"",""time""
""fullscreenenter"",""1"",""2458""
","
","","","920","","","19","5854","3394","&#9730;","elianto","#3366ff99"," "," ","1","0","[1771]","1","1","","","5854","1","1","1","win","go","1"
"pit-trial","119","943135","0.0-5.0","battery-v0.2","","""event"",""trial"",""time""
""fullscreenenter"",""1"",""2458""
","
","
","""event"",""trial"",""time""
""fullscreenenter"",""1"",""2458""
","
","","","1090","","","19","5854","3394","&#9752;","elianto","#f73b6a7A"," "," ","1","0","[1940.0000000001164]","1","1","","","5854","2","3","3","lose","go","0"
"pit-trial","120","947994","0.0-6.0","battery-v0.2","","""event"",""trial"",""time""
""fullscreenenter"",""1"",""2458""
","
","
","""event"",""trial"",""time""
""fullscreenenter"",""1"",""2458""
","
","","","-1","","","19","5854","3394","&#9728;","elianto","#f73b6a7A","-1","-1","1","0","[2983]","1","1","","","5854","3","0","4","lose","no-go","0"
"pit-trial","121","952555","0.0-7.0","battery-v0.2","","""event"",""trial"",""time""
""fullscreenenter"",""1"",""2458""
","
","
","""event"",""trial"",""time""
""fullscreenenter"",""1"",""2458""
","
","","","1702","","","19","5854","3394","&#9733;","elianto","#3366ff99","-1"," ","0","0","[2553]","1","1","","","5854","4","2","2","win","no-go","0"
"pit-trial","122","956339","0.0-8.0","battery-v0.2","","""event"",""trial"",""time""
""fullscreenenter"",""1"",""2458""
","
","
","""event"",""trial"",""time""
""fullscreenenter"",""1"",""2458""
","
","","","924","","","19","5854","3394","&#9752;","elianto","#f73b6a7A"," "," ","1","0","[1775]","1","1","","","5854","5","3","3","lose","go","0"
"pit-trial","123","960487","0.0-9.0","battery-v0.2","","""event"",""trial"",""time""
""fullscreenenter"",""1"",""2458""
","
","
","""event"",""trial"",""time""
""fullscreenenter"",""1"",""2458""
","
","","","1287","","","19","5854","3394","&#9733;","elianto","#3366ff99","-1"," ","0","0","[2137]","1","1","","","5854","6","2","2","win","no-go","0"
"pit-trial","124","964269","0.0-10.0","battery-v0.2","","""event"",""trial"",""time""
""fullscreenenter"",""1"",""2458""
","
","
","""event"",""trial"",""time""
""fullscreenenter"",""1"",""2458""
","
","","","923","","","19","5854","3394","&#9728;","elianto","#f73b6a7A","-1"," ","0","-10","[1774]","1","1","","","5854","7","0","4","lose","no-go","0"
"pit-trial","125","969128","0.0-11.0","battery-v0.2","","""event"",""trial"",""time""
""fullscreenenter"",""1"",""2458""
","
","
","""event"",""trial"",""time""
""fullscreenenter"",""1"",""2458""
","
","","","-1","","","19","5854","3394","&#9730;","elianto","#3366ff99"," ","-1","0","+10","[]","0","1","","","5854","8","1","1","win","go","1"
"pit-trial","126","973989","0.0-12.0","battery-v0.2","","""event"",""trial"",""time""
""fullscreenenter"",""1"",""2458""
","
","
","""event"",""trial"",""time""
""fullscreenenter"",""1"",""2458""
","
","","","-1","","","19","5854","3394","&#9733;","elianto","#3366ff99","-1","-1","1","+10","[]","0","1","","","5854","9","2","2","win","no-go","0"
"pit-trial","127","978335","0.0-13.0","battery-v0.2","","""event"",""trial"",""time""
""fullscreenenter"",""1"",""2458""
","
","
","""event"",""trial"",""time""
""fullscreenenter"",""1"",""2458""
","
","","","1484","","","19","5854","3394","&#9752;","elianto","#f73b6a7A"," "," ","1","0","[2336]","1","1","","","5854","10","3","3","lose","go","0"
"pit-trial","128","982102","0.0-14.0","battery-v0.2","","""event"",""trial"",""time""
""fullscreenenter"",""1"",""2458""
","
","
","""event"",""trial"",""time""
""fullscreenenter"",""1"",""2458""
","
","","","907","","","19","5854","3394","&#9728;","elianto","#f73b6a7A","-1"," ","0","-10","[1760]","1","1","","","5854","11","0","4","lose","no-go","0"
"pit-trial","129","986961","0.0-15.0","battery-v0.2","","""event"",""trial"",""time""
""fullscreenenter"",""1"",""2458""
","
","
","""event"",""trial"",""time""
""fullscreenenter"",""1"",""2458""
","
","","","-1","","","19","5854","3394","&#9730;","elianto","#3366ff99"," ","-1","0","0","[]","0","1","","","5854","12","1","1","win","go","0"
"pit-trial","130","991819","0.0-16.0","battery-v0.2","","""event"",""trial"",""time""
""fullscreenenter"",""1"",""2458""
","
","
","""event"",""trial"",""time""
""fullscreenenter"",""1"",""2458""
","
","","","-1","","","19","5854","3394","&#9733;","elianto","#3366ff99","-1","-1","1","+10","[]","0","1","","","5854","13","2","2","win","no-go","0"
"pit-trial","131","996680","0.0-17.0","battery-v0.2","","""event"",""trial"",""time""
""fullscreenenter"",""1"",""2458""
","
","
","""event"",""trial"",""time""
""fullscreenenter"",""1"",""2458""
","
","","","-1","","","19","5854","3394","&#9728;","elianto","#f73b6a7A","-1","-1","1","0","[]","0","1","","","5854","14","0","4","lose","no-go","0"
"pit-trial","132","1001538","0.0-18.0","battery-v0.2","","""event"",""trial"",""time""
""fullscreenenter"",""1"",""2458""
","
","
","""event"",""trial"",""time""
""fullscreenenter"",""1"",""2458""
","
","","","-1","","","19","5854","3394","&#9730;","elianto","#3366ff99"," ","-1","0","0","[]","0","1","","","5854","15","1","1","win","go","0"
"pit-trial","133","1005721","0.0-19.0","battery-v0.2","","""event"",""trial"",""time""
""fullscreenenter"",""1"",""2458""
","
","
","""event"",""trial"",""time""
""fullscreenenter"",""1"",""2458""
","
","","","1322.9999999998836","","","19","5854","3394","&#9752;","elianto","#f73b6a7A"," "," ","1","-10","[2175]","1","1","","","5854","16","3","3","lose","go","1"
"pit-trial","134","1009793","0.0-20.0","battery-v0.2","","""event"",""trial"",""time""
""fullscreenenter"",""1"",""2458""
","
","
","""event"",""trial"",""time""
""fullscreenenter"",""1"",""2458""
","
","","","1212.9999999998836","","","19","5854","3394","&#9752;","elianto","#f73b6a7A"," "," ","1","-10","[2064]","1","1","","","5854","17","3","3","lose","go","1"
"pit-trial","135","1014652","0.0-21.0","battery-v0.2","","""event"",""trial"",""time""
""fullscreenenter"",""1"",""2458""
","
","
","""event"",""trial"",""time""
""fullscreenenter"",""1"",""2458""
","
","","","-1","","","19","5854","3394","&#9730;","elianto","#3366ff99"," ","-1","0","0","[]","0","1","","","5854","18","1","1","win","go","0"
"pit-trial","136","1019512","0.0-22.0","battery-v0.2","","""event"",""trial"",""time""
""fullscreenenter"",""1"",""2458""
","
","
","""event"",""trial"",""time""
""fullscreenenter"",""1"",""2458""
","
","","","-1","","","19","5854","3394","&#9728;","elianto","#f73b6a7A","-1","-1","1","0","[]","0","1","","","5854","19","0","4","lose","no-go","0"
"pit-trial","137","1024371","0.0-23.0","battery-v0.2","","""event"",""trial"",""time""
""fullscreenenter"",""1"",""2458""
","
","
","""event"",""trial"",""time""
""fullscreenenter"",""1"",""2458""
","
","","","-1","","","19","5854","3394","&#9733;","elianto","#3366ff99","-1","-1","1","+10","[]","0","1","","","5854","20","2","2","win","no-go","0"
"pit-instructions","138","1038974","0.0-24.0","battery-v0.2","","""event"",""trial"",""time""
""fullscreenenter"",""1"",""2458""
","
","
","""event"",""trial"",""time""
""fullscreenenter"",""1"",""2458""
","
","","[{""page_index"":0,""viewing_time"":6647.000000000233},{""page_index"":1,""viewing_time"":7947.999999999884}]","14596","","","","","","","","","","","","","","","","","","","","","","","",""
"pit-trial","139","1043019","0.0-25.0","battery-v0.2","","""event"",""trial"",""time""
""fullscreenenter"",""1"",""2458""
","
","
","""event"",""trial"",""time""
""fullscreenenter"",""1"",""2458""
","
","","","1184.9999999998836","","","19","5854","3394","y","elianto","#f73b6a7A","-1"," ","0","-10","[2036]","1","2","","","5854","21","2","4","lose","no-go","0"
"pit-trial","140","1047404","0.0-26.0","battery-v0.2","","""event"",""trial"",""time""
""fullscreenenter"",""1"",""2458""
","
","
","""event"",""trial"",""time""
""fullscreenenter"",""1"",""2458""
","
","","","1520.9999999998836","","","19","5854","3394","h","elianto","#f73b6a7A"," "," ","1","-10","[2376]","1","2","","","5854","22","3","3","lose","go","1"
"pit-trial","141","1051402","0.0-27.0","battery-v0.2","","""event"",""trial"",""time""
""fullscreenenter"",""1"",""2458""
","
","
","""event"",""trial"",""time""
""fullscreenenter"",""1"",""2458""
","
","","","1138","","","19","5854","3394","m","elianto","#f73b6a7A","-1"," ","0","-10","[1988]","1","2","","","5854","23","0","4","lose","no-go","0"
"pit-trial","142","1055395","0.0-28.0","battery-v0.2","","""event"",""trial"",""time""
""fullscreenenter"",""1"",""2458""
","
","
","""event"",""trial"",""time""
""fullscreenenter"",""1"",""2458""
","
","","","1133","","","19","5854","3394","r","elianto","#3366ff99"," "," ","1","+10","[1983.9999999997672]","1","2","","","5854","24","1","1","win","go","0"
"pit-trial","143","1060254","0.0-29.0","battery-v0.2","","""event"",""trial"",""time""
""fullscreenenter"",""1"",""2458""
","
","
","""event"",""trial"",""time""
""fullscreenenter"",""1"",""2458""
","
","","","-1","","","19","5854","3394","m","elianto","#f73b6a7A","-1","-1","1","0","[]","0","2","","","5854","25","0","4","lose","no-go","0"
"pit-trial","144","1064290","0.0-30.0","battery-v0.2","","""event"",""trial"",""time""
""fullscreenenter"",""1"",""2458""
","
","
","""event"",""trial"",""time""
""fullscreenenter"",""1"",""2458""
","
","","","1175","","","19","5854","3394","r","elianto","#3366ff99"," "," ","1","0","[2026]","1","2","","","5854","26","1","1","win","go","1"
"pit-trial","145","1069149","0.0-31.0","battery-v0.2","","""event"",""trial"",""time""
""fullscreenenter"",""1"",""2458""
","
","
","""event"",""trial"",""time""
""fullscreenenter"",""1"",""2458""
","
","","","-1","","","19","5854","3394","y","elianto","#f73b6a7A","-1","-1","1","0","[]","0","2","","","5854","27","2","4","lose","no-go","0"
"pit-trial","146","1074008","0.0-32.0","battery-v0.2","","""event"",""trial"",""time""
""fullscreenenter"",""1"",""2458""
","
","
","""event"",""trial"",""time""
""fullscreenenter"",""1"",""2458""
","
","","","-1","","","19","5854","3394","h","elianto","#f73b6a7A"," ","-1","0","-10","[]","0","2","","","5854","28","3","3","lose","go","0"
"pit-trial","147","1078869","0.0-33.0","battery-v0.2","","""event"",""trial"",""time""
""fullscreenenter"",""1"",""2458""
","
","
","""event"",""trial"",""time""
""fullscreenenter"",""1"",""2458""
","
","","","-1","","","19","5854","3394","y","elianto","#f73b6a7A","-1","-1","1","0","[]","0","2","","","5854","29","2","4","lose","no-go","0"
"pit-trial","148","1082875","0.0-34.0","battery-v0.2","","""event"",""trial"",""time""
""fullscreenenter"",""1"",""2458""
","
","
","""event"",""trial"",""time""
""fullscreenenter"",""1"",""2458""
","
","","","1147","","","19","5854","3394","r","elianto","#3366ff99"," "," ","1","+10","[1998]","1","2","","","5854","30","1","1","win","go","0"
"pit-trial","149","1087734","0.0-35.0","battery-v0.2","","""event"",""trial"",""time""
""fullscreenenter"",""1"",""2458""
","
","
","""event"",""trial"",""time""
""fullscreenenter"",""1"",""2458""
","
","","","-1","","","19","5854","3394","m","elianto","#f73b6a7A","-1","-1","1","0","[]","0","2","","","5854","31","0","4","lose","no-go","0"
"pit-trial","150","1092594","0.0-36.0","battery-v0.2","","""event"",""trial"",""time""
""fullscreenenter"",""1"",""2458""
","
","
","""event"",""trial"",""time""
""fullscreenenter"",""1"",""2458""
","
","","","-1","","","19","5854","3394","h","elianto","#f73b6a7A"," ","-1","0","0","[]","0","2","","","5854","32","3","3","lose","go","1"
"pit-trial","151","1096469","0.0-37.0","battery-v0.2","","""event"",""trial"",""time""
""fullscreenenter"",""1"",""2458""
","
","
","""event"",""trial"",""time""
""fullscreenenter"",""1"",""2458""
","
","","","1018","","","19","5854","3394","r","elianto","#3366ff99"," "," ","1","+10","[1867.9999999997672]","1","2","","","5854","33","1","1","win","go","0"
"pit-trial","152","1101328","0.0-38.0","battery-v0.2","","""event"",""trial"",""time""
""fullscreenenter"",""1"",""2458""
","
","
","""event"",""trial"",""time""
""fullscreenenter"",""1"",""2458""
","
","","","-1","","","19","5854","3394","m","elianto","#f73b6a7A","-1","-1","1","-10","[]","0","2","","","5854","34","0","4","lose","no-go","1"
"pit-trial","153","1106188","0.0-39.0","battery-v0.2","","""event"",""trial"",""time""
""fullscreenenter"",""1"",""2458""
","
","
","""event"",""trial"",""time""
""fullscreenenter"",""1"",""2458""
","
","","","-1","","","19","5854","3394","h","elianto","#f73b6a7A"," ","-1","0","-10","[]","0","2","","","5854","35","3","3","lose","go","0"
"pit-trial","154","1111047","0.0-40.0","battery-v0.2","","""event"",""trial"",""time""
""fullscreenenter"",""1"",""2458""
","
","
","""event"",""trial"",""time""
""fullscreenenter"",""1"",""2458""
","
","","","-1","","","19","5854","3394","y","elianto","#f73b6a7A","-1","-1","1","0","[]","0","2","","","5854","36","2","4","lose","no-go","0"
"pit-trial","155","1115105","0.0-41.0","battery-v0.2","","""event"",""trial"",""time""
""fullscreenenter"",""1"",""2458""
","
","
","""event"",""trial"",""time""
""fullscreenenter"",""1"",""2458""
","
","","","1199","","","19","5854","3394","m","elianto","#f73b6a7A","-1"," ","0","-10","[2051]","1","2","","","5854","37","0","4","lose","no-go","0"
"pit-trial","156","1119963","0.0-42.0","battery-v0.2","","""event"",""trial"",""time""
""fullscreenenter"",""1"",""2458""
","
","
","""event"",""trial"",""time""
""fullscreenenter"",""1"",""2458""
","
","","","-1","","","19","5854","3394","y","elianto","#f73b6a7A","-1","-1","1","0","[]","0","2","","","5854","38","2","4","lose","no-go","0"
"pit-trial","157","1124823","0.0-43.0","battery-v0.2","","""event"",""trial"",""time""
""fullscreenenter"",""1"",""2458""
","
","
","""event"",""trial"",""time""
""fullscreenenter"",""1"",""2458""
","
","","","-1","","","19","5854","3394","h","elianto","#f73b6a7A"," ","-1","0","-10","[]","0","2","","","5854","39","3","3","lose","go","0"
"pit-trial","158","1128659","0.0-44.0","battery-v0.2","","""event"",""trial"",""time""
""fullscreenenter"",""1"",""2458""
","
","
","""event"",""trial"",""time""
""fullscreenenter"",""1"",""2458""
","
","","","977","","","19","5854","3394","r","elianto","#3366ff99"," "," ","1","0","[1827]","1","2","","","5854","40","1","1","win","go","1"
"pit-trial","159","1132469","0.0-45.0","battery-v0.2","","""event"",""trial"",""time""
""fullscreenenter"",""1"",""2458""
","
","
","""event"",""trial"",""time""
""fullscreenenter"",""1"",""2458""
","
","","","951","","","19","5854","3394","r","elianto","#3366ff99"," "," ","1","+10","[1800]","1","2","","","5854","41","1","1","win","go","0"
"pit-trial","160","1137328","0.0-46.0","battery-v0.2","","""event"",""trial"",""time""
""fullscreenenter"",""1"",""2458""
","
","
","""event"",""trial"",""time""
""fullscreenenter"",""1"",""2458""
","
","","","-1","","","19","5854","3394","y","elianto","#f73b6a7A","-1","-1","1","0","[]","0","2","","","5854","42","2","4","lose","no-go","0"
"pit-trial","161","1141350","0.0-47.0","battery-v0.2","","""event"",""trial"",""time""
""fullscreenenter"",""1"",""2458""
","
","
","""event"",""trial"",""time""
""fullscreenenter"",""1"",""2458""
","
","","","1161","","","19","5854","3394","m","elianto","#f73b6a7A","-1"," ","0","-10","[2014]","1","2","","","5854","43","0","4","lose","no-go","0"
"pit-trial","162","1146208","0.0-48.0","battery-v0.2","","""event"",""trial"",""time""
""fullscreenenter"",""1"",""2458""
","
","
","""event"",""trial"",""time""
""fullscreenenter"",""1"",""2458""
","
","","","-1","","","19","5854","3394","h","elianto","#f73b6a7A"," ","-1","0","-10","[]","0","2","","","5854","44","3","3","lose","go","0"
"pit-trial","163","1151069","0.0-49.0","battery-v0.2","","""event"",""trial"",""time""
""fullscreenenter"",""1"",""2458""
","
","
","""event"",""trial"",""time""
""fullscreenenter"",""1"",""2458""
","
","","","-1","","","19","5854","3394","m","elianto","#f73b6a7A","-1","-1","1","0","[]","0","2","","","5854","45","0","4","lose","no-go","0"
"pit-trial","164","1155928","0.0-50.0","battery-v0.2","","""event"",""trial"",""time""
""fullscreenenter"",""1"",""2458""
","
","
","""event"",""trial"",""time""
""fullscreenenter"",""1"",""2458""
","
","","","-1","","","19","5854","3394","y","elianto","#f73b6a7A","-1","-1","1","0","[]","0","2","","","5854","46","2","4","lose","no-go","0"
"pit-trial","165","1159594","0.0-51.0","battery-v0.2","","""event"",""trial"",""time""
""fullscreenenter"",""1"",""2458""
","
","
","""event"",""trial"",""time""
""fullscreenenter"",""1"",""2458""
","
","","","807","","","19","5854","3394","h","elianto","#f73b6a7A"," "," ","1","-10","[1658]","1","2","","","5854","47","3","3","lose","go","1"
"pit-trial","166","1164111","0.0-52.0","battery-v0.2","","""event"",""trial"",""time""
""fullscreenenter"",""1"",""2458""
","
","
","""event"",""trial"",""time""
""fullscreenenter"",""1"",""2458""
","
","","","1655","","","19","5854","3394","z","elianto","#3366ff99","-1"," ","0","0","[2508]","1","2","","","5854","48","4","2","win","no-go","0"
"pit-trial","167","1168336","0.0-53.0","battery-v0.2","","""event"",""trial"",""time""
""fullscreenenter"",""1"",""2458""
","
","
","""event"",""trial"",""time""
""fullscreenenter"",""1"",""2458""
","
","","","1365","","","19","5854","3394","r","elianto","#3366ff99"," "," ","1","+10","[2217]","1","2","","","5854","49","1","1","win","go","0"
"pit-trial","168","1173196","0.0-54.0","battery-v0.2","","""event"",""trial"",""time""
""fullscreenenter"",""1"",""2458""
","
","
","""event"",""trial"",""time""
""fullscreenenter"",""1"",""2458""
","
","","","-1","","","19","5854","3394","m","elianto","#f73b6a7A","-1","-1","1","0","[]","0","2","","","5854","50","0","4","lose","no-go","0"
"pit-trial","169","1177513","0.0-55.0","battery-v0.2","","""event"",""trial"",""time""
""fullscreenenter"",""1"",""2458""
","
","
","""event"",""trial"",""time""
""fullscreenenter"",""1"",""2458""
","
","","","1458","","","19","5854","3394","h","elianto","#f73b6a7A"," "," ","1","0","[2309]","1","2","","","5854","51","3","3","lose","go","0"
"pit-trial","170","1182204","0.0-56.0","battery-v0.2","","""event"",""trial"",""time""
""fullscreenenter"",""1"",""2458""
","
","
","""event"",""trial"",""time""
""fullscreenenter"",""1"",""2458""
","
","","","1832","","","19","5854","3394","z","elianto","#3366ff99","-1"," ","0","0","[2683]","1","2","","","5854","52","4","2","win","no-go","0"
"pit-trial","171","1187063","0.0-57.0","battery-v0.2","","""event"",""trial"",""time""
""fullscreenenter"",""1"",""2458""
","
","
","""event"",""trial"",""time""
""fullscreenenter"",""1"",""2458""
","
","","","-1","","","19","5854","3394","z","elianto","#3366ff99","-1","-1","1","0","[]","0","2","","","5854","53","4","2","win","no-go","1"
"pit-trial","172","1191647","0.0-58.0","battery-v0.2","","""event"",""trial"",""time""
""fullscreenenter"",""1"",""2458""
","
","
","""event"",""trial"",""time""
""fullscreenenter"",""1"",""2458""
","
","","","1725","","","19","5854","3394","r","elianto","#3366ff99"," "," ","1","+10","[2576]","1","2","","","5854","54","1","1","win","go","0"
"pit-trial","173","1196506","0.0-59.0","battery-v0.2","","""event"",""trial"",""time""
""fullscreenenter"",""1"",""2458""
","
","
","""event"",""trial"",""time""
""fullscreenenter"",""1"",""2458""
","
","","","-1","","","19","5854","3394","y","elianto","#f73b6a7A","-1","-1","1","-10","[]","0","2","","","5854","55","2","4","lose","no-go","1"
"pit-trial","174","1201366","0.0-60.0","battery-v0.2","","""event"",""trial"",""time""
""fullscreenenter"",""1"",""2458""
","
","
","""event"",""trial"",""time""
""fullscreenenter"",""1"",""2458""
","
","","","-1","","","19","5854","3394","m","elianto","#f73b6a7A","-1","-1","1","0","[]","0","2","","","5854","56","0","4","lose","no-go","0"
"pit-trial","175","1205659","0.0-61.0","battery-v0.2","","""event"",""trial"",""time""
""fullscreenenter"",""1"",""2458""
","
","
","""event"",""trial"",""time""
""fullscreenenter"",""1"",""2458""
","
","","","1433.9999999997672","","","19","5854","3394","r","elianto","#3366ff99"," "," ","1","+10","[2284]","1","2","","","5854","57","1","1","win","go","0"
"pit-trial","176","1210518","0.0-62.0","battery-v0.2","","""event"",""trial"",""time""
""fullscreenenter"",""1"",""2458""
","
","
","""event"",""trial"",""time""
""fullscreenenter"",""1"",""2458""
","
","","","-1","","","19","5854","3394","m","elianto","#f73b6a7A","-1","-1","1","-10","[]","0","2","","","5854","58","0","4","lose","no-go","1"
"pit-trial","177","1215378","0.0-63.0","battery-v0.2","","""event"",""trial"",""time""
""fullscreenenter"",""1"",""2458""
","
","
","""event"",""trial"",""time""
""fullscreenenter"",""1"",""2458""
","
","","","-1","","","19","5854","3394","z","elianto","#3366ff99","-1","-1","1","+10","[]","0","2","","","5854","59","4","2","win","no-go","0"
"pit-trial","178","1220238","0.0-64.0","battery-v0.2","","""event"",""trial"",""time""
""fullscreenenter"",""1"",""2458""
","
","
","""event"",""trial"",""time""
""fullscreenenter"",""1"",""2458""
","
","","","-1","","","19","5854","3394","h","elianto","#f73b6a7A"," ","-1","0","0","[3006]","1","2","","","5854","60","3","3","lose","go","1"
"pit-trial","179","1225097","0.0-65.0","battery-v0.2","","""event"",""trial"",""time""
""fullscreenenter"",""1"",""2458""
","
","
","""event"",""trial"",""time""
""fullscreenenter"",""1"",""2458""
","
","","","-1","","","19","5854","3394","z","elianto","#3366ff99","-1","-1","1","+10","[]","0","2","","","5854","61","4","2","win","no-go","0"
"pit-trial","180","1229957","0.0-66.0","battery-v0.2","","""event"",""trial"",""time""
""fullscreenenter"",""1"",""2458""
","
","
","""event"",""trial"",""time""
""fullscreenenter"",""1"",""2458""
","
","","","-1","","","19","5854","3394","y","elianto","#f73b6a7A","-1","-1","1","0","[]","0","2","","","5854","62","2","4","lose","no-go","0"
"pit-trial","181","1234816","0.0-67.0","battery-v0.2","","""event"",""trial"",""time""
""fullscreenenter"",""1"",""2458""
","
","
","""event"",""trial"",""time""
""fullscreenenter"",""1"",""2458""
","
","","","-1","","","19","5854","3394","h","elianto","#f73b6a7A"," ","-1","0","-10","[]","0","2","","","5854","63","3","3","lose","go","0"
"pit-trial","182","1238982","0.0-68.0","battery-v0.2","","""event"",""trial"",""time""
""fullscreenenter"",""1"",""2458""
","
","
","""event"",""trial"",""time""
""fullscreenenter"",""1"",""2458""
","
","","","1307","","","19","5854","3394","r","elianto","#3366ff99"," "," ","1","+10","[2158]","1","2","","","5854","64","1","1","win","go","0"
"pit-trial","183","1243841","0.0-69.0","battery-v0.2","","""event"",""trial"",""time""
""fullscreenenter"",""1"",""2458""
","
","
","""event"",""trial"",""time""
""fullscreenenter"",""1"",""2458""
","
","","","-1","","","19","5854","3394","z","elianto","#3366ff99","-1","-1","1","+10","[]","0","2","","","5854","65","4","2","win","no-go","0"
"pit-trial","184","1248206","0.0-70.0","battery-v0.2","","""event"",""trial"",""time""
""fullscreenenter"",""1"",""2458""
","
","
","""event"",""trial"",""time""
""fullscreenenter"",""1"",""2458""
","
","","","1506","","","19","5854","3394","r","elianto","#3366ff99"," "," ","1","+10","[2356]","1","2","","","5854","66","1","1","win","go","0"
"pit-trial","185","1253065","0.0-71.0","battery-v0.2","","""event"",""trial"",""time""
""fullscreenenter"",""1"",""2458""
","
","
","""event"",""trial"",""time""
""fullscreenenter"",""1"",""2458""
","
","","","-1","","","19","5854","3394","y","elianto","#f73b6a7A","-1","-1","1","0","[]","0","2","","","5854","67","2","4","lose","no-go","0"
"pit-trial","186","1257286","0.0-72.0","battery-v0.2","","""event"",""trial"",""time""
""fullscreenenter"",""1"",""2458""
","
","
","""event"",""trial"",""time""
""fullscreenenter"",""1"",""2458""
","
","","","1362","","","19","5854","3394","h","elianto","#f73b6a7A"," "," ","1","-10","[2212]","1","2","","","5854","68","3","3","lose","go","1"
"pit-trial","187","1262028","0.0-73.0","battery-v0.2","","""event"",""trial"",""time""
""fullscreenenter"",""1"",""2458""
","
","
","""event"",""trial"",""time""
""fullscreenenter"",""1"",""2458""
","
","","","1884","","","19","5854","3394","r","elianto","#3366ff99"," "," ","1","+10","[2733]","1","2","","","5854","69","1","1","win","go","0"
"pit-trial","188","1266887","0.0-74.0","battery-v0.2","","""event"",""trial"",""time""
""fullscreenenter"",""1"",""2458""
","
","
","""event"",""trial"",""time""
""fullscreenenter"",""1"",""2458""
","
","","","-1","","","19","5854","3394","z","elianto","#3366ff99","-1","-1","1","+10","[]","0","2","","","5854","70","4","2","win","no-go","0"
"pit-trial","189","1271040","0.0-75.0","battery-v0.2","","""event"",""trial"",""time""
""fullscreenenter"",""1"",""2458""
","
","
","""event"",""trial"",""time""
""fullscreenenter"",""1"",""2458""
","
","","","1295","","","19","5854","3394","c","elianto","#3366ff99"," "," ","1","+10","[2145]","1","2","","","5854","71","5","1","win","go","0"
"pit-trial","190","1275321","0.0-76.0","battery-v0.2","","""event"",""trial"",""time""
""fullscreenenter"",""1"",""2458""
","
","
","""event"",""trial"",""time""
""fullscreenenter"",""1"",""2458""
","
","","","1423","","","19","5854","3394","h","elianto","#f73b6a7A"," "," ","1","0","[2273.000000000233]","1","2","","","5854","72","3","3","lose","go","0"
"pit-trial","191","1279144","0.0-77.0","battery-v0.2","","""event"",""trial"",""time""
""fullscreenenter"",""1"",""2458""
","
","
","""event"",""trial"",""time""
""fullscreenenter"",""1"",""2458""
","
","","","965","","","19","5854","3394","h","elianto","#f73b6a7A"," "," ","1","0","[1815]","1","2","","","5854","73","3","3","lose","go","0"
"pit-trial","192","1284003","0.0-78.0","battery-v0.2","","""event"",""trial"",""time""
""fullscreenenter"",""1"",""2458""
","
","
","""event"",""trial"",""time""
""fullscreenenter"",""1"",""2458""
","
","","","-1","","","19","5854","3394","z","elianto","#3366ff99","-1","-1","1","+10","[]","0","2","","","5854","74","4","2","win","no-go","0"
"pit-trial","193","1287870","0.0-79.0","battery-v0.2","","""event"",""trial"",""time""
""fullscreenenter"",""1"",""2458""
","
","
","""event"",""trial"",""time""
""fullscreenenter"",""1"",""2458""
","
","","","1007.0000000002328","","","19","5854","3394","r","elianto","#3366ff99"," "," ","1","+10","[1858.0000000002328]","1","2","","","5854","75","1","1","win","go","0"
"pit-trial","194","1292004","0.0-80.0","battery-v0.2","","""event"",""trial"",""time""
""fullscreenenter"",""1"",""2458""
","
","
","""event"",""trial"",""time""
""fullscreenenter"",""1"",""2458""
","
","","","1277","","","19","5854","3394","c","elianto","#3366ff99"," "," ","1","+10","[2126.000000000233]","1","2","","","5854","76","5","1","win","go","0"
"pit-trial","195","1296154","0.0-81.0","battery-v0.2","","""event"",""trial"",""time""
""fullscreenenter"",""1"",""2458""
","
","
","""event"",""trial"",""time""
""fullscreenenter"",""1"",""2458""
","
","","","1291","","","19","5854","3394","h","elianto","#f73b6a7A"," "," ","1","0","[2141]","1","2","","","5854","77","3","3","lose","go","0"
"pit-trial","196","1299947","0.0-82.0","battery-v0.2","","""event"",""trial"",""time""
""fullscreenenter"",""1"",""2458""
","
","
","""event"",""trial"",""time""
""fullscreenenter"",""1"",""2458""
","
","","","931","","","19","5854","3394","c","elianto","#3366ff99"," "," ","1","0","[1784]","1","2","","","5854","78","5","1","win","go","1"
"pit-trial","197","1304806","0.0-83.0","battery-v0.2","","""event"",""trial"",""time""
""fullscreenenter"",""1"",""2458""
","
","
","""event"",""trial"",""time""
""fullscreenenter"",""1"",""2458""
","
","","","-1","","","19","5854","3394","b","elianto","#f73b6a7A","-1","-1","1","0","[]","0","2","","","5854","79","6","4","lose","no-go","0"
"pit-trial","198","1309665","0.0-84.0","battery-v0.2","","""event"",""trial"",""time""
""fullscreenenter"",""1"",""2458""
","
","
","""event"",""trial"",""time""
""fullscreenenter"",""1"",""2458""
","
","","","-1","","","19","5854","3394","z","elianto","#3366ff99","-1","-1","1","+10","[]","0","2","","","5854","80","4","2","win","no-go","0"
"pit-trial","199","1313414","0.0-85.0","battery-v0.2","","""event"",""trial"",""time""
""fullscreenenter"",""1"",""2458""
","
","
","""event"",""trial"",""time""
""fullscreenenter"",""1"",""2458""
","
","","","890","","","19","5854","3394","c","elianto","#3366ff99"," "," ","1","+10","[1742]","1","2","","","5854","81","5","1","win","go","0"
"pit-trial","200","1318273","0.0-86.0","battery-v0.2","","""event"",""trial"",""time""
""fullscreenenter"",""1"",""2458""
","
","
","""event"",""trial"",""time""
""fullscreenenter"",""1"",""2458""
","
","","","-1","","","19","5854","3394","b","elianto","#f73b6a7A","-1","-1","1","0","[]","0","2","","","5854","82","6","4","lose","no-go","0"
"pit-trial","201","1322681","0.0-87.0","battery-v0.2","","""event"",""trial"",""time""
""fullscreenenter"",""1"",""2458""
","
","
","""event"",""trial"",""time""
""fullscreenenter"",""1"",""2458""
","
","","","1547","","","19","5854","3394","t","elianto","#f73b6a7A"," "," ","1","0","[2398]","1","2","","","5854","83","7","3","lose","go","0"
"pit-trial","202","1327540","0.0-88.0","battery-v0.2","","""event"",""trial"",""time""
""fullscreenenter"",""1"",""2458""
","
","
","""event"",""trial"",""time""
""fullscreenenter"",""1"",""2458""
","
","","","-1","","","19","5854","3394","z","elianto","#3366ff99","-1","-1","1","+10","[]","0","2","","","5854","84","4","2","win","no-go","0"
"pit-trial","203","1332117","0.0-89.0","battery-v0.2","","""event"",""trial"",""time""
""fullscreenenter"",""1"",""2458""
","
","
","""event"",""trial"",""time""
""fullscreenenter"",""1"",""2458""
","
","","","1717","","","19","5854","3394","c","elianto","#3366ff99"," "," ","1","+10","[2568]","1","2","","","5854","85","5","1","win","go","0"
"pit-trial","204","1336977","0.0-90.0","battery-v0.2","","""event"",""trial"",""time""
""fullscreenenter"",""1"",""2458""
","
","
","""event"",""trial"",""time""
""fullscreenenter"",""1"",""2458""
","
","","","-1","","","19","5854","3394","t","elianto","#f73b6a7A"," ","-1","0","-10","[]","0","2","","","5854","86","7","3","lose","go","0"
"pit-trial","205","1341835","0.0-91.0","battery-v0.2","","""event"",""trial"",""time""
""fullscreenenter"",""1"",""2458""
","
","
","""event"",""trial"",""time""
""fullscreenenter"",""1"",""2458""
","
","","","-1","","","19","5854","3394","b","elianto","#f73b6a7A","-1","-1","1","0","[]","0","2","","","5854","87","6","4","lose","no-go","0"
"pit-trial","206","1346694","0.0-92.0","battery-v0.2","","""event"",""trial"",""time""
""fullscreenenter"",""1"",""2458""
","
","
","""event"",""trial"",""time""
""fullscreenenter"",""1"",""2458""
","
","","","-1","","","19","5854","3394","z","elianto","#3366ff99","-1","-1","1","+10","[]","0","2","","","5854","88","4","2","win","no-go","0"
"pit-trial","207","1351554","0.0-93.0","battery-v0.2","","""event"",""trial"",""time""
""fullscreenenter"",""1"",""2458""
","
","
","""event"",""trial"",""time""
""fullscreenenter"",""1"",""2458""
","
","","","-1","","","19","5854","3394","t","elianto","#f73b6a7A"," ","-1","0","-10","[]","0","2","","","5854","89","7","3","lose","go","0"
"pit-trial","208","1356414","0.0-94.0","battery-v0.2","","""event"",""trial"",""time""
""fullscreenenter"",""1"",""2458""
","
","
","""event"",""trial"",""time""
""fullscreenenter"",""1"",""2458""
","
","","","-1","","","19","5854","3394","z","elianto","#3366ff99","-1","-1","1","+10","[3026]","1","2","","","5854","90","4","2","win","no-go","0"
"pit-trial","209","1360550","0.0-95.0","battery-v0.2","","""event"",""trial"",""time""
""fullscreenenter"",""1"",""2458""
","
","
","""event"",""trial"",""time""
""fullscreenenter"",""1"",""2458""
","
","","","1276","","","19","5854","3394","b","elianto","#f73b6a7A","-1"," ","0","-10","[2127]","1","2","","","5854","91","6","4","lose","no-go","0"
"pit-trial","210","1364994","0.0-96.0","battery-v0.2","","""event"",""trial"",""time""
""fullscreenenter"",""1"",""2458""
","
","
","""event"",""trial"",""time""
""fullscreenenter"",""1"",""2458""
","
","","","1585.0000000002328","","","19","5854","3394","c","elianto","#3366ff99"," "," ","1","+10","[2434]","1","2","","","5854","92","5","1","win","go","0"
"pit-trial","211","1369854","0.0-97.0","battery-v0.2","","""event"",""trial"",""time""
""fullscreenenter"",""1"",""2458""
","
","
","""event"",""trial"",""time""
""fullscreenenter"",""1"",""2458""
","
","","","-1","","","19","5854","3394","t","elianto","#f73b6a7A"," ","-1","0","-10","[]","0","2","","","5854","93","7","3","lose","go","0"
"pit-trial","212","1373773","0.0-98.0","battery-v0.2","","""event"",""trial"",""time""
""fullscreenenter"",""1"",""2458""
","
","
","""event"",""trial"",""time""
""fullscreenenter"",""1"",""2458""
","
","","","1057","","","19","5854","3394","c","elianto","#3366ff99"," "," ","1","+10","[1909.0000000002328]","1","2","","","5854","94","5","1","win","go","0"
"pit-trial","213","1378161","0.0-99.0","battery-v0.2","","""event"",""trial"",""time""
""fullscreenenter"",""1"",""2458""
","
","
","""event"",""trial"",""time""
""fullscreenenter"",""1"",""2458""
","
","","","1528","","","19","5854","3394","f","elianto","#3366ff99","-1"," ","0","+10","[2378.999999999767]","1","2","","","5854","95","8","2","win","no-go","1"
"pit-trial","214","1383020","0.0-100.0","battery-v0.2","","""event"",""trial"",""time""
""fullscreenenter"",""1"",""2458""
","
","
","""event"",""trial"",""time""
""fullscreenenter"",""1"",""2458""
","
","","","-1","","","19","5854","3394","b","elianto","#f73b6a7A","-1","-1","1","0","[]","0","2","","","5854","96","6","4","lose","no-go","0"
"pit-trial","215","1387194","0.0-101.0","battery-v0.2","","""event"",""trial"",""time""
""fullscreenenter"",""1"",""2458""
","
","
","""event"",""trial"",""time""
""fullscreenenter"",""1"",""2458""
","
","","","1310","","","19","5854","3394","t","elianto","#f73b6a7A"," "," ","1","-10","[2165]","1","2","","","5854","97","7","3","lose","go","1"
"pit-trial","216","1391126","0.0-102.0","battery-v0.2","","""event"",""trial"",""time""
""fullscreenenter"",""1"",""2458""
","
","
","""event"",""trial"",""time""
""fullscreenenter"",""1"",""2458""
","
","","","1073","","","19","5854","3394","c","elianto","#3366ff99"," "," ","1","+10","[1923]","1","2","","","5854","98","5","1","win","go","0"
"pit-trial","217","1395571","0.0-103.0","battery-v0.2","","""event"",""trial"",""time""
""fullscreenenter"",""1"",""2458""
","
","
","""event"",""trial"",""time""
""fullscreenenter"",""1"",""2458""
","
","","","1584.0000000002328","","","19","5854","3394","f","elianto","#3366ff99","-1"," ","0","0","[2435.000000000233]","1","2","","","5854","99","8","2","win","no-go","0"
"pit-trial","218","1400430","0.0-104.0","battery-v0.2","","""event"",""trial"",""time""
""fullscreenenter"",""1"",""2458""
","
","
","""event"",""trial"",""time""
""fullscreenenter"",""1"",""2458""
","
","","","-1","","","19","5854","3394","b","elianto","#f73b6a7A","-1","-1","1","0","[]","0","2","","","5854","100","6","4","lose","no-go","0"
"pit-trial","219","1404194","0.0-105.0","battery-v0.2","","""event"",""trial"",""time""
""fullscreenenter"",""1"",""2458""
","
","
","""event"",""trial"",""time""
""fullscreenenter"",""1"",""2458""
","
","","","904","","","19","5854","3394","c","elianto","#3366ff99"," "," ","1","+10","[1755]","1","2","","","5854","101","5","1","win","go","0"
"pit-trial","220","1408555","0.0-106.0","battery-v0.2","","""event"",""trial"",""time""
""fullscreenenter"",""1"",""2458""
","
","
","""event"",""trial"",""time""
""fullscreenenter"",""1"",""2458""
","
","","","1502","","","19","5854","3394","f","elianto","#3366ff99","-1"," ","0","0","[2352]","1","2","","","5854","102","8","2","win","no-go","0"
"pit-trial","221","1413413","0.0-107.0","battery-v0.2","","""event"",""trial"",""time""
""fullscreenenter"",""1"",""2458""
","
","
","""event"",""trial"",""time""
""fullscreenenter"",""1"",""2458""
","
","","","-1","","","19","5854","3394","b","elianto","#f73b6a7A","-1","-1","1","0","[]","0","2","","","5854","103","6","4","lose","no-go","0"
"pit-trial","222","1417698","0.0-108.0","battery-v0.2","","""event"",""trial"",""time""
""fullscreenenter"",""1"",""2458""
","
","
","""event"",""trial"",""time""
""fullscreenenter"",""1"",""2458""
","
","","","1424","","","19","5854","3394","n","elianto","#3366ff99","-1"," ","0","0","[2277]","1","2","","","5854","104","9","2","win","no-go","0"
"pit-trial","223","1422558","0.0-109.0","battery-v0.2","","""event"",""trial"",""time""
""fullscreenenter"",""1"",""2458""
","
","
","""event"",""trial"",""time""
""fullscreenenter"",""1"",""2458""
","
","","","-1","","","19","5854","3394","n","elianto","#3366ff99","-1","-1","1","+10","[]","0","2","","","5854","105","9","2","win","no-go","0"
"pit-trial","224","1427418","0.0-110.0","battery-v0.2","","""event"",""trial"",""time""
""fullscreenenter"",""1"",""2458""
","
","
","""event"",""trial"",""time""
""fullscreenenter"",""1"",""2458""
","
","","","-1","","","19","5854","3394","b","elianto","#f73b6a7A","-1","-1","1","0","[]","0","2","","","5854","106","6","4","lose","no-go","0"
"pit-trial","225","1432278","0.0-111.0","battery-v0.2","","""event"",""trial"",""time""
""fullscreenenter"",""1"",""2458""
","
","
","""event"",""trial"",""time""
""fullscreenenter"",""1"",""2458""
","
","","","-1","","","19","5854","3394","f","elianto","#3366ff99","-1","-1","1","+10","[]","0","2","","","5854","107","8","2","win","no-go","0"
"pit-trial","226","1436474","0.0-112.0","battery-v0.2","","""event"",""trial"",""time""
""fullscreenenter"",""1"",""2458""
","
","
","""event"",""trial"",""time""
""fullscreenenter"",""1"",""2458""
","
","","","1337","","","19","5854","3394","c","elianto","#3366ff99"," "," ","1","+10","[2187]","1","2","","","5854","108","5","1","win","go","0"
"pit-trial","227","1440672","0.0-113.0","battery-v0.2","","""event"",""trial"",""time""
""fullscreenenter"",""1"",""2458""
","
","
","""event"",""trial"",""time""
""fullscreenenter"",""1"",""2458""
","
","","","1340","","","19","5854","3394","c","elianto","#3366ff99"," "," ","1","+10","[2190]","1","2","","","5854","109","5","1","win","go","0"
"pit-trial","228","1445532","0.0-114.0","battery-v0.2","","""event"",""trial"",""time""
""fullscreenenter"",""1"",""2458""
","
","
","""event"",""trial"",""time""
""fullscreenenter"",""1"",""2458""
","
","","","-1","","","19","5854","3394","n","elianto","#3366ff99","-1","-1","1","+10","[]","0","2","","","5854","110","9","2","win","no-go","0"
"pit-trial","229","1450392","0.0-115.0","battery-v0.2","","""event"",""trial"",""time""
""fullscreenenter"",""1"",""2458""
","
","
","""event"",""trial"",""time""
""fullscreenenter"",""1"",""2458""
","
","","","-1","","","19","5854","3394","b","elianto","#f73b6a7A","-1","-1","1","-10","[]","0","2","","","5854","111","6","4","lose","no-go","1"
"pit-trial","230","1455253","0.0-116.0","battery-v0.2","","""event"",""trial"",""time""
""fullscreenenter"",""1"",""2458""
","
","
","""event"",""trial"",""time""
""fullscreenenter"",""1"",""2458""
","
","","","-1","","","19","5854","3394","f","elianto","#3366ff99","-1","-1","1","+10","[]","0","2","","","5854","112","8","2","win","no-go","0"
"pit-trial","231","1460112","0.0-117.0","battery-v0.2","","""event"",""trial"",""time""
""fullscreenenter"",""1"",""2458""
","
","
","""event"",""trial"",""time""
""fullscreenenter"",""1"",""2458""
","
","","","-1","","","19","5854","3394","n","elianto","#3366ff99","-1","-1","1","+10","[]","0","2","","","5854","113","9","2","win","no-go","0"
"pit-trial","232","1464971","0.0-118.0","battery-v0.2","","""event"",""trial"",""time""
""fullscreenenter"",""1"",""2458""
","
","
","""event"",""trial"",""time""
""fullscreenenter"",""1"",""2458""
","
","","","-1","","","19","5854","3394","f","elianto","#3366ff99","-1","-1","1","+10","[]","0","2","","","5854","114","8","2","win","no-go","0"
"pit-trial","233","1469829","0.0-119.0","battery-v0.2","","""event"",""trial"",""time""
""fullscreenenter"",""1"",""2458""
","
","
","""event"",""trial"",""time""
""fullscreenenter"",""1"",""2458""
","
","","","-1","","","19","5854","3394","t","elianto","#f73b6a7A"," ","-1","0","-10","[]","0","2","","","5854","115","7","3","lose","go","0"
"pit-trial","234","1473521","0.0-120.0","battery-v0.2","","""event"",""trial"",""time""
""fullscreenenter"",""1"",""2458""
","
","
","""event"",""trial"",""time""
""fullscreenenter"",""1"",""2458""
","
","","","835.0000000002328","","","19","5854","3394","c","elianto","#3366ff99"," "," ","1","0","[1685.0000000002328]","1","2","","","5854","116","5","1","win","go","1"
"pit-trial","235","1477078","0.0-121.0","battery-v0.2","","""event"",""trial"",""time""
""fullscreenenter"",""1"",""2458""
","
","
","""event"",""trial"",""time""
""fullscreenenter"",""1"",""2458""
","
","","","697","","","19","5854","3394","c","elianto","#3366ff99"," "," ","1","+10","[1548]","1","2","","","5854","117","5","1","win","go","0"
"pit-trial","236","1481938","0.0-122.0","battery-v0.2","","""event"",""trial"",""time""
""fullscreenenter"",""1"",""2458""
","
","
","""event"",""trial"",""time""
""fullscreenenter"",""1"",""2458""
","
","","","-1","","","19","5854","3394","b","elianto","#f73b6a7A","-1","-1","1","0","[]","0","2","","","5854","118","6","4","lose","no-go","0"
"pit-trial","237","1486796","0.0-123.0","battery-v0.2","","""event"",""trial"",""time""
""fullscreenenter"",""1"",""2458""
","
","
","""event"",""trial"",""time""
""fullscreenenter"",""1"",""2458""
","
","","","-1","","","19","5854","3394","f","elianto","#3366ff99","-1","-1","1","+10","[]","0","2","","","5854","119","8","2","win","no-go","0"
"pit-trial","238","1491654","0.0-124.0","battery-v0.2","","""event"",""trial"",""time""
""fullscreenenter"",""1"",""2458""
","
","
","""event"",""trial"",""time""
""fullscreenenter"",""1"",""2458""
","
","","","-1","","","19","5854","3394","n","elianto","#3366ff99","-1","-1","1","+10","[]","0","2","","","5854","120","9","2","win","no-go","0"
"pit-trial","239","1495586","0.0-125.0","battery-v0.2","","""event"",""trial"",""time""
""fullscreenenter"",""1"",""2458""
","
","
","""event"",""trial"",""time""
""fullscreenenter"",""1"",""2458""
","
","","","1072","","","19","5854","3394","c","elianto","#3366ff99"," "," ","1","0","[1924]","1","2","","","5854","121","5","1","win","go","1"
"pit-trial","240","1500445","0.0-126.0","battery-v0.2","","""event"",""trial"",""time""
""fullscreenenter"",""1"",""2458""
","
","
","""event"",""trial"",""time""
""fullscreenenter"",""1"",""2458""
","
","","","-1","","","19","5854","3394","f","elianto","#3366ff99","-1","-1","1","+10","[]","0","2","","","5854","122","8","2","win","no-go","0"
"pit-trial","241","1505304","0.0-127.0","battery-v0.2","","""event"",""trial"",""time""
""fullscreenenter"",""1"",""2458""
","
","
","""event"",""trial"",""time""
""fullscreenenter"",""1"",""2458""
","
","","","-1","","","19","5854","3394","n","elianto","#3366ff99","-1","-1","1","+10","[]","0","2","","","5854","123","9","2","win","no-go","0"
"pit-trial","242","1509291","0.0-128.0","battery-v0.2","","""event"",""trial"",""time""
""fullscreenenter"",""1"",""2458""
","
","
","""event"",""trial"",""time""
""fullscreenenter"",""1"",""2458""
","
","","","1128","","","19","5854","3394","t","elianto","#f73b6a7A"," "," ","1","0","[1979]","1","2","","","5854","124","7","3","lose","go","0"
"pit-trial","243","1514151","0.0-129.0","battery-v0.2","","""event"",""trial"",""time""
""fullscreenenter"",""1"",""2458""
","
","
","""event"",""trial"",""time""
""fullscreenenter"",""1"",""2458""
","
","","","-1","","","19","5854","3394","b","elianto","#f73b6a7A","-1","-1","1","0","[]","0","2","","","5854","125","6","4","lose","no-go","0"
"pit-trial","244","1519009","0.0-130.0","battery-v0.2","","""event"",""trial"",""time""
""fullscreenenter"",""1"",""2458""
","
","
","""event"",""trial"",""time""
""fullscreenenter"",""1"",""2458""
","
","","","-1","","","19","5854","3394","n","elianto","#3366ff99","-1","-1","1","+10","[]","0","2","","","5854","126","9","2","win","no-go","0"
"pit-trial","245","1522798","0.0-131.0","battery-v0.2","","""event"",""trial"",""time""
""fullscreenenter"",""1"",""2458""
","
","
","""event"",""trial"",""time""
""fullscreenenter"",""1"",""2458""
","
","","","931","","","19","5854","3394","t","elianto","#f73b6a7A"," "," ","1","0","[1782]","1","2","","","5854","127","7","3","lose","go","0"
"pit-trial","246","1527658","0.0-132.0","battery-v0.2","","""event"",""trial"",""time""
""fullscreenenter"",""1"",""2458""
","
","
","""event"",""trial"",""time""
""fullscreenenter"",""1"",""2458""
","
","","","-1","","","19","5854","3394","f","elianto","#3366ff99","-1","-1","1","+10","[]","0","2","","","5854","128","8","2","win","no-go","0"
"pit-trial","247","1531712","0.0-133.0","battery-v0.2","","""event"",""trial"",""time""
""fullscreenenter"",""1"",""2458""
","
","
","""event"",""trial"",""time""
""fullscreenenter"",""1"",""2458""
","
","","","1195","","","19","5854","3394","t","elianto","#f73b6a7A"," "," ","1","0","[2045]","1","2","","","5854","129","7","3","lose","go","0"
"pit-trial","248","1536571","0.0-134.0","battery-v0.2","","""event"",""trial"",""time""
""fullscreenenter"",""1"",""2458""
","
","
","""event"",""trial"",""time""
""fullscreenenter"",""1"",""2458""
","
","","","-1","","","19","5854","3394","n","elianto","#3366ff99","-1","-1","1","+10","[]","0","2","","","5854","130","9","2","win","no-go","0"
"pit-trial","249","1541431","0.0-135.0","battery-v0.2","","""event"",""trial"",""time""
""fullscreenenter"",""1"",""2458""
","
","
","""event"",""trial"",""time""
""fullscreenenter"",""1"",""2458""
","
","","","-1","","","19","5854","3394","f","elianto","#3366ff99","-1","-1","1","+10","[]","0","2","","","5854","131","8","2","win","no-go","0"
"pit-trial","250","1546290","0.0-136.0","battery-v0.2","","""event"",""trial"",""time""
""fullscreenenter"",""1"",""2458""
","
","
","""event"",""trial"",""time""
""fullscreenenter"",""1"",""2458""
","
","","","-1","","","19","5854","3394","b","elianto","#f73b6a7A","-1","-1","1","0","[]","0","2","","","5854","132","6","4","lose","no-go","0"
"pit-trial","251","1551149","0.0-137.0","battery-v0.2","","""event"",""trial"",""time""
""fullscreenenter"",""1"",""2458""
","
","
","""event"",""trial"",""time""
""fullscreenenter"",""1"",""2458""
","
","","","-1","","","19","5854","3394","b","elianto","#f73b6a7A","-1","-1","1","0","[]","0","2","","","5854","133","6","4","lose","no-go","0"
"pit-trial","252","1556009","0.0-138.0","battery-v0.2","","""event"",""trial"",""time""
""fullscreenenter"",""1"",""2458""
","
","
","""event"",""trial"",""time""
""fullscreenenter"",""1"",""2458""
","
","","","-1","","","19","5854","3394","n","elianto","#3366ff99","-1","-1","1","+10","[]","0","2","","","5854","134","9","2","win","no-go","0"
"pit-trial","253","1560867","0.0-139.0","battery-v0.2","","""event"",""trial"",""time""
""fullscreenenter"",""1"",""2458""
","
","
","""event"",""trial"",""time""
""fullscreenenter"",""1"",""2458""
","
","","","-1","","","19","5854","3394","f","elianto","#3366ff99","-1","-1","1","+10","[]","0","2","","","5854","135","8","2","win","no-go","0"
"pit-trial","254","1564596","0.0-140.0","battery-v0.2","","""event"",""trial"",""time""
""fullscreenenter"",""1"",""2458""
","
","
","""event"",""trial"",""time""
""fullscreenenter"",""1"",""2458""
","
","","","870","","","19","5854","3394","t","elianto","#f73b6a7A"," "," ","1","0","[1719.9999999997672]","1","2","","","5854","136","7","3","lose","go","0"
"pit-trial","255","1569455","0.0-141.0","battery-v0.2","","""event"",""trial"",""time""
""fullscreenenter"",""1"",""2458""
","
","
","""event"",""trial"",""time""
""fullscreenenter"",""1"",""2458""
","
","","","-1","","","19","5854","3394","f","elianto","#3366ff99","-1","-1","1","0","[]","0","2","","","5854","137","8","2","win","no-go","1"
"pit-trial","256","1573231","0.0-142.0","battery-v0.2","","""event"",""trial"",""time""
""fullscreenenter"",""1"",""2458""
","
","
","""event"",""trial"",""time""
""fullscreenenter"",""1"",""2458""
","
","","","918","","","19","5854","3394","t","elianto","#f73b6a7A"," "," ","1","0","[1767.9999999997672]","1","2","","","5854","138","7","3","lose","go","0"
"pit-trial","257","1578090","0.0-143.0","battery-v0.2","","""event"",""trial"",""time""
""fullscreenenter"",""1"",""2458""
","
","
","""event"",""trial"",""time""
""fullscreenenter"",""1"",""2458""
","
","","","-1","","","19","5854","3394","n","elianto","#3366ff99","-1","-1","1","+10","[]","0","2","","","5854","139","9","2","win","no-go","0"
"pit-trial","258","1582949","0.0-144.0","battery-v0.2","","""event"",""trial"",""time""
""fullscreenenter"",""1"",""2458""
","
","
","""event"",""trial"",""time""
""fullscreenenter"",""1"",""2458""
","
","","","-1","","","19","5854","3394","b","elianto","#f73b6a7A","-1","-1","1","0","[]","0","2","","","5854","140","6","4","lose","no-go","0"
"pit-instructions","259","1631718","0.0-145.0","battery-v0.2","","""event"",""trial"",""time""
""fullscreenenter"",""1"",""2458""
","
","
","""event"",""trial"",""time""
""fullscreenenter"",""1"",""2458""
","
","","[{""page_index"":0,""viewing_time"":40345},{""page_index"":1,""viewing_time"":8418}]","48764","","","","","","","","","","","","","","","","","","","","","","","",""
"pit-trial","260","1636272","0.0-146.0","battery-v0.2","","""event"",""trial"",""time""
""fullscreenenter"",""1"",""2458""
","
","
","""event"",""trial"",""time""
""fullscreenenter"",""1"",""2458""
","
","","","1693.9999999997672","","","19","5854","3394","u","elianto","#f73b6a7A"," "," ","1","0","[2545]","1","3","","","5854","141","0","3","lose","go","0"
"pit-trial","261","1640785","0.0-147.0","battery-v0.2","","""event"",""trial"",""time""
""fullscreenenter"",""1"",""2458""
","
","
","""event"",""trial"",""time""
""fullscreenenter"",""1"",""2458""
","
","","","1654","","","19","5854","3394","l","elianto","#3366ff99","-1"," ","0","0","[2503.999999999767]","1","3","","","5854","142","1","2","win","no-go","0"
"pit-trial","262","1645061","0.0-148.0","battery-v0.2","","""event"",""trial"",""time""
""fullscreenenter"",""1"",""2458""
","
","
","""event"",""trial"",""time""
""fullscreenenter"",""1"",""2458""
","
","","","1414.9999999997672","","","19","5854","3394","g","elianto","#f73b6a7A","-1"," ","0","-10","[2267]","1","3","","","5854","143","3","4","lose","no-go","0"
"pit-trial","263","1649358","0.0-149.0","battery-v0.2","","""event"",""trial"",""time""
""fullscreenenter"",""1"",""2458""
","
","
","""event"",""trial"",""time""
""fullscreenenter"",""1"",""2458""
","
","","","1437","","","19","5854","3394","a","elianto","#f73b6a7A"," "," ","1","0","[2288]","1","3","","","5854","144","2","3","lose","go","0"
"pit-trial","264","1654216","0.0-150.0","battery-v0.2","","""event"",""trial"",""time""
""fullscreenenter"",""1"",""2458""
","
","
","""event"",""trial"",""time""
""fullscreenenter"",""1"",""2458""
","
","","","-1","","","19","5854","3394","u","elianto","#f73b6a7A"," ","-1","0","-10","[2914.999999999767]","1","3","","","5854","145","0","3","lose","go","0"
"pit-trial","265","1659075","0.0-151.0","battery-v0.2","","""event"",""trial"",""time""
""fullscreenenter"",""1"",""2458""
","
","
","""event"",""trial"",""time""
""fullscreenenter"",""1"",""2458""
","
","","","-1","","","19","5854","3394","g","elianto","#f73b6a7A","-1","-1","1","0","[]","0","3","","","5854","146","3","4","lose","no-go","0"
"pit-trial","266","1663723","0.0-152.0","battery-v0.2","","""event"",""trial"",""time""
""fullscreenenter"",""1"",""2458""
","
","
","""event"",""trial"",""time""
""fullscreenenter"",""1"",""2458""
","
","","","1789","","","19","5854","3394","a","elianto","#f73b6a7A"," "," ","1","0","[2639.000000000233]","1","3","","","5854","147","2","3","lose","go","0"
"pit-trial","267","1668585","0.0-153.0","battery-v0.2","","""event"",""trial"",""time""
""fullscreenenter"",""1"",""2458""
","
","
","""event"",""trial"",""time""
""fullscreenenter"",""1"",""2458""
","
","","","-1","","","19","5854","3394","l","elianto","#3366ff99","-1","-1","1","+10","[]","0","3","","","5854","148","1","2","win","no-go","0"
"pit-trial","268","1673445","0.0-154.0","battery-v0.2","","""event"",""trial"",""time""
""fullscreenenter"",""1"",""2458""
","
","
","""event"",""trial"",""time""
""fullscreenenter"",""1"",""2458""
","
","","","-1","","","19","5854","3394","l","elianto","#3366ff99","-1","-1","1","0","[]","0","3","","","5854","149","1","2","win","no-go","1"
"pit-trial","269","1678308","0.0-155.0","battery-v0.2","","""event"",""trial"",""time""
""fullscreenenter"",""1"",""2458""
","
","
","""event"",""trial"",""time""
""fullscreenenter"",""1"",""2458""
","
","","","-1","","","19","5854","3394","g","elianto","#f73b6a7A","-1","-1","1","0","[]","0","3","","","5854","150","3","4","lose","no-go","0"
"pit-trial","270","1682573","0.0-156.0","battery-v0.2","","""event"",""trial"",""time""
""fullscreenenter"",""1"",""2458""
","
","
","""event"",""trial"",""time""
""fullscreenenter"",""1"",""2458""
","
","","","1405","","","19","5854","3394","u","elianto","#f73b6a7A"," "," ","1","0","[2256]","1","3","","","5854","151","0","3","lose","go","0"
"pit-trial","271","1687432","0.0-157.0","battery-v0.2","","""event"",""trial"",""time""
""fullscreenenter"",""1"",""2458""
","
","
","""event"",""trial"",""time""
""fullscreenenter"",""1"",""2458""
","
","","","-1","","","19","5854","3394","a","elianto","#f73b6a7A"," ","-1","0","-10","[]","0","3","","","5854","152","2","3","lose","go","0"
"pit-trial","272","1691603","0.0-158.0","battery-v0.2","","""event"",""trial"",""time""
""fullscreenenter"",""1"",""2458""
","
","
","""event"",""trial"",""time""
""fullscreenenter"",""1"",""2458""
","
","","","1312","","","19","5854","3394","u","elianto","#f73b6a7A"," "," ","1","0","[2162]","1","3","","","5854","153","0","3","lose","go","0"
"pit-trial","273","1696463","0.0-159.0","battery-v0.2","","""event"",""trial"",""time""
""fullscreenenter"",""1"",""2458""
","
","
","""event"",""trial"",""time""
""fullscreenenter"",""1"",""2458""
","
","","","-1","","","19","5854","3394","g","elianto","#f73b6a7A","-1","-1","1","0","[]","0","3","","","5854","154","3","4","lose","no-go","0"
"pit-trial","274","1701323","0.0-160.0","battery-v0.2","","""event"",""trial"",""time""
""fullscreenenter"",""1"",""2458""
","
","
","""event"",""trial"",""time""
""fullscreenenter"",""1"",""2458""
","
","","","-1","","","19","5854","3394","l","elianto","#3366ff99","-1","-1","1","+10","[]","0","3","","","5854","155","1","2","win","no-go","0"
"pit-trial","275","1705068","0.0-161.0","battery-v0.2","","""event"",""trial"",""time""
""fullscreenenter"",""1"",""2458""
","
","
","""event"",""trial"",""time""
""fullscreenenter"",""1"",""2458""
","
","","","885.9999999997672","","","19","5854","3394","a","elianto","#f73b6a7A"," "," ","1","-10","[1736.0000000002328]","1","3","","","5854","156","2","3","lose","go","1"
"pit-trial","276","1709926","0.0-162.0","battery-v0.2","","""event"",""trial"",""time""
