"trial_type","trial_index","time_elapsed","internal_node_id","task_version","subject_id","interactions","blur_events","focus_events","fullscreenenter_events","fullscreenexit_events","success","view_history","rt","responses","num_errors","age","subject","participantId","rune","rune_set","hex","correct","choice","accuracy","outcome","keys","total_keys","block","practice","value","sub","trial","stimulus","robot","valence","action","sham"
"pavlovia","0","17","0.0-0.0","battery-v0.2","","""event"",""trial"",""time""
""fullscreenenter"",""1"",""2484""
","
","
","""event"",""trial"",""time""
""fullscreenenter"",""1"",""2484""
","
","","","","","","","","","","","","","","","","","","","","","","","","","","",""
"fullscreen","1","3476","0.0-1.0","battery-v0.2","","""event"",""trial"",""time""
""fullscreenenter"",""1"",""2484""
","
","
","""event"",""trial"",""time""
""fullscreenenter"",""1"",""2484""
","
","true","","","","","","","","","","","","","","","","","","","","","","","","","",""
"pit-instructions","2","8560","0.0-2.0-0.0","battery-v0.2","","""event"",""trial"",""time""
""fullscreenenter"",""1"",""2484""
","
","
","""event"",""trial"",""time""
""fullscreenenter"",""1"",""2484""
","
","","[{""page_index"":0,""viewing_time"":5079.5}]","5079.800000000279","","","","","","","","","","","","","","","","","","","","","","","",""
"pit-comprehension","3","14480","0.0-2.0-1.0-0.0","battery-v0.2","","""event"",""trial"",""time""
""fullscreenenter"",""1"",""2484""
","
","
","""event"",""trial"",""time""
""fullscreenenter"",""1"",""2484""
","
","","","5916.799999999814","[""tiger""]","1","20","15932","6235","","","","","","","","","","","","","","","","","","",""
"pit-instructions","4","16391","0.0-2.0-1.0-1.0","battery-v0.2","","""event"",""trial"",""time""
""fullscreenenter"",""1"",""2484""
","
","
","""event"",""trial"",""time""
""fullscreenenter"",""1"",""2484""
","
","","[{""page_index"":0,""viewing_time"":1900.6000000000931}]","1900.7999999998137","","","","","","","","","","","","","","","","","","","","","","","",""
"pit-instructions","5","22759","0.0-2.0-1.0-2.0-0.0","battery-v0.2","","""event"",""trial"",""time""
""fullscreenenter"",""1"",""2484""
","
","
","""event"",""trial"",""time""
""fullscreenenter"",""1"",""2484""
","
","","[{""page_index"":0,""viewing_time"":6366.399999999907}]","6366.699999999721","","","","","","","","","","","","","","","","","","","","","","","",""
"pit-comprehension","6","24920","0.0-2.0-1.1-0.1","battery-v0.2","","""event"",""trial"",""time""
""fullscreenenter"",""1"",""2484""
","
","
","""event"",""trial"",""time""
""fullscreenenter"",""1"",""2484""
","
","","","2158.600000000093","[""turtle""]","1","20","15932","6235","","","","","","","","","","","","","","","","","","",""
"pit-instructions","7","26167","0.0-2.0-1.1-1.1","battery-v0.2","","""event"",""trial"",""time""
""fullscreenenter"",""1"",""2484""
","
","
","""event"",""trial"",""time""
""fullscreenenter"",""1"",""2484""
","
","","[{""page_index"":0,""viewing_time"":1245}]","1245.1999999997206","","","","","","","","","","","","","","","","","","","","","","","",""
"pit-instructions","8","26711","0.0-2.0-1.1-2.1-0.1","battery-v0.2","","""event"",""trial"",""time""
""fullscreenenter"",""1"",""2484""
","
","
","""event"",""trial"",""time""
""fullscreenenter"",""1"",""2484""
","
","","[{""page_index"":0,""viewing_time"":542.7000000001863}]","543","","","","","","","","","","","","","","","","","","","","","","","",""
"pit-comprehension","9","29656","0.0-2.0-1.2-0.2","battery-v0.2","","""event"",""trial"",""time""
""fullscreenenter"",""1"",""2484""
","
","
","""event"",""trial"",""time""
""fullscreenenter"",""1"",""2484""
","
","","","2942.7000000001863","[""shark""]","0","20","15932","6235","","","","","","","","","","","","","","","","","","",""
"pit-instructions","10","30711","0.0-2.0-1.2-1.2","battery-v0.2","","""event"",""trial"",""time""
""fullscreenenter"",""1"",""2484""
","
","
","""event"",""trial"",""time""
""fullscreenenter"",""1"",""2484""
","
","","[{""page_index"":0,""viewing_time"":1052.9000000003725}]","1053.1000000000931","","","","","","","","","","","","","","","","","","","","","","","",""
"pit-comprehension","11","34768","0.0-2.0-2.0-0.0","battery-v0.2","","""event"",""trial"",""time""
""fullscreenenter"",""1"",""2484""
","
","
","""event"",""trial"",""time""
""fullscreenenter"",""1"",""2484""
","
","","","4054.0999999996275","[""tiger""]","0","20","15932","6235","","","","","","","","","","","","","","","","","","",""
"pit-instructions","12","35975","0.0-2.0-2.0-1.0","battery-v0.2","","""event"",""trial"",""time""
""fullscreenenter"",""1"",""2484""
","
","
","""event"",""trial"",""time""
""fullscreenenter"",""1"",""2484""
","
","","[{""page_index"":0,""viewing_time"":1204.2999999998137}]","1204.6000000000931","","","","","","","","","","","","","","","","","","","","","","","",""
"pit-instructions","13","222806","0.0-2.0-3.0","battery-v0.2","","""event"",""trial"",""time""
""fullscreenenter"",""1"",""2484""
","
","
","""event"",""trial"",""time""
""fullscreenenter"",""1"",""2484""
","
","","[{""page_index"":0,""viewing_time"":7493.699999999721},{""page_index"":1,""viewing_time"":7080.100000000093},{""page_index"":2,""viewing_time"":6407.799999999814},{""page_index"":3,""viewing_time"":77679.30000000028},{""page_index"":4,""viewing_time"":7256},{""page_index"":5,""viewing_time"":13879.899999999907},{""page_index"":6,""viewing_time"":5264.399999999907},{""page_index"":7,""viewing_time"":6799.5},{""page_index"":8,""viewing_time"":17735.80000000028},{""page_index"":9,""viewing_time"":9936.19999999972},{""page_index"":10,""viewing_time"":8257},{""page_index"":11,""viewing_time"":6222.700000000186},{""page_index"":12,""viewing_time"":6600},{""page_index"":13,""viewing_time"":6216.100000000093}]","186828.69999999972","","","","","","","","","","","","","","","","","","","","","","","",""
"pit-trial","14","227673","0.0-2.0-4.0-0.0","battery-v0.2","","""event"",""trial"",""time""
""fullscreenenter"",""1"",""2484""
","
","
","""event"",""trial"",""time""
""fullscreenenter"",""1"",""2484""
","
","","","-1","","","20","15932","6235","&#9784;","elianto","#FFFFF080"," ","-1","0","&#10060","[3715.3000000002794]","1","0","0","","","","","","","",""
"pit-trial","15","232556","0.0-2.0-4.1-0.1","battery-v0.2","","""event"",""trial"",""time""
""fullscreenenter"",""1"",""2484""
","
","
","""event"",""trial"",""time""
""fullscreenenter"",""1"",""2484""
","
","","","-1","","","20","15932","6235","&#9784;","elianto","#FFFFF080"," ","-1","0","&#10060","[2933.2999999998137]","1","0","0","","","","","","","",""
"pit-trial","16","236016","0.0-2.0-4.2-0.2","battery-v0.2","","""event"",""trial"",""time""
""fullscreenenter"",""1"",""2484""
","
","
","""event"",""trial"",""time""
""fullscreenenter"",""1"",""2484""
","
","","","591","","","20","15932","6235","&#9784;","elianto","#FFFFF080"," "," ","1","&#10004","[1451.7999999998137]","1","0","0","","","","","","","",""
"pit-trial","17","239295","0.0-2.0-4.3-0.3","battery-v0.2","","""event"",""trial"",""time""
""fullscreenenter"",""1"",""2484""
","
","
","""event"",""trial"",""time""
""fullscreenenter"",""1"",""2484""
","
","","","410.5","","","20","15932","6235","&#9784;","elianto","#FFFFF080"," "," ","1","&#10004","[1263.2999999998137]","1","0","0","","","","","","","",""
"pit-trial","18","242724","0.0-2.0-4.4-0.4","battery-v0.2","","""event"",""trial"",""time""
""fullscreenenter"",""1"",""2484""
","
","
","""event"",""trial"",""time""
""fullscreenenter"",""1"",""2484""
","
","","","574.1999999997206","","","20","15932","6235","&#9784;","elianto","#FFFFF080"," "," ","1","&#10004","[1424.8999999999069]","1","0","0","","","","","","","",""
"pit-instructions","19","261998","0.0-2.0-5.0","battery-v0.2","","""event"",""trial"",""time""
""fullscreenenter"",""1"",""2484""
","
","
","""event"",""trial"",""time""
""fullscreenenter"",""1"",""2484""
","
","","[{""page_index"":0,""viewing_time"":4462.800000000279},{""page_index"":1,""viewing_time"":5431.0999999996275},{""page_index"":2,""viewing_time"":4352.4000000003725},{""page_index"":3,""viewing_time"":5024.0999999996275}]","19270.600000000093","","","","","","","","","","","","","","","","","","","","","","","",""
"pit-trial","20","266860","0.0-2.0-6.0-0.0","battery-v0.2","","""event"",""trial"",""time""
""fullscreenenter"",""1"",""2484""
","
","
","""event"",""trial"",""time""
""fullscreenenter"",""1"",""2484""
","
","","","-1","","","20","15932","6235","&#9854;","elianto","#FFFFF080","-1","-1","1","&#10004","[]","0","0","1","","","","","","","",""
"pit-trial","21","271714","0.0-2.0-6.1-0.1","battery-v0.2","","""event"",""trial"",""time""
""fullscreenenter"",""1"",""2484""
","
","
","""event"",""trial"",""time""
""fullscreenenter"",""1"",""2484""
","
","","","-1","","","20","15932","6235","&#9854;","elianto","#FFFFF080","-1","-1","1","&#10004","[]","0","0","1","","","","","","","",""
"pit-trial","22","276592","0.0-2.0-6.2-0.2","battery-v0.2","","""event"",""trial"",""time""
""fullscreenenter"",""1"",""2484""
","
","
","""event"",""trial"",""time""
""fullscreenenter"",""1"",""2484""
","
","","","-1","","","20","15932","6235","&#9854;","elianto","#FFFFF080","-1","-1","1","&#10004","[]","0","0","1","","","","","","","",""
"pit-trial","23","281475","0.0-2.0-6.3-0.3","battery-v0.2","","""event"",""trial"",""time""
""fullscreenenter"",""1"",""2484""
","
","
","""event"",""trial"",""time""
""fullscreenenter"",""1"",""2484""
","
","","","-1","","","20","15932","6235","&#9854;","elianto","#FFFFF080","-1","-1","1","&#10004","[]","0","0","1","","","","","","","",""
"pit-trial","24","286346","0.0-2.0-6.4-0.4","battery-v0.2","","""event"",""trial"",""time""
""fullscreenenter"",""1"",""2484""
","
","
","""event"",""trial"",""time""
""fullscreenenter"",""1"",""2484""
","
","","","-1","","","20","15932","6235","&#9854;","elianto","#FFFFF080","-1","-1","1","&#10004","[]","0","0","1","","","","","","","",""
"pit-instructions","25","416389","0.0-2.0-7.0","battery-v0.2","","""event"",""trial"",""time""
""fullscreenenter"",""1"",""2484""
","
","
","""event"",""trial"",""time""
""fullscreenenter"",""1"",""2484""
","
","","[{""page_index"":0,""viewing_time"":5831.5},{""page_index"":1,""viewing_time"":6151.799999999814},{""page_index"":2,""viewing_time"":5383.800000000279},{""page_index"":3,""viewing_time"":5112.0999999996275},{""page_index"":4,""viewing_time"":5048.4000000003725},{""page_index"":5,""viewing_time"":5735.899999999907},{""page_index"":6,""viewing_time"":4136.100000000093},{""page_index"":7,""viewing_time"":7743.399999999907},{""page_index"":8,""viewing_time"":6008},{""page_index"":9,""viewing_time"":8912.19999999972},{""page_index"":10,""viewing_time"":14823.700000000186},{""page_index"":11,""viewing_time"":6743.899999999907},{""page_index"":12,""viewing_time"":8559.899999999907},{""page_index"":13,""viewing_time"":6071.9000000003725},{""page_index"":14,""viewing_time"":11463.899999999907},{""page_index"":15,""viewing_time"":7464.299999999814},{""page_index"":16,""viewing_time"":7751.600000000093},{""page_index"":17,""viewing_time"":7095.899999999907}]","130038.6000000001","","","","","","","","","","","","","","","","","","","","","","","",""
"pit-trial","26","419966","0.0-2.0-8.0-0.0","battery-v0.2","","""event"",""trial"",""time""
""fullscreenenter"",""1"",""2484""
","
","
","""event"",""trial"",""time""
""fullscreenenter"",""1"",""2484""
","
","","","713.5","","","20","15932","6235","&#9776;","elianto","#3366ff99"," "," ","1","+10","[1564.5]","1","0","1","","","","","","","",""
"pit-trial","27","423171","0.0-2.0-8.0-1.0","battery-v0.2","","""event"",""trial"",""time""
""fullscreenenter"",""1"",""2484""
","
","
","""event"",""trial"",""time""
""fullscreenenter"",""1"",""2484""
","
","","","340.29999999981374","","","20","15932","6235","&#9776;","elianto","#3366ff99"," "," ","1","+10","[1193.2999999998137]","1","0","1","","","","","","","",""
"pit-trial","28","426351","0.0-2.0-8.0-2.0","battery-v0.2","","""event"",""trial"",""time""
""fullscreenenter"",""1"",""2484""
","
","
","""event"",""trial"",""time""
""fullscreenenter"",""1"",""2484""
","
","","","313.39999999990687","","","20","15932","6235","&#9776;","elianto","#3366ff99"," "," ","1","+10","[1164.8999999999069]","1","0","1","","","","","","","",""
"pit-trial","29","429657","0.0-2.0-8.0-3.0","battery-v0.2","","""event"",""trial"",""time""
""fullscreenenter"",""1"",""2484""
","
","
","""event"",""trial"",""time""
""fullscreenenter"",""1"",""2484""
","
","","","444.79999999981374","","","20","15932","6235","&#9776;","elianto","#3366ff99"," "," ","1","0","[1296.1999999997206]","1","0","1","","","","","","","",""
"pit-trial","30","432877","0.0-2.0-8.0-4.0","battery-v0.2","","""event"",""trial"",""time""
""fullscreenenter"",""1"",""2484""
","
","
","""event"",""trial"",""time""
""fullscreenenter"",""1"",""2484""
","
","","","347.6999999997206","","","20","15932","6235","&#9776;","elianto","#3366ff99"," "," ","1","+10","[1206.1999999997206]","1","0","1","","","","","","","",""
"pit-trial","31","436141","0.0-2.0-8.1-0.1","battery-v0.2","","""event"",""trial"",""time""
""fullscreenenter"",""1"",""2484""
","
","
","""event"",""trial"",""time""
""fullscreenenter"",""1"",""2484""
","
","","","400.6999999997206","","","20","15932","6235","&#9776;","elianto","#3366ff99"," "," ","1","+10","[1257.0999999996275]","1","0","1","","","","","","","",""
"pit-trial","32","439313","0.0-2.0-8.1-1.1","battery-v0.2","","""event"",""trial"",""time""
""fullscreenenter"",""1"",""2484""
","
","
","""event"",""trial"",""time""
""fullscreenenter"",""1"",""2484""
","
","","","293.89999999990687","","","20","15932","6235","&#9776;","elianto","#3366ff99"," "," ","1","+10","[1154.0999999996275]","1","0","1","","","","","","","",""
"pit-trial","33","442293","0.0-2.0-8.1-2.1","battery-v0.2","","""event"",""trial"",""time""
""fullscreenenter"",""1"",""2484""
","
","
","""event"",""trial"",""time""
""fullscreenenter"",""1"",""2484""
","
","","","119.5","","","20","15932","6235","&#9776;","elianto","#3366ff99"," "," ","1","+10","[977.5999999996275]","1","0","1","","","","","","","",""
"pit-trial","34","445465","0.0-2.0-8.1-3.1","battery-v0.2","","""event"",""trial"",""time""
""fullscreenenter"",""1"",""2484""
","
","
","""event"",""trial"",""time""
""fullscreenenter"",""1"",""2484""
","
","","","307","","","20","15932","6235","&#9776;","elianto","#3366ff99"," "," ","1","0","[1157.3999999999069]","1","0","1","","","","","","","",""
"pit-trial","35","448548","0.0-2.0-8.1-4.1","battery-v0.2","","""event"",""trial"",""time""
""fullscreenenter"",""1"",""2484""
","
","
","""event"",""trial"",""time""
""fullscreenenter"",""1"",""2484""
","
","","","225","","","20","15932","6235","&#9776;","elianto","#3366ff99"," "," ","1","+10","[1080.8999999999069]","1","0","1","","","","","","","",""
"pit-trial","36","451644","0.0-2.0-8.2-0.2","battery-v0.2","","""event"",""trial"",""time""
""fullscreenenter"",""1"",""2484""
","
","
","""event"",""trial"",""time""
""fullscreenenter"",""1"",""2484""
","
","","","242","","","20","15932","6235","&#9776;","elianto","#3366ff99"," "," ","1","+10","[1092.7000000001863]","1","0","1","","","","","","","",""
"pit-trial","37","454797","0.0-2.0-8.2-1.2","battery-v0.2","","""event"",""trial"",""time""
""fullscreenenter"",""1"",""2484""
","
","
","""event"",""trial"",""time""
""fullscreenenter"",""1"",""2484""
","
","","","298.5","","","20","15932","6235","&#9776;","elianto","#3366ff99"," "," ","1","+10","[1150.1999999997206]","1","0","1","","","","","","","",""
"pit-trial","38","457852","0.0-2.0-8.2-2.2","battery-v0.2","","""event"",""trial"",""time""
""fullscreenenter"",""1"",""2484""
","
","
","""event"",""trial"",""time""
""fullscreenenter"",""1"",""2484""
","
","","","202","","","20","15932","6235","&#9776;","elianto","#3366ff99"," "," ","1","+10","[1052.7999999998137]","1","0","1","","","","","","","",""
"pit-trial","39","461117","0.0-2.0-8.2-3.2","battery-v0.2","","""event"",""trial"",""time""
""fullscreenenter"",""1"",""2484""
","
","
","""event"",""trial"",""time""
""fullscreenenter"",""1"",""2484""
","
","","","410.60000000009313","","","20","15932","6235","&#9776;","elianto","#3366ff99"," "," ","1","0","[1261.3999999999069]","1","0","1","","","","","","","",""
"pit-trial","40","464444","0.0-2.0-8.2-4.2","battery-v0.2","","""event"",""trial"",""time""
""fullscreenenter"",""1"",""2484""
","
","
","""event"",""trial"",""time""
""fullscreenenter"",""1"",""2484""
","
","","","473.6999999997206","","","20","15932","6235","&#9776;","elianto","#3366ff99"," "," ","1","+10","[1324.6000000000931]","1","0","1","","","","","","","",""
"call-function","41","464446","0.0-2.0-9.0","battery-v0.2","","""event"",""trial"",""time""
""fullscreenenter"",""1"",""2484""
","
","
","""event"",""trial"",""time""
""fullscreenenter"",""1"",""2484""
","
","","","","","","","","","","","","","","","","","","","","","","","","","","",""
"pit-instructions","42","503016","0.0-2.0-10.0","battery-v0.2","","""event"",""trial"",""time""
""fullscreenenter"",""1"",""2484""
","
","
","""event"",""trial"",""time""
""fullscreenenter"",""1"",""2484""
","
","","[{""page_index"":0,""viewing_time"":5480.299999999814},{""page_index"":1,""viewing_time"":6248},{""page_index"":2,""viewing_time"":11327},{""page_index"":3,""viewing_time"":8288},{""page_index"":4,""viewing_time"":7223.800000000279}]","38567.299999999814","","","","","","","","","","","","","","","","","","","","","","","",""
"pit-trial","43","506475","0.0-2.0-11.0-0.0","battery-v0.2","","""event"",""trial"",""time""
""fullscreenenter"",""1"",""2484""
","
","
","""event"",""trial"",""time""
""fullscreenenter"",""1"",""2484""
","
","","","586.3999999999069","","","20","15932","6235","&#9761;","elianto","#3366ff99","-1"," ","0","0","[1443.5]","1","0","2","","","","","","","",""
"pit-trial","44","509953","0.0-2.0-11.0-1.0","battery-v0.2","","""event"",""trial"",""time""
""fullscreenenter"",""1"",""2484""
","
","
","""event"",""trial"",""time""
""fullscreenenter"",""1"",""2484""
","
","","","613.2000000001863","","","20","15932","6235","&#9761;","elianto","#3366ff99","-1"," ","0","0","[1464]","1","0","2","","","","","","","",""
"pit-trial","45","514824","0.0-2.0-11.0-2.0","battery-v0.2","","""event"",""trial"",""time""
""fullscreenenter"",""1"",""2484""
","
","
","""event"",""trial"",""time""
""fullscreenenter"",""1"",""2484""
","
","","","-1","","","20","15932","6235","&#9761;","elianto","#3366ff99","-1","-1","1","+10","[]","0","0","2","","","","","","","",""
"pit-trial","46","519687","0.0-2.0-11.0-3.0","battery-v0.2","","""event"",""trial"",""time""
""fullscreenenter"",""1"",""2484""
","
","
","""event"",""trial"",""time""
""fullscreenenter"",""1"",""2484""
","
","","","-1","","","20","15932","6235","&#9761;","elianto","#3366ff99","-1","-1","1","0","[]","0","0","2","","","","","","","",""
"pit-trial","47","524558","0.0-2.0-11.0-4.0","battery-v0.2","","""event"",""trial"",""time""
""fullscreenenter"",""1"",""2484""
","
","
","""event"",""trial"",""time""
""fullscreenenter"",""1"",""2484""
","
","","","-1","","","20","15932","6235","&#9761;","elianto","#3366ff99","-1","-1","1","+10","[]","0","0","2","","","","","","","",""
"pit-trial","48","529429","0.0-2.0-11.1-0.1","battery-v0.2","","""event"",""trial"",""time""
""fullscreenenter"",""1"",""2484""
","
","
","""event"",""trial"",""time""
""fullscreenenter"",""1"",""2484""
","
","","","-1","","","20","15932","6235","&#9761;","elianto","#3366ff99","-1","-1","1","+10","[]","0","0","2","","","","","","","",""
"pit-trial","49","534283","0.0-2.0-11.1-1.1","battery-v0.2","","""event"",""trial"",""time""
""fullscreenenter"",""1"",""2484""
","
","
","""event"",""trial"",""time""
""fullscreenenter"",""1"",""2484""
","
","","","-1","","","20","15932","6235","&#9761;","elianto","#3366ff99","-1","-1","1","+10","[]","0","0","2","","","","","","","",""
"pit-trial","50","539136","0.0-2.0-11.1-2.1","battery-v0.2","","""event"",""trial"",""time""
""fullscreenenter"",""1"",""2484""
","
","
","""event"",""trial"",""time""
""fullscreenenter"",""1"",""2484""
","
","","","-1","","","20","15932","6235","&#9761;","elianto","#3366ff99","-1","-1","1","+10","[]","0","0","2","","","","","","","",""
"pit-trial","51","543989","0.0-2.0-11.1-3.1","battery-v0.2","","""event"",""trial"",""time""
""fullscreenenter"",""1"",""2484""
","
","
","""event"",""trial"",""time""
""fullscreenenter"",""1"",""2484""
","
","","","-1","","","20","15932","6235","&#9761;","elianto","#3366ff99","-1","-1","1","0","[]","0","0","2","","","","","","","",""
"pit-trial","52","548842","0.0-2.0-11.1-4.1","battery-v0.2","","""event"",""trial"",""time""
""fullscreenenter"",""1"",""2484""
","
","
","""event"",""trial"",""time""
""fullscreenenter"",""1"",""2484""
","
","","","-1","","","20","15932","6235","&#9761;","elianto","#3366ff99","-1","-1","1","+10","[]","0","0","2","","","","","","","",""
"pit-trial","53","553696","0.0-2.0-11.2-0.2","battery-v0.2","","""event"",""trial"",""time""
""fullscreenenter"",""1"",""2484""
","
","
","""event"",""trial"",""time""
""fullscreenenter"",""1"",""2484""
","
","","","-1","","","20","15932","6235","&#9761;","elianto","#3366ff99","-1","-1","1","+10","[]","0","0","2","","","","","","","",""
"pit-trial","54","558551","0.0-2.0-11.2-1.2","battery-v0.2","","""event"",""trial"",""time""
""fullscreenenter"",""1"",""2484""
","
","
","""event"",""trial"",""time""
""fullscreenenter"",""1"",""2484""
","
","","","-1","","","20","15932","6235","&#9761;","elianto","#3366ff99","-1","-1","1","+10","[]","0","0","2","","","","","","","",""
"pit-trial","55","563404","0.0-2.0-11.2-2.2","battery-v0.2","","""event"",""trial"",""time""
""fullscreenenter"",""1"",""2484""
","
","
","""event"",""trial"",""time""
""fullscreenenter"",""1"",""2484""
","
","","","-1","","","20","15932","6235","&#9761;","elianto","#3366ff99","-1","-1","1","+10","[]","0","0","2","","","","","","","",""
"pit-trial","56","568258","0.0-2.0-11.2-3.2","battery-v0.2","","""event"",""trial"",""time""
""fullscreenenter"",""1"",""2484""
","
","
","""event"",""trial"",""time""
""fullscreenenter"",""1"",""2484""
","
","","","-1","","","20","15932","6235","&#9761;","elianto","#3366ff99","-1","-1","1","0","[]","0","0","2","","","","","","","",""
"pit-trial","57","573111","0.0-2.0-11.2-4.2","battery-v0.2","","""event"",""trial"",""time""
""fullscreenenter"",""1"",""2484""
","
","
","""event"",""trial"",""time""
""fullscreenenter"",""1"",""2484""
","
","","","-1","","","20","15932","6235","&#9761;","elianto","#3366ff99","-1","-1","1","+10","[]","0","0","2","","","","","","","",""
"pit-trial","58","577966","0.0-2.0-11.3-0.3","battery-v0.2","","""event"",""trial"",""time""
""fullscreenenter"",""1"",""2484""
","
","
","""event"",""trial"",""time""
""fullscreenenter"",""1"",""2484""
","
","","","-1","","","20","15932","6235","&#9761;","elianto","#3366ff99","-1","-1","1","+10","[]","0","0","2","","","","","","","",""
"pit-trial","59","582818","0.0-2.0-11.3-1.3","battery-v0.2","","""event"",""trial"",""time""
""fullscreenenter"",""1"",""2484""
","
","
","""event"",""trial"",""time""
""fullscreenenter"",""1"",""2484""
","
","","","-1","","","20","15932","6235","&#9761;","elianto","#3366ff99","-1","-1","1","+10","[]","0","0","2","","","","","","","",""
"pit-trial","60","587670","0.0-2.0-11.3-2.3","battery-v0.2","","""event"",""trial"",""time""
""fullscreenenter"",""1"",""2484""
","
","
","""event"",""trial"",""time""
""fullscreenenter"",""1"",""2484""
","
","","","-1","","","20","15932","6235","&#9761;","elianto","#3366ff99","-1","-1","1","+10","[]","0","0","2","","","","","","","",""
"pit-trial","61","592523","0.0-2.0-11.3-3.3","battery-v0.2","","""event"",""trial"",""time""
""fullscreenenter"",""1"",""2484""
","
","
","""event"",""trial"",""time""
""fullscreenenter"",""1"",""2484""
","
","","","-1","","","20","15932","6235","&#9761;","elianto","#3366ff99","-1","-1","1","0","[]","0","0","2","","","","","","","",""
"pit-trial","62","597376","0.0-2.0-11.3-4.3","battery-v0.2","","""event"",""trial"",""time""
""fullscreenenter"",""1"",""2484""
","
","
","""event"",""trial"",""time""
""fullscreenenter"",""1"",""2484""
","
","","","-1","","","20","15932","6235","&#9761;","elianto","#3366ff99","-1","-1","1","+10","[]","0","0","2","","","","","","","",""
"call-function","63","597378","0.0-2.0-12.0","battery-v0.2","","""event"",""trial"",""time""
""fullscreenenter"",""1"",""2484""
","
","
","""event"",""trial"",""time""
""fullscreenenter"",""1"",""2484""
","
","","","","","","","","","","","","","","","","","","","","","","","","","","",""
"pit-instructions","64","627781","0.0-2.0-13.0","battery-v0.2","","""event"",""trial"",""time""
""fullscreenenter"",""1"",""2484""
","
","
","""event"",""trial"",""time""
""fullscreenenter"",""1"",""2484""
","
","","[{""page_index"":0,""viewing_time"":5342.799999999814},{""page_index"":1,""viewing_time"":6471.899999999907},{""page_index"":2,""viewing_time"":4256},{""page_index"":3,""viewing_time"":10247.899999999907},{""page_index"":4,""viewing_time"":4080.600000000093}]","30399.399999999907","","","","","","","","","","","","","","","","","","","","","","","",""
"pit-trial","65","632646","0.0-2.0-14.0-0.0","battery-v0.2","","""event"",""trial"",""time""
""fullscreenenter"",""1"",""2484""
","
","
","""event"",""trial"",""time""
""fullscreenenter"",""1"",""2484""
","
","","","-1","","","20","15932","6235","&#9826;","elianto","#f73b6a7A","-1","-1","1","0","[]","0","0","3","","","","","","","",""
"pit-trial","66","637042","0.0-2.0-14.0-1.0","battery-v0.2","","""event"",""trial"",""time""
""fullscreenenter"",""1"",""2484""
","
","
","""event"",""trial"",""time""
""fullscreenenter"",""1"",""2484""
","
","","","1542.7999999998137","","","20","15932","6235","&#9826;","elianto","#f73b6a7A","-1"," ","0","-10","[2393.1999999997206]","1","0","3","","","","","","","",""
"pit-trial","67","641912","0.0-2.0-14.0-2.0","battery-v0.2","","""event"",""trial"",""time""
""fullscreenenter"",""1"",""2484""
","
","
","""event"",""trial"",""time""
""fullscreenenter"",""1"",""2484""
","
","","","-1","","","20","15932","6235","&#9826;","elianto","#f73b6a7A","-1","-1","1","0","[]","0","0","3","","","","","","","",""
"pit-trial","68","646783","0.0-2.0-14.0-3.0","battery-v0.2","","""event"",""trial"",""time""
""fullscreenenter"",""1"",""2484""
","
","
","""event"",""trial"",""time""
""fullscreenenter"",""1"",""2484""
","
","","","-1","","","20","15932","6235","&#9826;","elianto","#f73b6a7A","-1","-1","1","-10","[]","0","0","3","","","","","","","",""
"pit-trial","69","651640","0.0-2.0-14.0-4.0","battery-v0.2","","""event"",""trial"",""time""
""fullscreenenter"",""1"",""2484""
","
","
","""event"",""trial"",""time""
""fullscreenenter"",""1"",""2484""
","
","","","-1","","","20","15932","6235","&#9826;","elianto","#f73b6a7A","-1","-1","1","0","[]","0","0","3","","","","","","","",""
"pit-trial","70","656510","0.0-2.0-14.1-0.1","battery-v0.2","","""event"",""trial"",""time""
""fullscreenenter"",""1"",""2484""
","
","
","""event"",""trial"",""time""
""fullscreenenter"",""1"",""2484""
","
","","","-1","","","20","15932","6235","&#9826;","elianto","#f73b6a7A","-1","-1","1","0","[]","0","0","3","","","","","","","",""
"pit-trial","71","661363","0.0-2.0-14.1-1.1","battery-v0.2","","""event"",""trial"",""time""
""fullscreenenter"",""1"",""2484""
","
","
","""event"",""trial"",""time""
""fullscreenenter"",""1"",""2484""
","
","","","-1","","","20","15932","6235","&#9826;","elianto","#f73b6a7A","-1","-1","1","0","[]","0","0","3","","","","","","","",""
"pit-trial","72","666216","0.0-2.0-14.1-2.1","battery-v0.2","","""event"",""trial"",""time""
""fullscreenenter"",""1"",""2484""
","
","
","""event"",""trial"",""time""
""fullscreenenter"",""1"",""2484""
","
","","","-1","","","20","15932","6235","&#9826;","elianto","#f73b6a7A","-1","-1","1","0","[]","0","0","3","","","","","","","",""
"pit-trial","73","671069","0.0-2.0-14.1-3.1","battery-v0.2","","""event"",""trial"",""time""
""fullscreenenter"",""1"",""2484""
","
","
","""event"",""trial"",""time""
""fullscreenenter"",""1"",""2484""
","
","","","-1","","","20","15932","6235","&#9826;","elianto","#f73b6a7A","-1","-1","1","-10","[]","0","0","3","","","","","","","",""
"pit-trial","74","675922","0.0-2.0-14.1-4.1","battery-v0.2","","""event"",""trial"",""time""
""fullscreenenter"",""1"",""2484""
","
","
","""event"",""trial"",""time""
""fullscreenenter"",""1"",""2484""
","
","","","-1","","","20","15932","6235","&#9826;","elianto","#f73b6a7A","-1","-1","1","0","[]","0","0","3","","","","","","","",""
"pit-trial","75","680778","0.0-2.0-14.2-0.2","battery-v0.2","","""event"",""trial"",""time""
""fullscreenenter"",""1"",""2484""
","
","
","""event"",""trial"",""time""
""fullscreenenter"",""1"",""2484""
","
","","","-1","","","20","15932","6235","&#9826;","elianto","#f73b6a7A","-1","-1","1","0","[]","0","0","3","","","","","","","",""
"pit-trial","76","685631","0.0-2.0-14.2-1.2","battery-v0.2","","""event"",""trial"",""time""
""fullscreenenter"",""1"",""2484""
","
","
","""event"",""trial"",""time""
""fullscreenenter"",""1"",""2484""
","
","","","-1","","","20","15932","6235","&#9826;","elianto","#f73b6a7A","-1","-1","1","0","[]","0","0","3","","","","","","","",""
"pit-trial","77","690484","0.0-2.0-14.2-2.2","battery-v0.2","","""event"",""trial"",""time""
""fullscreenenter"",""1"",""2484""
","
","
","""event"",""trial"",""time""
""fullscreenenter"",""1"",""2484""
","
","","","-1","","","20","15932","6235","&#9826;","elianto","#f73b6a7A","-1","-1","1","0","[]","0","0","3","","","","","","","",""
"pit-trial","78","695336","0.0-2.0-14.2-3.2","battery-v0.2","","""event"",""trial"",""time""
""fullscreenenter"",""1"",""2484""
","
","
","""event"",""trial"",""time""
""fullscreenenter"",""1"",""2484""
","
","","","-1","","","20","15932","6235","&#9826;","elianto","#f73b6a7A","-1","-1","1","-10","[]","0","0","3","","","","","","","",""
"pit-trial","79","700190","0.0-2.0-14.2-4.2","battery-v0.2","","""event"",""trial"",""time""
""fullscreenenter"",""1"",""2484""
","
","
","""event"",""trial"",""time""
""fullscreenenter"",""1"",""2484""
","
","","","-1","","","20","15932","6235","&#9826;","elianto","#f73b6a7A","-1","-1","1","0","[]","0","0","3","","","","","","","",""
"pit-trial","80","705043","0.0-2.0-14.3-0.3","battery-v0.2","","""event"",""trial"",""time""
""fullscreenenter"",""1"",""2484""
","
","
","""event"",""trial"",""time""
""fullscreenenter"",""1"",""2484""
","
","","","-1","","","20","15932","6235","&#9826;","elianto","#f73b6a7A","-1","-1","1","0","[]","0","0","3","","","","","","","",""
"pit-trial","81","709896","0.0-2.0-14.3-1.3","battery-v0.2","","""event"",""trial"",""time""
""fullscreenenter"",""1"",""2484""
","
","
","""event"",""trial"",""time""
""fullscreenenter"",""1"",""2484""
","
","","","-1","","","20","15932","6235","&#9826;","elianto","#f73b6a7A","-1","-1","1","0","[]","0","0","3","","","","","","","",""
"pit-trial","82","714750","0.0-2.0-14.3-2.3","battery-v0.2","","""event"",""trial"",""time""
""fullscreenenter"",""1"",""2484""
","
","
","""event"",""trial"",""time""
""fullscreenenter"",""1"",""2484""
","
","","","-1","","","20","15932","6235","&#9826;","elianto","#f73b6a7A","-1","-1","1","0","[]","0","0","3","","","","","","","",""
"pit-trial","83","719603","0.0-2.0-14.3-3.3","battery-v0.2","","""event"",""trial"",""time""
""fullscreenenter"",""1"",""2484""
","
","
","""event"",""trial"",""time""
""fullscreenenter"",""1"",""2484""
","
","","","-1","","","20","15932","6235","&#9826;","elianto","#f73b6a7A","-1","-1","1","-10","[]","0","0","3","","","","","","","",""
"pit-trial","84","724456","0.0-2.0-14.3-4.3","battery-v0.2","","""event"",""trial"",""time""
""fullscreenenter"",""1"",""2484""
","
","
","""event"",""trial"",""time""
""fullscreenenter"",""1"",""2484""
","
","","","-1","","","20","15932","6235","&#9826;","elianto","#f73b6a7A","-1","-1","1","0","[]","0","0","3","","","","","","","",""
"call-function","85","724458","0.0-2.0-15.0","battery-v0.2","","""event"",""trial"",""time""
""fullscreenenter"",""1"",""2484""
","
","
","""event"",""trial"",""time""
""fullscreenenter"",""1"",""2484""
","
","","","","","","","","","","","","","","","","","","","","","","","","","","",""
"pit-instructions","86","760917","0.0-2.0-16.0","battery-v0.2","","""event"",""trial"",""time""
""fullscreenenter"",""1"",""2484""
","
","
","""event"",""trial"",""time""
""fullscreenenter"",""1"",""2484""
","
","","[{""page_index"":0,""viewing_time"":7154},{""page_index"":1,""viewing_time"":9311.899999999907},{""page_index"":2,""viewing_time"":14175.899999999907},{""page_index"":3,""viewing_time"":5815.899999999907}]","36457.89999999991","","","","","","","","","","","","","","","","","","","","","","","",""
"pit-trial","87","764199","0.0-2.0-17.0-0.0","battery-v0.2","","""event"",""trial"",""time""
""fullscreenenter"",""1"",""2484""
","
","
","""event"",""trial"",""time""
""fullscreenenter"",""1"",""2484""
","
","","","406.6999999997206","","","20","15932","6235","&#9789;","elianto","#f73b6a7A"," "," ","1","0","[1267.3000000002794]","1","0","4","","","","","","","",""
"pit-trial","88","767303","0.0-2.0-17.0-1.0","battery-v0.2","","""event"",""trial"",""time""
""fullscreenenter"",""1"",""2484""
","
","
","""event"",""trial"",""time""
""fullscreenenter"",""1"",""2484""
","
","","","246.89999999990687","","","20","15932","6235","&#9789;","elianto","#f73b6a7A"," "," ","1","0","[1097.5]","1","0","4","","","","","","","",""
"pit-trial","89","770330","0.0-2.0-17.0-2.0","battery-v0.2","","""event"",""trial"",""time""
""fullscreenenter"",""1"",""2484""
","
","
","""event"",""trial"",""time""
""fullscreenenter"",""1"",""2484""
","
","","","159.20000000018626","","","20","15932","6235","&#9789;","elianto","#f73b6a7A"," "," ","1","0","[1017.1000000000931]","1","0","4","","","","","","","",""
"pit-trial","90","773378","0.0-2.0-17.0-3.0","battery-v0.2","","""event"",""trial"",""time""
""fullscreenenter"",""1"",""2484""
","
","
","""event"",""trial"",""time""
""fullscreenenter"",""1"",""2484""
","
","","","187.29999999981374","","","20","15932","6235","&#9789;","elianto","#f73b6a7A"," "," ","1","-10","[1038.1999999997206]","1","0","4","","","","","","","",""
"pit-trial","91","777401","0.0-2.0-17.0-4.0","battery-v0.2","","""event"",""trial"",""time""
""fullscreenenter"",""1"",""2484""
","
","
","""event"",""trial"",""time""
""fullscreenenter"",""1"",""2484""
","
","","","1161.8999999999069","","","20","15932","6235","&#9789;","elianto","#f73b6a7A"," "," ","1","0","[2015.0999999996275]","1","0","4","","","","","","","",""
"pit-trial","92","780698","0.0-2.0-17.1-0.1","battery-v0.2","","""event"",""trial"",""time""
""fullscreenenter"",""1"",""2484""
","
","
","""event"",""trial"",""time""
""fullscreenenter"",""1"",""2484""
","
","","","427.89999999990687","","","20","15932","6235","&#9789;","elianto","#f73b6a7A"," "," ","1","0","[1285.5]","1","0","4","","","","","","","",""
"pit-trial","93","784011","0.0-2.0-17.1-1.1","battery-v0.2","","""event"",""trial"",""time""
""fullscreenenter"",""1"",""2484""
","
","
","""event"",""trial"",""time""
""fullscreenenter"",""1"",""2484""
","
","","","458.20000000018626","","","20","15932","6235","&#9789;","elianto","#f73b6a7A"," "," ","1","0","[1309.7999999998137]","1","0","4","","","","","","","",""
"pit-trial","94","787250","0.0-2.0-17.1-2.1","battery-v0.2","","""event"",""trial"",""time""
""fullscreenenter"",""1"",""2484""
","
","
","""event"",""trial"",""time""
""fullscreenenter"",""1"",""2484""
","
","","","377.10000000009313","","","20","15932","6235","&#9789;","elianto","#f73b6a7A"," "," ","1","0","[1228]","1","0","4","","","","","","","",""
"pit-trial","95","790505","0.0-2.0-17.1-3.1","battery-v0.2","","""event"",""trial"",""time""
""fullscreenenter"",""1"",""2484""
","
","
","""event"",""trial"",""time""
""fullscreenenter"",""1"",""2484""
","
","","","385.79999999981374","","","20","15932","6235","&#9789;","elianto","#f73b6a7A"," "," ","1","-10","[1245.6999999997206]","1","0","4","","","","","","","",""
"pit-trial","96","793737","0.0-2.0-17.1-4.1","battery-v0.2","","""event"",""trial"",""time""
""fullscreenenter"",""1"",""2484""
","
","
","""event"",""trial"",""time""
""fullscreenenter"",""1"",""2484""
","
","","","380.10000000009313","","","20","15932","6235","&#9789;","elianto","#f73b6a7A"," "," ","1","0","[1230.7000000001863]","1","0","4","","","","","","","",""
"pit-trial","97","797042","0.0-2.0-17.2-0.2","battery-v0.2","","""event"",""trial"",""time""
""fullscreenenter"",""1"",""2484""
","
","
","""event"",""trial"",""time""
""fullscreenenter"",""1"",""2484""
","
","","","451","","","20","15932","6235","&#9789;","elianto","#f73b6a7A"," "," ","1","0","[1301.2999999998137]","1","0","4","","","","","","","",""
"pit-trial","98","800273","0.0-2.0-17.2-1.2","battery-v0.2","","""event"",""trial"",""time""
""fullscreenenter"",""1"",""2484""
","
","
","""event"",""trial"",""time""
""fullscreenenter"",""1"",""2484""
","
","","","378.79999999981374","","","20","15932","6235","&#9789;","elianto","#f73b6a7A"," "," ","1","0","[1228.8999999999069]","1","0","4","","","","","","","",""
"pit-trial","99","803513","0.0-2.0-17.2-2.2","battery-v0.2","","""event"",""trial"",""time""
""fullscreenenter"",""1"",""2484""
","
","
","""event"",""trial"",""time""
""fullscreenenter"",""1"",""2484""
","
","","","386.59999999962747","","","20","15932","6235","&#9789;","elianto","#f73b6a7A"," "," ","1","0","[1237.5999999996275]","1","0","4","","","","","","","",""
"pit-trial","100","806665","0.0-2.0-17.2-3.2","battery-v0.2","","""event"",""trial"",""time""
""fullscreenenter"",""1"",""2484""
","
","
","""event"",""trial"",""time""
""fullscreenenter"",""1"",""2484""
","
","","","299.60000000009313","","","20","15932","6235","&#9789;","elianto","#f73b6a7A"," "," ","1","-10","[1150.0999999996275]","1","0","4","","","","","","","",""
"pit-trial","101","809777","0.0-2.0-17.2-4.2","battery-v0.2","","""event"",""trial"",""time""
""fullscreenenter"",""1"",""2484""
","
","
","""event"",""trial"",""time""
""fullscreenenter"",""1"",""2484""
","
","","","259.1999999997206","","","20","15932","6235","&#9789;","elianto","#f73b6a7A"," "," ","1","0","[1110]","1","0","4","","","","","","","",""
"pit-trial","102","812897","0.0-2.0-17.3-0.3","battery-v0.2","","""event"",""trial"",""time""
""fullscreenenter"",""1"",""2484""
","
","
","""event"",""trial"",""time""
""fullscreenenter"",""1"",""2484""
","
","","","265.79999999981374","","","20","15932","6235","&#9789;","elianto","#f73b6a7A"," "," ","1","0","[1117.7999999998137]","1","0","4","","","","","","","",""
"pit-trial","103","816074","0.0-2.0-17.3-1.3","battery-v0.2","","""event"",""trial"",""time""
""fullscreenenter"",""1"",""2484""
","
","
","""event"",""trial"",""time""
""fullscreenenter"",""1"",""2484""
","
","","","323.29999999981374","","","20","15932","6235","&#9789;","elianto","#f73b6a7A"," "," ","1","0","[1174.2999999998137]","1","0","4","","","","","","","",""
"pit-trial","104","819385","0.0-2.0-17.3-2.3","battery-v0.2","","""event"",""trial"",""time""
""fullscreenenter"",""1"",""2484""
","
","
","""event"",""trial"",""time""
""fullscreenenter"",""1"",""2484""
","
","","","458.1999999997206","","","20","15932","6235","&#9789;","elianto","#f73b6a7A"," "," ","1","0","[1309.0999999996275]","1","0","4","","","","","","","",""
"pit-trial","105","822480","0.0-2.0-17.3-3.3","battery-v0.2","","""event"",""trial"",""time""
""fullscreenenter"",""1"",""2484""
","
","
","""event"",""trial"",""time""
""fullscreenenter"",""1"",""2484""
","
","","","241.89999999990687","","","20","15932","6235","&#9789;","elianto","#f73b6a7A"," "," ","1","-10","[1093.3999999999069]","1","0","4","","","","","","","",""
"pit-trial","106","825386","0.0-2.0-17.3-4.3","battery-v0.2","","""event"",""trial"",""time""
""fullscreenenter"",""1"",""2484""
","
","
","""event"",""trial"",""time""
""fullscreenenter"",""1"",""2484""
","
","","","51.799999999813735","","","20","15932","6235","&#9789;","elianto","#f73b6a7A"," "," ","1","0","[902.7999999998137]","1","0","4","","","","","","","",""
"call-function","107","825387","0.0-2.0-18.0","battery-v0.2","","""event"",""trial"",""time""
""fullscreenenter"",""1"",""2484""
","
","
","""event"",""trial"",""time""
""fullscreenenter"",""1"",""2484""
","
","","","","","","","","","","","","","","","","","","","","","","","","","","",""
"pit-instructions","108","885964","0.0-2.0-19.0","battery-v0.2","","""event"",""trial"",""time""
""fullscreenenter"",""1"",""2484""
","
","
","""event"",""trial"",""time""
""fullscreenenter"",""1"",""2484""
","
","","[{""page_index"":0,""viewing_time"":6560.5},{""page_index"":1,""viewing_time"":4048},{""page_index"":2,""viewing_time"":8456},{""page_index"":3,""viewing_time"":4335.899999999907},{""page_index"":4,""viewing_time"":7615.899999999907},{""page_index"":5,""viewing_time"":8024.200000000186},{""page_index"":6,""viewing_time"":5072.899999999907},{""page_index"":7,""viewing_time"":4038.7999999998137},{""page_index"":8,""viewing_time"":12423.899999999907}]","60576.39999999991","","","","","","","","","","","","","","","","","","","","","","","",""
"pit-comprehension","109","890669","0.0-2.0-20.0-0.0","battery-v0.2","","""event"",""trial"",""time""
""fullscreenenter"",""1"",""2484""
","
","
","""event"",""trial"",""time""
""fullscreenenter"",""1"",""2484""
","
","","","4702.600000000093","[""SPACE""]","0","20","15932","6235","","","","","","","","","","","","","","","","","","",""
"pit-instructions","110","903188","0.0-2.0-20.0-1.0","battery-v0.2","","""event"",""trial"",""time""
""fullscreenenter"",""1"",""2484""
","
","
","""event"",""trial"",""time""
""fullscreenenter"",""1"",""2484""
","
","","[{""page_index"":0,""viewing_time"":12488.5}]","12488.700000000186","","","","","","","","","","","","","","","","","","","","","","","",""
"pit-comprehension","111","910228","0.0-2.0-21.0-0.0","battery-v0.2","","""event"",""trial"",""time""
""fullscreenenter"",""1"",""2484""
","
","
","""event"",""trial"",""time""
""fullscreenenter"",""1"",""2484""
","
","","","7037.899999999907","[""10""]","0","20","15932","6235","","","","","","","","","","","","","","","","","","",""
"pit-instructions","112","911709","0.0-2.0-21.0-1.0","battery-v0.2","","""event"",""trial"",""time""
""fullscreenenter"",""1"",""2484""
","
","
","""event"",""trial"",""time""
""fullscreenenter"",""1"",""2484""
","
","","[{""page_index"":0,""viewing_time"":1451.6000000000931}]","1451.8000000002794","","","","","","","","","","","","","","","","","","","","","","","",""
"pit-comprehension","113","918220","0.0-2.0-22.0-0.0","battery-v0.2","","""event"",""trial"",""time""
""fullscreenenter"",""1"",""2484""
","
","
","""event"",""trial"",""time""
""fullscreenenter"",""1"",""2484""
","
","","","6508.9000000003725","[""-10""]","1","20","15932","6235","","","","","","","","","","","","","","","","","","",""
"pit-instructions","114","922499","0.0-2.0-22.0-1.0","battery-v0.2","","""event"",""trial"",""time""
""fullscreenenter"",""1"",""2484""
","
","
","""event"",""trial"",""time""
""fullscreenenter"",""1"",""2484""
","
","","[{""page_index"":0,""viewing_time"":4252.700000000186}]","4252.899999999907","","","","","","","","","","","","","","","","","","","","","","","",""
"pit-instructions","115","923203","0.0-2.0-22.0-2.0-0.0","battery-v0.2","","""event"",""trial"",""time""
""fullscreenenter"",""1"",""2484""
","
","
","""event"",""trial"",""time""
""fullscreenenter"",""1"",""2484""
","
","","[{""page_index"":0,""viewing_time"":702.3999999999069}]","702.6000000000931","","","","","","","","","","","","","","","","","","","","","","","",""
"pit-comprehension","116","929636","0.0-2.0-22.1-0.1","battery-v0.2","","""event"",""trial"",""time""
""fullscreenenter"",""1"",""2484""
","
","
","""event"",""trial"",""time""
""fullscreenenter"",""1"",""2484""
","
","","","6430.399999999907","[""0""]","0","20","15932","6235","","","","","","","","","","","","","","","","","","",""
"pit-instructions","117","931292","0.0-2.0-22.1-1.1","battery-v0.2","","""event"",""trial"",""time""
""fullscreenenter"",""1"",""2484""
","
","
","""event"",""trial"",""time""
""fullscreenenter"",""1"",""2484""
","
","","[{""page_index"":0,""viewing_time"":1622.8999999999069}]","1623.0999999996275","","","","","","","","","","","","","","","","","","","","","","","",""
"pit-comprehension","118","940476","0.0-2.0-23.0-0.0","battery-v0.2","","""event"",""trial"",""time""
""fullscreenenter"",""1"",""2484""
","
","
","""event"",""trial"",""time""
""fullscreenenter"",""1"",""2484""
","
","","","9182","[""True""]","0","20","15932","6235","","","","","","","","","","","","","","","","","","",""
"pit-instructions","119","942667","0.0-2.0-23.0-1.0","battery-v0.2","","""event"",""trial"",""time""
""fullscreenenter"",""1"",""2484""
","
","
","""event"",""trial"",""time""
""fullscreenenter"",""1"",""2484""
","
","","[{""page_index"":0,""viewing_time"":2162.600000000093}]","2162.7999999998137","","","","","","","","","","","","","","","","","","","","","","","",""
"pit-comprehension","120","950108","0.0-2.0-24.0-0.0","battery-v0.2","","""event"",""trial"",""time""
""fullscreenenter"",""1"",""2484""
","
","
","""event"",""trial"",""time""
""fullscreenenter"",""1"",""2484""
","
","","","7438.5","[""True""]","0","20","15932","6235","","","","","","","","","","","","","","","","","","",""
"pit-instructions","121","954539","0.0-2.0-24.0-1.0","battery-v0.2","","""event"",""trial"",""time""
""fullscreenenter"",""1"",""2484""
","
","
","""event"",""trial"",""time""
""fullscreenenter"",""1"",""2484""
","
","","[{""page_index"":0,""viewing_time"":4403.5999999996275}]","4403.699999999721","","","","","","","","","","","","","","","","","","","","","","","",""
"pit-comprehension","122","962308","0.0-2.0-25.0-0.0","battery-v0.2","","""event"",""trial"",""time""
""fullscreenenter"",""1"",""2484""
","
","
","""event"",""trial"",""time""
""fullscreenenter"",""1"",""2484""
","
","","","7765.899999999907","[""True""]","0","20","15932","6235","","","","","","","","","","","","","","","","","","",""
"pit-instructions","123","964923","0.0-2.0-25.0-1.0","battery-v0.2","","""event"",""trial"",""time""
""fullscreenenter"",""1"",""2484""
","
","
","""event"",""trial"",""time""
""fullscreenenter"",""1"",""2484""
","
","","[{""page_index"":0,""viewing_time"":2580.5}]","2580.6999999997206","","","","","","","","","","","","","","","","","","","","","","","",""
"pit-comprehension","124","969068","0.0-2.0-26.0-0.0","battery-v0.2","","""event"",""trial"",""time""
""fullscreenenter"",""1"",""2484""
","
","
","""event"",""trial"",""time""
""fullscreenenter"",""1"",""2484""
","
","","","4141.899999999907","[""False""]","0","20","15932","6235","","","","","","","","","","","","","","","","","","",""
"pit-instructions","125","970419","0.0-2.0-26.0-1.0","battery-v0.2","","""event"",""trial"",""time""
""fullscreenenter"",""1"",""2484""
","
","
","""event"",""trial"",""time""
""fullscreenenter"",""1"",""2484""
","
","","[{""page_index"":0,""viewing_time"":1323.3000000002794}]","1323.4000000003725","","","","","","","","","","","","","","","","","","","","","","","",""
"pit-instructions","126","998451","0.0-3.0","battery-v0.2","","""event"",""trial"",""time""
""fullscreenenter"",""1"",""2484""
","
","
","""event"",""trial"",""time""
""fullscreenenter"",""1"",""2484""
","
","","[{""page_index"":0,""viewing_time"":12670.5},{""page_index"":1,""viewing_time"":8783.899999999907},{""page_index"":2,""viewing_time"":6575.899999999907}]","28030.5","","","","","","","","","","","","","","","","","","","","","","","",""
"pit-trial","127","1003312","0.0-4.0","battery-v0.2","","""event"",""trial"",""time""
""fullscreenenter"",""1"",""2484""
","
","
","""event"",""trial"",""time""
""fullscreenenter"",""1"",""2484""
","
","","","-1","","","20","15932","6235","&#9728;","elianto","#f73b6a7A","-1","-1","1","0","[]","0","1","","","15932","1","0","4","lose","no-go","0"
"pit-trial","128","1006884","0.0-5.0","battery-v0.2","","""event"",""trial"",""time""
""fullscreenenter"",""1"",""2484""
","
","
","""event"",""trial"",""time""
""fullscreenenter"",""1"",""2484""
","
","","","716","","","20","15932","6235","&#9733;","elianto","#3366ff99","-1"," ","0","+10","[1566]","1","1","","","15932","2","2","2","win","no-go","1"
"pit-trial","129","1011766","0.0-6.0","battery-v0.2","","""event"",""trial"",""time""
""fullscreenenter"",""1"",""2484""
","
","
","""event"",""trial"",""time""
""fullscreenenter"",""1"",""2484""
","
","","","-1","","","20","15932","6235","&#9752;","elianto","#f73b6a7A"," ","-1","0","0","[]","0","1","","","15932","3","3","3","lose","go","1"
"pit-trial","130","1016624","0.0-7.0","battery-v0.2","","""event"",""trial"",""time""
""fullscreenenter"",""1"",""2484""
","
","
","""event"",""trial"",""time""
""fullscreenenter"",""1"",""2484""
","
","","","-1","","","20","15932","6235","&#9730;","elianto","#3366ff99"," ","-1","0","0","[]","0","1","","","15932","4","1","1","win","go","0"
"pit-trial","131","1020098","0.0-8.0","battery-v0.2","","""event"",""trial"",""time""
""fullscreenenter"",""1"",""2484""
","
","
","""event"",""trial"",""time""
""fullscreenenter"",""1"",""2484""
","
","","","618.5","","","20","15932","6235","&#9733;","elianto","#3366ff99","-1"," ","0","0","[1469.3999999999069]","1","1","","","15932","5","2","2","win","no-go","0"
"pit-trial","132","1024974","0.0-9.0","battery-v0.2","","""event"",""trial"",""time""
""fullscreenenter"",""1"",""2484""
","
","
","""event"",""trial"",""time""
""fullscreenenter"",""1"",""2484""
","
","","","-1","","","20","15932","6235","&#9752;","elianto","#f73b6a7A"," ","-1","0","-10","[]","0","1","","","15932","6","3","3","lose","go","0"
"pit-trial","133","1028721","0.0-10.0","battery-v0.2","","""event"",""trial"",""time""
""fullscreenenter"",""1"",""2484""
","
","
","""event"",""trial"",""time""
""fullscreenenter"",""1"",""2484""
","
","","","883.8999999999069","","","20","15932","6235","&#9730;","elianto","#3366ff99"," "," ","1","+10","[1735]","1","1","","","15932","7","1","1","win","go","0"
"pit-trial","134","1033574","0.0-11.0","battery-v0.2","","""event"",""trial"",""time""
""fullscreenenter"",""1"",""2484""
","
","
","""event"",""trial"",""time""
""fullscreenenter"",""1"",""2484""
","
","","","-1","","","20","15932","6235","&#9728;","elianto","#f73b6a7A","-1","-1","1","0","[]","0","1","","","15932","8","0","4","lose","no-go","0"
"pit-trial","135","1037728","0.0-12.0","battery-v0.2","","""event"",""trial"",""time""
""fullscreenenter"",""1"",""2484""
","
","
","""event"",""trial"",""time""
""fullscreenenter"",""1"",""2484""
","
","","","1302","","","20","15932","6235","&#9752;","elianto","#f73b6a7A"," "," ","1","-10","[2152.2999999998137]","1","1","","","15932","9","3","3","lose","go","1"
"pit-trial","136","1041201","0.0-13.0","battery-v0.2","","""event"",""trial"",""time""
""fullscreenenter"",""1"",""2484""
","
","
","""event"",""trial"",""time""
""fullscreenenter"",""1"",""2484""
","
","","","617.8999999999069","","","20","15932","6235","&#9730;","elianto","#3366ff99"," "," ","1","+10","[1469.1000000000931]","1","1","","","15932","10","1","1","win","go","0"
"pit-trial","137","1046054","0.0-14.0","battery-v0.2","","""event"",""trial"",""time""
""fullscreenenter"",""1"",""2484""
","
","
","""event"",""trial"",""time""
""fullscreenenter"",""1"",""2484""
","
","","","-1","","","20","15932","6235","&#9728;","elianto","#f73b6a7A","-1","-1","1","0","[]","0","1","","","15932","11","0","4","lose","no-go","0"
"pit-trial","138","1049816","0.0-15.0","battery-v0.2","","""event"",""trial"",""time""
""fullscreenenter"",""1"",""2484""
","
","
","""event"",""trial"",""time""
""fullscreenenter"",""1"",""2484""
","
","","","908.9000000003725","","","20","15932","6235","&#9733;","elianto","#3366ff99","-1"," ","0","+10","[1759.9000000003725]","1","1","","","15932","12","2","2","win","no-go","1"
"pit-trial","139","1054670","0.0-16.0","battery-v0.2","","""event"",""trial"",""time""
""fullscreenenter"",""1"",""2484""
","
","
","""event"",""trial"",""time""
""fullscreenenter"",""1"",""2484""
","
","","","-1","","","20","15932","6235","&#9728;","elianto","#f73b6a7A","-1","-1","1","0","[]","0","1","","","15932","13","0","4","lose","no-go","0"
"pit-trial","140","1058200","0.0-17.0","battery-v0.2","","""event"",""trial"",""time""
""fullscreenenter"",""1"",""2484""
","
","
","""event"",""trial"",""time""
""fullscreenenter"",""1"",""2484""
","
","","","676.6000000000931","","","20","15932","6235","&#9730;","elianto","#3366ff99"," "," ","1","+10","[1527.3999999999069]","1","1","","","15932","14","1","1","win","go","0"
"pit-trial","141","1061952","0.0-18.0","battery-v0.2","","""event"",""trial"",""time""
""fullscreenenter"",""1"",""2484""
","
","
","""event"",""trial"",""time""
""fullscreenenter"",""1"",""2484""
","
","","","899.3999999999069","","","20","15932","6235","&#9733;","elianto","#3366ff99","-1"," ","0","0","[1750]","1","1","","","15932","15","2","2","win","no-go","0"
"pit-trial","142","1066806","0.0-19.0","battery-v0.2","","""event"",""trial"",""time""
""fullscreenenter"",""1"",""2484""
","
","
","""event"",""trial"",""time""
""fullscreenenter"",""1"",""2484""
","
","","","-1","","","20","15932","6235","&#9752;","elianto","#f73b6a7A"," ","-1","0","-10","[]","0","1","","","15932","16","3","3","lose","go","0"
"pit-trial","143","1071660","0.0-20.0","battery-v0.2","","""event"",""trial"",""time""
""fullscreenenter"",""1"",""2484""
","
","
","""event"",""trial"",""time""
""fullscreenenter"",""1"",""2484""
","
","","","-1","","","20","15932","6235","&#9728;","elianto","#f73b6a7A","-1","-1","1","0","[]","0","1","","","15932","17","0","4","lose","no-go","0"
"pit-trial","144","1075336","0.0-21.0","battery-v0.2","","""event"",""trial"",""time""
""fullscreenenter"",""1"",""2484""
","
","
","""event"",""trial"",""time""
""fullscreenenter"",""1"",""2484""
","
","","","821.8999999999069","","","20","15932","6235","&#9730;","elianto","#3366ff99"," "," ","1","+10","[1673.3999999999069]","1","1","","","15932","18","1","1","win","go","0"
"pit-trial","145","1080190","0.0-22.0","battery-v0.2","","""event"",""trial"",""time""
""fullscreenenter"",""1"",""2484""
","
","
","""event"",""trial"",""time""
""fullscreenenter"",""1"",""2484""
","
","","","-1","","","20","15932","6235","&#9733;","elianto","#3366ff99","-1","-1","1","+10","[]","0","1","","","15932","19","2","2","win","no-go","0"
"pit-trial","146","1084000","0.0-23.0","battery-v0.2","","""event"",""trial"",""time""
""fullscreenenter"",""1"",""2484""
","
","
","""event"",""trial"",""time""
""fullscreenenter"",""1"",""2484""
","
","","","956.1000000000931","","","20","15932","6235","&#9752;","elianto","#f73b6a7A"," "," ","1","0","[1807]","1","1","","","15932","20","3","3","lose","go","0"
"pit-instructions","147","1096626","0.0-24.0","battery-v0.2","","""event"",""trial"",""time""
""fullscreenenter"",""1"",""2484""
","
","
","""event"",""trial"",""time""
""fullscreenenter"",""1"",""2484""
","
","","[{""page_index"":0,""viewing_time"":5264.700000000186},{""page_index"":1,""viewing_time"":7360}]","12624.899999999907","","","","","","","","","","","","","","","","","","","","","","","",""
"pit-trial","148","1101492","0.0-25.0","battery-v0.2","","""event"",""trial"",""time""
""fullscreenenter"",""1"",""2484""
","
","
","""event"",""trial"",""time""
""fullscreenenter"",""1"",""2484""
","
","","","-1","","","20","15932","6235","n","elianto","#f73b6a7A","-1","-1","1","0","[]","0","2","","","15932","21","0","4","lose","no-go","0"
"pit-trial","149","1106347","0.0-26.0","battery-v0.2","","""event"",""trial"",""time""
""fullscreenenter"",""1"",""2484""
","
","
","""event"",""trial"",""time""
""fullscreenenter"",""1"",""2484""
","
","","","-1","","","20","15932","6235","b","elianto","#f73b6a7A"," ","-1","0","-10","[]","0","2","","","15932","22","3","3","lose","go","0"
"pit-trial","150","1110012","0.0-27.0","battery-v0.2","","""event"",""trial"",""time""
""fullscreenenter"",""1"",""2484""
","
","
","""event"",""trial"",""time""
""fullscreenenter"",""1"",""2484""
","
","","","790.6999999997206","","","20","15932","6235","f","elianto","#3366ff99"," "," ","1","+10","[1649.7000000001863]","1","2","","","15932","23","1","1","win","go","0"
"pit-trial","151","1114891","0.0-28.0","battery-v0.2","","""event"",""trial"",""time""
""fullscreenenter"",""1"",""2484""
","
","
","""event"",""trial"",""time""
""fullscreenenter"",""1"",""2484""
","
","","","-1","","","20","15932","6235","t","elianto","#f73b6a7A","-1","-1","1","-10","[]","0","2","","","15932","24","2","4","lose","no-go","1"
"pit-trial","152","1119183","0.0-29.0","battery-v0.2","","""event"",""trial"",""time""
""fullscreenenter"",""1"",""2484""
","
","
","""event"",""trial"",""time""
""fullscreenenter"",""1"",""2484""
","
","","","1437.3999999999069","","","20","15932","6235","t","elianto","#f73b6a7A","-1"," ","0","-10","[2289.399999999907]","1","2","","","15932","25","2","4","lose","no-go","0"
"pit-trial","153","1123101","0.0-30.0","battery-v0.2","","""event"",""trial"",""time""
""fullscreenenter"",""1"",""2484""
","
","
","""event"",""trial"",""time""
""fullscreenenter"",""1"",""2484""
","
","","","1052.1000000000931","","","20","15932","6235","f","elianto","#3366ff99"," "," ","1","+10","[1909]","1","2","","","15932","26","1","1","win","go","0"
"pit-trial","154","1127519","0.0-31.0","battery-v0.2","","""event"",""trial"",""time""
""fullscreenenter"",""1"",""2484""
","
","
","""event"",""trial"",""time""
""fullscreenenter"",""1"",""2484""
","
","","","1559.5999999996275","","","20","15932","6235","n","elianto","#f73b6a7A","-1"," ","0","-10","[2415.399999999907]","1","2","","","15932","27","0","4","lose","no-go","0"
"pit-trial","155","1132335","0.0-32.0","battery-v0.2","","""event"",""trial"",""time""
""fullscreenenter"",""1"",""2484""
","
","
","""event"",""trial"",""time""
""fullscreenenter"",""1"",""2484""
","
","","","1963.6000000000931","","","20","15932","6235","b","elianto","#f73b6a7A"," "," ","1","0","[2813.6999999997206]","1","2","","","15932","28","3","3","lose","go","0"
"pit-trial","156","1136598","0.0-33.0","battery-v0.2","","""event"",""trial"",""time""
""fullscreenenter"",""1"",""2484""
","
","
","""event"",""trial"",""time""
""fullscreenenter"",""1"",""2484""
","
","","","1411.2000000001863","","","20","15932","6235","b","elianto","#f73b6a7A"," "," ","1","-10","[2261.2000000001863]","1","2","","","15932","29","3","3","lose","go","1"
"pit-trial","157","1141451","0.0-34.0","battery-v0.2","","""event"",""trial"",""time""
""fullscreenenter"",""1"",""2484""
","
","
","""event"",""trial"",""time""
""fullscreenenter"",""1"",""2484""
","
","","","-1","","","20","15932","6235","f","elianto","#3366ff99"," ","-1","0","0","[3174.2000000001863]","1","2","","","15932","30","1","1","win","go","0"
"pit-trial","158","1145326","0.0-35.0","battery-v0.2","","""event"",""trial"",""time""
""fullscreenenter"",""1"",""2484""
","
","
","""event"",""trial"",""time""
""fullscreenenter"",""1"",""2484""
","
","","","1022.1000000000931","","","20","15932","6235","t","elianto","#f73b6a7A","-1"," ","0","-10","[1873.2000000001863]","1","2","","","15932","31","2","4","lose","no-go","0"
"pit-trial","159","1150180","0.0-36.0","battery-v0.2","","""event"",""trial"",""time""
""fullscreenenter"",""1"",""2484""
","
","
","""event"",""trial"",""time""
""fullscreenenter"",""1"",""2484""
","
","","","-1","","","20","15932","6235","n","elianto","#f73b6a7A","-1","-1","1","0","[]","0","2","","","15932","32","0","4","lose","no-go","0"
"pit-trial","160","1154391","0.0-37.0","battery-v0.2","","""event"",""trial"",""time""
""fullscreenenter"",""1"",""2484""
","
","
","""event"",""trial"",""time""
""fullscreenenter"",""1"",""2484""
","
","","","1357.6999999997206","","","20","15932","6235","b","elianto","#f73b6a7A"," "," ","1","-10","[2208.1999999997206]","1","2","","","15932","33","3","3","lose","go","1"
"pit-trial","161","1158479","0.0-38.0","battery-v0.2","","""event"",""trial"",""time""
""fullscreenenter"",""1"",""2484""
","
","
","""event"",""trial"",""time""
""fullscreenenter"",""1"",""2484""
","
","","","1233.7000000001863","","","20","15932","6235","f","elianto","#3366ff99"," "," ","1","+10","[2085]","1","2","","","15932","34","1","1","win","go","0"
"pit-trial","162","1163332","0.0-39.0","battery-v0.2","","""event"",""trial"",""time""
""fullscreenenter"",""1"",""2484""
","
","
","""event"",""trial"",""time""
""fullscreenenter"",""1"",""2484""
","
","","","-1","","","20","15932","6235","t","elianto","#f73b6a7A","-1","-1","1","0","[]","0","2","","","15932","35","2","4","lose","no-go","0"
"pit-trial","163","1168185","0.0-40.0","battery-v0.2","","""event"",""trial"",""time""
""fullscreenenter"",""1"",""2484""
","
","
","""event"",""trial"",""time""
""fullscreenenter"",""1"",""2484""
","
","","","-1","","","20","15932","6235","n","elianto","#f73b6a7A","-1","-1","1","0","[]","0","2","","","15932","36","0","4","lose","no-go","0"
"pit-trial","164","1173038","0.0-41.0","battery-v0.2","","""event"",""trial"",""time""
""fullscreenenter"",""1"",""2484""
","
","
","""event"",""trial"",""time""
""fullscreenenter"",""1"",""2484""
","
","","","-1","","","20","15932","6235","n","elianto","#f73b6a7A","-1","-1","1","0","[]","0","2","","","15932","37","0","4","lose","no-go","0"
"pit-trial","165","1176710","0.0-42.0","battery-v0.2","","""event"",""trial"",""time""
""fullscreenenter"",""1"",""2484""
","
","
","""event"",""trial"",""time""
""fullscreenenter"",""1"",""2484""
","
","","","818.1000000000931","","","20","15932","6235","f","elianto","#3366ff99"," "," ","1","+10","[1670]","1","2","","","15932","38","1","1","win","go","0"
"pit-trial","166","1181562","0.0-43.0","battery-v0.2","","""event"",""trial"",""time""
""fullscreenenter"",""1"",""2484""
","
","
","""event"",""trial"",""time""
""fullscreenenter"",""1"",""2484""
","
","","","-1","","","20","15932","6235","t","elianto","#f73b6a7A","-1","-1","1","-10","[]","0","2","","","15932","39","2","4","lose","no-go","1"
"pit-trial","167","1186415","0.0-44.0","battery-v0.2","","""event"",""trial"",""time""
""fullscreenenter"",""1"",""2484""
","
","
","""event"",""trial"",""time""
""fullscreenenter"",""1"",""2484""
","
","","","-1","","","20","15932","6235","b","elianto","#f73b6a7A"," ","-1","0","0","[]","0","2","","","15932","40","3","3","lose","go","1"
"pit-trial","168","1190254","0.0-45.0","battery-v0.2","","""event"",""trial"",""time""
""fullscreenenter"",""1"",""2484""
","
","
","""event"",""trial"",""time""
""fullscreenenter"",""1"",""2484""
","
","","","985.8999999999069","","","20","15932","6235","f","elianto","#3366ff99"," "," ","1","0","[1836.3999999999069]","1","2","","","15932","41","1","1","win","go","1"
"pit-trial","169","1195108","0.0-46.0","battery-v0.2","","""event"",""trial"",""time""
""fullscreenenter"",""1"",""2484""
","
","
","""event"",""trial"",""time""
""fullscreenenter"",""1"",""2484""
","
","","","-1","","","20","15932","6235","n","elianto","#f73b6a7A","-1","-1","1","0","[]","0","2","","","15932","42","0","4","lose","no-go","0"
"pit-trial","170","1199960","0.0-47.0","battery-v0.2","","""event"",""trial"",""time""
""fullscreenenter"",""1"",""2484""
","
","
","""event"",""trial"",""time""
""fullscreenenter"",""1"",""2484""
","
","","","-1","","","20","15932","6235","t","elianto","#f73b6a7A","-1","-1","1","-10","[]","0","2","","","15932","43","2","4","lose","no-go","1"
"pit-trial","171","1204813","0.0-48.0","battery-v0.2","","""event"",""trial"",""time""
""fullscreenenter"",""1"",""2484""
","
","
","""event"",""trial"",""time""
""fullscreenenter"",""1"",""2484""
","
","","","-1","","","20","15932","6235","b","elianto","#f73b6a7A"," ","-1","0","0","[]","0","2","","","15932","44","3","3","lose","go","1"
"pit-trial","172","1209668","0.0-49.0","battery-v0.2","","""event"",""trial"",""time""
""fullscreenenter"",""1"",""2484""
","
","
","""event"",""trial"",""time""
""fullscreenenter"",""1"",""2484""
","
","","","-1","","","20","15932","6235","n","elianto","#f73b6a7A","-1","-1","1","0","[]","0","2","","","15932","45","0","4","lose","no-go","0"
"pit-trial","173","1214521","0.0-50.0","battery-v0.2","","""event"",""trial"",""time""
""fullscreenenter"",""1"",""2484""
","
","
","""event"",""trial"",""time""
""fullscreenenter"",""1"",""2484""
","
","","","-1","","","20","15932","6235","b","elianto","#f73b6a7A"," ","-1","0","0","[]","0","2","","","15932","46","3","3","lose","go","1"
"pit-trial","174","1218382","0.0-51.0","battery-v0.2","","""event"",""trial"",""time""
""fullscreenenter"",""1"",""2484""
","
","
","""event"",""trial"",""time""
""fullscreenenter"",""1"",""2484""
","
","","","1007.5","","","20","15932","6235","t","elianto","#f73b6a7A","-1"," ","0","-10","[1858.6000000000931]","1","2","","","15932","47","2","4","lose","no-go","0"
"pit-trial","175","1222582","0.0-52.0","battery-v0.2","","""event"",""trial"",""time""
""fullscreenenter"",""1"",""2484""
","
","
","""event"",""trial"",""time""
""fullscreenenter"",""1"",""2484""
","
","","","1340.6000000000931","","","20","15932","6235","c","elianto","#3366ff99","-1"," ","0","+10","[2197.3000000002794]","1","2","","","15932","48","4","2","win","no-go","1"
"pit-trial","176","1226094","0.0-53.0","battery-v0.2","","""event"",""trial"",""time""
""fullscreenenter"",""1"",""2484""
","
","
","""event"",""trial"",""time""
""fullscreenenter"",""1"",""2484""
","
","","","659.1000000000931","","","20","15932","6235","f","elianto","#3366ff99"," "," ","1","+10","[1509.5]","1","2","","","15932","49","1","1","win","go","0"
"pit-trial","177","1230948","0.0-54.0","battery-v0.2","","""event"",""trial"",""time""
""fullscreenenter"",""1"",""2484""
","
","
","""event"",""trial"",""time""
""fullscreenenter"",""1"",""2484""
","
","","","-1","","","20","15932","6235","b","elianto","#f73b6a7A"," ","-1","0","-10","[]","0","2","","","15932","50","3","3","lose","go","0"
"pit-trial","178","1235801","0.0-55.0","battery-v0.2","","""event"",""trial"",""time""
""fullscreenenter"",""1"",""2484""
","
","
","""event"",""trial"",""time""
""fullscreenenter"",""1"",""2484""
","
","","","-1","","","20","15932","6235","n","elianto","#f73b6a7A","-1","-1","1","0","[]","0","2","","","15932","51","0","4","lose","no-go","0"
"pit-trial","179","1239502","0.0-56.0","battery-v0.2","","""event"",""trial"",""time""
""fullscreenenter"",""1"",""2484""
","
","
","""event"",""trial"",""time""
""fullscreenenter"",""1"",""2484""
","
","","","848","","","20","15932","6235","c","elianto","#3366ff99","-1"," ","0","0","[1699]","1","2","","","15932","52","4","2","win","no-go","0"
"pit-trial","180","1244355","0.0-57.0","battery-v0.2","","""event"",""trial"",""time""
""fullscreenenter"",""1"",""2484""
","
","
","""event"",""trial"",""time""
""fullscreenenter"",""1"",""2484""
","
","","","-1","","","20","15932","6235","t","elianto","#f73b6a7A","-1","-1","1","0","[]","0","2","","","15932","53","2","4","lose","no-go","0"
"pit-trial","181","1249209","0.0-58.0","battery-v0.2","","""event"",""trial"",""time""
""fullscreenenter"",""1"",""2484""
","
","
","""event"",""trial"",""time""
""fullscreenenter"",""1"",""2484""
","
","","","-1","","","20","15932","6235","n","elianto","#f73b6a7A","-1","-1","1","0","[]","0","2","","","15932","54","0","4","lose","no-go","0"
"pit-trial","182","1252632","0.0-59.0","battery-v0.2","","""event"",""trial"",""time""
""fullscreenenter"",""1"",""2484""
","
","
","""event"",""trial"",""time""
""fullscreenenter"",""1"",""2484""
","
","","","569.2999999998137","","","20","15932","6235","c","elianto","#3366ff99","-1"," ","0","0","[1420.3999999999069]","1","2","","","15932","55","4","2","win","no-go","0"
"pit-trial","183","1256134","0.0-60.0","battery-v0.2","","""event"",""trial"",""time""
""fullscreenenter"",""1"",""2484""
","
","
","""event"",""trial"",""time""
""fullscreenenter"",""1"",""2484""
","
","","","646.3999999999069","","","20","15932","6235","f","elianto","#3366ff99"," "," ","1","+10","[1499.6999999997206]","1","2","","","15932","56","1","1","win","go","0"
"pit-trial","184","1260988","0.0-61.0","battery-v0.2","","""event"",""trial"",""time""
""fullscreenenter"",""1"",""2484""
","
","
","""event"",""trial"",""time""
""fullscreenenter"",""1"",""2484""
","
","","","-1","","","20","15932","6235","n","elianto","#f73b6a7A","-1","-1","1","-10","[]","0","2","","","15932","57","0","4","lose","no-go","1"
"pit-trial","185","1264670","0.0-62.0","battery-v0.2","","""event"",""trial"",""time""
""fullscreenenter"",""1"",""2484""
","
","
","""event"",""trial"",""time""
""fullscreenenter"",""1"",""2484""
","
","","","829","","","20","15932","6235","f","elianto","#3366ff99"," "," ","1","0","[1679.2999999998137]","1","2","","","15932","58","1","1","win","go","1"
"pit-trial","186","1268471","0.0-63.0","battery-v0.2","","""event"",""trial"",""time""
""fullscreenenter"",""1"",""2484""
","
","
","""event"",""trial"",""time""
""fullscreenenter"",""1"",""2484""
","
","","","947.5","","","20","15932","6235","c","elianto","#3366ff99","-1"," ","0","0","[1797.7999999998137]","1","2","","","15932","59","4","2","win","no-go","0"
"pit-trial","187","1273323","0.0-64.0","battery-v0.2","","""event"",""trial"",""time""
""fullscreenenter"",""1"",""2484""
","
","
","""event"",""trial"",""time""
""fullscreenenter"",""1"",""2484""
","
","","","-1","","","20","15932","6235","b","elianto","#f73b6a7A"," ","-1","0","-10","[]","0","2","","","15932","60","3","3","lose","go","0"
"pit-trial","188","1278176","0.0-65.0","battery-v0.2","","""event"",""trial"",""time""
""fullscreenenter"",""1"",""2484""
","
","
","""event"",""trial"",""time""
""fullscreenenter"",""1"",""2484""
","
","","","-1","","","20","15932","6235","t","elianto","#f73b6a7A","-1","-1","1","-10","[]","0","2","","","15932","61","2","4","lose","no-go","1"
"pit-trial","189","1281998","0.0-66.0","battery-v0.2","","""event"",""trial"",""time""
""fullscreenenter"",""1"",""2484""
","
","
","""event"",""trial"",""time""
""fullscreenenter"",""1"",""2484""
","
","","","968.1000000000931","","","20","15932","6235","c","elianto","#3366ff99","-1"," ","0","+10","[1819.1999999997206]","1","2","","","15932","62","4","2","win","no-go","1"
"pit-trial","190","1286293","0.0-67.0","battery-v0.2","","""event"",""trial"",""time""
""fullscreenenter"",""1"",""2484""
","
","
","""event"",""trial"",""time""
""fullscreenenter"",""1"",""2484""
","
","","","1442.7000000001863","","","20","15932","6235","f","elianto","#3366ff99"," "," ","1","+10","[2293.2000000001863]","1","2","","","15932","63","1","1","win","go","0"
"pit-trial","191","1291147","0.0-68.0","battery-v0.2","","""event"",""trial"",""time""
""fullscreenenter"",""1"",""2484""
","
","
","""event"",""trial"",""time""
""fullscreenenter"",""1"",""2484""
","
","","","-1","","","20","15932","6235","b","elianto","#f73b6a7A"," ","-1","0","-10","[]","0","2","","","15932","64","3","3","lose","go","0"
"pit-trial","192","1296000","0.0-69.0","battery-v0.2","","""event"",""trial"",""time""
""fullscreenenter"",""1"",""2484""
","
","
","""event"",""trial"",""time""
""fullscreenenter"",""1"",""2484""
","
","","","-1","","","20","15932","6235","b","elianto","#f73b6a7A"," ","-1","0","-10","[]","0","2","","","15932","65","3","3","lose","go","0"
"pit-trial","193","1300853","0.0-70.0","battery-v0.2","","""event"",""trial"",""time""
""fullscreenenter"",""1"",""2484""
","
","
","""event"",""trial"",""time""
""fullscreenenter"",""1"",""2484""
","
","","","-1","","","20","15932","6235","t","elianto","#f73b6a7A","-1","-1","1","0","[]","0","2","","","15932","66","2","4","lose","no-go","0"
"pit-trial","194","1304575","0.0-71.0","battery-v0.2","","""event"",""trial"",""time""
""fullscreenenter"",""1"",""2484""
","
","
","""event"",""trial"",""time""
""fullscreenenter"",""1"",""2484""
","
","","","867.9000000003725","","","20","15932","6235","f","elianto","#3366ff99"," "," ","1","+10","[1718.7000000001863]","1","2","","","15932","67","1","1","win","go","0"
"pit-trial","195","1308183","0.0-72.0","battery-v0.2","","""event"",""trial"",""time""
""fullscreenenter"",""1"",""2484""
","
","
","""event"",""trial"",""time""
""fullscreenenter"",""1"",""2484""
","
","","","754.2000000001863","","","20","15932","6235","c","elianto","#3366ff99","-1"," ","0","0","[1605.7000000001863]","1","2","","","15932","68","4","2","win","no-go","0"
"pit-trial","196","1313036","0.0-73.0","battery-v0.2","","""event"",""trial"",""time""
""fullscreenenter"",""1"",""2484""
","
","
","""event"",""trial"",""time""
""fullscreenenter"",""1"",""2484""
","
","","","-1","","","20","15932","6235","b","elianto","#f73b6a7A"," ","-1","0","-10","[]","0","2","","","15932","69","3","3","lose","go","0"
"pit-trial","197","1316719","0.0-74.0","battery-v0.2","","""event"",""trial"",""time""
""fullscreenenter"",""1"",""2484""
","
","
","""event"",""trial"",""time""
""fullscreenenter"",""1"",""2484""
","
","","","829.3999999999069","","","20","15932","6235","z","elianto","#3366ff99"," "," ","1","0","[1679.6000000000931]","1","2","","","15932","70","5","1","win","go","1"
"pit-trial","198","1321573","0.0-75.0","battery-v0.2","","""event"",""trial"",""time""
""fullscreenenter"",""1"",""2484""
","
","
","""event"",""trial"",""time""
""fullscreenenter"",""1"",""2484""
","
","","","-1","","","20","15932","6235","c","elianto","#3366ff99","-1","-1","1","0","[]","0","2","","","15932","71","4","2","win","no-go","1"
"pit-trial","199","1325199","0.0-76.0","battery-v0.2","","""event"",""trial"",""time""
""fullscreenenter"",""1"",""2484""
","
","
","""event"",""trial"",""time""
""fullscreenenter"",""1"",""2484""
","
","","","773.3999999999069","","","20","15932","6235","f","elianto","#3366ff99"," "," ","1","+10","[1623.7000000001863]","1","2","","","15932","72","1","1","win","go","0"
"pit-trial","200","1328735","0.0-77.0","battery-v0.2","","""event"",""trial"",""time""
""fullscreenenter"",""1"",""2484""
","
","
","""event"",""trial"",""time""
""fullscreenenter"",""1"",""2484""
","
","","","682.3000000002794","","","20","15932","6235","c","elianto","#3366ff99","-1"," ","0","0","[1533.1000000000931]","1","2","","","15932","73","4","2","win","no-go","0"
"pit-trial","201","1332973","0.0-78.0","battery-v0.2","","""event"",""trial"",""time""
""fullscreenenter"",""1"",""2484""
","
","
","""event"",""trial"",""time""
""fullscreenenter"",""1"",""2484""
","
","","","1386.0999999996275","","","20","15932","6235","b","elianto","#f73b6a7A"," "," ","1","0","[2236.4000000003725]","1","2","","","15932","74","3","3","lose","go","0"
"pit-trial","202","1336782","0.0-79.0","battery-v0.2","","""event"",""trial"",""time""
""fullscreenenter"",""1"",""2484""
","
","
","""event"",""trial"",""time""
""fullscreenenter"",""1"",""2484""
","
","","","953.1000000000931","","","20","15932","6235","z","elianto","#3366ff99"," "," ","1","0","[1805.8000000002794]","1","2","","","15932","75","5","1","win","go","1"
"pit-trial","203","1340598","0.0-80.0","battery-v0.2","","""event"",""trial"",""time""
""fullscreenenter"",""1"",""2484""
","
","
","""event"",""trial"",""time""
""fullscreenenter"",""1"",""2484""
","
","","","963.1999999997206","","","20","15932","6235","f","elianto","#3366ff99"," "," ","1","+10","[1813.7999999998137]","1","2","","","15932","76","1","1","win","go","0"
"pit-trial","204","1345452","0.0-81.0","battery-v0.2","","""event"",""trial"",""time""
""fullscreenenter"",""1"",""2484""
","
","
","""event"",""trial"",""time""
""fullscreenenter"",""1"",""2484""
","
","","","-1","","","20","15932","6235","c","elianto","#3366ff99","-1","-1","1","+10","[]","0","2","","","15932","77","4","2","win","no-go","0"
"pit-trial","205","1350304","0.0-82.0","battery-v0.2","","""event"",""trial"",""time""
""fullscreenenter"",""1"",""2484""
","
","
","""event"",""trial"",""time""
""fullscreenenter"",""1"",""2484""
","
","","","-1","","","20","15932","6235","z","elianto","#3366ff99"," ","-1","0","0","[]","0","2","","","15932","78","5","1","win","go","0"
"pit-trial","206","1354767","0.0-83.0","battery-v0.2","","""event"",""trial"",""time""
""fullscreenenter"",""1"",""2484""
","
","
","""event"",""trial"",""time""
""fullscreenenter"",""1"",""2484""
","
","","","1610.1000000000931","","","20","15932","6235","b","elianto","#f73b6a7A"," "," ","1","0","[2460.100000000093]","1","2","","","15932","79","3","3","lose","go","0"
"pit-trial","207","1359621","0.0-84.0","battery-v0.2","","""event"",""trial"",""time""
""fullscreenenter"",""1"",""2484""
","
","
","""event"",""trial"",""time""
""fullscreenenter"",""1"",""2484""
","
","","","-1","","","20","15932","6235","h","elianto","#f73b6a7A","-1","-1","1","0","[]","0","2","","","15932","80","6","4","lose","no-go","0"
"pit-trial","208","1364474","0.0-85.0","battery-v0.2","","""event"",""trial"",""time""
""fullscreenenter"",""1"",""2484""
","
","
","""event"",""trial"",""time""
""fullscreenenter"",""1"",""2484""
","
","","","-1","","","20","15932","6235","c","elianto","#3366ff99","-1","-1","1","+10","[]","0","2","","","15932","81","4","2","win","no-go","0"
"pit-trial","209","1369328","0.0-86.0","battery-v0.2","","""event"",""trial"",""time""
""fullscreenenter"",""1"",""2484""
","
","
","""event"",""trial"",""time""
""fullscreenenter"",""1"",""2484""
","
","","","-1","","","20","15932","6235","y","elianto","#f73b6a7A"," ","-1","0","-10","[]","0","2","","","15932","82","7","3","lose","go","0"
"pit-trial","210","1374181","0.0-87.0","battery-v0.2","","""event"",""trial"",""time""
""fullscreenenter"",""1"",""2484""
","
","
","""event"",""trial"",""time""
""fullscreenenter"",""1"",""2484""
","
","","","-1","","","20","15932","6235","h","elianto","#f73b6a7A","-1","-1","1","0","[]","0","2","","","15932","83","6","4","lose","no-go","0"
"pit-trial","211","1379034","0.0-88.0","battery-v0.2","","""event"",""trial"",""time""
""fullscreenenter"",""1"",""2484""
","
","
","""event"",""trial"",""time""
""fullscreenenter"",""1"",""2484""
","
","","","-1","","","20","15932","6235","z","elianto","#3366ff99"," ","-1","0","+10","[]","0","2","","","15932","84","5","1","win","go","1"
"pit-trial","212","1383888","0.0-89.0","battery-v0.2","","""event"",""trial"",""time""
""fullscreenenter"",""1"",""2484""
","
","
","""event"",""trial"",""time""
""fullscreenenter"",""1"",""2484""
","
","","","-1","","","20","15932","6235","z","elianto","#3366ff99"," ","-1","0","0","[]","0","2","","","15932","85","5","1","win","go","0"
"pit-trial","213","1388740","0.0-90.0","battery-v0.2","","""event"",""trial"",""time""
""fullscreenenter"",""1"",""2484""
","
","
","""event"",""trial"",""time""
""fullscreenenter"",""1"",""2484""
","
","","","-1","","","20","15932","6235","h","elianto","#f73b6a7A","-1","-1","1","0","[]","0","2","","","15932","86","6","4","lose","no-go","0"
"pit-trial","214","1393594","0.0-91.0","battery-v0.2","","""event"",""trial"",""time""
""fullscreenenter"",""1"",""2484""
","
","
","""event"",""trial"",""time""
""fullscreenenter"",""1"",""2484""
","
","","","-1","","","20","15932","6235","c","elianto","#3366ff99","-1","-1","1","+10","[]","0","2","","","15932","87","4","2","win","no-go","0"
"pit-trial","215","1398447","0.0-92.0","battery-v0.2","","""event"",""trial"",""time""
""fullscreenenter"",""1"",""2484""
","
","
","""event"",""trial"",""time""
""fullscreenenter"",""1"",""2484""
","
","","","-1","","","20","15932","6235","y","elianto","#f73b6a7A"," ","-1","0","-10","[]","0","2","","","15932","88","7","3","lose","go","0"
"pit-trial","216","1402100","0.0-93.0","battery-v0.2","","""event"",""trial"",""time""
""fullscreenenter"",""1"",""2484""
","
","
","""event"",""trial"",""time""
""fullscreenenter"",""1"",""2484""
","
","","","800","","","20","15932","6235","y","elianto","#f73b6a7A"," "," ","1","0","[1651.3999999999069]","1","2","","","15932","89","7","3","lose","go","0"
"pit-trial","217","1406954","0.0-94.0","battery-v0.2","","""event"",""trial"",""time""
""fullscreenenter"",""1"",""2484""
","
","
","""event"",""trial"",""time""
""fullscreenenter"",""1"",""2484""
","
","","","-1","","","20","15932","6235","c","elianto","#3366ff99","-1","-1","1","+10","[]","0","2","","","15932","90","4","2","win","no-go","0"
"pit-trial","218","1411808","0.0-95.0","battery-v0.2","","""event"",""trial"",""time""
""fullscreenenter"",""1"",""2484""
","
","
","""event"",""trial"",""time""
""fullscreenenter"",""1"",""2484""
","
","","","-1","","","20","15932","6235","z","elianto","#3366ff99"," ","-1","0","0","[]","0","2","","","15932","91","5","1","win","go","0"
"pit-trial","219","1416662","0.0-96.0","battery-v0.2","","""event"",""trial"",""time""
""fullscreenenter"",""1"",""2484""
","
","
","""event"",""trial"",""time""
""fullscreenenter"",""1"",""2484""
","
","","","-1","","","20","15932","6235","h","elianto","#f73b6a7A","-1","-1","1","-10","[]","0","2","","","15932","92","6","4","lose","no-go","1"
"pit-trial","220","1421515","0.0-97.0","battery-v0.2","","""event"",""trial"",""time""
""fullscreenenter"",""1"",""2484""
","
","
","""event"",""trial"",""time""
""fullscreenenter"",""1"",""2484""
","
","","","-1","","","20","15932","6235","r","elianto","#3366ff99","-1","-1","1","0","[]","0","2","","","15932","93","8","2","win","no-go","1"
"pit-trial","221","1425702","0.0-98.0","battery-v0.2","","""event"",""trial"",""time""
""fullscreenenter"",""1"",""2484""
","
","
","""event"",""trial"",""time""
""fullscreenenter"",""1"",""2484""
","
","","","1333.0999999996275","","","20","15932","6235","y","elianto","#f73b6a7A"," "," ","1","0","[2184.2000000001863]","1","2","","","15932","94","7","3","lose","go","0"
"pit-trial","222","1429557","0.0-99.0","battery-v0.2","","""event"",""trial"",""time""
""fullscreenenter"",""1"",""2484""
","
","
","""event"",""trial"",""time""
""fullscreenenter"",""1"",""2484""
","
","","","1003.2000000001863","","","20","15932","6235","h","elianto","#f73b6a7A","-1"," ","0","0","[1853.2000000001863]","1","2","","","15932","95","6","4","lose","no-go","1"
"pit-trial","223","1434411","0.0-100.0","battery-v0.2","","""event"",""trial"",""time""
""fullscreenenter"",""1"",""2484""
","
","
","""event"",""trial"",""time""
""fullscreenenter"",""1"",""2484""
","
","","","-1","","","20","15932","6235","z","elianto","#3366ff99"," ","-1","0","+10","[]","0","2","","","15932","96","5","1","win","go","1"
"pit-trial","224","1439265","0.0-101.0","battery-v0.2","","""event"",""trial"",""time""
""fullscreenenter"",""1"",""2484""
","
","
","""event"",""trial"",""time""
""fullscreenenter"",""1"",""2484""
","
","","","-1","","","20","15932","6235","z","elianto","#3366ff99"," ","-1","0","+10","[]","0","2","","","15932","97","5","1","win","go","1"
"pit-trial","225","1443135","0.0-102.0","battery-v0.2","","""event"",""trial"",""time""
""fullscreenenter"",""1"",""2484""
","
","
","""event"",""trial"",""time""
""fullscreenenter"",""1"",""2484""
","
","","","1015.3000000002794","","","20","15932","6235","r","elianto","#3366ff99","-1"," ","0","+10","[1866.2000000001863]","1","2","","","15932","98","8","2","win","no-go","1"
"pit-trial","226","1446972","0.0-103.0","battery-v0.2","","""event"",""trial"",""time""
""fullscreenenter"",""1"",""2484""
","
","
","""event"",""trial"",""time""
""fullscreenenter"",""1"",""2484""
","
","","","985","","","20","15932","6235","h","elianto","#f73b6a7A","-1"," ","0","-10","[1835.6999999997206]","1","2","","","15932","99","6","4","lose","no-go","0"
"pit-trial","227","1450813","0.0-104.0","battery-v0.2","","""event"",""trial"",""time""
""fullscreenenter"",""1"",""2484""
","
","
","""event"",""trial"",""time""
""fullscreenenter"",""1"",""2484""
","
","","","986.5","","","20","15932","6235","y","elianto","#f73b6a7A"," "," ","1","0","[1838.2000000001863]","1","2","","","15932","100","7","3","lose","go","0"
"pit-trial","228","1454830","0.0-105.0","battery-v0.2","","""event"",""trial"",""time""
""fullscreenenter"",""1"",""2484""
","
","
","""event"",""trial"",""time""
""fullscreenenter"",""1"",""2484""
","
","","","1162.4000000003725","","","20","15932","6235","m","elianto","#3366ff99","-1"," ","0","+10","[2013.2999999998137]","1","2","","","15932","101","9","2","win","no-go","1"
"pit-trial","229","1459684","0.0-106.0","battery-v0.2","","""event"",""trial"",""time""
""fullscreenenter"",""1"",""2484""
","
","
","""event"",""trial"",""time""
""fullscreenenter"",""1"",""2484""
","
","","","-1","","","20","15932","6235","z","elianto","#3366ff99"," ","-1","0","0","[]","0","2","","","15932","102","5","1","win","go","0"
"pit-trial","230","1463981","0.0-107.0","battery-v0.2","","""event"",""trial"",""time""
""fullscreenenter"",""1"",""2484""
","
","
","""event"",""trial"",""time""
""fullscreenenter"",""1"",""2484""
","
","","","1443.6000000005588","","","20","15932","6235","h","elianto","#f73b6a7A","-1"," ","0","-10","[2294.2000000001863]","1","2","","","15932","103","6","4","lose","no-go","0"
"pit-trial","231","1467887","0.0-108.0","battery-v0.2","","""event"",""trial"",""time""
""fullscreenenter"",""1"",""2484""
","
","
","""event"",""trial"",""time""
""fullscreenenter"",""1"",""2484""
","
","","","1050.9000000003725","","","20","15932","6235","r","elianto","#3366ff99","-1"," ","0","0","[1901.7000000001863]","1","2","","","15932","104","8","2","win","no-go","0"
"pit-trial","232","1471575","0.0-109.0","battery-v0.2","","""event"",""trial"",""time""
""fullscreenenter"",""1"",""2484""
","
","
","""event"",""trial"",""time""
""fullscreenenter"",""1"",""2484""
","
","","","835.7999999998137","","","20","15932","6235","m","elianto","#3366ff99","-1"," ","0","+10","[1685.9000000003725]","1","2","","","15932","105","9","2","win","no-go","1"
"pit-trial","233","1476428","0.0-110.0","battery-v0.2","","""event"",""trial"",""time""
""fullscreenenter"",""1"",""2484""
","
","
","""event"",""trial"",""time""
""fullscreenenter"",""1"",""2484""
","
","","","-1","","","20","15932","6235","r","elianto","#3366ff99","-1","-1","1","0","[]","0","2","","","15932","106","8","2","win","no-go","1"
"pit-trial","234","1481282","0.0-111.0","battery-v0.2","","""event"",""trial"",""time""
""fullscreenenter"",""1"",""2484""
","
","
","""event"",""trial"",""time""
""fullscreenenter"",""1"",""2484""
","
","","","-1","","","20","15932","6235","h","elianto","#f73b6a7A","-1","-1","1","0","[]","0","2","","","15932","107","6","4","lose","no-go","0"
"pit-trial","235","1485430","0.0-112.0","battery-v0.2","","""event"",""trial"",""time""
""fullscreenenter"",""1"",""2484""
","
","
","""event"",""trial"",""time""
""fullscreenenter"",""1"",""2484""
","
","","","1295","","","20","15932","6235","z","elianto","#3366ff99"," "," ","1","+10","[2146]","1","2","","","15932","108","5","1","win","go","0"
"pit-trial","236","1489135","0.0-113.0","battery-v0.2","","""event"",""trial"",""time""
""fullscreenenter"",""1"",""2484""
","
","
","""event"",""trial"",""time""
""fullscreenenter"",""1"",""2484""
","
","","","851.8999999994412","","","20","15932","6235","z","elianto","#3366ff99"," "," ","1","+10","[1702.0999999996275]","1","2","","","15932","109","5","1","win","go","0"
"pit-trial","237","1493319","0.0-114.0","battery-v0.2","","""event"",""trial"",""time""
""fullscreenenter"",""1"",""2484""
","
","
","""event"",""trial"",""time""
""fullscreenenter"",""1"",""2484""
","
","","","1330.2000000001863","","","20","15932","6235","r","elianto","#3366ff99","-1"," ","0","0","[2181.100000000559]","1","2","","","15932","110","8","2","win","no-go","0"
"pit-trial","238","1498173","0.0-115.0","battery-v0.2","","""event"",""trial"",""time""
""fullscreenenter"",""1"",""2484""
","
","
","""event"",""trial"",""time""
""fullscreenenter"",""1"",""2484""
","
","","","-1","","","20","15932","6235","h","elianto","#f73b6a7A","-1","-1","1","0","[]","0","2","","","15932","111","6","4","lose","no-go","0"
"pit-trial","239","1502071","0.0-116.0","battery-v0.2","","""event"",""trial"",""time""
""fullscreenenter"",""1"",""2484""
","
","
","""event"",""trial"",""time""
""fullscreenenter"",""1"",""2484""
","
","","","1045.6000000005588","","","20","15932","6235","m","elianto","#3366ff99","-1"," ","0","+10","[1895.5999999996275]","1","2","","","15932","112","9","2","win","no-go","1"
"pit-trial","240","1506926","0.0-117.0","battery-v0.2","","""event"",""trial"",""time""
""fullscreenenter"",""1"",""2484""
","
","
","""event"",""trial"",""time""
""fullscreenenter"",""1"",""2484""
","
","","","-1","","","20","15932","6235","y","elianto","#f73b6a7A"," ","-1","0","0","[]","0","2","","","15932","113","7","3","lose","go","1"
"pit-trial","241","1511779","0.0-118.0","battery-v0.2","","""event"",""trial"",""time""
""fullscreenenter"",""1"",""2484""
","
","
","""event"",""trial"",""time""
""fullscreenenter"",""1"",""2484""
","
","","","-1","","","20","15932","6235","z","elianto","#3366ff99"," ","-1","0","0","[3029.5]","1","2","","","15932","114","5","1","win","go","0"
"pit-trial","242","1515294","0.0-119.0","battery-v0.2","","""event"",""trial"",""time""
""fullscreenenter"",""1"",""2484""
","
","
","""event"",""trial"",""time""
""fullscreenenter"",""1"",""2484""
","
","","","662","","","20","15932","6235","m","elianto","#3366ff99","-1"," ","0","+10","[1512.7000000001863]","1","2","","","15932","115","9","2","win","no-go","1"
"pit-trial","243","1518783","0.0-120.0","battery-v0.2","","""event"",""trial"",""time""
""fullscreenenter"",""1"",""2484""
","
","
","""event"",""trial"",""time""
""fullscreenenter"",""1"",""2484""
","
","","","634.7999999998137","","","20","15932","6235","r","elianto","#3366ff99","-1"," ","0","0","[1485.6000000005588]","1","2","","","15932","116","8","2","win","no-go","0"
"pit-trial","244","1523636","0.0-121.0","battery-v0.2","","""event"",""trial"",""time""
""fullscreenenter"",""1"",""2484""
","
","
","""event"",""trial"",""time""
""fullscreenenter"",""1"",""2484""
","
","","","-1","","","20","15932","6235","h","elianto","#f73b6a7A","-1","-1","1","0","[]","0","2","","","15932","117","6","4","lose","no-go","0"
"pit-trial","245","1527551","0.0-122.0","battery-v0.2","","""event"",""trial"",""time""
""fullscreenenter"",""1"",""2484""
","
","
","""event"",""trial"",""time""
""fullscreenenter"",""1"",""2484""
","
","","","1061.2000000001863","","","20","15932","6235","z","elianto","#3366ff99"," "," ","1","+10","[1912]","1","2","","","15932","118","5","1","win","go","0"
"pit-trial","246","1531536","0.0-123.0","battery-v0.2","","""event"",""trial"",""time""
""fullscreenenter"",""1"",""2484""
","
","
","""event"",""trial"",""time""
""fullscreenenter"",""1"",""2484""
","
","","","1129.4000000003725","","","20","15932","6235","r","elianto","#3366ff99","-1"," ","0","0","[1980.7999999998137]","1","2","","","15932","119","8","2","win","no-go","0"
"pit-trial","247","1535049","0.0-124.0","battery-v0.2","","""event"",""trial"",""time""
""fullscreenenter"",""1"",""2484""
","
","
","""event"",""trial"",""time""
""fullscreenenter"",""1"",""2484""
","
","","","658.3999999994412","","","20","15932","6235","m","elianto","#3366ff99","-1"," ","0","+10","[1509.5]","1","2","","","15932","120","9","2","win","no-go","1"
"pit-trial","248","1539901","0.0-125.0","battery-v0.2","","""event"",""trial"",""time""
""fullscreenenter"",""1"",""2484""
","
","
","""event"",""trial"",""time""
""fullscreenenter"",""1"",""2484""
","
","","","-1","","","20","15932","6235","z","elianto","#3366ff99"," ","-1","0","0","[]","0","2","","","15932","121","5","1","win","go","0"
"pit-trial","249","1543448","0.0-126.0","battery-v0.2","","""event"",""trial"",""time""
""fullscreenenter"",""1"",""2484""
","
","
","""event"",""trial"",""time""
""fullscreenenter"",""1"",""2484""
","
","","","693.5","","","20","15932","6235","m","elianto","#3366ff99","-1"," ","0","0","[1544]","1","2","","","15932","122","9","2","win","no-go","0"
"pit-trial","250","1548301","0.0-127.0","battery-v0.2","","""event"",""trial"",""time""
""fullscreenenter"",""1"",""2484""
","
","
","""event"",""trial"",""time""
""fullscreenenter"",""1"",""2484""
","
","","","-1","","","20","15932","6235","y","elianto","#f73b6a7A"," ","-1","0","0","[]","0","2","","","15932","123","7","3","lose","go","1"
"pit-trial","251","1552264","0.0-128.0","battery-v0.2","","""event"",""trial"",""time""
""fullscreenenter"",""1"",""2484""
","
","
","""event"",""trial"",""time""
""fullscreenenter"",""1"",""2484""
","
","","","1109.2999999998137","","","20","15932","6235","r","elianto","#3366ff99","-1"," ","0","0","[1960]","1","2","","","15932","124","8","2","win","no-go","0"
"pit-trial","252","1557117","0.0-129.0","battery-v0.2","","""event"",""trial"",""time""
""fullscreenenter"",""1"",""2484""
","
","
","""event"",""trial"",""time""
""fullscreenenter"",""1"",""2484""
","
","","","-1","","","20","15932","6235","h","elianto","#f73b6a7A","-1","-1","1","0","[]","0","2","","","15932","125","6","4","lose","no-go","0"
"pit-trial","253","1560856","0.0-130.0","battery-v0.2","","""event"",""trial"",""time""
""fullscreenenter"",""1"",""2484""
","
","
","""event"",""trial"",""time""
""fullscreenenter"",""1"",""2484""
","
","","","885.9000000003725","","","20","15932","6235","m","elianto","#3366ff99","-1"," ","0","0","[1736.2999999998137]","1","2","","","15932","126","9","2","win","no-go","0"
"pit-trial","254","1565709","0.0-131.0","battery-v0.2","","""event"",""trial"",""time""
""fullscreenenter"",""1"",""2484""
","
","
","""event"",""trial"",""time""
""fullscreenenter"",""1"",""2484""
","
","","","-1","","","20","15932","6235","r","elianto","#3366ff99","-1","-1","1","0","[]","0","2","","","15932","127","8","2","win","no-go","1"
"pit-trial","255","1570563","0.0-132.0","battery-v0.2","","""event"",""trial"",""time""
""fullscreenenter"",""1"",""2484""
","
","
","""event"",""trial"",""time""
""fullscreenenter"",""1"",""2484""
","
","","","-1","","","20","15932","6235","y","elianto","#f73b6a7A"," ","-1","0","-10","[]","0","2","","","15932","128","7","3","lose","go","0"
"pit-trial","256","1575417","0.0-133.0","battery-v0.2","","""event"",""trial"",""time""
""fullscreenenter"",""1"",""2484""
","
","
","""event"",""trial"",""time""
""fullscreenenter"",""1"",""2484""
","
","","","-1","","","20","15932","6235","h","elianto","#f73b6a7A","-1","-1","1","0","[]","0","2","","","15932","129","6","4","lose","no-go","0"
"pit-trial","257","1579352","0.0-134.0","battery-v0.2","","""event"",""trial"",""time""
""fullscreenenter"",""1"",""2484""
","
","
","""event"",""trial"",""time""
""fullscreenenter"",""1"",""2484""
","
","","","1081.7999999998137","","","20","15932","6235","y","elianto","#f73b6a7A"," "," ","1","0","[1932.5999999996275]","1","2","","","15932","130","7","3","lose","go","0"
"pit-trial","258","1583671","0.0-135.0","battery-v0.2","","""event"",""trial"",""time""
""fullscreenenter"",""1"",""2484""
","
","
","""event"",""trial"",""time""
""fullscreenenter"",""1"",""2484""
","
","","","1466.4000000003725","","","20","15932","6235","r","elianto","#3366ff99","-1"," ","0","+10","[2316.7000000001863]","1","2","","","15932","131","8","2","win","no-go","1"
"pit-trial","259","1587688","0.0-136.0","battery-v0.2","","""event"",""trial"",""time""
""fullscreenenter"",""1"",""2484""
","
","
","""event"",""trial"",""time""
""fullscreenenter"",""1"",""2484""
","
","","","1161.7999999998137","","","20","15932","6235","m","elianto","#3366ff99","-1"," ","0","0","[2013.6000000005588]","1","2","","","15932","132","9","2","win","no-go","0"
"pit-trial","260","1592542","0.0-137.0","battery-v0.2","","""event"",""trial"",""time""
""fullscreenenter"",""1"",""2484""
","
","
","""event"",""trial"",""time""
""fullscreenenter"",""1"",""2484""
","
","","","-1","","","20","15932","6235","h","elianto","#f73b6a7A","-1","-1","1","0","[3053.7000000001863]","1","2","","","15932","133","6","4","lose","no-go","0"
"pit-trial","261","1596289","0.0-138.0","battery-v0.2","","""event"",""trial"",""time""
""fullscreenenter"",""1"",""2484""
","
","
","""event"",""trial"",""time""
""fullscreenenter"",""1"",""2484""
","
","","","894.0999999996275","","","20","15932","6235","m","elianto","#3366ff99","-1"," ","0","0","[1745]","1","2","","","15932","134","9","2","win","no-go","0"
"pit-trial","262","1600666","0.0-139.0","battery-v0.2","","""event"",""trial"",""time""
""fullscreenenter"",""1"",""2484""
","
","
","""event"",""trial"",""time""
""fullscreenenter"",""1"",""2484""
","
","","","1521.6000000005588","","","20","15932","6235","y","elianto","#f73b6a7A"," "," ","1","0","[2373.2999999998137]","1","2","","","15932","135","7","3","lose","go","0"
"pit-trial","263","1604497","0.0-140.0","battery-v0.2","","""event"",""trial"",""time""
""fullscreenenter"",""1"",""2484""
","
","
","""event"",""trial"",""time""
""fullscreenenter"",""1"",""2484""
","
","","","978.8000000007451","","","20","15932","6235","r","elianto","#3366ff99","-1"," ","0","0","[1829.2000000001863]","1","2","","","15932","136","8","2","win","no-go","0"
"pit-trial","264","1609351","0.0-141.0","battery-v0.2","","""event"",""trial"",""time""
""fullscreenenter"",""1"",""2484""
","
","
","""event"",""trial"",""time""
""fullscreenenter"",""1"",""2484""
","
","","","-1","","","20","15932","6235","r","elianto","#3366ff99","-1","-1","1","+10","[]","0","2","","","15932","137","8","2","win","no-go","0"
"pit-trial","265","1613313","0.0-142.0","battery-v0.2","","""event"",""trial"",""time""
""fullscreenenter"",""1"",""2484""
","
","
","""event"",""trial"",""time""
""fullscreenenter"",""1"",""2484""
","
","","","1108.8999999994412","","","20","15932","6235","y","elianto","#f73b6a7A"," "," ","1","0","[1959.5]","1","2","","","15932","138","7","3","lose","go","0"
"pit-trial","266","1617050","0.0-143.0","battery-v0.2","","""event"",""trial"",""time""
""fullscreenenter"",""1"",""2484""
","
","
","""event"",""trial"",""time""
""fullscreenenter"",""1"",""2484""
","
","","","883.5","","","20","15932","6235","m","elianto","#3366ff99","-1"," ","0","0","[1733.6000000005588]","1","2","","","15932","139","9","2","win","no-go","0"
"pit-trial","267","1621903","0.0-144.0","battery-v0.2","","""event"",""trial"",""time""
""fullscreenenter"",""1"",""2484""
","
","
","""event"",""trial"",""time""
""fullscreenenter"",""1"",""2484""
","
