"trial_type","trial_index","time_elapsed","internal_node_id","task_version","subject_id","interactions","blur_events","focus_events","fullscreenenter_events","fullscreenexit_events","success","view_history","rt","responses","num_errors","age","subject","participantId","rune","rune_set","hex","correct","choice","accuracy","outcome","keys","total_keys","block","practice","value","sub","trial","stimulus","robot","valence","action","sham"
"pavlovia","0","29","0.0-0.0","battery-v0.2","","""event"",""trial"",""time""
""fullscreenenter"",""1"",""6144""
","
","
","""event"",""trial"",""time""
""fullscreenenter"",""1"",""6144""
","
","","","","","","","","","","","","","","","","","","","","","","","","","","",""
"fullscreen","1","6146","0.0-1.0","battery-v0.2","","""event"",""trial"",""time""
""fullscreenenter"",""1"",""6144""
""fullscreenexit"",""2"",""17391""
""blur"",""2"",""20489""
""focus"",""2"",""143635""
","""event"",""trial"",""time""
""blur"",""2"",""20489""
","""event"",""trial"",""time""
""focus"",""2"",""143635""
","""event"",""trial"",""time""
""fullscreenenter"",""1"",""6144""
","""event"",""trial"",""time""
""fullscreenexit"",""2"",""17391""
","true","","","","","","","","","","","","","","","","","","","","","","","","","",""
"pit-instructions","2","256208","0.0-2.0-0.0","battery-v0.2","","""event"",""trial"",""time""
""fullscreenenter"",""1"",""6144""
""fullscreenexit"",""2"",""17391""
""blur"",""2"",""20489""
""focus"",""2"",""143635""
","""event"",""trial"",""time""
""blur"",""2"",""20489""
","""event"",""trial"",""time""
""focus"",""2"",""143635""
","""event"",""trial"",""time""
""fullscreenenter"",""1"",""6144""
","""event"",""trial"",""time""
""fullscreenexit"",""2"",""17391""
","","[{""page_index"":0,""viewing_time"":250055.5}]","250056.5","","","","","","","","","","","","","","","","","","","","","","","",""
"pit-comprehension","3","262170","0.0-2.0-1.0-0.0","battery-v0.2","","""event"",""trial"",""time""
""fullscreenenter"",""1"",""6144""
""fullscreenexit"",""2"",""17391""
""blur"",""2"",""20489""
""focus"",""2"",""143635""
","""event"",""trial"",""time""
""blur"",""2"",""20489""
","""event"",""trial"",""time""
""focus"",""2"",""143635""
","""event"",""trial"",""time""
""fullscreenenter"",""1"",""6144""
","""event"",""trial"",""time""
""fullscreenexit"",""2"",""17391""
","","","5956.299999237061","[""shark""]","0","12","16357","6269","","","","","","","","","","","","","","","","","","",""
"pit-instructions","4","264001","0.0-2.0-1.0-1.0","battery-v0.2","","""event"",""trial"",""time""
""fullscreenenter"",""1"",""6144""
""fullscreenexit"",""2"",""17391""
""blur"",""2"",""20489""
""focus"",""2"",""143635""
","""event"",""trial"",""time""
""blur"",""2"",""20489""
","""event"",""trial"",""time""
""focus"",""2"",""143635""
","""event"",""trial"",""time""
""fullscreenenter"",""1"",""6144""
","""event"",""trial"",""time""
""fullscreenexit"",""2"",""17391""
","","[{""page_index"":0,""viewing_time"":1484.2999992370605}]","1484.5","","","","","","","","","","","","","","","","","","","","","","","",""
"pit-comprehension","5","267608","0.0-2.0-2.0-0.0","battery-v0.2","","""event"",""trial"",""time""
""fullscreenenter"",""1"",""6144""
""fullscreenexit"",""2"",""17391""
""blur"",""2"",""20489""
""focus"",""2"",""143635""
","""event"",""trial"",""time""
""blur"",""2"",""20489""
","""event"",""trial"",""time""
""focus"",""2"",""143635""
","""event"",""trial"",""time""
""fullscreenenter"",""1"",""6144""
","""event"",""trial"",""time""
""fullscreenexit"",""2"",""17391""
","","","3603.0999994277954","[""tiger""]","0","12","16357","6269","","","","","","","","","","","","","","","","","","",""
"pit-instructions","6","269571","0.0-2.0-2.0-1.0","battery-v0.2","","""event"",""trial"",""time""
""fullscreenenter"",""1"",""6144""
""fullscreenexit"",""2"",""17391""
""blur"",""2"",""20489""
""focus"",""2"",""143635""
","""event"",""trial"",""time""
""blur"",""2"",""20489""
","""event"",""trial"",""time""
""focus"",""2"",""143635""
","""event"",""trial"",""time""
""fullscreenenter"",""1"",""6144""
","""event"",""trial"",""time""
""fullscreenexit"",""2"",""17391""
","","[{""page_index"":0,""viewing_time"":1957.5}]","1957.8999996185303","","","","","","","","","","","","","","","","","","","","","","","",""
"pit-instructions","7","377543","0.0-2.0-3.0","battery-v0.2","","""event"",""trial"",""time""
""fullscreenenter"",""1"",""6144""
""fullscreenexit"",""2"",""17391""
""blur"",""2"",""20489""
""focus"",""2"",""143635""
","""event"",""trial"",""time""
""blur"",""2"",""20489""
","""event"",""trial"",""time""
""focus"",""2"",""143635""
","""event"",""trial"",""time""
""fullscreenenter"",""1"",""6144""
","""event"",""trial"",""time""
""fullscreenexit"",""2"",""17391""
","","[{""page_index"":0,""viewing_time"":8837.300000190735},{""page_index"":1,""viewing_time"":6650.89999961853},{""page_index"":2,""viewing_time"":7738.400000572205},{""page_index"":3,""viewing_time"":5176},{""page_index"":4,""viewing_time"":5282.599999427795},{""page_index"":5,""viewing_time"":1528.3000001907349},{""page_index"":4,""viewing_time"":5892.800000190735},{""page_index"":5,""viewing_time"":7524.89999961853},{""page_index"":6,""viewing_time"":7978},{""page_index"":7,""viewing_time"":7618.699999809265},{""page_index"":8,""viewing_time"":6225.60000038147},{""page_index"":9,""viewing_time"":10780.60000038147},{""page_index"":10,""viewing_time"":7633.5},{""page_index"":11,""viewing_time"":6897.199999809265},{""page_index"":12,""viewing_time"":7198.599999427795},{""page_index"":13,""viewing_time"":5004.900000572205}]","107968.69999980927","","","","","","","","","","","","","","","","","","","","","","","",""
"pit-trial","8","380979","0.0-2.0-4.0-0.0","battery-v0.2","","""event"",""trial"",""time""
""fullscreenenter"",""1"",""6144""
""fullscreenexit"",""2"",""17391""
""blur"",""2"",""20489""
""focus"",""2"",""143635""
","""event"",""trial"",""time""
""blur"",""2"",""20489""
","""event"",""trial"",""time""
""focus"",""2"",""143635""
","""event"",""trial"",""time""
""fullscreenenter"",""1"",""6144""
","""event"",""trial"",""time""
""fullscreenexit"",""2"",""17391""
","","","566.5","","","12","16357","6269","&#9784;","elianto","#FFFFF080"," "," ","1","&#10004","[1422.3999996185303]","1","0","0","","","","","","","",""
"pit-trial","9","384370","0.0-2.0-4.1-0.1","battery-v0.2","","""event"",""trial"",""time""
""fullscreenenter"",""1"",""6144""
""fullscreenexit"",""2"",""17391""
""blur"",""2"",""20489""
""focus"",""2"",""143635""
","""event"",""trial"",""time""
""blur"",""2"",""20489""
","""event"",""trial"",""time""
""focus"",""2"",""143635""
","""event"",""trial"",""time""
""fullscreenenter"",""1"",""6144""
","""event"",""trial"",""time""
""fullscreenexit"",""2"",""17391""
","","","529.2999992370605","","","12","16357","6269","&#9784;","elianto","#FFFFF080"," "," ","1","&#10004","[1379.6000003814697]","1","0","0","","","","","","","",""
"pit-trial","10","387627","0.0-2.0-4.2-0.2","battery-v0.2","","""event"",""trial"",""time""
""fullscreenenter"",""1"",""6144""
""fullscreenexit"",""2"",""17391""
""blur"",""2"",""20489""
""focus"",""2"",""143635""
","""event"",""trial"",""time""
""blur"",""2"",""20489""
","""event"",""trial"",""time""
""focus"",""2"",""143635""
","""event"",""trial"",""time""
""fullscreenenter"",""1"",""6144""
","""event"",""trial"",""time""
""fullscreenexit"",""2"",""17391""
","","","386.6000003814697","","","12","16357","6269","&#9784;","elianto","#FFFFF080"," "," ","1","&#10004","[1242.8999996185303]","1","0","0","","","","","","","",""
"pit-trial","11","390928","0.0-2.0-4.3-0.3","battery-v0.2","","""event"",""trial"",""time""
""fullscreenenter"",""1"",""6144""
""fullscreenexit"",""2"",""17391""
""blur"",""2"",""20489""
""focus"",""2"",""143635""
","""event"",""trial"",""time""
""blur"",""2"",""20489""
","""event"",""trial"",""time""
""focus"",""2"",""143635""
","""event"",""trial"",""time""
""fullscreenenter"",""1"",""6144""
","""event"",""trial"",""time""
""fullscreenexit"",""2"",""17391""
","","","430.4000005722046","","","12","16357","6269","&#9784;","elianto","#FFFFF080"," "," ","1","&#10004","[1290.3000001907349]","1","0","0","","","","","","","",""
"pit-trial","12","394347","0.0-2.0-4.4-0.4","battery-v0.2","","""event"",""trial"",""time""
""fullscreenenter"",""1"",""6144""
""fullscreenexit"",""2"",""17391""
""blur"",""2"",""20489""
""focus"",""2"",""143635""
","""event"",""trial"",""time""
""blur"",""2"",""20489""
","""event"",""trial"",""time""
""focus"",""2"",""143635""
","""event"",""trial"",""time""
""fullscreenenter"",""1"",""6144""
","""event"",""trial"",""time""
""fullscreenexit"",""2"",""17391""
","","","554","","","12","16357","6269","&#9784;","elianto","#FFFFF080"," "," ","1","&#10004","[1412.6999998092651]","1","0","0","","","","","","","",""
"pit-instructions","13","417405","0.0-2.0-5.0","battery-v0.2","","""event"",""trial"",""time""
""fullscreenenter"",""1"",""6144""
""fullscreenexit"",""2"",""17391""
""blur"",""2"",""20489""
""focus"",""2"",""143635""
","""event"",""trial"",""time""
""blur"",""2"",""20489""
","""event"",""trial"",""time""
""focus"",""2"",""143635""
","""event"",""trial"",""time""
""fullscreenenter"",""1"",""6144""
","""event"",""trial"",""time""
""fullscreenexit"",""2"",""17391""
","","[{""page_index"":0,""viewing_time"":5389.200000762939},{""page_index"":1,""viewing_time"":5347.199999809265},{""page_index"":2,""viewing_time"":4779.5},{""page_index"":3,""viewing_time"":7538.39999961853}]","23054.800000190735","","","","","","","","","","","","","","","","","","","","","","","",""
"pit-trial","14","422274","0.0-2.0-6.0-0.0","battery-v0.2","","""event"",""trial"",""time""
""fullscreenenter"",""1"",""6144""
""fullscreenexit"",""2"",""17391""
""blur"",""2"",""20489""
""focus"",""2"",""143635""
","""event"",""trial"",""time""
""blur"",""2"",""20489""
","""event"",""trial"",""time""
""focus"",""2"",""143635""
","""event"",""trial"",""time""
""fullscreenenter"",""1"",""6144""
","""event"",""trial"",""time""
""fullscreenexit"",""2"",""17391""
","","","-1","","","12","16357","6269","&#9854;","elianto","#FFFFF080","-1","-1","1","&#10004","[]","0","0","1","","","","","","","",""
"pit-trial","15","427141","0.0-2.0-6.1-0.1","battery-v0.2","","""event"",""trial"",""time""
""fullscreenenter"",""1"",""6144""
""fullscreenexit"",""2"",""17391""
""blur"",""2"",""20489""
""focus"",""2"",""143635""
","""event"",""trial"",""time""
""blur"",""2"",""20489""
","""event"",""trial"",""time""
""focus"",""2"",""143635""
","""event"",""trial"",""time""
""fullscreenenter"",""1"",""6144""
","""event"",""trial"",""time""
""fullscreenexit"",""2"",""17391""
","","","-1","","","12","16357","6269","&#9854;","elianto","#FFFFF080","-1","-1","1","&#10004","[]","0","0","1","","","","","","","",""
"pit-trial","16","432015","0.0-2.0-6.2-0.2","battery-v0.2","","""event"",""trial"",""time""
""fullscreenenter"",""1"",""6144""
""fullscreenexit"",""2"",""17391""
""blur"",""2"",""20489""
""focus"",""2"",""143635""
","""event"",""trial"",""time""
""blur"",""2"",""20489""
","""event"",""trial"",""time""
""focus"",""2"",""143635""
","""event"",""trial"",""time""
""fullscreenenter"",""1"",""6144""
","""event"",""trial"",""time""
""fullscreenexit"",""2"",""17391""
","","","-1","","","12","16357","6269","&#9854;","elianto","#FFFFF080","-1","-1","1","&#10004","[]","0","0","1","","","","","","","",""
"pit-trial","17","436892","0.0-2.0-6.3-0.3","battery-v0.2","","""event"",""trial"",""time""
""fullscreenenter"",""1"",""6144""
""fullscreenexit"",""2"",""17391""
""blur"",""2"",""20489""
""focus"",""2"",""143635""
","""event"",""trial"",""time""
""blur"",""2"",""20489""
","""event"",""trial"",""time""
""focus"",""2"",""143635""
","""event"",""trial"",""time""
""fullscreenenter"",""1"",""6144""
","""event"",""trial"",""time""
""fullscreenexit"",""2"",""17391""
","","","-1","","","12","16357","6269","&#9854;","elianto","#FFFFF080","-1","-1","1","&#10004","[]","0","0","1","","","","","","","",""
"pit-trial","18","441759","0.0-2.0-6.4-0.4","battery-v0.2","","""event"",""trial"",""time""
""fullscreenenter"",""1"",""6144""
""fullscreenexit"",""2"",""17391""
""blur"",""2"",""20489""
""focus"",""2"",""143635""
","""event"",""trial"",""time""
""blur"",""2"",""20489""
","""event"",""trial"",""time""
""focus"",""2"",""143635""
","""event"",""trial"",""time""
""fullscreenenter"",""1"",""6144""
","""event"",""trial"",""time""
""fullscreenexit"",""2"",""17391""
","","","-1","","","12","16357","6269","&#9854;","elianto","#FFFFF080","-1","-1","1","&#10004","[]","0","0","1","","","","","","","",""
"pit-instructions","19","559972","0.0-2.0-7.0","battery-v0.2","","""event"",""trial"",""time""
""fullscreenenter"",""1"",""6144""
""fullscreenexit"",""2"",""17391""
""blur"",""2"",""20489""
""focus"",""2"",""143635""
","""event"",""trial"",""time""
""blur"",""2"",""20489""
","""event"",""trial"",""time""
""focus"",""2"",""143635""
","""event"",""trial"",""time""
""fullscreenenter"",""1"",""6144""
","""event"",""trial"",""time""
""fullscreenexit"",""2"",""17391""
","","[{""page_index"":0,""viewing_time"":7103},{""page_index"":1,""viewing_time"":6841.300000190735},{""page_index"":2,""viewing_time"":6164.39999961853},{""page_index"":3,""viewing_time"":6904.800000190735},{""page_index"":4,""viewing_time"":5452.900000572205},{""page_index"":5,""viewing_time"":5395.89999961853},{""page_index"":6,""viewing_time"":5611},{""page_index"":7,""viewing_time"":7293.10000038147},{""page_index"":8,""viewing_time"":6515.799999237061},{""page_index"":9,""viewing_time"":6106.400000572205},{""page_index"":10,""viewing_time"":6394.199999809265},{""page_index"":11,""viewing_time"":5301.199999809265},{""page_index"":12,""viewing_time"":6823.5},{""page_index"":13,""viewing_time"":8842.400000572205},{""page_index"":14,""viewing_time"":6924.199999809265},{""page_index"":15,""viewing_time"":6845.199999809265},{""page_index"":16,""viewing_time"":6407.300000190735},{""page_index"":17,""viewing_time"":7283}]","118210","","","","","","","","","","","","","","","","","","","","","","","",""
"pit-trial","20","563447","0.0-2.0-8.0-0.0","battery-v0.2","","""event"",""trial"",""time""
""fullscreenenter"",""1"",""6144""
""fullscreenexit"",""2"",""17391""
""blur"",""2"",""20489""
""focus"",""2"",""143635""
","""event"",""trial"",""time""
""blur"",""2"",""20489""
","""event"",""trial"",""time""
""focus"",""2"",""143635""
","""event"",""trial"",""time""
""fullscreenenter"",""1"",""6144""
","""event"",""trial"",""time""
""fullscreenexit"",""2"",""17391""
","","","608.6999998092651","","","12","16357","6269","&#9776;","elianto","#3366ff99"," "," ","1","+10","[1459.5]","1","0","1","","","","","","","",""
"pit-trial","21","566770","0.0-2.0-8.0-1.0","battery-v0.2","","""event"",""trial"",""time""
""fullscreenenter"",""1"",""6144""
""fullscreenexit"",""2"",""17391""
""blur"",""2"",""20489""
""focus"",""2"",""143635""
","""event"",""trial"",""time""
""blur"",""2"",""20489""
","""event"",""trial"",""time""
""focus"",""2"",""143635""
","""event"",""trial"",""time""
""fullscreenenter"",""1"",""6144""
","""event"",""trial"",""time""
""fullscreenexit"",""2"",""17391""
","","","465.80000019073486","","","12","16357","6269","&#9776;","elianto","#3366ff99"," "," ","1","+10","[1320.6000003814697]","1","0","1","","","","","","","",""
"pit-trial","22","570075","0.0-2.0-8.0-2.0","battery-v0.2","","""event"",""trial"",""time""
""fullscreenenter"",""1"",""6144""
""fullscreenexit"",""2"",""17391""
""blur"",""2"",""20489""
""focus"",""2"",""143635""
","""event"",""trial"",""time""
""blur"",""2"",""20489""
","""event"",""trial"",""time""
""focus"",""2"",""143635""
","""event"",""trial"",""time""
""fullscreenenter"",""1"",""6144""
","""event"",""trial"",""time""
""fullscreenexit"",""2"",""17391""
","","","436.5","","","12","16357","6269","&#9776;","elianto","#3366ff99"," "," ","1","+10","[1291.1000003814697]","1","0","1","","","","","","","",""
"pit-trial","23","573355","0.0-2.0-8.0-3.0","battery-v0.2","","""event"",""trial"",""time""
""fullscreenenter"",""1"",""6144""
""fullscreenexit"",""2"",""17391""
""blur"",""2"",""20489""
""focus"",""2"",""143635""
","""event"",""trial"",""time""
""blur"",""2"",""20489""
","""event"",""trial"",""time""
""focus"",""2"",""143635""
","""event"",""trial"",""time""
""fullscreenenter"",""1"",""6144""
","""event"",""trial"",""time""
""fullscreenexit"",""2"",""17391""
","","","411","","","12","16357","6269","&#9776;","elianto","#3366ff99"," "," ","1","0","[1266.2999992370605]","1","0","1","","","","","","","",""
"pit-trial","24","576617","0.0-2.0-8.0-4.0","battery-v0.2","","""event"",""trial"",""time""
""fullscreenenter"",""1"",""6144""
""fullscreenexit"",""2"",""17391""
""blur"",""2"",""20489""
""focus"",""2"",""143635""
","""event"",""trial"",""time""
""blur"",""2"",""20489""
","""event"",""trial"",""time""
""focus"",""2"",""143635""
","""event"",""trial"",""time""
""fullscreenenter"",""1"",""6144""
","""event"",""trial"",""time""
""fullscreenexit"",""2"",""17391""
","","","406.80000019073486","","","12","16357","6269","&#9776;","elianto","#3366ff99"," "," ","1","+10","[1257.5999994277954]","1","0","1","","","","","","","",""
"pit-trial","25","579898","0.0-2.0-8.1-0.1","battery-v0.2","","""event"",""trial"",""time""
""fullscreenenter"",""1"",""6144""
""fullscreenexit"",""2"",""17391""
""blur"",""2"",""20489""
""focus"",""2"",""143635""
","""event"",""trial"",""time""
""blur"",""2"",""20489""
","""event"",""trial"",""time""
""focus"",""2"",""143635""
","""event"",""trial"",""time""
""fullscreenenter"",""1"",""6144""
","""event"",""trial"",""time""
""fullscreenexit"",""2"",""17391""
","","","416.30000019073486","","","12","16357","6269","&#9776;","elianto","#3366ff99"," "," ","1","+10","[1272.5]","1","0","1","","","","","","","",""
"pit-trial","26","583463","0.0-2.0-8.1-1.1","battery-v0.2","","""event"",""trial"",""time""
""fullscreenenter"",""1"",""6144""
""fullscreenexit"",""2"",""17391""
""blur"",""2"",""20489""
""focus"",""2"",""143635""
","""event"",""trial"",""time""
""blur"",""2"",""20489""
","""event"",""trial"",""time""
""focus"",""2"",""143635""
","""event"",""trial"",""time""
""fullscreenenter"",""1"",""6144""
","""event"",""trial"",""time""
""fullscreenexit"",""2"",""17391""
","","","698.7000007629395","","","12","16357","6269","&#9776;","elianto","#3366ff99"," "," ","1","+10","[1555.5]","1","0","1","","","","","","","",""
"pit-trial","27","586731","0.0-2.0-8.1-2.1","battery-v0.2","","""event"",""trial"",""time""
""fullscreenenter"",""1"",""6144""
""fullscreenexit"",""2"",""17391""
""blur"",""2"",""20489""
""focus"",""2"",""143635""
","""event"",""trial"",""time""
""blur"",""2"",""20489""
","""event"",""trial"",""time""
""focus"",""2"",""143635""
","""event"",""trial"",""time""
""fullscreenenter"",""1"",""6144""
","""event"",""trial"",""time""
""fullscreenexit"",""2"",""17391""
","","","403.19999980926514","","","12","16357","6269","&#9776;","elianto","#3366ff99"," "," ","1","+10","[1258.6000003814697]","1","0","1","","","","","","","",""
"pit-trial","28","589906","0.0-2.0-8.1-3.1","battery-v0.2","","""event"",""trial"",""time""
""fullscreenenter"",""1"",""6144""
""fullscreenexit"",""2"",""17391""
""blur"",""2"",""20489""
""focus"",""2"",""143635""
","""event"",""trial"",""time""
""blur"",""2"",""20489""
","""event"",""trial"",""time""
""focus"",""2"",""143635""
","""event"",""trial"",""time""
""fullscreenenter"",""1"",""6144""
","""event"",""trial"",""time""
""fullscreenexit"",""2"",""17391""
","","","320.8999996185303","","","12","16357","6269","&#9776;","elianto","#3366ff99"," "," ","1","0","[1172.0999994277954]","1","0","1","","","","","","","",""
"pit-trial","29","593222","0.0-2.0-8.1-4.1","battery-v0.2","","""event"",""trial"",""time""
""fullscreenenter"",""1"",""6144""
""fullscreenexit"",""2"",""17391""
""blur"",""2"",""20489""
""focus"",""2"",""143635""
","""event"",""trial"",""time""
""blur"",""2"",""20489""
","""event"",""trial"",""time""
""focus"",""2"",""143635""
","""event"",""trial"",""time""
""fullscreenenter"",""1"",""6144""
","""event"",""trial"",""time""
""fullscreenexit"",""2"",""17391""
","","","463","","","12","16357","6269","&#9776;","elianto","#3366ff99"," "," ","1","+10","[1313.3999996185303]","1","0","1","","","","","","","",""
"pit-trial","30","596495","0.0-2.0-8.2-0.2","battery-v0.2","","""event"",""trial"",""time""
""fullscreenenter"",""1"",""6144""
""fullscreenexit"",""2"",""17391""
""blur"",""2"",""20489""
""focus"",""2"",""143635""
","""event"",""trial"",""time""
""blur"",""2"",""20489""
","""event"",""trial"",""time""
""focus"",""2"",""143635""
","""event"",""trial"",""time""
""fullscreenenter"",""1"",""6144""
","""event"",""trial"",""time""
""fullscreenexit"",""2"",""17391""
","","","420","","","12","16357","6269","&#9776;","elianto","#3366ff99"," "," ","1","+10","[1270.1999998092651]","1","0","1","","","","","","","",""
"pit-trial","31","599797","0.0-2.0-8.2-1.2","battery-v0.2","","""event"",""trial"",""time""
""fullscreenenter"",""1"",""6144""
""fullscreenexit"",""2"",""17391""
""blur"",""2"",""20489""
""focus"",""2"",""143635""
","""event"",""trial"",""time""
""blur"",""2"",""20489""
","""event"",""trial"",""time""
""focus"",""2"",""143635""
","""event"",""trial"",""time""
""fullscreenenter"",""1"",""6144""
","""event"",""trial"",""time""
""fullscreenexit"",""2"",""17391""
","","","443.80000019073486","","","12","16357","6269","&#9776;","elianto","#3366ff99"," "," ","1","+10","[1300.1000003814697]","1","0","1","","","","","","","",""
"pit-trial","32","603075","0.0-2.0-8.2-2.2","battery-v0.2","","""event"",""trial"",""time""
""fullscreenenter"",""1"",""6144""
""fullscreenexit"",""2"",""17391""
""blur"",""2"",""20489""
""focus"",""2"",""143635""
","""event"",""trial"",""time""
""blur"",""2"",""20489""
","""event"",""trial"",""time""
""focus"",""2"",""143635""
","""event"",""trial"",""time""
""fullscreenenter"",""1"",""6144""
","""event"",""trial"",""time""
""fullscreenexit"",""2"",""17391""
","","","424.6000003814697","","","12","16357","6269","&#9776;","elianto","#3366ff99"," "," ","1","+10","[1275.0999994277954]","1","0","1","","","","","","","",""
"pit-trial","33","606452","0.0-2.0-8.2-3.2","battery-v0.2","","""event"",""trial"",""time""
""fullscreenenter"",""1"",""6144""
""fullscreenexit"",""2"",""17391""
""blur"",""2"",""20489""
""focus"",""2"",""143635""
","""event"",""trial"",""time""
""blur"",""2"",""20489""
","""event"",""trial"",""time""
""focus"",""2"",""143635""
","""event"",""trial"",""time""
""fullscreenenter"",""1"",""6144""
","""event"",""trial"",""time""
""fullscreenexit"",""2"",""17391""
","","","523.6999998092651","","","12","16357","6269","&#9776;","elianto","#3366ff99"," "," ","1","0","[1375.1999998092651]","1","0","1","","","","","","","",""
"pit-trial","34","609488","0.0-2.0-8.2-4.2","battery-v0.2","","""event"",""trial"",""time""
""fullscreenenter"",""1"",""6144""
""fullscreenexit"",""2"",""17391""
""blur"",""2"",""20489""
""focus"",""2"",""143635""
","""event"",""trial"",""time""
""blur"",""2"",""20489""
","""event"",""trial"",""time""
""focus"",""2"",""143635""
","""event"",""trial"",""time""
""fullscreenenter"",""1"",""6144""
","""event"",""trial"",""time""
""fullscreenexit"",""2"",""17391""
","","","182.70000076293945","","","12","16357","6269","&#9776;","elianto","#3366ff99"," "," ","1","+10","[1034.7000007629395]","1","0","1","","","","","","","",""
"call-function","35","609490","0.0-2.0-9.0","battery-v0.2","","""event"",""trial"",""time""
""fullscreenenter"",""1"",""6144""
""fullscreenexit"",""2"",""17391""
""blur"",""2"",""20489""
""focus"",""2"",""143635""
","""event"",""trial"",""time""
""blur"",""2"",""20489""
","""event"",""trial"",""time""
""focus"",""2"",""143635""
","""event"",""trial"",""time""
""fullscreenenter"",""1"",""6144""
","""event"",""trial"",""time""
""fullscreenexit"",""2"",""17391""
","","","","","","","","","","","","","","","","","","","","","","","","","","",""
"pit-instructions","36","651227","0.0-2.0-10.0","battery-v0.2","","""event"",""trial"",""time""
""fullscreenenter"",""1"",""6144""
""fullscreenexit"",""2"",""17391""
""blur"",""2"",""20489""
""focus"",""2"",""143635""
","""event"",""trial"",""time""
""blur"",""2"",""20489""
","""event"",""trial"",""time""
""focus"",""2"",""143635""
","""event"",""trial"",""time""
""fullscreenenter"",""1"",""6144""
","""event"",""trial"",""time""
""fullscreenexit"",""2"",""17391""
","","[{""page_index"":0,""viewing_time"":5789.400000572205},{""page_index"":1,""viewing_time"":6587.39999961853},{""page_index"":2,""viewing_time"":10301.400000572205},{""page_index"":3,""viewing_time"":11558.89999961853},{""page_index"":4,""viewing_time"":7498.699999809265}]","41736.300000190735","","","","","","","","","","","","","","","","","","","","","","","",""
"pit-trial","37","654547","0.0-2.0-11.0-0.0","battery-v0.2","","""event"",""trial"",""time""
""fullscreenenter"",""1"",""6144""
""fullscreenexit"",""2"",""17391""
""blur"",""2"",""20489""
""focus"",""2"",""143635""
","""event"",""trial"",""time""
""blur"",""2"",""20489""
","""event"",""trial"",""time""
""focus"",""2"",""143635""
","""event"",""trial"",""time""
""fullscreenenter"",""1"",""6144""
","""event"",""trial"",""time""
""fullscreenexit"",""2"",""17391""
","","","454.80000019073486","","","12","16357","6269","&#9761;","elianto","#3366ff99","-1"," ","0","0","[1310.5]","1","0","2","","","","","","","",""
"pit-trial","38","657752","0.0-2.0-11.0-1.0","battery-v0.2","","""event"",""trial"",""time""
""fullscreenenter"",""1"",""6144""
""fullscreenexit"",""2"",""17391""
""blur"",""2"",""20489""
""focus"",""2"",""143635""
","""event"",""trial"",""time""
""blur"",""2"",""20489""
","""event"",""trial"",""time""
""focus"",""2"",""143635""
","""event"",""trial"",""time""
""fullscreenenter"",""1"",""6144""
","""event"",""trial"",""time""
""fullscreenexit"",""2"",""17391""
","","","336.5","","","12","16357","6269","&#9761;","elianto","#3366ff99","-1"," ","0","0","[1193.2999992370605]","1","0","2","","","","","","","",""
"pit-trial","39","662627","0.0-2.0-11.0-2.0","battery-v0.2","","""event"",""trial"",""time""
""fullscreenenter"",""1"",""6144""
""fullscreenexit"",""2"",""17391""
""blur"",""2"",""20489""
""focus"",""2"",""143635""
","""event"",""trial"",""time""
""blur"",""2"",""20489""
","""event"",""trial"",""time""
""focus"",""2"",""143635""
","""event"",""trial"",""time""
""fullscreenenter"",""1"",""6144""
","""event"",""trial"",""time""
""fullscreenexit"",""2"",""17391""
","","","-1","","","12","16357","6269","&#9761;","elianto","#3366ff99","-1","-1","1","+10","[]","0","0","2","","","","","","","",""
"pit-trial","40","667500","0.0-2.0-11.0-3.0","battery-v0.2","","""event"",""trial"",""time""
""fullscreenenter"",""1"",""6144""
""fullscreenexit"",""2"",""17391""
""blur"",""2"",""20489""
""focus"",""2"",""143635""
","""event"",""trial"",""time""
""blur"",""2"",""20489""
","""event"",""trial"",""time""
""focus"",""2"",""143635""
","""event"",""trial"",""time""
""fullscreenenter"",""1"",""6144""
","""event"",""trial"",""time""
""fullscreenexit"",""2"",""17391""
","","","-1","","","12","16357","6269","&#9761;","elianto","#3366ff99","-1","-1","1","0","[]","0","0","2","","","","","","","",""
"pit-trial","41","672362","0.0-2.0-11.0-4.0","battery-v0.2","","""event"",""trial"",""time""
""fullscreenenter"",""1"",""6144""
""fullscreenexit"",""2"",""17391""
""blur"",""2"",""20489""
""focus"",""2"",""143635""
","""event"",""trial"",""time""
""blur"",""2"",""20489""
","""event"",""trial"",""time""
""focus"",""2"",""143635""
","""event"",""trial"",""time""
""fullscreenenter"",""1"",""6144""
","""event"",""trial"",""time""
""fullscreenexit"",""2"",""17391""
","","","-1","","","12","16357","6269","&#9761;","elianto","#3366ff99","-1","-1","1","+10","[]","0","0","2","","","","","","","",""
"pit-trial","42","677221","0.0-2.0-11.1-0.1","battery-v0.2","","""event"",""trial"",""time""
""fullscreenenter"",""1"",""6144""
""fullscreenexit"",""2"",""17391""
""blur"",""2"",""20489""
""focus"",""2"",""143635""
","""event"",""trial"",""time""
""blur"",""2"",""20489""
","""event"",""trial"",""time""
""focus"",""2"",""143635""
","""event"",""trial"",""time""
""fullscreenenter"",""1"",""6144""
","""event"",""trial"",""time""
""fullscreenexit"",""2"",""17391""
","","","-1","","","12","16357","6269","&#9761;","elianto","#3366ff99","-1","-1","1","+10","[]","0","0","2","","","","","","","",""
"pit-trial","43","682080","0.0-2.0-11.1-1.1","battery-v0.2","","""event"",""trial"",""time""
""fullscreenenter"",""1"",""6144""
""fullscreenexit"",""2"",""17391""
""blur"",""2"",""20489""
""focus"",""2"",""143635""
","""event"",""trial"",""time""
""blur"",""2"",""20489""
","""event"",""trial"",""time""
""focus"",""2"",""143635""
","""event"",""trial"",""time""
""fullscreenenter"",""1"",""6144""
","""event"",""trial"",""time""
""fullscreenexit"",""2"",""17391""
","","","-1","","","12","16357","6269","&#9761;","elianto","#3366ff99","-1","-1","1","+10","[]","0","0","2","","","","","","","",""
"pit-trial","44","686934","0.0-2.0-11.1-2.1","battery-v0.2","","""event"",""trial"",""time""
""fullscreenenter"",""1"",""6144""
""fullscreenexit"",""2"",""17391""
""blur"",""2"",""20489""
""focus"",""2"",""143635""
","""event"",""trial"",""time""
""blur"",""2"",""20489""
","""event"",""trial"",""time""
""focus"",""2"",""143635""
","""event"",""trial"",""time""
""fullscreenenter"",""1"",""6144""
","""event"",""trial"",""time""
""fullscreenexit"",""2"",""17391""
","","","-1","","","12","16357","6269","&#9761;","elianto","#3366ff99","-1","-1","1","+10","[]","0","0","2","","","","","","","",""
"pit-trial","45","691787","0.0-2.0-11.1-3.1","battery-v0.2","","""event"",""trial"",""time""
""fullscreenenter"",""1"",""6144""
""fullscreenexit"",""2"",""17391""
""blur"",""2"",""20489""
""focus"",""2"",""143635""
","""event"",""trial"",""time""
""blur"",""2"",""20489""
","""event"",""trial"",""time""
""focus"",""2"",""143635""
","""event"",""trial"",""time""
""fullscreenenter"",""1"",""6144""
","""event"",""trial"",""time""
""fullscreenexit"",""2"",""17391""
","","","-1","","","12","16357","6269","&#9761;","elianto","#3366ff99","-1","-1","1","0","[]","0","0","2","","","","","","","",""
"pit-trial","46","696640","0.0-2.0-11.1-4.1","battery-v0.2","","""event"",""trial"",""time""
""fullscreenenter"",""1"",""6144""
""fullscreenexit"",""2"",""17391""
""blur"",""2"",""20489""
""focus"",""2"",""143635""
","""event"",""trial"",""time""
""blur"",""2"",""20489""
","""event"",""trial"",""time""
""focus"",""2"",""143635""
","""event"",""trial"",""time""
""fullscreenenter"",""1"",""6144""
","""event"",""trial"",""time""
""fullscreenexit"",""2"",""17391""
","","","-1","","","12","16357","6269","&#9761;","elianto","#3366ff99","-1","-1","1","+10","[]","0","0","2","","","","","","","",""
"pit-trial","47","701496","0.0-2.0-11.2-0.2","battery-v0.2","","""event"",""trial"",""time""
""fullscreenenter"",""1"",""6144""
""fullscreenexit"",""2"",""17391""
""blur"",""2"",""20489""
""focus"",""2"",""143635""
","""event"",""trial"",""time""
""blur"",""2"",""20489""
","""event"",""trial"",""time""
""focus"",""2"",""143635""
","""event"",""trial"",""time""
""fullscreenenter"",""1"",""6144""
","""event"",""trial"",""time""
""fullscreenexit"",""2"",""17391""
","","","-1","","","12","16357","6269","&#9761;","elianto","#3366ff99","-1","-1","1","+10","[]","0","0","2","","","","","","","",""
"pit-trial","48","706350","0.0-2.0-11.2-1.2","battery-v0.2","","""event"",""trial"",""time""
""fullscreenenter"",""1"",""6144""
""fullscreenexit"",""2"",""17391""
""blur"",""2"",""20489""
""focus"",""2"",""143635""
","""event"",""trial"",""time""
""blur"",""2"",""20489""
","""event"",""trial"",""time""
""focus"",""2"",""143635""
","""event"",""trial"",""time""
""fullscreenenter"",""1"",""6144""
","""event"",""trial"",""time""
""fullscreenexit"",""2"",""17391""
","","","-1","","","12","16357","6269","&#9761;","elianto","#3366ff99","-1","-1","1","+10","[]","0","0","2","","","","","","","",""
"pit-trial","49","711202","0.0-2.0-11.2-2.2","battery-v0.2","","""event"",""trial"",""time""
""fullscreenenter"",""1"",""6144""
""fullscreenexit"",""2"",""17391""
""blur"",""2"",""20489""
""focus"",""2"",""143635""
","""event"",""trial"",""time""
""blur"",""2"",""20489""
","""event"",""trial"",""time""
""focus"",""2"",""143635""
","""event"",""trial"",""time""
""fullscreenenter"",""1"",""6144""
","""event"",""trial"",""time""
""fullscreenexit"",""2"",""17391""
","","","-1","","","12","16357","6269","&#9761;","elianto","#3366ff99","-1","-1","1","+10","[]","0","0","2","","","","","","","",""
"pit-trial","50","716056","0.0-2.0-11.2-3.2","battery-v0.2","","""event"",""trial"",""time""
""fullscreenenter"",""1"",""6144""
""fullscreenexit"",""2"",""17391""
""blur"",""2"",""20489""
""focus"",""2"",""143635""
","""event"",""trial"",""time""
""blur"",""2"",""20489""
","""event"",""trial"",""time""
""focus"",""2"",""143635""
","""event"",""trial"",""time""
""fullscreenenter"",""1"",""6144""
","""event"",""trial"",""time""
""fullscreenexit"",""2"",""17391""
","","","-1","","","12","16357","6269","&#9761;","elianto","#3366ff99","-1","-1","1","0","[]","0","0","2","","","","","","","",""
"pit-trial","51","720909","0.0-2.0-11.2-4.2","battery-v0.2","","""event"",""trial"",""time""
""fullscreenenter"",""1"",""6144""
""fullscreenexit"",""2"",""17391""
""blur"",""2"",""20489""
""focus"",""2"",""143635""
","""event"",""trial"",""time""
""blur"",""2"",""20489""
","""event"",""trial"",""time""
""focus"",""2"",""143635""
","""event"",""trial"",""time""
""fullscreenenter"",""1"",""6144""
","""event"",""trial"",""time""
""fullscreenexit"",""2"",""17391""
","","","-1","","","12","16357","6269","&#9761;","elianto","#3366ff99","-1","-1","1","+10","[]","0","0","2","","","","","","","",""
"pit-trial","52","725764","0.0-2.0-11.3-0.3","battery-v0.2","","""event"",""trial"",""time""
""fullscreenenter"",""1"",""6144""
""fullscreenexit"",""2"",""17391""
""blur"",""2"",""20489""
""focus"",""2"",""143635""
","""event"",""trial"",""time""
""blur"",""2"",""20489""
","""event"",""trial"",""time""
""focus"",""2"",""143635""
","""event"",""trial"",""time""
""fullscreenenter"",""1"",""6144""
","""event"",""trial"",""time""
""fullscreenexit"",""2"",""17391""
","","","-1","","","12","16357","6269","&#9761;","elianto","#3366ff99","-1","-1","1","+10","[]","0","0","2","","","","","","","",""
"pit-trial","53","730619","0.0-2.0-11.3-1.3","battery-v0.2","","""event"",""trial"",""time""
""fullscreenenter"",""1"",""6144""
""fullscreenexit"",""2"",""17391""
""blur"",""2"",""20489""
""focus"",""2"",""143635""
","""event"",""trial"",""time""
""blur"",""2"",""20489""
","""event"",""trial"",""time""
""focus"",""2"",""143635""
","""event"",""trial"",""time""
""fullscreenenter"",""1"",""6144""
","""event"",""trial"",""time""
""fullscreenexit"",""2"",""17391""
","","","-1","","","12","16357","6269","&#9761;","elianto","#3366ff99","-1","-1","1","+10","[]","0","0","2","","","","","","","",""
"pit-trial","54","735472","0.0-2.0-11.3-2.3","battery-v0.2","","""event"",""trial"",""time""
""fullscreenenter"",""1"",""6144""
""fullscreenexit"",""2"",""17391""
""blur"",""2"",""20489""
""focus"",""2"",""143635""
","""event"",""trial"",""time""
""blur"",""2"",""20489""
","""event"",""trial"",""time""
""focus"",""2"",""143635""
","""event"",""trial"",""time""
""fullscreenenter"",""1"",""6144""
","""event"",""trial"",""time""
""fullscreenexit"",""2"",""17391""
","","","-1","","","12","16357","6269","&#9761;","elianto","#3366ff99","-1","-1","1","+10","[]","0","0","2","","","","","","","",""
"pit-trial","55","740326","0.0-2.0-11.3-3.3","battery-v0.2","","""event"",""trial"",""time""
""fullscreenenter"",""1"",""6144""
""fullscreenexit"",""2"",""17391""
""blur"",""2"",""20489""
""focus"",""2"",""143635""
","""event"",""trial"",""time""
""blur"",""2"",""20489""
","""event"",""trial"",""time""
""focus"",""2"",""143635""
","""event"",""trial"",""time""
""fullscreenenter"",""1"",""6144""
","""event"",""trial"",""time""
""fullscreenexit"",""2"",""17391""
","","","-1","","","12","16357","6269","&#9761;","elianto","#3366ff99","-1","-1","1","0","[]","0","0","2","","","","","","","",""
"pit-trial","56","745180","0.0-2.0-11.3-4.3","battery-v0.2","","""event"",""trial"",""time""
""fullscreenenter"",""1"",""6144""
""fullscreenexit"",""2"",""17391""
""blur"",""2"",""20489""
""focus"",""2"",""143635""
","""event"",""trial"",""time""
""blur"",""2"",""20489""
","""event"",""trial"",""time""
""focus"",""2"",""143635""
","""event"",""trial"",""time""
""fullscreenenter"",""1"",""6144""
","""event"",""trial"",""time""
""fullscreenexit"",""2"",""17391""
","","","-1","","","12","16357","6269","&#9761;","elianto","#3366ff99","-1","-1","1","+10","[]","0","0","2","","","","","","","",""
"call-function","57","745181","0.0-2.0-12.0","battery-v0.2","","""event"",""trial"",""time""
""fullscreenenter"",""1"",""6144""
""fullscreenexit"",""2"",""17391""
""blur"",""2"",""20489""
""focus"",""2"",""143635""
","""event"",""trial"",""time""
""blur"",""2"",""20489""
","""event"",""trial"",""time""
""focus"",""2"",""143635""
","""event"",""trial"",""time""
""fullscreenenter"",""1"",""6144""
","""event"",""trial"",""time""
""fullscreenexit"",""2"",""17391""
","","","","","","","","","","","","","","","","","","","","","","","","","","",""
"pit-instructions","58","775954","0.0-2.0-13.0","battery-v0.2","","""event"",""trial"",""time""
""fullscreenenter"",""1"",""6144""
""fullscreenexit"",""2"",""17391""
""blur"",""2"",""20489""
""focus"",""2"",""143635""
","""event"",""trial"",""time""
""blur"",""2"",""20489""
","""event"",""trial"",""time""
""focus"",""2"",""143635""
","""event"",""trial"",""time""
""fullscreenenter"",""1"",""6144""
","""event"",""trial"",""time""
""fullscreenexit"",""2"",""17391""
","","[{""page_index"":0,""viewing_time"":4803.5},{""page_index"":1,""viewing_time"":6539.199999809265},{""page_index"":2,""viewing_time"":3341.1000003814697},{""page_index"":3,""viewing_time"":11182.599999427795},{""page_index"":4,""viewing_time"":4905.800000190735}]","30772.599999427795","","","","","","","","","","","","","","","","","","","","","","","",""
"pit-trial","59","779253","0.0-2.0-14.0-0.0","battery-v0.2","","""event"",""trial"",""time""
""fullscreenenter"",""1"",""6144""
""fullscreenexit"",""2"",""17391""
""blur"",""2"",""20489""
""focus"",""2"",""143635""
","""event"",""trial"",""time""
""blur"",""2"",""20489""
","""event"",""trial"",""time""
""focus"",""2"",""143635""
","""event"",""trial"",""time""
""fullscreenenter"",""1"",""6144""
","""event"",""trial"",""time""
""fullscreenexit"",""2"",""17391""
","","","429.5","","","12","16357","6269","&#9826;","elianto","#f73b6a7A","-1"," ","0","-10","[1286.3000001907349]","1","0","3","","","","","","","",""
"pit-trial","60","782459","0.0-2.0-14.0-1.0","battery-v0.2","","""event"",""trial"",""time""
""fullscreenenter"",""1"",""6144""
""fullscreenexit"",""2"",""17391""
""blur"",""2"",""20489""
""focus"",""2"",""143635""
","""event"",""trial"",""time""
""blur"",""2"",""20489""
","""event"",""trial"",""time""
""focus"",""2"",""143635""
","""event"",""trial"",""time""
""fullscreenenter"",""1"",""6144""
","""event"",""trial"",""time""
""fullscreenexit"",""2"",""17391""
","","","332.4000005722046","","","12","16357","6269","&#9826;","elianto","#f73b6a7A","-1"," ","0","-10","[1190.1000003814697]","1","0","3","","","","","","","",""
"pit-trial","61","787326","0.0-2.0-14.0-2.0","battery-v0.2","","""event"",""trial"",""time""
""fullscreenenter"",""1"",""6144""
""fullscreenexit"",""2"",""17391""
""blur"",""2"",""20489""
""focus"",""2"",""143635""
","""event"",""trial"",""time""
""blur"",""2"",""20489""
","""event"",""trial"",""time""
""focus"",""2"",""143635""
","""event"",""trial"",""time""
""fullscreenenter"",""1"",""6144""
","""event"",""trial"",""time""
""fullscreenexit"",""2"",""17391""
","","","-1","","","12","16357","6269","&#9826;","elianto","#f73b6a7A","-1","-1","1","0","[]","0","0","3","","","","","","","",""
"pit-trial","62","792194","0.0-2.0-14.0-3.0","battery-v0.2","","""event"",""trial"",""time""
""fullscreenenter"",""1"",""6144""
""fullscreenexit"",""2"",""17391""
""blur"",""2"",""20489""
""focus"",""2"",""143635""
","""event"",""trial"",""time""
""blur"",""2"",""20489""
","""event"",""trial"",""time""
""focus"",""2"",""143635""
","""event"",""trial"",""time""
""fullscreenenter"",""1"",""6144""
","""event"",""trial"",""time""
""fullscreenexit"",""2"",""17391""
","","","-1","","","12","16357","6269","&#9826;","elianto","#f73b6a7A","-1","-1","1","-10","[]","0","0","3","","","","","","","",""
"pit-trial","63","797065","0.0-2.0-14.0-4.0","battery-v0.2","","""event"",""trial"",""time""
""fullscreenenter"",""1"",""6144""
""fullscreenexit"",""2"",""17391""
""blur"",""2"",""20489""
""focus"",""2"",""143635""
","""event"",""trial"",""time""
""blur"",""2"",""20489""
","""event"",""trial"",""time""
""focus"",""2"",""143635""
","""event"",""trial"",""time""
""fullscreenenter"",""1"",""6144""
","""event"",""trial"",""time""
""fullscreenexit"",""2"",""17391""
","","","-1","","","12","16357","6269","&#9826;","elianto","#f73b6a7A","-1","-1","1","0","[]","0","0","3","","","","","","","",""
"pit-trial","64","801932","0.0-2.0-14.1-0.1","battery-v0.2","","""event"",""trial"",""time""
""fullscreenenter"",""1"",""6144""
""fullscreenexit"",""2"",""17391""
""blur"",""2"",""20489""
""focus"",""2"",""143635""
","""event"",""trial"",""time""
""blur"",""2"",""20489""
","""event"",""trial"",""time""
""focus"",""2"",""143635""
","""event"",""trial"",""time""
""fullscreenenter"",""1"",""6144""
","""event"",""trial"",""time""
""fullscreenexit"",""2"",""17391""
","","","-1","","","12","16357","6269","&#9826;","elianto","#f73b6a7A","-1","-1","1","0","[]","0","0","3","","","","","","","",""
"pit-trial","65","806797","0.0-2.0-14.1-1.1","battery-v0.2","","""event"",""trial"",""time""
""fullscreenenter"",""1"",""6144""
""fullscreenexit"",""2"",""17391""
""blur"",""2"",""20489""
""focus"",""2"",""143635""
","""event"",""trial"",""time""
""blur"",""2"",""20489""
","""event"",""trial"",""time""
""focus"",""2"",""143635""
","""event"",""trial"",""time""
""fullscreenenter"",""1"",""6144""
","""event"",""trial"",""time""
""fullscreenexit"",""2"",""17391""
","","","-1","","","12","16357","6269","&#9826;","elianto","#f73b6a7A","-1","-1","1","0","[]","0","0","3","","","","","","","",""
"pit-trial","66","811651","0.0-2.0-14.1-2.1","battery-v0.2","","""event"",""trial"",""time""
""fullscreenenter"",""1"",""6144""
""fullscreenexit"",""2"",""17391""
""blur"",""2"",""20489""
""focus"",""2"",""143635""
","""event"",""trial"",""time""
""blur"",""2"",""20489""
","""event"",""trial"",""time""
""focus"",""2"",""143635""
","""event"",""trial"",""time""
""fullscreenenter"",""1"",""6144""
","""event"",""trial"",""time""
""fullscreenexit"",""2"",""17391""
","","","-1","","","12","16357","6269","&#9826;","elianto","#f73b6a7A","-1","-1","1","0","[]","0","0","3","","","","","","","",""
"pit-trial","67","816504","0.0-2.0-14.1-3.1","battery-v0.2","","""event"",""trial"",""time""
""fullscreenenter"",""1"",""6144""
""fullscreenexit"",""2"",""17391""
""blur"",""2"",""20489""
""focus"",""2"",""143635""
","""event"",""trial"",""time""
""blur"",""2"",""20489""
","""event"",""trial"",""time""
""focus"",""2"",""143635""
","""event"",""trial"",""time""
""fullscreenenter"",""1"",""6144""
","""event"",""trial"",""time""
""fullscreenexit"",""2"",""17391""
","","","-1","","","12","16357","6269","&#9826;","elianto","#f73b6a7A","-1","-1","1","-10","[]","0","0","3","","","","","","","",""
"pit-trial","68","821357","0.0-2.0-14.1-4.1","battery-v0.2","","""event"",""trial"",""time""
""fullscreenenter"",""1"",""6144""
""fullscreenexit"",""2"",""17391""
""blur"",""2"",""20489""
""focus"",""2"",""143635""
","""event"",""trial"",""time""
""blur"",""2"",""20489""
","""event"",""trial"",""time""
""focus"",""2"",""143635""
","""event"",""trial"",""time""
""fullscreenenter"",""1"",""6144""
","""event"",""trial"",""time""
""fullscreenexit"",""2"",""17391""
","","","-1","","","12","16357","6269","&#9826;","elianto","#f73b6a7A","-1","-1","1","0","[]","0","0","3","","","","","","","",""
"pit-trial","69","826211","0.0-2.0-14.2-0.2","battery-v0.2","","""event"",""trial"",""time""
""fullscreenenter"",""1"",""6144""
""fullscreenexit"",""2"",""17391""
""blur"",""2"",""20489""
""focus"",""2"",""143635""
","""event"",""trial"",""time""
""blur"",""2"",""20489""
","""event"",""trial"",""time""
""focus"",""2"",""143635""
","""event"",""trial"",""time""
""fullscreenenter"",""1"",""6144""
","""event"",""trial"",""time""
""fullscreenexit"",""2"",""17391""
","","","-1","","","12","16357","6269","&#9826;","elianto","#f73b6a7A","-1","-1","1","0","[]","0","0","3","","","","","","","",""
"pit-trial","70","831066","0.0-2.0-14.2-1.2","battery-v0.2","","""event"",""trial"",""time""
""fullscreenenter"",""1"",""6144""
""fullscreenexit"",""2"",""17391""
""blur"",""2"",""20489""
""focus"",""2"",""143635""
","""event"",""trial"",""time""
""blur"",""2"",""20489""
","""event"",""trial"",""time""
""focus"",""2"",""143635""
","""event"",""trial"",""time""
""fullscreenenter"",""1"",""6144""
","""event"",""trial"",""time""
""fullscreenexit"",""2"",""17391""
","","","-1","","","12","16357","6269","&#9826;","elianto","#f73b6a7A","-1","-1","1","0","[]","0","0","3","","","","","","","",""
"pit-trial","71","835919","0.0-2.0-14.2-2.2","battery-v0.2","","""event"",""trial"",""time""
""fullscreenenter"",""1"",""6144""
""fullscreenexit"",""2"",""17391""
""blur"",""2"",""20489""
""focus"",""2"",""143635""
","""event"",""trial"",""time""
""blur"",""2"",""20489""
","""event"",""trial"",""time""
""focus"",""2"",""143635""
","""event"",""trial"",""time""
""fullscreenenter"",""1"",""6144""
","""event"",""trial"",""time""
""fullscreenexit"",""2"",""17391""
","","","-1","","","12","16357","6269","&#9826;","elianto","#f73b6a7A","-1","-1","1","0","[]","0","0","3","","","","","","","",""
"pit-trial","72","840772","0.0-2.0-14.2-3.2","battery-v0.2","","""event"",""trial"",""time""
""fullscreenenter"",""1"",""6144""
""fullscreenexit"",""2"",""17391""
""blur"",""2"",""20489""
""focus"",""2"",""143635""
","""event"",""trial"",""time""
""blur"",""2"",""20489""
","""event"",""trial"",""time""
""focus"",""2"",""143635""
","""event"",""trial"",""time""
""fullscreenenter"",""1"",""6144""
","""event"",""trial"",""time""
""fullscreenexit"",""2"",""17391""
","","","-1","","","12","16357","6269","&#9826;","elianto","#f73b6a7A","-1","-1","1","-10","[]","0","0","3","","","","","","","",""
"pit-trial","73","845625","0.0-2.0-14.2-4.2","battery-v0.2","","""event"",""trial"",""time""
""fullscreenenter"",""1"",""6144""
""fullscreenexit"",""2"",""17391""
""blur"",""2"",""20489""
""focus"",""2"",""143635""
","""event"",""trial"",""time""
""blur"",""2"",""20489""
","""event"",""trial"",""time""
""focus"",""2"",""143635""
","""event"",""trial"",""time""
""fullscreenenter"",""1"",""6144""
","""event"",""trial"",""time""
""fullscreenexit"",""2"",""17391""
","","","-1","","","12","16357","6269","&#9826;","elianto","#f73b6a7A","-1","-1","1","0","[]","0","0","3","","","","","","","",""
"pit-trial","74","850479","0.0-2.0-14.3-0.3","battery-v0.2","","""event"",""trial"",""time""
""fullscreenenter"",""1"",""6144""
""fullscreenexit"",""2"",""17391""
""blur"",""2"",""20489""
""focus"",""2"",""143635""
","""event"",""trial"",""time""
""blur"",""2"",""20489""
","""event"",""trial"",""time""
""focus"",""2"",""143635""
","""event"",""trial"",""time""
""fullscreenenter"",""1"",""6144""
","""event"",""trial"",""time""
""fullscreenexit"",""2"",""17391""
","","","-1","","","12","16357","6269","&#9826;","elianto","#f73b6a7A","-1","-1","1","0","[]","0","0","3","","","","","","","",""
"pit-trial","75","855334","0.0-2.0-14.3-1.3","battery-v0.2","","""event"",""trial"",""time""
""fullscreenenter"",""1"",""6144""
""fullscreenexit"",""2"",""17391""
""blur"",""2"",""20489""
""focus"",""2"",""143635""
","""event"",""trial"",""time""
""blur"",""2"",""20489""
","""event"",""trial"",""time""
""focus"",""2"",""143635""
","""event"",""trial"",""time""
""fullscreenenter"",""1"",""6144""
","""event"",""trial"",""time""
""fullscreenexit"",""2"",""17391""
","","","-1","","","12","16357","6269","&#9826;","elianto","#f73b6a7A","-1","-1","1","0","[]","0","0","3","","","","","","","",""
"pit-trial","76","860186","0.0-2.0-14.3-2.3","battery-v0.2","","""event"",""trial"",""time""
""fullscreenenter"",""1"",""6144""
""fullscreenexit"",""2"",""17391""
""blur"",""2"",""20489""
""focus"",""2"",""143635""
","""event"",""trial"",""time""
""blur"",""2"",""20489""
","""event"",""trial"",""time""
""focus"",""2"",""143635""
","""event"",""trial"",""time""
""fullscreenenter"",""1"",""6144""
","""event"",""trial"",""time""
""fullscreenexit"",""2"",""17391""
","","","-1","","","12","16357","6269","&#9826;","elianto","#f73b6a7A","-1","-1","1","0","[]","0","0","3","","","","","","","",""
"pit-trial","77","865041","0.0-2.0-14.3-3.3","battery-v0.2","","""event"",""trial"",""time""
""fullscreenenter"",""1"",""6144""
""fullscreenexit"",""2"",""17391""
""blur"",""2"",""20489""
""focus"",""2"",""143635""
","""event"",""trial"",""time""
""blur"",""2"",""20489""
","""event"",""trial"",""time""
""focus"",""2"",""143635""
","""event"",""trial"",""time""
""fullscreenenter"",""1"",""6144""
","""event"",""trial"",""time""
""fullscreenexit"",""2"",""17391""
","","","-1","","","12","16357","6269","&#9826;","elianto","#f73b6a7A","-1","-1","1","-10","[]","0","0","3","","","","","","","",""
"pit-trial","78","869894","0.0-2.0-14.3-4.3","battery-v0.2","","""event"",""trial"",""time""
""fullscreenenter"",""1"",""6144""
""fullscreenexit"",""2"",""17391""
""blur"",""2"",""20489""
""focus"",""2"",""143635""
","""event"",""trial"",""time""
""blur"",""2"",""20489""
","""event"",""trial"",""time""
""focus"",""2"",""143635""
","""event"",""trial"",""time""
""fullscreenenter"",""1"",""6144""
","""event"",""trial"",""time""
""fullscreenexit"",""2"",""17391""
","","","-1","","","12","16357","6269","&#9826;","elianto","#f73b6a7A","-1","-1","1","0","[]","0","0","3","","","","","","","",""
"call-function","79","869896","0.0-2.0-15.0","battery-v0.2","","""event"",""trial"",""time""
""fullscreenenter"",""1"",""6144""
""fullscreenexit"",""2"",""17391""
""blur"",""2"",""20489""
""focus"",""2"",""143635""
","""event"",""trial"",""time""
""blur"",""2"",""20489""
","""event"",""trial"",""time""
""focus"",""2"",""143635""
","""event"",""trial"",""time""
""fullscreenenter"",""1"",""6144""
","""event"",""trial"",""time""
""fullscreenexit"",""2"",""17391""
","","","","","","","","","","","","","","","","","","","","","","","","","","",""
"pit-instructions","80","894699","0.0-2.0-16.0","battery-v0.2","","""event"",""trial"",""time""
""fullscreenenter"",""1"",""6144""
""fullscreenexit"",""2"",""17391""
""blur"",""2"",""20489""
""focus"",""2"",""143635""
","""event"",""trial"",""time""
""blur"",""2"",""20489""
","""event"",""trial"",""time""
""focus"",""2"",""143635""
","""event"",""trial"",""time""
""fullscreenenter"",""1"",""6144""
","""event"",""trial"",""time""
""fullscreenexit"",""2"",""17391""
","","[{""page_index"":0,""viewing_time"":6516.39999961853},{""page_index"":1,""viewing_time"":8124.5},{""page_index"":2,""viewing_time"":4926.5},{""page_index"":3,""viewing_time"":5234.89999961853}]","24802.79999923706","","","","","","","","","","","","","","","","","","","","","","","",""
"pit-trial","81","898256","0.0-2.0-17.0-0.0","battery-v0.2","","""event"",""trial"",""time""
""fullscreenenter"",""1"",""6144""
""fullscreenexit"",""2"",""17391""
""blur"",""2"",""20489""
""focus"",""2"",""143635""
","""event"",""trial"",""time""
""blur"",""2"",""20489""
","""event"",""trial"",""time""
""focus"",""2"",""143635""
","""event"",""trial"",""time""
""fullscreenenter"",""1"",""6144""
","""event"",""trial"",""time""
""fullscreenexit"",""2"",""17391""
","","","688.2000007629395","","","12","16357","6269","&#9789;","elianto","#f73b6a7A"," "," ","1","0","[1543]","1","0","4","","","","","","","",""
"pit-trial","82","901346","0.0-2.0-17.0-1.0","battery-v0.2","","""event"",""trial"",""time""
""fullscreenenter"",""1"",""6144""
""fullscreenexit"",""2"",""17391""
""blur"",""2"",""20489""
""focus"",""2"",""143635""
","""event"",""trial"",""time""
""blur"",""2"",""20489""
","""event"",""trial"",""time""
""focus"",""2"",""143635""
","""event"",""trial"",""time""
""fullscreenenter"",""1"",""6144""
","""event"",""trial"",""time""
""fullscreenexit"",""2"",""17391""
","","","232.80000019073486","","","12","16357","6269","&#9789;","elianto","#f73b6a7A"," "," ","1","0","[1084.4000005722046]","1","0","4","","","","","","","",""
"pit-trial","83","904571","0.0-2.0-17.0-2.0","battery-v0.2","","""event"",""trial"",""time""
""fullscreenenter"",""1"",""6144""
""fullscreenexit"",""2"",""17391""
""blur"",""2"",""20489""
""focus"",""2"",""143635""
","""event"",""trial"",""time""
""blur"",""2"",""20489""
","""event"",""trial"",""time""
""focus"",""2"",""143635""
","""event"",""trial"",""time""
""fullscreenenter"",""1"",""6144""
","""event"",""trial"",""time""
""fullscreenexit"",""2"",""17391""
","","","353.79999923706055","","","12","16357","6269","&#9789;","elianto","#f73b6a7A"," "," ","1","0","[1210.8000001907349]","1","0","4","","","","","","","",""
"pit-trial","84","908193","0.0-2.0-17.0-3.0","battery-v0.2","","""event"",""trial"",""time""
""fullscreenenter"",""1"",""6144""
""fullscreenexit"",""2"",""17391""
""blur"",""2"",""20489""
""focus"",""2"",""143635""
","""event"",""trial"",""time""
""blur"",""2"",""20489""
","""event"",""trial"",""time""
""focus"",""2"",""143635""
","""event"",""trial"",""time""
""fullscreenenter"",""1"",""6144""
","""event"",""trial"",""time""
""fullscreenexit"",""2"",""17391""
","","","753.6999998092651","","","12","16357","6269","&#9789;","elianto","#f73b6a7A"," "," ","1","-10","[786.3999996185303,1614.6999998092651]","2","0","4","","","","","","","",""
"pit-trial","85","913069","0.0-2.0-17.0-4.0","battery-v0.2","","""event"",""trial"",""time""
""fullscreenenter"",""1"",""6144""
""fullscreenexit"",""2"",""17391""
""blur"",""2"",""20489""
""focus"",""2"",""143635""
","""event"",""trial"",""time""
""blur"",""2"",""20489""
","""event"",""trial"",""time""
""focus"",""2"",""143635""
","""event"",""trial"",""time""
""fullscreenenter"",""1"",""6144""
","""event"",""trial"",""time""
""fullscreenexit"",""2"",""17391""
","","","-1","","","12","16357","6269","&#9789;","elianto","#f73b6a7A"," ","-1","0","-10","[834.1999998092651]","1","0","4","","","","","","","",""
"pit-trial","86","916293","0.0-2.0-17.1-0.1","battery-v0.2","","""event"",""trial"",""time""
""fullscreenenter"",""1"",""6144""
""fullscreenexit"",""2"",""17391""
""blur"",""2"",""20489""
""focus"",""2"",""143635""
","""event"",""trial"",""time""
""blur"",""2"",""20489""
","""event"",""trial"",""time""
""focus"",""2"",""143635""
","""event"",""trial"",""time""
""fullscreenenter"",""1"",""6144""
","""event"",""trial"",""time""
""fullscreenexit"",""2"",""17391""
","","","356.8999996185303","","","12","16357","6269","&#9789;","elianto","#f73b6a7A"," "," ","1","0","[1208.5]","1","0","4","","","","","","","",""
"pit-trial","87","919410","0.0-2.0-17.1-1.1","battery-v0.2","","""event"",""trial"",""time""
""fullscreenenter"",""1"",""6144""
""fullscreenexit"",""2"",""17391""
""blur"",""2"",""20489""
""focus"",""2"",""143635""
","""event"",""trial"",""time""
""blur"",""2"",""20489""
","""event"",""trial"",""time""
""focus"",""2"",""143635""
","""event"",""trial"",""time""
""fullscreenenter"",""1"",""6144""
","""event"",""trial"",""time""
""fullscreenexit"",""2"",""17391""
","","","254.39999961853027","","","12","16357","6269","&#9789;","elianto","#f73b6a7A"," "," ","1","0","[1104.7999992370605]","1","0","4","","","","","","","",""
"pit-trial","88","922695","0.0-2.0-17.1-2.1","battery-v0.2","","""event"",""trial"",""time""
""fullscreenenter"",""1"",""6144""
""fullscreenexit"",""2"",""17391""
""blur"",""2"",""20489""
""focus"",""2"",""143635""
","""event"",""trial"",""time""
""blur"",""2"",""20489""
","""event"",""trial"",""time""
""focus"",""2"",""143635""
","""event"",""trial"",""time""
""fullscreenenter"",""1"",""6144""
","""event"",""trial"",""time""
""fullscreenexit"",""2"",""17391""
","","","413.4000005722046","","","12","16357","6269","&#9789;","elianto","#f73b6a7A"," "," ","1","0","[1270.4000005722046]","1","0","4","","","","","","","",""
"pit-trial","89","926470","0.0-2.0-17.1-3.1","battery-v0.2","","""event"",""trial"",""time""
""fullscreenenter"",""1"",""6144""
""fullscreenexit"",""2"",""17391""
""blur"",""2"",""20489""
""focus"",""2"",""143635""
","""event"",""trial"",""time""
""blur"",""2"",""20489""
","""event"",""trial"",""time""
""focus"",""2"",""143635""
","""event"",""trial"",""time""
""fullscreenenter"",""1"",""6144""
","""event"",""trial"",""time""
""fullscreenexit"",""2"",""17391""
","","","915.8999996185303","","","12","16357","6269","&#9789;","elianto","#f73b6a7A"," "," ","1","-10","[1772.3000001907349]","1","0","4","","","","","","","",""
"pit-trial","90","929692","0.0-2.0-17.1-4.1","battery-v0.2","","""event"",""trial"",""time""
""fullscreenenter"",""1"",""6144""
""fullscreenexit"",""2"",""17391""
""blur"",""2"",""20489""
""focus"",""2"",""143635""
","""event"",""trial"",""time""
""blur"",""2"",""20489""
","""event"",""trial"",""time""
""focus"",""2"",""143635""
","""event"",""trial"",""time""
""fullscreenenter"",""1"",""6144""
","""event"",""trial"",""time""
""fullscreenexit"",""2"",""17391""
","","","369.30000019073486","","","12","16357","6269","&#9789;","elianto","#f73b6a7A"," "," ","1","0","[1219.3000001907349]","1","0","4","","","","","","","",""
"pit-trial","91","932942","0.0-2.0-17.2-0.2","battery-v0.2","","""event"",""trial"",""time""
""fullscreenenter"",""1"",""6144""
""fullscreenexit"",""2"",""17391""
""blur"",""2"",""20489""
""focus"",""2"",""143635""
","""event"",""trial"",""time""
""blur"",""2"",""20489""
","""event"",""trial"",""time""
""focus"",""2"",""143635""
","""event"",""trial"",""time""
""fullscreenenter"",""1"",""6144""
","""event"",""trial"",""time""
""fullscreenexit"",""2"",""17391""
","","","395.30000019073486","","","12","16357","6269","&#9789;","elianto","#f73b6a7A"," "," ","1","0","[1246.3999996185303]","1","0","4","","","","","","","",""
"pit-trial","92","936118","0.0-2.0-17.2-1.2","battery-v0.2","","""event"",""trial"",""time""
""fullscreenenter"",""1"",""6144""
""fullscreenexit"",""2"",""17391""
""blur"",""2"",""20489""
""focus"",""2"",""143635""
","""event"",""trial"",""time""
""blur"",""2"",""20489""
","""event"",""trial"",""time""
""focus"",""2"",""143635""
","""event"",""trial"",""time""
""fullscreenenter"",""1"",""6144""
","""event"",""trial"",""time""
""fullscreenexit"",""2"",""17391""
","","","322.30000019073486","","","12","16357","6269","&#9789;","elianto","#f73b6a7A"," "," ","1","0","[1172.5999994277954]","1","0","4","","","","","","","",""
"pit-trial","93","939259","0.0-2.0-17.2-2.2","battery-v0.2","","""event"",""trial"",""time""
""fullscreenenter"",""1"",""6144""
""fullscreenexit"",""2"",""17391""
""blur"",""2"",""20489""
""focus"",""2"",""143635""
","""event"",""trial"",""time""
""blur"",""2"",""20489""
","""event"",""trial"",""time""
""focus"",""2"",""143635""
","""event"",""trial"",""time""
""fullscreenenter"",""1"",""6144""
","""event"",""trial"",""time""
""fullscreenexit"",""2"",""17391""
","","","288","","","12","16357","6269","&#9789;","elianto","#f73b6a7A"," "," ","1","0","[1138.3999996185303]","1","0","4","","","","","","","",""
"pit-trial","94","942379","0.0-2.0-17.2-3.2","battery-v0.2","","""event"",""trial"",""time""
""fullscreenenter"",""1"",""6144""
""fullscreenexit"",""2"",""17391""
""blur"",""2"",""20489""
""focus"",""2"",""143635""
","""event"",""trial"",""time""
""blur"",""2"",""20489""
","""event"",""trial"",""time""
""focus"",""2"",""143635""
","""event"",""trial"",""time""
""fullscreenenter"",""1"",""6144""
","""event"",""trial"",""time""
""fullscreenexit"",""2"",""17391""
","","","265.3999996185303","","","12","16357","6269","&#9789;","elianto","#f73b6a7A"," "," ","1","-10","[1116.6999998092651]","1","0","4","","","","","","","",""
"pit-trial","95","945946","0.0-2.0-17.2-4.2","battery-v0.2","","""event"",""trial"",""time""
""fullscreenenter"",""1"",""6144""
""fullscreenexit"",""2"",""17391""
""blur"",""2"",""20489""
""focus"",""2"",""143635""
","""event"",""trial"",""time""
""blur"",""2"",""20489""
","""event"",""trial"",""time""
""focus"",""2"",""143635""
","""event"",""trial"",""time""
""fullscreenenter"",""1"",""6144""
","""event"",""trial"",""time""
""fullscreenexit"",""2"",""17391""
","","","713.6999998092651","","","12","16357","6269","&#9789;","elianto","#f73b6a7A"," "," ","1","0","[1564.6999998092651]","1","0","4","","","","","","","",""
"pit-trial","96","949303","0.0-2.0-17.3-0.3","battery-v0.2","","""event"",""trial"",""time""
""fullscreenenter"",""1"",""6144""
""fullscreenexit"",""2"",""17391""
""blur"",""2"",""20489""
""focus"",""2"",""143635""
","""event"",""trial"",""time""
""blur"",""2"",""20489""
","""event"",""trial"",""time""
""focus"",""2"",""143635""
","""event"",""trial"",""time""
""fullscreenenter"",""1"",""6144""
","""event"",""trial"",""time""
""fullscreenexit"",""2"",""17391""
","","","503.5","","","12","16357","6269","&#9789;","elianto","#f73b6a7A"," "," ","1","0","[1353.6999998092651]","1","0","4","","","","","","","",""
"pit-trial","97","952739","0.0-2.0-17.3-1.3","battery-v0.2","","""event"",""trial"",""time""
""fullscreenenter"",""1"",""6144""
""fullscreenexit"",""2"",""17391""
""blur"",""2"",""20489""
""focus"",""2"",""143635""
","""event"",""trial"",""time""
""blur"",""2"",""20489""
","""event"",""trial"",""time""
""focus"",""2"",""143635""
","""event"",""trial"",""time""
""fullscreenenter"",""1"",""6144""
","""event"",""trial"",""time""
""fullscreenexit"",""2"",""17391""
","","","582.7999992370605","","","12","16357","6269","&#9789;","elianto","#f73b6a7A"," "," ","1","0","[1433.3999996185303]","1","0","4","","","","","","","",""
"pit-trial","98","956052","0.0-2.0-17.3-2.3","battery-v0.2","","""event"",""trial"",""time""
""fullscreenenter"",""1"",""6144""
""fullscreenexit"",""2"",""17391""
""blur"",""2"",""20489""
""focus"",""2"",""143635""
","""event"",""trial"",""time""
""blur"",""2"",""20489""
","""event"",""trial"",""time""
""focus"",""2"",""143635""
","""event"",""trial"",""time""
""fullscreenenter"",""1"",""6144""
","""event"",""trial"",""time""
""fullscreenexit"",""2"",""17391""
","","","458.8999996185303","","","12","16357","6269","&#9789;","elianto","#f73b6a7A"," "," ","1","0","[1310.7999992370605]","1","0","4","","","","","","","",""
"pit-trial","99","959019","0.0-2.0-17.3-3.3","battery-v0.2","","""event"",""trial"",""time""
""fullscreenenter"",""1"",""6144""
""fullscreenexit"",""2"",""17391""
""blur"",""2"",""20489""
""focus"",""2"",""143635""
","""event"",""trial"",""time""
""blur"",""2"",""20489""
","""event"",""trial"",""time""
""focus"",""2"",""143635""
","""event"",""trial"",""time""
""fullscreenenter"",""1"",""6144""
","""event"",""trial"",""time""
""fullscreenexit"",""2"",""17391""
","","","112.80000019073486","","","12","16357","6269","&#9789;","elianto","#f73b6a7A"," "," ","1","-10","[964.1000003814697]","1","0","4","","","","","","","",""
"pit-trial","100","962143","0.0-2.0-17.3-4.3","battery-v0.2","","""event"",""trial"",""time""
""fullscreenenter"",""1"",""6144""
""fullscreenexit"",""2"",""17391""
""blur"",""2"",""20489""
""focus"",""2"",""143635""
","""event"",""trial"",""time""
""blur"",""2"",""20489""
","""event"",""trial"",""time""
""focus"",""2"",""143635""
","""event"",""trial"",""time""
""fullscreenenter"",""1"",""6144""
","""event"",""trial"",""time""
""fullscreenexit"",""2"",""17391""
","","","269.80000019073486","","","12","16357","6269","&#9789;","elianto","#f73b6a7A"," "," ","1","0","[1120.3999996185303]","1","0","4","","","","","","","",""
"call-function","101","962145","0.0-2.0-18.0","battery-v0.2","","""event"",""trial"",""time""
""fullscreenenter"",""1"",""6144""
""fullscreenexit"",""2"",""17391""
""blur"",""2"",""20489""
""focus"",""2"",""143635""
","""event"",""trial"",""time""
""blur"",""2"",""20489""
","""event"",""trial"",""time""
""focus"",""2"",""143635""
","""event"",""trial"",""time""
""fullscreenenter"",""1"",""6144""
","""event"",""trial"",""time""
""fullscreenexit"",""2"",""17391""
","","","","","","","","","","","","","","","","","","","","","","","","","","",""
"pit-instructions","102","1032377","0.0-2.0-19.0","battery-v0.2","","""event"",""trial"",""time""
""fullscreenenter"",""1"",""6144""
""fullscreenexit"",""2"",""17391""
""blur"",""2"",""20489""
""focus"",""2"",""143635""
","""event"",""trial"",""time""
""blur"",""2"",""20489""
","""event"",""trial"",""time""
""focus"",""2"",""143635""
","""event"",""trial"",""time""
""fullscreenenter"",""1"",""6144""
","""event"",""trial"",""time""
""fullscreenexit"",""2"",""17391""
","","[{""page_index"":0,""viewing_time"":6859.400000572205},{""page_index"":1,""viewing_time"":6102.5},{""page_index"":2,""viewing_time"":14298.099999427795},{""page_index"":3,""viewing_time"":7586.800000190735},{""page_index"":4,""viewing_time"":8218},{""page_index"":5,""viewing_time"":8354.400000572205},{""page_index"":6,""viewing_time"":7845.099999427795},{""page_index"":7,""viewing_time"":7277.300000190735},{""page_index"":8,""viewing_time"":3689.5}]","70231.5","","","","","","","","","","","","","","","","","","","","","","","",""
"pit-comprehension","103","1036943","0.0-2.0-20.0-0.0","battery-v0.2","","""event"",""trial"",""time""
""fullscreenenter"",""1"",""6144""
""fullscreenexit"",""2"",""17391""
""blur"",""2"",""20489""
""focus"",""2"",""143635""
","""event"",""trial"",""time""
""blur"",""2"",""20489""
","""event"",""trial"",""time""
""focus"",""2"",""143635""
","""event"",""trial"",""time""
""fullscreenenter"",""1"",""6144""
","""event"",""trial"",""time""
""fullscreenexit"",""2"",""17391""
","","","4561.60000038147","[""SPACE""]","0","12","16357","6269","","","","","","","","","","","","","","","","","","",""
"pit-instructions","104","1040103","0.0-2.0-20.0-1.0","battery-v0.2","","""event"",""trial"",""time""
""fullscreenenter"",""1"",""6144""
""fullscreenexit"",""2"",""17391""
""blur"",""2"",""20489""
""focus"",""2"",""143635""
","""event"",""trial"",""time""
""blur"",""2"",""20489""
","""event"",""trial"",""time""
""focus"",""2"",""143635""
","""event"",""trial"",""time""
""fullscreenenter"",""1"",""6144""
","""event"",""trial"",""time""
""fullscreenexit"",""2"",""17391""
","","[{""page_index"":0,""viewing_time"":2962.5}]","2962.800000190735","","","","","","","","","","","","","","","","","","","","","","","",""
"pit-comprehension","105","1046432","0.0-2.0-21.0-0.0","battery-v0.2","","""event"",""trial"",""time""
""fullscreenenter"",""1"",""6144""
""fullscreenexit"",""2"",""17391""
""blur"",""2"",""20489""
""focus"",""2"",""143635""
","""event"",""trial"",""time""
""blur"",""2"",""20489""
","""event"",""trial"",""time""
""focus"",""2"",""143635""
","""event"",""trial"",""time""
""fullscreenenter"",""1"",""6144""
","""event"",""trial"",""time""
""fullscreenexit"",""2"",""17391""
","","","6324.5","[""10""]","0","12","16357","6269","","","","","","","","","","","","","","","","","","",""
"pit-instructions","106","1047678","0.0-2.0-21.0-1.0","battery-v0.2","","""event"",""trial"",""time""
""fullscreenenter"",""1"",""6144""
""fullscreenexit"",""2"",""17391""
""blur"",""2"",""20489""
""focus"",""2"",""143635""
","""event"",""trial"",""time""
""blur"",""2"",""20489""
","""event"",""trial"",""time""
""focus"",""2"",""143635""
","""event"",""trial"",""time""
""fullscreenenter"",""1"",""6144""
","""event"",""trial"",""time""
""fullscreenexit"",""2"",""17391""
","","[{""page_index"":0,""viewing_time"":1208}]","1208.3999996185303","","","","","","","","","","","","","","","","","","","","","","","",""
"pit-comprehension","107","1054077","0.0-2.0-22.0-0.0","battery-v0.2","","""event"",""trial"",""time""
""fullscreenenter"",""1"",""6144""
""fullscreenexit"",""2"",""17391""
""blur"",""2"",""20489""
""focus"",""2"",""143635""
","""event"",""trial"",""time""
""blur"",""2"",""20489""
","""event"",""trial"",""time""
""focus"",""2"",""143635""
","""event"",""trial"",""time""
""fullscreenenter"",""1"",""6144""
","""event"",""trial"",""time""
""fullscreenexit"",""2"",""17391""
","","","6394.700000762939","[""0""]","0","12","16357","6269","","","","","","","","","","","","","","","","","","",""
"pit-instructions","108","1055364","0.0-2.0-22.0-1.0","battery-v0.2","","""event"",""trial"",""time""
""fullscreenenter"",""1"",""6144""
""fullscreenexit"",""2"",""17391""
""blur"",""2"",""20489""
""focus"",""2"",""143635""
","""event"",""trial"",""time""
""blur"",""2"",""20489""
","""event"",""trial"",""time""
""focus"",""2"",""143635""
","""event"",""trial"",""time""
""fullscreenenter"",""1"",""6144""
","""event"",""trial"",""time""
""fullscreenexit"",""2"",""17391""
","","[{""page_index"":0,""viewing_time"":1236.5}]","1236.6999998092651","","","","","","","","","","","","","","","","","","","","","","","",""
"pit-comprehension","109","1065228","0.0-2.0-23.0-0.0","battery-v0.2","","""event"",""trial"",""time""
""fullscreenenter"",""1"",""6144""
""fullscreenexit"",""2"",""17391""
""blur"",""2"",""20489""
""focus"",""2"",""143635""
","""event"",""trial"",""time""
""blur"",""2"",""20489""
","""event"",""trial"",""time""
""focus"",""2"",""143635""
","""event"",""trial"",""time""
""fullscreenenter"",""1"",""6144""
","""event"",""trial"",""time""
""fullscreenexit"",""2"",""17391""
","","","9859.5","[""True""]","0","12","16357","6269","","","","","","","","","","","","","","","","","","",""
"pit-instructions","110","1066593","0.0-2.0-23.0-1.0","battery-v0.2","","""event"",""trial"",""time""
""fullscreenenter"",""1"",""6144""
""fullscreenexit"",""2"",""17391""
""blur"",""2"",""20489""
""focus"",""2"",""143635""
""blur"",""111"",""1068758""
""focus"",""111"",""1071193""
","""event"",""trial"",""time""
""blur"",""2"",""20489""
""blur"",""111"",""1068758""
","""event"",""trial"",""time""
""focus"",""2"",""143635""
""focus"",""111"",""1071193""
","""event"",""trial"",""time""
""fullscreenenter"",""1"",""6144""
","""event"",""trial"",""time""
""fullscreenexit"",""2"",""17391""
","","[{""page_index"":0,""viewing_time"":1327.8000001907349}]","1327.8999996185303","","","","","","","","","","","","","","","","","","","","","","","",""
"pit-comprehension","111","1073618","0.0-2.0-24.0-0.0","battery-v0.2","","""event"",""trial"",""time""
""fullscreenenter"",""1"",""6144""
""fullscreenexit"",""2"",""17391""
""blur"",""2"",""20489""
""focus"",""2"",""143635""
""blur"",""111"",""1068758""
""focus"",""111"",""1071193""
","""event"",""trial"",""time""
""blur"",""2"",""20489""
""blur"",""111"",""1068758""
","""event"",""trial"",""time""
""focus"",""2"",""143635""
""focus"",""111"",""1071193""
","""event"",""trial"",""time""
""fullscreenenter"",""1"",""6144""
","""event"",""trial"",""time""
""fullscreenexit"",""2"",""17391""
","","","7021.800000190735","[""True""]","0","12","16357","6269","","","","","","","","","","","","","","","","","","",""
"pit-instructions","112","1074677","0.0-2.0-24.0-1.0","battery-v0.2","","""event"",""trial"",""time""
""fullscreenenter"",""1"",""6144""
""fullscreenexit"",""2"",""17391""
""blur"",""2"",""20489""
""focus"",""2"",""143635""
""blur"",""111"",""1068758""
""focus"",""111"",""1071193""
","""event"",""trial"",""time""
""blur"",""2"",""20489""
""blur"",""111"",""1068758""
","""event"",""trial"",""time""
""focus"",""2"",""143635""
""focus"",""111"",""1071193""
","""event"",""trial"",""time""
""fullscreenenter"",""1"",""6144""
","""event"",""trial"",""time""
""fullscreenexit"",""2"",""17391""
","","[{""page_index"":0,""viewing_time"":1012.8000001907349}]","1013.1000003814697","","","","","","","","","","","","","","","","","","","","","","","",""
"pit-comprehension","113","1080932","0.0-2.0-25.0-0.0","battery-v0.2","","""event"",""trial"",""time""
""fullscreenenter"",""1"",""6144""
""fullscreenexit"",""2"",""17391""
""blur"",""2"",""20489""
""focus"",""2"",""143635""
""blur"",""111"",""1068758""
""focus"",""111"",""1071193""
","""event"",""trial"",""time""
""blur"",""2"",""20489""
""blur"",""111"",""1068758""
","""event"",""trial"",""time""
""focus"",""2"",""143635""
""focus"",""111"",""1071193""
","""event"",""trial"",""time""
""fullscreenenter"",""1"",""6144""
","""event"",""trial"",""time""
""fullscreenexit"",""2"",""17391""
","","","6251.699999809265","[""True""]","0","12","16357","6269","","","","","","","","","","","","","","","","","","",""
"pit-instructions","114","1081981","0.0-2.0-25.0-1.0","battery-v0.2","","""event"",""trial"",""time""
""fullscreenenter"",""1"",""6144""
""fullscreenexit"",""2"",""17391""
""blur"",""2"",""20489""
""focus"",""2"",""143635""
""blur"",""111"",""1068758""
""focus"",""111"",""1071193""
","""event"",""trial"",""time""
""blur"",""2"",""20489""
""blur"",""111"",""1068758""
","""event"",""trial"",""time""
""focus"",""2"",""143635""
""focus"",""111"",""1071193""
","""event"",""trial"",""time""
""fullscreenenter"",""1"",""6144""
","""event"",""trial"",""time""
""fullscreenexit"",""2"",""17391""
","","[{""page_index"":0,""viewing_time"":1008.8999996185303}]","1009.1999998092651","","","","","","","","","","","","","","","","","","","","","","","",""
"pit-comprehension","115","1086707","0.0-2.0-26.0-0.0","battery-v0.2","","""event"",""trial"",""time""
""fullscreenenter"",""1"",""6144""
""fullscreenexit"",""2"",""17391""
""blur"",""2"",""20489""
""focus"",""2"",""143635""
""blur"",""111"",""1068758""
""focus"",""111"",""1071193""
","""event"",""trial"",""time""
""blur"",""2"",""20489""
""blur"",""111"",""1068758""
","""event"",""trial"",""time""
""focus"",""2"",""143635""
""focus"",""111"",""1071193""
","""event"",""trial"",""time""
""fullscreenenter"",""1"",""6144""
","""event"",""trial"",""time""
""fullscreenexit"",""2"",""17391""
","","","4721.400000572205","[""False""]","0","12","16357","6269","","","","","","","","","","","","","","","","","","",""
"pit-instructions","116","1087914","0.0-2.0-26.0-1.0","battery-v0.2","","""event"",""trial"",""time""
""fullscreenenter"",""1"",""6144""
""fullscreenexit"",""2"",""17391""
""blur"",""2"",""20489""
""focus"",""2"",""143635""
""blur"",""111"",""1068758""
""focus"",""111"",""1071193""
","""event"",""trial"",""time""
""blur"",""2"",""20489""
""blur"",""111"",""1068758""
","""event"",""trial"",""time""
""focus"",""2"",""143635""
""focus"",""111"",""1071193""
","""event"",""trial"",""time""
""fullscreenenter"",""1"",""6144""
","""event"",""trial"",""time""
""fullscreenexit"",""2"",""17391""
","","[{""page_index"":0,""viewing_time"":1155.3000001907349}]","1155.5","","","","","","","","","","","","","","","","","","","","","","","",""
"pit-instructions","117","1104651","0.0-3.0","battery-v0.2","","""event"",""trial"",""time""
""fullscreenenter"",""1"",""6144""
""fullscreenexit"",""2"",""17391""
""blur"",""2"",""20489""
""focus"",""2"",""143635""
""blur"",""111"",""1068758""
""focus"",""111"",""1071193""
","""event"",""trial"",""time""
""blur"",""2"",""20489""
""blur"",""111"",""1068758""
","""event"",""trial"",""time""
""focus"",""2"",""143635""
""focus"",""111"",""1071193""
","""event"",""trial"",""time""
""fullscreenenter"",""1"",""6144""
","""event"",""trial"",""time""
""fullscreenexit"",""2"",""17391""
","","[{""page_index"":0,""viewing_time"":4577.39999961853},{""page_index"":1,""viewing_time"":5189.300000190735},{""page_index"":2,""viewing_time"":6968.5}]","16735.5","","","","","","","","","","","","","","","","","","","","","","","",""
"pit-trial","118","1108167","0.0-4.0","battery-v0.2","","""event"",""trial"",""time""
""fullscreenenter"",""1"",""6144""
""fullscreenexit"",""2"",""17391""
""blur"",""2"",""20489""
""focus"",""2"",""143635""
""blur"",""111"",""1068758""
""focus"",""111"",""1071193""
","""event"",""trial"",""time""
""blur"",""2"",""20489""
""blur"",""111"",""1068758""
","""event"",""trial"",""time""
""focus"",""2"",""143635""
""focus"",""111"",""1071193""
","""event"",""trial"",""time""
""fullscreenenter"",""1"",""6144""
","""event"",""trial"",""time""
""fullscreenexit"",""2"",""17391""
","","","623.7000007629395","","","12","16357","6269","&#9730;","elianto","#3366ff99"," "," ","1","0","[1483]","1","1","","","16357","1","1","1","win","go","1"
"pit-trial","119","1111763","0.0-5.0","battery-v0.2","","""event"",""trial"",""time""
""fullscreenenter"",""1"",""6144""
""fullscreenexit"",""2"",""17391""
""blur"",""2"",""20489""
""focus"",""2"",""143635""
""blur"",""111"",""1068758""
""focus"",""111"",""1071193""
","""event"",""trial"",""time""
""blur"",""2"",""20489""
""blur"",""111"",""1068758""
","""event"",""trial"",""time""
""focus"",""2"",""143635""
""focus"",""111"",""1071193""
","""event"",""trial"",""time""
""fullscreenenter"",""1"",""6144""
","""event"",""trial"",""time""
""fullscreenexit"",""2"",""17391""
","","","728.5","","","12","16357","6269","&#9728;","elianto","#f73b6a7A","-1"," ","0","-10","[1583.8000001907349]","1","1","","","16357","2","0","4","lose","no-go","0"
"pit-trial","120","1115385","0.0-6.0","battery-v0.2","","""event"",""trial"",""time""
""fullscreenenter"",""1"",""6144""
""fullscreenexit"",""2"",""17391""
""blur"",""2"",""20489""
""focus"",""2"",""143635""
""blur"",""111"",""1068758""
""focus"",""111"",""1071193""
","""event"",""trial"",""time""
""blur"",""2"",""20489""
""blur"",""111"",""1068758""
","""event"",""trial"",""time""
""focus"",""2"",""143635""
""focus"",""111"",""1071193""
","""event"",""trial"",""time""
""fullscreenenter"",""1"",""6144""
","""event"",""trial"",""time""
""fullscreenexit"",""2"",""17391""
","","","762.3999996185303","","","12","16357","6269","&#9733;","elianto","#3366ff99","-1"," ","0","0","[1618.7999992370605]","1","1","","","16357","3","2","2","win","no-go","0"
"pit-trial","121","1118916","0.0-7.0","battery-v0.2","","""event"",""trial"",""time""
""fullscreenenter"",""1"",""6144""
""fullscreenexit"",""2"",""17391""
""blur"",""2"",""20489""
""focus"",""2"",""143635""
""blur"",""111"",""1068758""
""focus"",""111"",""1071193""
","""event"",""trial"",""time""
""blur"",""2"",""20489""
""blur"",""111"",""1068758""
","""event"",""trial"",""time""
""focus"",""2"",""143635""
""focus"",""111"",""1071193""
","""event"",""trial"",""time""
""fullscreenenter"",""1"",""6144""
","""event"",""trial"",""time""
""fullscreenexit"",""2"",""17391""
","","","651.1999998092651","","","12","16357","6269","&#9752;","elianto","#f73b6a7A"," "," ","1","0","[1514.6999998092651]","1","1","","","16357","4","3","3","lose","go","0"
"pit-trial","122","1122600","0.0-8.0","battery-v0.2","","""event"",""trial"",""time""
""fullscreenenter"",""1"",""6144""
""fullscreenexit"",""2"",""17391""
""blur"",""2"",""20489""
""focus"",""2"",""143635""
""blur"",""111"",""1068758""
""focus"",""111"",""1071193""
","""event"",""trial"",""time""
""blur"",""2"",""20489""
""blur"",""111"",""1068758""
","""event"",""trial"",""time""
""focus"",""2"",""143635""
""focus"",""111"",""1071193""
","""event"",""trial"",""time""
""fullscreenenter"",""1"",""6144""
","""event"",""trial"",""time""
""fullscreenexit"",""2"",""17391""
","","","803.6999998092651","","","12","16357","6269","&#9730;","elianto","#3366ff99"," "," ","1","+10","[1667]","1","1","","","16357","5","1","1","win","go","0"
"pit-trial","123","1126098","0.0-9.0","battery-v0.2","","""event"",""trial"",""time""
""fullscreenenter"",""1"",""6144""
""fullscreenexit"",""2"",""17391""
""blur"",""2"",""20489""
""focus"",""2"",""143635""
""blur"",""111"",""1068758""
""focus"",""111"",""1071193""
","""event"",""trial"",""time""
""blur"",""2"",""20489""
""blur"",""111"",""1068758""
","""event"",""trial"",""time""
""focus"",""2"",""143635""
""focus"",""111"",""1071193""
","""event"",""trial"",""time""
""fullscreenenter"",""1"",""6144""
","""event"",""trial"",""time""
""fullscreenexit"",""2"",""17391""
","","","640.3000001907349","","","12","16357","6269","&#9752;","elianto","#f73b6a7A"," "," ","1","0","[1495.5]","1","1","","","16357","6","3","3","lose","go","0"
"pit-trial","124","1129650","0.0-10.0","battery-v0.2","","""event"",""trial"",""time""
""fullscreenenter"",""1"",""6144""
""fullscreenexit"",""2"",""17391""
""blur"",""2"",""20489""
""focus"",""2"",""143635""
""blur"",""111"",""1068758""
""focus"",""111"",""1071193""
","""event"",""trial"",""time""
""blur"",""2"",""20489""
""blur"",""111"",""1068758""
","""event"",""trial"",""time""
""focus"",""2"",""143635""
""focus"",""111"",""1071193""
","""event"",""trial"",""time""
""fullscreenenter"",""1"",""6144""
","""event"",""trial"",""time""
""fullscreenexit"",""2"",""17391""
","","","677.5999994277954","","","12","16357","6269","&#9733;","elianto","#3366ff99","-1"," ","0","0","[1536.6999998092651]","1","1","","","16357","7","2","2","win","no-go","0"
"pit-trial","125","1133253","0.0-11.0","battery-v0.2","","""event"",""trial"",""time""
""fullscreenenter"",""1"",""6144""
""fullscreenexit"",""2"",""17391""
""blur"",""2"",""20489""
""focus"",""2"",""143635""
""blur"",""111"",""1068758""
""focus"",""111"",""1071193""
","""event"",""trial"",""time""
""blur"",""2"",""20489""
""blur"",""111"",""1068758""
","""event"",""trial"",""time""
""focus"",""2"",""143635""
""focus"",""111"",""1071193""
","""event"",""trial"",""time""
""fullscreenenter"",""1"",""6144""
","""event"",""trial"",""time""
""fullscreenexit"",""2"",""17391""
","","","743.0999994277954","","","12","16357","6269","&#9728;","elianto","#f73b6a7A","-1"," ","0","-10","[1596.3999996185303]","1","1","","","16357","8","0","4","lose","no-go","0"
"pit-trial","126","1138105","0.0-12.0","battery-v0.2","","""event"",""trial"",""time""
""fullscreenenter"",""1"",""6144""
""fullscreenexit"",""2"",""17391""
""blur"",""2"",""20489""
""focus"",""2"",""143635""
""blur"",""111"",""1068758""
""focus"",""111"",""1071193""
","""event"",""trial"",""time""
""blur"",""2"",""20489""
""blur"",""111"",""1068758""
","""event"",""trial"",""time""
""focus"",""2"",""143635""
""focus"",""111"",""1071193""
","""event"",""trial"",""time""
""fullscreenenter"",""1"",""6144""
","""event"",""trial"",""time""
""fullscreenexit"",""2"",""17391""
","","","-1","","","12","16357","6269","&#9728;","elianto","#f73b6a7A","-1","-1","1","-10","[]","0","1","","","16357","9","0","4","lose","no-go","1"
"pit-trial","127","1142959","0.0-13.0","battery-v0.2","","""event"",""trial"",""time""
""fullscreenenter"",""1"",""6144""
""fullscreenexit"",""2"",""17391""
""blur"",""2"",""20489""
""focus"",""2"",""143635""
""blur"",""111"",""1068758""
""focus"",""111"",""1071193""
","""event"",""trial"",""time""
""blur"",""2"",""20489""
""blur"",""111"",""1068758""
","""event"",""trial"",""time""
""focus"",""2"",""143635""
""focus"",""111"",""1071193""
","""event"",""trial"",""time""
""fullscreenenter"",""1"",""6144""
","""event"",""trial"",""time""
""fullscreenexit"",""2"",""17391""
","","","-1","","","12","16357","6269","&#9730;","elianto","#3366ff99"," ","-1","0","0","[]","0","1","","","16357","10","1","1","win","go","0"
"pit-trial","128","1147812","0.0-14.0","battery-v0.2","","""event"",""trial"",""time""
""fullscreenenter"",""1"",""6144""
""fullscreenexit"",""2"",""17391""
""blur"",""2"",""20489""
""focus"",""2"",""143635""
""blur"",""111"",""1068758""
""focus"",""111"",""1071193""
","""event"",""trial"",""time""
""blur"",""2"",""20489""
""blur"",""111"",""1068758""
","""event"",""trial"",""time""
""focus"",""2"",""143635""
""focus"",""111"",""1071193""
","""event"",""trial"",""time""
""fullscreenenter"",""1"",""6144""
","""event"",""trial"",""time""
""fullscreenexit"",""2"",""17391""
","","","-1","","","12","16357","6269","&#9733;","elianto","#3366ff99","-1","-1","1","+10","[]","0","1","","","16357","11","2","2","win","no-go","0"
"pit-trial","129","1151677","0.0-15.0","battery-v0.2","","""event"",""trial"",""time""
""fullscreenenter"",""1"",""6144""
""fullscreenexit"",""2"",""17391""
""blur"",""2"",""20489""
""focus"",""2"",""143635""
""blur"",""111"",""1068758""
""focus"",""111"",""1071193""
","""event"",""trial"",""time""
""blur"",""2"",""20489""
""blur"",""111"",""1068758""
","""event"",""trial"",""time""
""focus"",""2"",""143635""
""focus"",""111"",""1071193""
","""event"",""trial"",""time""
""fullscreenenter"",""1"",""6144""
","""event"",""trial"",""time""
""fullscreenexit"",""2"",""17391""
","","","1012.7000007629395","","","12","16357","6269","&#9752;","elianto","#f73b6a7A"," "," ","1","0","[1863.4000005722046]","1","1","","","16357","12","3","3","lose","go","0"
"pit-trial","130","1155129","0.0-16.0","battery-v0.2","","""event"",""trial"",""time""
""fullscreenenter"",""1"",""6144""
""fullscreenexit"",""2"",""17391""
""blur"",""2"",""20489""
""focus"",""2"",""143635""
""blur"",""111"",""1068758""
""focus"",""111"",""1071193""
","""event"",""trial"",""time""
""blur"",""2"",""20489""
""blur"",""111"",""1068758""
","""event"",""trial"",""time""
""focus"",""2"",""143635""
""focus"",""111"",""1071193""
","""event"",""trial"",""time""
""fullscreenenter"",""1"",""6144""
","""event"",""trial"",""time""
""fullscreenexit"",""2"",""17391""
","","","598.3000001907349","","","12","16357","6269","&#9730;","elianto","#3366ff99"," "," ","1","0","[1448.8000001907349]","1","1","","","16357","13","1","1","win","go","1"
"pit-trial","131","1159982","0.0-17.0","battery-v0.2","","""event"",""trial"",""time""
""fullscreenenter"",""1"",""6144""
""fullscreenexit"",""2"",""17391""
""blur"",""2"",""20489""
""focus"",""2"",""143635""
""blur"",""111"",""1068758""
""focus"",""111"",""1071193""
","""event"",""trial"",""time""
""blur"",""2"",""20489""
""blur"",""111"",""1068758""
","""event"",""trial"",""time""
""focus"",""2"",""143635""
""focus"",""111"",""1071193""
","""event"",""trial"",""time""
""fullscreenenter"",""1"",""6144""
","""event"",""trial"",""time""
""fullscreenexit"",""2"",""17391""
","","","-1","","","12","16357","6269","&#9728;","elianto","#f73b6a7A","-1","-1","1","0","[]","0","1","","","16357","14","0","4","lose","no-go","0"
"pit-trial","132","1164836","0.0-18.0","battery-v0.2","","""event"",""trial"",""time""
""fullscreenenter"",""1"",""6144""
""fullscreenexit"",""2"",""17391""
""blur"",""2"",""20489""
""focus"",""2"",""143635""
""blur"",""111"",""1068758""
""focus"",""111"",""1071193""
","""event"",""trial"",""time""
""blur"",""2"",""20489""
""blur"",""111"",""1068758""
","""event"",""trial"",""time""
""focus"",""2"",""143635""
""focus"",""111"",""1071193""
","""event"",""trial"",""time""
""fullscreenenter"",""1"",""6144""
","""event"",""trial"",""time""
""fullscreenexit"",""2"",""17391""
","","","-1","","","12","16357","6269","&#9733;","elianto","#3366ff99","-1","-1","1","+10","[]","0","1","","","16357","15","2","2","win","no-go","0"
"pit-trial","133","1169215","0.0-19.0","battery-v0.2","","""event"",""trial"",""time""
""fullscreenenter"",""1"",""6144""
""fullscreenexit"",""2"",""17391""
""blur"",""2"",""20489""
""focus"",""2"",""143635""
""blur"",""111"",""1068758""
""focus"",""111"",""1071193""
","""event"",""trial"",""time""
""blur"",""2"",""20489""
""blur"",""111"",""1068758""
","""event"",""trial"",""time""
""focus"",""2"",""143635""
""focus"",""111"",""1071193""
","""event"",""trial"",""time""
""fullscreenenter"",""1"",""6144""
","""event"",""trial"",""time""
""fullscreenexit"",""2"",""17391""
","","","1526.5","","","12","16357","6269","&#9752;","elianto","#f73b6a7A"," "," ","1","0","[2376.8999996185303]","1","1","","","16357","16","3","3","lose","go","0"
"pit-trial","134","1174069","0.0-20.0","battery-v0.2","","""event"",""trial"",""time""
""fullscreenenter"",""1"",""6144""
""fullscreenexit"",""2"",""17391""
""blur"",""2"",""20489""
""focus"",""2"",""143635""
""blur"",""111"",""1068758""
""focus"",""111"",""1071193""
","""event"",""trial"",""time""
""blur"",""2"",""20489""
""blur"",""111"",""1068758""
","""event"",""trial"",""time""
""focus"",""2"",""143635""
""focus"",""111"",""1071193""
","""event"",""trial"",""time""
""fullscreenenter"",""1"",""6144""
","""event"",""trial"",""time""
""fullscreenexit"",""2"",""17391""
","","","-1","","","12","16357","6269","&#9752;","elianto","#f73b6a7A"," ","-1","0","-10","[]","0","1","","","16357","17","3","3","lose","go","0"
"pit-trial","135","1177549","0.0-21.0","battery-v0.2","","""event"",""trial"",""time""
""fullscreenenter"",""1"",""6144""
""fullscreenexit"",""2"",""17391""
""blur"",""2"",""20489""
""focus"",""2"",""143635""
""blur"",""111"",""1068758""
""focus"",""111"",""1071193""
","""event"",""trial"",""time""
""blur"",""2"",""20489""
""blur"",""111"",""1068758""
","""event"",""trial"",""time""
""focus"",""2"",""143635""
""focus"",""111"",""1071193""
","""event"",""trial"",""time""
""fullscreenenter"",""1"",""6144""
","""event"",""trial"",""time""
""fullscreenexit"",""2"",""17391""
","","","625.7999992370605","","","12","16357","6269","&#9730;","elianto","#3366ff99"," "," ","1","+10","[1476.6999998092651]","1","1","","","16357","18","1","1","win","go","0"
"pit-trial","136","1182405","0.0-22.0","battery-v0.2","","""event"",""trial"",""time""
""fullscreenenter"",""1"",""6144""
""fullscreenexit"",""2"",""17391""
""blur"",""2"",""20489""
""focus"",""2"",""143635""
""blur"",""111"",""1068758""
""focus"",""111"",""1071193""
","""event"",""trial"",""time""
""blur"",""2"",""20489""
""blur"",""111"",""1068758""
","""event"",""trial"",""time""
""focus"",""2"",""143635""
""focus"",""111"",""1071193""
","""event"",""trial"",""time""
""fullscreenenter"",""1"",""6144""
","""event"",""trial"",""time""
""fullscreenexit"",""2"",""17391""
","","","-1","","","12","16357","6269","&#9733;","elianto","#3366ff99","-1","-1","1","+10","[]","0","1","","","16357","19","2","2","win","no-go","0"
"pit-trial","137","1187258","0.0-23.0","battery-v0.2","","""event"",""trial"",""time""
""fullscreenenter"",""1"",""6144""
""fullscreenexit"",""2"",""17391""
""blur"",""2"",""20489""
""focus"",""2"",""143635""
""blur"",""111"",""1068758""
""focus"",""111"",""1071193""
","""event"",""trial"",""time""
""blur"",""2"",""20489""
""blur"",""111"",""1068758""
","""event"",""trial"",""time""
""focus"",""2"",""143635""
""focus"",""111"",""1071193""
","""event"",""trial"",""time""
""fullscreenenter"",""1"",""6144""
","""event"",""trial"",""time""
""fullscreenexit"",""2"",""17391""
","","","-1","","","12","16357","6269","&#9728;","elianto","#f73b6a7A","-1","-1","1","0","[]","0","1","","","16357","20","0","4","lose","no-go","0"
"pit-instructions","138","1200780","0.0-24.0","battery-v0.2","","""event"",""trial"",""time""
""fullscreenenter"",""1"",""6144""
""fullscreenexit"",""2"",""17391""
""blur"",""2"",""20489""
""focus"",""2"",""143635""
""blur"",""111"",""1068758""
""focus"",""111"",""1071193""
","""event"",""trial"",""time""
""blur"",""2"",""20489""
""blur"",""111"",""1068758""
","""event"",""trial"",""time""
""focus"",""2"",""143635""
""focus"",""111"",""1071193""
","""event"",""trial"",""time""
""fullscreenenter"",""1"",""6144""
","""event"",""trial"",""time""
""fullscreenexit"",""2"",""17391""
","","[{""page_index"":0,""viewing_time"":6319.400000572205},{""page_index"":1,""viewing_time"":7201}]","13520.699999809265","","","","","","","","","","","","","","","","","","","","","","","",""
"pit-trial","139","1205656","0.0-25.0","battery-v0.2","","""event"",""trial"",""time""
""fullscreenenter"",""1"",""6144""
""fullscreenexit"",""2"",""17391""
""blur"",""2"",""20489""
""focus"",""2"",""143635""
""blur"",""111"",""1068758""
""focus"",""111"",""1071193""
","""event"",""trial"",""time""
""blur"",""2"",""20489""
""blur"",""111"",""1068758""
","""event"",""trial"",""time""
""focus"",""2"",""143635""
""focus"",""111"",""1071193""
","""event"",""trial"",""time""
""fullscreenenter"",""1"",""6144""
","""event"",""trial"",""time""
""fullscreenexit"",""2"",""17391""
","","","-1","","","12","16357","6269","l","elianto","#3366ff99"," ","-1","0","0","[]","0","2","","","16357","21","1","1","win","go","0"
"pit-trial","140","1210526","0.0-26.0","battery-v0.2","","""event"",""trial"",""time""
""fullscreenenter"",""1"",""6144""
""fullscreenexit"",""2"",""17391""
""blur"",""2"",""20489""
""focus"",""2"",""143635""
""blur"",""111"",""1068758""
""focus"",""111"",""1071193""
","""event"",""trial"",""time""
""blur"",""2"",""20489""
""blur"",""111"",""1068758""
","""event"",""trial"",""time""
""focus"",""2"",""143635""
""focus"",""111"",""1071193""
","""event"",""trial"",""time""
""fullscreenenter"",""1"",""6144""
","""event"",""trial"",""time""
""fullscreenexit"",""2"",""17391""
","","","-1","","","12","16357","6269","g","elianto","#f73b6a7A"," ","-1","0","-10","[]","0","2","","","16357","22","3","3","lose","go","0"
"pit-trial","141","1215396","0.0-27.0","battery-v0.2","","""event"",""trial"",""time""
""fullscreenenter"",""1"",""6144""
""fullscreenexit"",""2"",""17391""
""blur"",""2"",""20489""
""focus"",""2"",""143635""
""blur"",""111"",""1068758""
""focus"",""111"",""1071193""
","""event"",""trial"",""time""
""blur"",""2"",""20489""
""blur"",""111"",""1068758""
","""event"",""trial"",""time""
""focus"",""2"",""143635""
""focus"",""111"",""1071193""
","""event"",""trial"",""time""
""fullscreenenter"",""1"",""6144""
","""event"",""trial"",""time""
""fullscreenexit"",""2"",""17391""
","","","-1","","","12","16357","6269","a","elianto","#f73b6a7A","-1","-1","1","0","[]","0","2","","","16357","23","2","4","lose","no-go","0"
"pit-trial","142","1220259","0.0-28.0","battery-v0.2","","""event"",""trial"",""time""
""fullscreenenter"",""1"",""6144""
""fullscreenexit"",""2"",""17391""
""blur"",""2"",""20489""
""focus"",""2"",""143635""
""blur"",""111"",""1068758""
""focus"",""111"",""1071193""
","""event"",""trial"",""time""
""blur"",""2"",""20489""
""blur"",""111"",""1068758""
","""event"",""trial"",""time""
""focus"",""2"",""143635""
""focus"",""111"",""1071193""
","""event"",""trial"",""time""
""fullscreenenter"",""1"",""6144""
","""event"",""trial"",""time""
""fullscreenexit"",""2"",""17391""
","","","-1","","","12","16357","6269","u","elianto","#f73b6a7A","-1","-1","1","-10","[]","0","2","","","16357","24","0","4","lose","no-go","1"
"pit-trial","143","1224289","0.0-29.0","battery-v0.2","","""event"",""trial"",""time""
""fullscreenenter"",""1"",""6144""
""fullscreenexit"",""2"",""17391""
""blur"",""2"",""20489""
""focus"",""2"",""143635""
""blur"",""111"",""1068758""
""focus"",""111"",""1071193""
","""event"",""trial"",""time""
""blur"",""2"",""20489""
""blur"",""111"",""1068758""
","""event"",""trial"",""time""
""focus"",""2"",""143635""
""focus"",""111"",""1071193""
","""event"",""trial"",""time""
""fullscreenenter"",""1"",""6144""
","""event"",""trial"",""time""
""fullscreenexit"",""2"",""17391""
","","","1169.5999994277954","","","12","16357","6269","g","elianto","#f73b6a7A"," "," ","1","-10","[2025.0999994277954]","1","2","","","16357","25","3","3","lose","go","1"
"pit-trial","144","1227943","0.0-30.0","battery-v0.2","","""event"",""trial"",""time""
""fullscreenenter"",""1"",""6144""
""fullscreenexit"",""2"",""17391""
""blur"",""2"",""20489""
""focus"",""2"",""143635""
""blur"",""111"",""1068758""
""focus"",""111"",""1071193""
","""event"",""trial"",""time""
""blur"",""2"",""20489""
""blur"",""111"",""1068758""
","""event"",""trial"",""time""
""focus"",""2"",""143635""
""focus"",""111"",""1071193""
","""event"",""trial"",""time""
""fullscreenenter"",""1"",""6144""
","""event"",""trial"",""time""
""fullscreenexit"",""2"",""17391""
","","","778.6999998092651","","","12","16357","6269","a","elianto","#f73b6a7A","-1"," ","0","-10","[1640.1999998092651]","1","2","","","16357","26","2","4","lose","no-go","0"
"pit-trial","145","1232797","0.0-31.0","battery-v0.2","","""event"",""trial"",""time""
""fullscreenenter"",""1"",""6144""
""fullscreenexit"",""2"",""17391""
""blur"",""2"",""20489""
""focus"",""2"",""143635""
""blur"",""111"",""1068758""
""focus"",""111"",""1071193""
","""event"",""trial"",""time""
""blur"",""2"",""20489""
""blur"",""111"",""1068758""
","""event"",""trial"",""time""
""focus"",""2"",""143635""
""focus"",""111"",""1071193""
","""event"",""trial"",""time""
""fullscreenenter"",""1"",""6144""
","""event"",""trial"",""time""
""fullscreenexit"",""2"",""17391""
","","","-1","","","12","16357","6269","l","elianto","#3366ff99"," ","-1","0","0","[]","0","2","","","16357","27","1","1","win","go","0"
"pit-trial","146","1237014","0.0-32.0","battery-v0.2","","""event"",""trial"",""time""
""fullscreenenter"",""1"",""6144""
""fullscreenexit"",""2"",""17391""
""blur"",""2"",""20489""
""focus"",""2"",""143635""
""blur"",""111"",""1068758""
""focus"",""111"",""1071193""
","""event"",""trial"",""time""
""blur"",""2"",""20489""
""blur"",""111"",""1068758""
","""event"",""trial"",""time""
""focus"",""2"",""143635""
""focus"",""111"",""1071193""
","""event"",""trial"",""time""
""fullscreenenter"",""1"",""6144""
","""event"",""trial"",""time""
""fullscreenexit"",""2"",""17391""
","","","1363.6999998092651","","","12","16357","6269","u","elianto","#f73b6a7A","-1"," ","0","-10","[2214.300000190735]","1","2","","","16357","28","0","4","lose","no-go","0"
"pit-trial","147","1241010","0.0-33.0","battery-v0.2","","""event"",""trial"",""time""
""fullscreenenter"",""1"",""6144""
""fullscreenexit"",""2"",""17391""
""blur"",""2"",""20489""
""focus"",""2"",""143635""
""blur"",""111"",""1068758""
""focus"",""111"",""1071193""
","""event"",""trial"",""time""
""blur"",""2"",""20489""
""blur"",""111"",""1068758""
","""event"",""trial"",""time""
""focus"",""2"",""143635""
""focus"",""111"",""1071193""
","""event"",""trial"",""time""
""fullscreenenter"",""1"",""6144""
","""event"",""trial"",""time""
""fullscreenexit"",""2"",""17391""
","","","1141.8999996185303","","","12","16357","6269","a","elianto","#f73b6a7A","-1"," ","0","-10","[1992.6999998092651]","1","2","","","16357","29","2","4","lose","no-go","0"
