"trial_type","trial_index","time_elapsed","internal_node_id","task_version","subject_id","interactions","blur_events","focus_events","fullscreenenter_events","fullscreenexit_events","success","view_history","rt","responses","num_errors","age","subject","participantId","rune","rune_set","hex","correct","choice","accuracy","outcome","keys","total_keys","block","practice","value","sub","trial","stimulus","robot","valence","action","sham"
"pavlovia","0","7","0.0-0.0","battery-v0.2","","""event"",""trial"",""time""
""fullscreenenter"",""1"",""2367""
","
","
","""event"",""trial"",""time""
""fullscreenenter"",""1"",""2367""
","
","","","","","","","","","","","","","","","","","","","","","","","","","","",""
"fullscreen","1","3361","0.0-1.0","battery-v0.2","","""event"",""trial"",""time""
""fullscreenenter"",""1"",""2367""
","
","
","""event"",""trial"",""time""
""fullscreenenter"",""1"",""2367""
","
","true","","","","","","","","","","","","","","","","","","","","","","","","","",""
"pit-instructions","2","10797","0.0-2.0-0.0","battery-v0.2","","""event"",""trial"",""time""
""fullscreenenter"",""1"",""2367""
","
","
","""event"",""trial"",""time""
""fullscreenenter"",""1"",""2367""
","
","","[{""page_index"":0,""viewing_time"":7429.5}]","7429.699999928474","","","","","","","","","","","","","","","","","","","","","","","",""
"pit-comprehension","3","14614","0.0-2.0-1.0-0.0","battery-v0.2","","""event"",""trial"",""time""
""fullscreenenter"",""1"",""2367""
","
","
","""event"",""trial"",""time""
""fullscreenenter"",""1"",""2367""
","
","","","3814.600000023842","[""shark""]","0","25","16602","2286","","","","","","","","","","","","","","","","","","",""
"pit-instructions","4","15989","0.0-2.0-1.0-1.0","battery-v0.2","","""event"",""trial"",""time""
""fullscreenenter"",""1"",""2367""
","
","
","""event"",""trial"",""time""
""fullscreenenter"",""1"",""2367""
","
","","[{""page_index"":0,""viewing_time"":1364.3999999761581}]","1364.6000000238419","","","","","","","","","","","","","","","","","","","","","","","",""
"pit-comprehension","5","19430","0.0-2.0-2.0-0.0","battery-v0.2","","""event"",""trial"",""time""
""fullscreenenter"",""1"",""2367""
","
","
","""event"",""trial"",""time""
""fullscreenenter"",""1"",""2367""
","
","","","3438.4000000953674","[""tiger""]","0","25","16602","2286","","","","","","","","","","","","","","","","","","",""
"pit-instructions","6","21405","0.0-2.0-2.0-1.0","battery-v0.2","","""event"",""trial"",""time""
""fullscreenenter"",""1"",""2367""
","
","
","""event"",""trial"",""time""
""fullscreenenter"",""1"",""2367""
","
","","[{""page_index"":0,""viewing_time"":1973.6999999284744}]","1973.7999999523163","","","","","","","","","","","","","","","","","","","","","","","",""
"pit-instructions","7","123541","0.0-2.0-3.0","battery-v0.2","","""event"",""trial"",""time""
""fullscreenenter"",""1"",""2367""
","
","
","""event"",""trial"",""time""
""fullscreenenter"",""1"",""2367""
","
","","[{""page_index"":0,""viewing_time"":10254.700000047684},{""page_index"":1,""viewing_time"":6280},{""page_index"":2,""viewing_time"":8072},{""page_index"":3,""viewing_time"":5383.899999976158},{""page_index"":4,""viewing_time"":7576.100000023842},{""page_index"":5,""viewing_time"":8311.700000047684},{""page_index"":6,""viewing_time"":7464.299999952316},{""page_index"":7,""viewing_time"":7431.899999976158},{""page_index"":8,""viewing_time"":6672.100000023842},{""page_index"":9,""viewing_time"":8967.899999976158},{""page_index"":10,""viewing_time"":7303.800000071526},{""page_index"":11,""viewing_time"":7216.199999928474},{""page_index"":12,""viewing_time"":6296},{""page_index"":13,""viewing_time"":4904}]","102134.80000007153","","","","","","","","","","","","","","","","","","","","","","","",""
"pit-trial","8","127145","0.0-2.0-4.0-0.0","battery-v0.2","","""event"",""trial"",""time""
""fullscreenenter"",""1"",""2367""
","
","
","""event"",""trial"",""time""
""fullscreenenter"",""1"",""2367""
","
","","","738","","","25","16602","2286","&#9784;","elianto","#FFFFF080"," "," ","1","&#10004","[1601.2999999523163,3095.399999976158]","2","0","0","","","","","","","",""
"pit-trial","9","130703","0.0-2.0-4.1-0.1","battery-v0.2","","""event"",""trial"",""time""
""fullscreenenter"",""1"",""2367""
","
","
","""event"",""trial"",""time""
""fullscreenenter"",""1"",""2367""
","
","","","682.9000000953674","","","25","16602","2286","&#9784;","elianto","#FFFFF080"," "," ","1","&#10004","[1537]","1","0","0","","","","","","","",""
"pit-trial","10","134322","0.0-2.0-4.2-0.2","battery-v0.2","","""event"",""trial"",""time""
""fullscreenenter"",""1"",""2367""
","
","
","""event"",""trial"",""time""
""fullscreenenter"",""1"",""2367""
","
","","","754.7999999523163","","","25","16602","2286","&#9784;","elianto","#FFFFF080"," "," ","1","&#10004","[1611.5]","1","0","0","","","","","","","",""
"pit-trial","11","137913","0.0-2.0-4.3-0.3","battery-v0.2","","""event"",""trial"",""time""
""fullscreenenter"",""1"",""2367""
","
","
","""event"",""trial"",""time""
""fullscreenenter"",""1"",""2367""
","
","","","710.8999999761581","","","25","16602","2286","&#9784;","elianto","#FFFFF080"," "," ","1","&#10004","[1568.5]","1","0","0","","","","","","","",""
"pit-trial","12","141362","0.0-2.0-4.4-0.4","battery-v0.2","","""event"",""trial"",""time""
""fullscreenenter"",""1"",""2367""
","
","
","""event"",""trial"",""time""
""fullscreenenter"",""1"",""2367""
","
","","","571.7000000476837","","","25","16602","2286","&#9784;","elianto","#FFFFF080"," "," ","1","&#10004","[1425.4000000953674]","1","0","0","","","","","","","",""
"pit-instructions","13","163477","0.0-2.0-5.0","battery-v0.2","","""event"",""trial"",""time""
""fullscreenenter"",""1"",""2367""
","
","
","""event"",""trial"",""time""
""fullscreenenter"",""1"",""2367""
","
","","[{""page_index"":0,""viewing_time"":5261.5},{""page_index"":1,""viewing_time"":6000},{""page_index"":2,""viewing_time"":4751.899999976158},{""page_index"":3,""viewing_time"":6096.100000023842}]","22109.600000023842","","","","","","","","","","","","","","","","","","","","","","","",""
"pit-trial","14","168362","0.0-2.0-6.0-0.0","battery-v0.2","","""event"",""trial"",""time""
""fullscreenenter"",""1"",""2367""
","
","
","""event"",""trial"",""time""
""fullscreenenter"",""1"",""2367""
","
","","","-1","","","25","16602","2286","&#9854;","elianto","#FFFFF080","-1","-1","1","&#10004","[]","0","0","1","","","","","","","",""
"pit-trial","15","173232","0.0-2.0-6.1-0.1","battery-v0.2","","""event"",""trial"",""time""
""fullscreenenter"",""1"",""2367""
","
","
","""event"",""trial"",""time""
""fullscreenenter"",""1"",""2367""
","
","","","-1","","","25","16602","2286","&#9854;","elianto","#FFFFF080","-1","-1","1","&#10004","[]","0","0","1","","","","","","","",""
"pit-trial","16","178102","0.0-2.0-6.2-0.2","battery-v0.2","","""event"",""trial"",""time""
""fullscreenenter"",""1"",""2367""
","
","
","""event"",""trial"",""time""
""fullscreenenter"",""1"",""2367""
","
","","","-1","","","25","16602","2286","&#9854;","elianto","#FFFFF080","-1","-1","1","&#10004","[]","0","0","1","","","","","","","",""
"pit-trial","17","182972","0.0-2.0-6.3-0.3","battery-v0.2","","""event"",""trial"",""time""
""fullscreenenter"",""1"",""2367""
","
","
","""event"",""trial"",""time""
""fullscreenenter"",""1"",""2367""
","
","","","-1","","","25","16602","2286","&#9854;","elianto","#FFFFF080","-1","-1","1","&#10004","[]","0","0","1","","","","","","","",""
"pit-trial","18","187842","0.0-2.0-6.4-0.4","battery-v0.2","","""event"",""trial"",""time""
""fullscreenenter"",""1"",""2367""
","
","
","""event"",""trial"",""time""
""fullscreenenter"",""1"",""2367""
","
","","","-1","","","25","16602","2286","&#9854;","elianto","#FFFFF080","-1","-1","1","&#10004","[]","0","0","1","","","","","","","",""
"pit-instructions","19","308909","0.0-2.0-7.0","battery-v0.2","","""event"",""trial"",""time""
""fullscreenenter"",""1"",""2367""
","
","
","""event"",""trial"",""time""
""fullscreenenter"",""1"",""2367""
","
","","[{""page_index"":0,""viewing_time"":6606.299999952316},{""page_index"":1,""viewing_time"":6951.600000023842},{""page_index"":2,""viewing_time"":6744.299999952316},{""page_index"":3,""viewing_time"":6592},{""page_index"":4,""viewing_time"":5888},{""page_index"":5,""viewing_time"":8712},{""page_index"":6,""viewing_time"":4424.400000095367},{""page_index"":7,""viewing_time"":7887.599999904633},{""page_index"":8,""viewing_time"":6935.900000095367},{""page_index"":9,""viewing_time"":6080},{""page_index"":10,""viewing_time"":6472.099999904633},{""page_index"":11,""viewing_time"":4383.600000023842},{""page_index"":12,""viewing_time"":7144.300000071526},{""page_index"":13,""viewing_time"":7167.899999976158},{""page_index"":14,""viewing_time"":7376.100000023842},{""page_index"":15,""viewing_time"":6640.099999904633},{""page_index"":16,""viewing_time"":7423.800000071526},{""page_index"":17,""viewing_time"":7632.100000023842}]","121062.39999997616","","","","","","","","","","","","","","","","","","","","","","","",""
"pit-trial","20","312543","0.0-2.0-8.0-0.0","battery-v0.2","","""event"",""trial"",""time""
""fullscreenenter"",""1"",""2367""
","
","
","""event"",""trial"",""time""
""fullscreenenter"",""1"",""2367""
","
","","","771.3999999761581","","","25","16602","2286","&#9776;","elianto","#3366ff99"," "," ","1","+10","[1623.5999999046326]","1","0","1","","","","","","","",""
"pit-trial","21","315942","0.0-2.0-8.0-1.0","battery-v0.2","","""event"",""trial"",""time""
""fullscreenenter"",""1"",""2367""
","
","
","""event"",""trial"",""time""
""fullscreenenter"",""1"",""2367""
","
","","","529.5","","","25","16602","2286","&#9776;","elianto","#3366ff99"," "," ","1","+10","[1380.5]","1","0","1","","","","","","","",""
"pit-trial","22","319362","0.0-2.0-8.0-2.0","battery-v0.2","","""event"",""trial"",""time""
""fullscreenenter"",""1"",""2367""
","
","
","""event"",""trial"",""time""
""fullscreenenter"",""1"",""2367""
","
","","","543.7999999523163","","","25","16602","2286","&#9776;","elianto","#3366ff99"," "," ","1","+10","[1397.0999999046326]","1","0","1","","","","","","","",""
"pit-trial","23","322712","0.0-2.0-8.0-3.0","battery-v0.2","","""event"",""trial"",""time""
""fullscreenenter"",""1"",""2367""
","
","
","""event"",""trial"",""time""
""fullscreenenter"",""1"",""2367""
","
","","","491.60000002384186","","","25","16602","2286","&#9776;","elianto","#3366ff99"," "," ","1","0","[1344.7999999523163]","1","0","1","","","","","","","",""
"pit-trial","24","326322","0.0-2.0-8.0-4.0","battery-v0.2","","""event"",""trial"",""time""
""fullscreenenter"",""1"",""2367""
","
","
","""event"",""trial"",""time""
""fullscreenenter"",""1"",""2367""
","
","","","738.3999999761581","","","25","16602","2286","&#9776;","elianto","#3366ff99"," "," ","1","+10","[1595.6000000238419]","1","0","1","","","","","","","",""
"pit-trial","25","329752","0.0-2.0-8.1-0.1","battery-v0.2","","""event"",""trial"",""time""
""fullscreenenter"",""1"",""2367""
","
","
","""event"",""trial"",""time""
""fullscreenenter"",""1"",""2367""
","
","","","565.1999999284744","","","25","16602","2286","&#9776;","elianto","#3366ff99"," "," ","1","+10","[1415.6999999284744]","1","0","1","","","","","","","",""
"pit-trial","26","333082","0.0-2.0-8.1-1.1","battery-v0.2","","""event"",""trial"",""time""
""fullscreenenter"",""1"",""2367""
","
","
","""event"",""trial"",""time""
""fullscreenenter"",""1"",""2367""
","
","","","465.89999997615814","","","25","16602","2286","&#9776;","elianto","#3366ff99"," "," ","1","+10","[1323]","1","0","1","","","","","","","",""
"pit-trial","27","336403","0.0-2.0-8.1-2.1","battery-v0.2","","""event"",""trial"",""time""
""fullscreenenter"",""1"",""2367""
","
","
","""event"",""trial"",""time""
""fullscreenenter"",""1"",""2367""
","
","","","454.2000000476837","","","25","16602","2286","&#9776;","elianto","#3366ff99"," "," ","1","+10","[1305]","1","0","1","","","","","","","",""
"pit-trial","28","339686","0.0-2.0-8.1-3.1","battery-v0.2","","""event"",""trial"",""time""
""fullscreenenter"",""1"",""2367""
","
","
","""event"",""trial"",""time""
""fullscreenenter"",""1"",""2367""
","
","","","430","","","25","16602","2286","&#9776;","elianto","#3366ff99"," "," ","1","0","[1280.1000000238419]","1","0","1","","","","","","","",""
"pit-trial","29","343182","0.0-2.0-8.1-4.1","battery-v0.2","","""event"",""trial"",""time""
""fullscreenenter"",""1"",""2367""
","
","
","""event"",""trial"",""time""
""fullscreenenter"",""1"",""2367""
","
","","","643.2999999523163","","","25","16602","2286","&#9776;","elianto","#3366ff99"," "," ","1","+10","[1493.6999999284744]","1","0","1","","","","","","","",""
"pit-trial","30","346398","0.0-2.0-8.2-0.2","battery-v0.2","","""event"",""trial"",""time""
""fullscreenenter"",""1"",""2367""
","
","
","""event"",""trial"",""time""
""fullscreenenter"",""1"",""2367""
","
","","","362.10000002384186","","","25","16602","2286","&#9776;","elianto","#3366ff99"," "," ","1","+10","[1212.3000000715256]","1","0","1","","","","","","","",""
"pit-trial","31","349694","0.0-2.0-8.2-1.2","battery-v0.2","","""event"",""trial"",""time""
""fullscreenenter"",""1"",""2367""
","
","
","""event"",""trial"",""time""
""fullscreenenter"",""1"",""2367""
","
","","","443.39999997615814","","","25","16602","2286","&#9776;","elianto","#3366ff99"," "," ","1","+10","[1293.8999999761581]","1","0","1","","","","","","","",""
"pit-trial","32","353007","0.0-2.0-8.2-2.2","battery-v0.2","","""event"",""trial"",""time""
""fullscreenenter"",""1"",""2367""
","
","
","""event"",""trial"",""time""
""fullscreenenter"",""1"",""2367""
","
","","","458.2999999523163","","","25","16602","2286","&#9776;","elianto","#3366ff99"," "," ","1","+10","[1309]","1","0","1","","","","","","","",""
"pit-trial","33","356318","0.0-2.0-8.2-3.2","battery-v0.2","","""event"",""trial"",""time""
""fullscreenenter"",""1"",""2367""
","
","
","""event"",""trial"",""time""
""fullscreenenter"",""1"",""2367""
","
","","","457.8000000715256","","","25","16602","2286","&#9776;","elianto","#3366ff99"," "," ","1","0","[1308.4000000953674]","1","0","1","","","","","","","",""
"pit-trial","34","359558","0.0-2.0-8.2-4.2","battery-v0.2","","""event"",""trial"",""time""
""fullscreenenter"",""1"",""2367""
","
","
","""event"",""trial"",""time""
""fullscreenenter"",""1"",""2367""
","
","","","387.59999990463257","","","25","16602","2286","&#9776;","elianto","#3366ff99"," "," ","1","+10","[1237.5]","1","0","1","","","","","","","",""
"call-function","35","359560","0.0-2.0-9.0","battery-v0.2","","""event"",""trial"",""time""
""fullscreenenter"",""1"",""2367""
","
","
","""event"",""trial"",""time""
""fullscreenenter"",""1"",""2367""
","
","","","","","","","","","","","","","","","","","","","","","","","","","","",""
"pit-instructions","36","412325","0.0-2.0-10.0","battery-v0.2","","""event"",""trial"",""time""
""fullscreenenter"",""1"",""2367""
","
","
","""event"",""trial"",""time""
""fullscreenenter"",""1"",""2367""
","
","","[{""page_index"":0,""viewing_time"":6771.299999952316},{""page_index"":1,""viewing_time"":8048.100000023842},{""page_index"":2,""viewing_time"":12751.799999952316},{""page_index"":3,""viewing_time"":17488.100000023842},{""page_index"":4,""viewing_time"":7704.100000023842}]","52763.5","","","","","","","","","","","","","","","","","","","","","","","",""
"pit-trial","37","416340","0.0-2.0-11.0-0.0","battery-v0.2","","""event"",""trial"",""time""
""fullscreenenter"",""1"",""2367""
","
","
","""event"",""trial"",""time""
""fullscreenenter"",""1"",""2367""
","
","","","1155.7999999523163","","","25","16602","2286","&#9761;","elianto","#3366ff99","-1"," ","0","0","[2007.6000000238419]","1","0","2","","","","","","","",""
"pit-trial","38","419640","0.0-2.0-11.0-1.0","battery-v0.2","","""event"",""trial"",""time""
""fullscreenenter"",""1"",""2367""
","
","
","""event"",""trial"",""time""
""fullscreenenter"",""1"",""2367""
","
","","","431.5","","","25","16602","2286","&#9761;","elianto","#3366ff99","-1"," ","0","0","[1287.5]","1","0","2","","","","","","","",""
"pit-trial","39","424510","0.0-2.0-11.0-2.0","battery-v0.2","","""event"",""trial"",""time""
""fullscreenenter"",""1"",""2367""
","
","
","""event"",""trial"",""time""
""fullscreenenter"",""1"",""2367""
","
","","","-1","","","25","16602","2286","&#9761;","elianto","#3366ff99","-1","-1","1","+10","[]","0","0","2","","","","","","","",""
"pit-trial","40","429390","0.0-2.0-11.0-3.0","battery-v0.2","","""event"",""trial"",""time""
""fullscreenenter"",""1"",""2367""
","
","
","""event"",""trial"",""time""
""fullscreenenter"",""1"",""2367""
","
","","","-1","","","25","16602","2286","&#9761;","elianto","#3366ff99","-1","-1","1","0","[]","0","0","2","","","","","","","",""
"pit-trial","41","434271","0.0-2.0-11.0-4.0","battery-v0.2","","""event"",""trial"",""time""
""fullscreenenter"",""1"",""2367""
","
","
","""event"",""trial"",""time""
""fullscreenenter"",""1"",""2367""
","
","","","-1","","","25","16602","2286","&#9761;","elianto","#3366ff99","-1","-1","1","+10","[]","0","0","2","","","","","","","",""
"pit-trial","42","439160","0.0-2.0-11.1-0.1","battery-v0.2","","""event"",""trial"",""time""
""fullscreenenter"",""1"",""2367""
","
","
","""event"",""trial"",""time""
""fullscreenenter"",""1"",""2367""
","
","","","-1","","","25","16602","2286","&#9761;","elianto","#3366ff99","-1","-1","1","+10","[]","0","0","2","","","","","","","",""
"pit-trial","43","444021","0.0-2.0-11.1-1.1","battery-v0.2","","""event"",""trial"",""time""
""fullscreenenter"",""1"",""2367""
","
","
","""event"",""trial"",""time""
""fullscreenenter"",""1"",""2367""
","
","","","-1","","","25","16602","2286","&#9761;","elianto","#3366ff99","-1","-1","1","+10","[]","0","0","2","","","","","","","",""
"pit-trial","44","448874","0.0-2.0-11.1-2.1","battery-v0.2","","""event"",""trial"",""time""
""fullscreenenter"",""1"",""2367""
","
","
","""event"",""trial"",""time""
""fullscreenenter"",""1"",""2367""
","
","","","-1","","","25","16602","2286","&#9761;","elianto","#3366ff99","-1","-1","1","+10","[]","0","0","2","","","","","","","",""
"pit-trial","45","453727","0.0-2.0-11.1-3.1","battery-v0.2","","""event"",""trial"",""time""
""fullscreenenter"",""1"",""2367""
","
","
","""event"",""trial"",""time""
""fullscreenenter"",""1"",""2367""
","
","","","-1","","","25","16602","2286","&#9761;","elianto","#3366ff99","-1","-1","1","0","[]","0","0","2","","","","","","","",""
"pit-trial","46","458581","0.0-2.0-11.1-4.1","battery-v0.2","","""event"",""trial"",""time""
""fullscreenenter"",""1"",""2367""
","
","
","""event"",""trial"",""time""
""fullscreenenter"",""1"",""2367""
","
","","","-1","","","25","16602","2286","&#9761;","elianto","#3366ff99","-1","-1","1","+10","[]","0","0","2","","","","","","","",""
"pit-trial","47","463436","0.0-2.0-11.2-0.2","battery-v0.2","","""event"",""trial"",""time""
""fullscreenenter"",""1"",""2367""
","
","
","""event"",""trial"",""time""
""fullscreenenter"",""1"",""2367""
","
","","","-1","","","25","16602","2286","&#9761;","elianto","#3366ff99","-1","-1","1","+10","[]","0","0","2","","","","","","","",""
"pit-trial","48","468289","0.0-2.0-11.2-1.2","battery-v0.2","","""event"",""trial"",""time""
""fullscreenenter"",""1"",""2367""
","
","
","""event"",""trial"",""time""
""fullscreenenter"",""1"",""2367""
","
","","","-1","","","25","16602","2286","&#9761;","elianto","#3366ff99","-1","-1","1","+10","[]","0","0","2","","","","","","","",""
"pit-trial","49","473142","0.0-2.0-11.2-2.2","battery-v0.2","","""event"",""trial"",""time""
""fullscreenenter"",""1"",""2367""
","
","
","""event"",""trial"",""time""
""fullscreenenter"",""1"",""2367""
","
","","","-1","","","25","16602","2286","&#9761;","elianto","#3366ff99","-1","-1","1","+10","[]","0","0","2","","","","","","","",""
"pit-trial","50","477996","0.0-2.0-11.2-3.2","battery-v0.2","","""event"",""trial"",""time""
""fullscreenenter"",""1"",""2367""
","
","
","""event"",""trial"",""time""
""fullscreenenter"",""1"",""2367""
","
","","","-1","","","25","16602","2286","&#9761;","elianto","#3366ff99","-1","-1","1","0","[]","0","0","2","","","","","","","",""
"pit-trial","51","482850","0.0-2.0-11.2-4.2","battery-v0.2","","""event"",""trial"",""time""
""fullscreenenter"",""1"",""2367""
","
","
","""event"",""trial"",""time""
""fullscreenenter"",""1"",""2367""
","
","","","-1","","","25","16602","2286","&#9761;","elianto","#3366ff99","-1","-1","1","+10","[]","0","0","2","","","","","","","",""
"pit-trial","52","487705","0.0-2.0-11.3-0.3","battery-v0.2","","""event"",""trial"",""time""
""fullscreenenter"",""1"",""2367""
","
","
","""event"",""trial"",""time""
""fullscreenenter"",""1"",""2367""
","
","","","-1","","","25","16602","2286","&#9761;","elianto","#3366ff99","-1","-1","1","+10","[]","0","0","2","","","","","","","",""
"pit-trial","53","492559","0.0-2.0-11.3-1.3","battery-v0.2","","""event"",""trial"",""time""
""fullscreenenter"",""1"",""2367""
","
","
","""event"",""trial"",""time""
""fullscreenenter"",""1"",""2367""
","
","","","-1","","","25","16602","2286","&#9761;","elianto","#3366ff99","-1","-1","1","+10","[]","0","0","2","","","","","","","",""
"pit-trial","54","497413","0.0-2.0-11.3-2.3","battery-v0.2","","""event"",""trial"",""time""
""fullscreenenter"",""1"",""2367""
","
","
","""event"",""trial"",""time""
""fullscreenenter"",""1"",""2367""
","
","","","-1","","","25","16602","2286","&#9761;","elianto","#3366ff99","-1","-1","1","+10","[]","0","0","2","","","","","","","",""
"pit-trial","55","502267","0.0-2.0-11.3-3.3","battery-v0.2","","""event"",""trial"",""time""
""fullscreenenter"",""1"",""2367""
","
","
","""event"",""trial"",""time""
""fullscreenenter"",""1"",""2367""
","
","","","-1","","","25","16602","2286","&#9761;","elianto","#3366ff99","-1","-1","1","0","[]","0","0","2","","","","","","","",""
"pit-trial","56","507135","0.0-2.0-11.3-4.3","battery-v0.2","","""event"",""trial"",""time""
""fullscreenenter"",""1"",""2367""
","
","
","""event"",""trial"",""time""
""fullscreenenter"",""1"",""2367""
","
","","","-1","","","25","16602","2286","&#9761;","elianto","#3366ff99","-1","-1","1","+10","[]","0","0","2","","","","","","","",""
"call-function","57","507137","0.0-2.0-12.0","battery-v0.2","","""event"",""trial"",""time""
""fullscreenenter"",""1"",""2367""
","
","
","""event"",""trial"",""time""
""fullscreenenter"",""1"",""2367""
","
","","","","","","","","","","","","","","","","","","","","","","","","","","",""
"pit-instructions","58","539820","0.0-2.0-13.0","battery-v0.2","","""event"",""trial"",""time""
""fullscreenenter"",""1"",""2367""
","
","
","""event"",""trial"",""time""
""fullscreenenter"",""1"",""2367""
","
","","[{""page_index"":0,""viewing_time"":6354.100000023842},{""page_index"":1,""viewing_time"":7480.100000023842},{""page_index"":2,""viewing_time"":3656},{""page_index"":3,""viewing_time"":10408},{""page_index"":4,""viewing_time"":4784}]","32682.400000095367","","","","","","","","","","","","","","","","","","","","","","","",""
"pit-trial","59","543502","0.0-2.0-14.0-0.0","battery-v0.2","","""event"",""trial"",""time""
""fullscreenenter"",""1"",""2367""
","
","
","""event"",""trial"",""time""
""fullscreenenter"",""1"",""2367""
","
","","","827.8000000715256","","","25","16602","2286","&#9826;","elianto","#f73b6a7A","-1"," ","0","-10","[1679.7000000476837]","1","0","3","","","","","","","",""
"pit-trial","60","548382","0.0-2.0-14.0-1.0","battery-v0.2","","""event"",""trial"",""time""
""fullscreenenter"",""1"",""2367""
","
","
","""event"",""trial"",""time""
""fullscreenenter"",""1"",""2367""
","
","","","-1","","","25","16602","2286","&#9826;","elianto","#f73b6a7A","-1","-1","1","0","[]","0","0","3","","","","","","","",""
"pit-trial","61","553262","0.0-2.0-14.0-2.0","battery-v0.2","","""event"",""trial"",""time""
""fullscreenenter"",""1"",""2367""
","
","
","""event"",""trial"",""time""
""fullscreenenter"",""1"",""2367""
","
","","","-1","","","25","16602","2286","&#9826;","elianto","#f73b6a7A","-1","-1","1","0","[]","0","0","3","","","","","","","",""
"pit-trial","62","558152","0.0-2.0-14.0-3.0","battery-v0.2","","""event"",""trial"",""time""
""fullscreenenter"",""1"",""2367""
","
","
","""event"",""trial"",""time""
""fullscreenenter"",""1"",""2367""
","
","","","-1","","","25","16602","2286","&#9826;","elianto","#f73b6a7A","-1","-1","1","-10","[]","0","0","3","","","","","","","",""
"pit-trial","63","563032","0.0-2.0-14.0-4.0","battery-v0.2","","""event"",""trial"",""time""
""fullscreenenter"",""1"",""2367""
","
","
","""event"",""trial"",""time""
""fullscreenenter"",""1"",""2367""
","
","","","-1","","","25","16602","2286","&#9826;","elianto","#f73b6a7A","-1","-1","1","0","[]","0","0","3","","","","","","","",""
"pit-trial","64","567912","0.0-2.0-14.1-0.1","battery-v0.2","","""event"",""trial"",""time""
""fullscreenenter"",""1"",""2367""
","
","
","""event"",""trial"",""time""
""fullscreenenter"",""1"",""2367""
","
","","","-1","","","25","16602","2286","&#9826;","elianto","#f73b6a7A","-1","-1","1","0","[]","0","0","3","","","","","","","",""
"pit-trial","65","572766","0.0-2.0-14.1-1.1","battery-v0.2","","""event"",""trial"",""time""
""fullscreenenter"",""1"",""2367""
","
","
","""event"",""trial"",""time""
""fullscreenenter"",""1"",""2367""
","
","","","-1","","","25","16602","2286","&#9826;","elianto","#f73b6a7A","-1","-1","1","0","[]","0","0","3","","","","","","","",""
"pit-trial","66","577619","0.0-2.0-14.1-2.1","battery-v0.2","","""event"",""trial"",""time""
""fullscreenenter"",""1"",""2367""
","
","
","""event"",""trial"",""time""
""fullscreenenter"",""1"",""2367""
","
","","","-1","","","25","16602","2286","&#9826;","elianto","#f73b6a7A","-1","-1","1","0","[]","0","0","3","","","","","","","",""
"pit-trial","67","582472","0.0-2.0-14.1-3.1","battery-v0.2","","""event"",""trial"",""time""
""fullscreenenter"",""1"",""2367""
","
","
","""event"",""trial"",""time""
""fullscreenenter"",""1"",""2367""
","
","","","-1","","","25","16602","2286","&#9826;","elianto","#f73b6a7A","-1","-1","1","-10","[]","0","0","3","","","","","","","",""
"pit-trial","68","587325","0.0-2.0-14.1-4.1","battery-v0.2","","""event"",""trial"",""time""
""fullscreenenter"",""1"",""2367""
","
","
","""event"",""trial"",""time""
""fullscreenenter"",""1"",""2367""
","
","","","-1","","","25","16602","2286","&#9826;","elianto","#f73b6a7A","-1","-1","1","0","[]","0","0","3","","","","","","","",""
"pit-trial","69","592179","0.0-2.0-14.2-0.2","battery-v0.2","","""event"",""trial"",""time""
""fullscreenenter"",""1"",""2367""
","
","
","""event"",""trial"",""time""
""fullscreenenter"",""1"",""2367""
","
","","","-1","","","25","16602","2286","&#9826;","elianto","#f73b6a7A","-1","-1","1","0","[]","0","0","3","","","","","","","",""
"pit-trial","70","597031","0.0-2.0-14.2-1.2","battery-v0.2","","""event"",""trial"",""time""
""fullscreenenter"",""1"",""2367""
","
","
","""event"",""trial"",""time""
""fullscreenenter"",""1"",""2367""
","
","","","-1","","","25","16602","2286","&#9826;","elianto","#f73b6a7A","-1","-1","1","0","[]","0","0","3","","","","","","","",""
"pit-trial","71","601885","0.0-2.0-14.2-2.2","battery-v0.2","","""event"",""trial"",""time""
""fullscreenenter"",""1"",""2367""
","
","
","""event"",""trial"",""time""
""fullscreenenter"",""1"",""2367""
","
","","","-1","","","25","16602","2286","&#9826;","elianto","#f73b6a7A","-1","-1","1","0","[]","0","0","3","","","","","","","",""
"pit-trial","72","606737","0.0-2.0-14.2-3.2","battery-v0.2","","""event"",""trial"",""time""
""fullscreenenter"",""1"",""2367""
","
","
","""event"",""trial"",""time""
""fullscreenenter"",""1"",""2367""
","
","","","-1","","","25","16602","2286","&#9826;","elianto","#f73b6a7A","-1","-1","1","-10","[]","0","0","3","","","","","","","",""
"pit-trial","73","611591","0.0-2.0-14.2-4.2","battery-v0.2","","""event"",""trial"",""time""
""fullscreenenter"",""1"",""2367""
","
","
","""event"",""trial"",""time""
""fullscreenenter"",""1"",""2367""
","
","","","-1","","","25","16602","2286","&#9826;","elianto","#f73b6a7A","-1","-1","1","0","[]","0","0","3","","","","","","","",""
"pit-trial","74","616446","0.0-2.0-14.3-0.3","battery-v0.2","","""event"",""trial"",""time""
""fullscreenenter"",""1"",""2367""
","
","
","""event"",""trial"",""time""
""fullscreenenter"",""1"",""2367""
","
","","","-1","","","25","16602","2286","&#9826;","elianto","#f73b6a7A","-1","-1","1","0","[]","0","0","3","","","","","","","",""
"pit-trial","75","621299","0.0-2.0-14.3-1.3","battery-v0.2","","""event"",""trial"",""time""
""fullscreenenter"",""1"",""2367""
","
","
","""event"",""trial"",""time""
""fullscreenenter"",""1"",""2367""
","
","","","-1","","","25","16602","2286","&#9826;","elianto","#f73b6a7A","-1","-1","1","0","[]","0","0","3","","","","","","","",""
"pit-trial","76","626152","0.0-2.0-14.3-2.3","battery-v0.2","","""event"",""trial"",""time""
""fullscreenenter"",""1"",""2367""
","
","
","""event"",""trial"",""time""
""fullscreenenter"",""1"",""2367""
","
","","","-1","","","25","16602","2286","&#9826;","elianto","#f73b6a7A","-1","-1","1","0","[]","0","0","3","","","","","","","",""
"pit-trial","77","631005","0.0-2.0-14.3-3.3","battery-v0.2","","""event"",""trial"",""time""
""fullscreenenter"",""1"",""2367""
","
","
","""event"",""trial"",""time""
""fullscreenenter"",""1"",""2367""
","
","","","-1","","","25","16602","2286","&#9826;","elianto","#f73b6a7A","-1","-1","1","-10","[]","0","0","3","","","","","","","",""
"pit-trial","78","635858","0.0-2.0-14.3-4.3","battery-v0.2","","""event"",""trial"",""time""
""fullscreenenter"",""1"",""2367""
","
","
","""event"",""trial"",""time""
""fullscreenenter"",""1"",""2367""
","
","","","-1","","","25","16602","2286","&#9826;","elianto","#f73b6a7A","-1","-1","1","0","[]","0","0","3","","","","","","","",""
"call-function","79","635861","0.0-2.0-15.0","battery-v0.2","","""event"",""trial"",""time""
""fullscreenenter"",""1"",""2367""
","
","
","""event"",""trial"",""time""
""fullscreenenter"",""1"",""2367""
","
","","","","","","","","","","","","","","","","","","","","","","","","","","",""
"pit-instructions","80","729629","0.0-2.0-16.0","battery-v0.2","","""event"",""trial"",""time""
""fullscreenenter"",""1"",""2367""
","
","
","""event"",""trial"",""time""
""fullscreenenter"",""1"",""2367""
","
","","[{""page_index"":0,""viewing_time"":6957.399999976158},{""page_index"":1,""viewing_time"":8416.299999952316},{""page_index"":2,""viewing_time"":72687.89999997616},{""page_index"":3,""viewing_time"":5704}]","93765.89999997616","","","","","","","","","","","","","","","","","","","","","","","",""
"pit-trial","81","733359","0.0-2.0-17.0-0.0","battery-v0.2","","""event"",""trial"",""time""
""fullscreenenter"",""1"",""2367""
","
","
","""event"",""trial"",""time""
""fullscreenenter"",""1"",""2367""
","
","","","861.5","","","25","16602","2286","&#9789;","elianto","#f73b6a7A"," "," ","1","0","[1711.7999999523163]","1","0","4","","","","","","","",""
"pit-trial","82","736579","0.0-2.0-17.0-1.0","battery-v0.2","","""event"",""trial"",""time""
""fullscreenenter"",""1"",""2367""
","
","
","""event"",""trial"",""time""
""fullscreenenter"",""1"",""2367""
","
","","","351.10000002384186","","","25","16602","2286","&#9789;","elianto","#f73b6a7A"," "," ","1","0","[1204.2000000476837]","1","0","4","","","","","","","",""
"pit-trial","83","739679","0.0-2.0-17.0-2.0","battery-v0.2","","""event"",""trial"",""time""
""fullscreenenter"",""1"",""2367""
","
","
","""event"",""trial"",""time""
""fullscreenenter"",""1"",""2367""
","
","","","242.69999992847443","","","25","16602","2286","&#9789;","elianto","#f73b6a7A"," "," ","1","0","[1094.6000000238419]","1","0","4","","","","","","","",""
"pit-trial","84","742645","0.0-2.0-17.0-3.0","battery-v0.2","","""event"",""trial"",""time""
""fullscreenenter"",""1"",""2367""
","
","
","""event"",""trial"",""time""
""fullscreenenter"",""1"",""2367""
","
","","","107.5","","","25","16602","2286","&#9789;","elianto","#f73b6a7A"," "," ","1","-10","[963.3999999761581]","1","0","4","","","","","","","",""
"pit-trial","85","745710","0.0-2.0-17.0-4.0","battery-v0.2","","""event"",""trial"",""time""
""fullscreenenter"",""1"",""2367""
","
","
","""event"",""trial"",""time""
""fullscreenenter"",""1"",""2367""
","
","","","210","","","25","16602","2286","&#9789;","elianto","#f73b6a7A"," "," ","1","0","[1061.8000000715256]","1","0","4","","","","","","","",""
"pit-trial","86","748929","0.0-2.0-17.1-0.1","battery-v0.2","","""event"",""trial"",""time""
""fullscreenenter"",""1"",""2367""
","
","
","""event"",""trial"",""time""
""fullscreenenter"",""1"",""2367""
","
","","","360.7000000476837","","","25","16602","2286","&#9789;","elianto","#f73b6a7A"," "," ","1","0","[1212.2000000476837]","1","0","4","","","","","","","",""
"pit-trial","87","752159","0.0-2.0-17.1-1.1","battery-v0.2","","""event"",""trial"",""time""
""fullscreenenter"",""1"",""2367""
","
","
","""event"",""trial"",""time""
""fullscreenenter"",""1"",""2367""
","
","","","367.2999999523163","","","25","16602","2286","&#9789;","elianto","#f73b6a7A"," "," ","1","0","[1218]","1","0","4","","","","","","","",""
"pit-trial","88","755630","0.0-2.0-17.1-2.1","battery-v0.2","","""event"",""trial"",""time""
""fullscreenenter"",""1"",""2367""
","
","
","""event"",""trial"",""time""
""fullscreenenter"",""1"",""2367""
","
","","","604.6000000238419","","","25","16602","2286","&#9789;","elianto","#f73b6a7A"," "," ","1","0","[1460]","1","0","4","","","","","","","",""
"pit-trial","89","758870","0.0-2.0-17.1-3.1","battery-v0.2","","""event"",""trial"",""time""
""fullscreenenter"",""1"",""2367""
","
","
","""event"",""trial"",""time""
""fullscreenenter"",""1"",""2367""
","
","","","382.2999999523163","","","25","16602","2286","&#9789;","elianto","#f73b6a7A"," "," ","1","-10","[1237.1999999284744]","1","0","4","","","","","","","",""
"pit-trial","90","762134","0.0-2.0-17.1-4.1","battery-v0.2","","""event"",""trial"",""time""
""fullscreenenter"",""1"",""2367""
","
","
","""event"",""trial"",""time""
""fullscreenenter"",""1"",""2367""
","
","","","412.6999999284744","","","25","16602","2286","&#9789;","elianto","#f73b6a7A"," "," ","1","0","[1262.7999999523163]","1","0","4","","","","","","","",""
"pit-trial","91","765174","0.0-2.0-17.2-0.2","battery-v0.2","","""event"",""trial"",""time""
""fullscreenenter"",""1"",""2367""
","
","
","""event"",""trial"",""time""
""fullscreenenter"",""1"",""2367""
","
","","","185.79999995231628","","","25","16602","2286","&#9789;","elianto","#f73b6a7A"," "," ","1","0","[1035.8999999761581]","1","0","4","","","","","","","",""
"pit-trial","92","768294","0.0-2.0-17.2-1.2","battery-v0.2","","""event"",""trial"",""time""
""fullscreenenter"",""1"",""2367""
","
","
","""event"",""trial"",""time""
""fullscreenenter"",""1"",""2367""
","
","","","265.7999999523163","","","25","16602","2286","&#9789;","elianto","#f73b6a7A"," "," ","1","0","[1117]","1","0","4","","","","","","","",""
"pit-trial","93","771446","0.0-2.0-17.2-2.2","battery-v0.2","","""event"",""trial"",""time""
""fullscreenenter"",""1"",""2367""
","
","
","""event"",""trial"",""time""
""fullscreenenter"",""1"",""2367""
","
","","","298.10000002384186","","","25","16602","2286","&#9789;","elianto","#f73b6a7A"," "," ","1","0","[1148.8999999761581]","1","0","4","","","","","","","",""
"pit-trial","94","774366","0.0-2.0-17.2-3.2","battery-v0.2","","""event"",""trial"",""time""
""fullscreenenter"",""1"",""2367""
","
","
","""event"",""trial"",""time""
""fullscreenenter"",""1"",""2367""
","
","","","68.5","","","25","16602","2286","&#9789;","elianto","#f73b6a7A"," "," ","1","-10","[918.7000000476837]","1","0","4","","","","","","","",""
"pit-trial","95","777261","0.0-2.0-17.2-4.2","battery-v0.2","","""event"",""trial"",""time""
""fullscreenenter"",""1"",""2367""
","
","
","""event"",""trial"",""time""
""fullscreenenter"",""1"",""2367""
","
","","","42.5","","","25","16602","2286","&#9789;","elianto","#f73b6a7A"," "," ","1","0","[893.2999999523163]","1","0","4","","","","","","","",""
"pit-trial","96","780214","0.0-2.0-17.3-0.3","battery-v0.2","","""event"",""trial"",""time""
""fullscreenenter"",""1"",""2367""
","
","
","""event"",""trial"",""time""
""fullscreenenter"",""1"",""2367""
","
","","","92.5","","","25","16602","2286","&#9789;","elianto","#f73b6a7A"," "," ","1","0","[948.7000000476837]","1","0","4","","","","","","","",""
"pit-trial","97","783278","0.0-2.0-17.3-1.3","battery-v0.2","","""event"",""trial"",""time""
""fullscreenenter"",""1"",""2367""
","
","
","""event"",""trial"",""time""
""fullscreenenter"",""1"",""2367""
","
","","","210.89999997615814","","","25","16602","2286","&#9789;","elianto","#f73b6a7A"," "," ","1","0","[1061.5]","1","0","4","","","","","","","",""
"pit-trial","98","786279","0.0-2.0-17.3-2.3","battery-v0.2","","""event"",""trial"",""time""
""fullscreenenter"",""1"",""2367""
","
","
","""event"",""trial"",""time""
""fullscreenenter"",""1"",""2367""
","
","","","147.20000004768372","","","25","16602","2286","&#9789;","elianto","#f73b6a7A"," "," ","1","0","[997.3999999761581]","1","0","4","","","","","","","",""
"pit-trial","99","789254","0.0-2.0-17.3-3.3","battery-v0.2","","""event"",""trial"",""time""
""fullscreenenter"",""1"",""2367""
","
","
","""event"",""trial"",""time""
""fullscreenenter"",""1"",""2367""
","
","","","122.5","","","25","16602","2286","&#9789;","elianto","#f73b6a7A"," "," ","1","-10","[972.5]","1","0","4","","","","","","","",""
"pit-trial","100","792301","0.0-2.0-17.3-4.3","battery-v0.2","","""event"",""trial"",""time""
""fullscreenenter"",""1"",""2367""
","
","
","""event"",""trial"",""time""
""fullscreenenter"",""1"",""2367""
","
","","","193.89999997615814","","","25","16602","2286","&#9789;","elianto","#f73b6a7A"," "," ","1","0","[1044.3999999761581]","1","0","4","","","","","","","",""
"call-function","101","792304","0.0-2.0-18.0","battery-v0.2","","""event"",""trial"",""time""
""fullscreenenter"",""1"",""2367""
","
","
","""event"",""trial"",""time""
""fullscreenenter"",""1"",""2367""
","
","","","","","","","","","","","","","","","","","","","","","","","","","","",""
"pit-instructions","102","862264","0.0-2.0-19.0","battery-v0.2","","""event"",""trial"",""time""
""fullscreenenter"",""1"",""2367""
","
","
","""event"",""trial"",""time""
""fullscreenenter"",""1"",""2367""
","
","","[{""page_index"":0,""viewing_time"":6883.100000023842},{""page_index"":1,""viewing_time"":5704.100000023842},{""page_index"":2,""viewing_time"":13607.899999976158},{""page_index"":3,""viewing_time"":7456},{""page_index"":4,""viewing_time"":9079.899999976158},{""page_index"":5,""viewing_time"":8271.899999976158},{""page_index"":6,""viewing_time"":8632.300000071526},{""page_index"":7,""viewing_time"":6247.899999976158},{""page_index"":8,""viewing_time"":4080}]","69963.29999995232","","","","","","","","","","","","","","","","","","","","","","","",""
"pit-comprehension","103","868497","0.0-2.0-20.0-0.0","battery-v0.2","","""event"",""trial"",""time""
""fullscreenenter"",""1"",""2367""
","
","
","""event"",""trial"",""time""
""fullscreenenter"",""1"",""2367""
","
","","","6230.399999976158","[""SPACE""]","0","25","16602","2286","","","","","","","","","","","","","","","","","","",""
"pit-instructions","104","872752","0.0-2.0-20.0-1.0","battery-v0.2","","""event"",""trial"",""time""
""fullscreenenter"",""1"",""2367""
","
","
","""event"",""trial"",""time""
""fullscreenenter"",""1"",""2367""
","
","","[{""page_index"":0,""viewing_time"":4226.299999952316}]","4226.399999976158","","","","","","","","","","","","","","","","","","","","","","","",""
"pit-comprehension","105","879889","0.0-2.0-21.0-0.0","battery-v0.2","","""event"",""trial"",""time""
""fullscreenenter"",""1"",""2367""
","
","
","""event"",""trial"",""time""
""fullscreenenter"",""1"",""2367""
","
","","","7134.899999976158","[""10""]","0","25","16602","2286","","","","","","","","","","","","","","","","","","",""
"pit-instructions","106","881560","0.0-2.0-21.0-1.0","battery-v0.2","","""event"",""trial"",""time""
""fullscreenenter"",""1"",""2367""
","
","
","""event"",""trial"",""time""
""fullscreenenter"",""1"",""2367""
","
","","[{""page_index"":0,""viewing_time"":1647.2000000476837}]","1647.3999999761581","","","","","","","","","","","","","","","","","","","","","","","",""
"pit-comprehension","107","889256","0.0-2.0-22.0-0.0","battery-v0.2","","""event"",""trial"",""time""
""fullscreenenter"",""1"",""2367""
","
","
","""event"",""trial"",""time""
""fullscreenenter"",""1"",""2367""
","
","","","7694.100000023842","[""0""]","0","25","16602","2286","","","","","","","","","","","","","","","","","","",""
"pit-instructions","108","890912","0.0-2.0-22.0-1.0","battery-v0.2","","""event"",""trial"",""time""
""fullscreenenter"",""1"",""2367""
","
","
","""event"",""trial"",""time""
""fullscreenenter"",""1"",""2367""
","
","","[{""page_index"":0,""viewing_time"":1621.8999999761581}]","1622.1000000238419","","","","","","","","","","","","","","","","","","","","","","","",""
"pit-comprehension","109","900728","0.0-2.0-23.0-0.0","battery-v0.2","","""event"",""trial"",""time""
""fullscreenenter"",""1"",""2367""
","
","
","""event"",""trial"",""time""
""fullscreenenter"",""1"",""2367""
","
","","","9814.299999952316","[""True""]","0","25","16602","2286","","","","","","","","","","","","","","","","","","",""
"pit-instructions","110","902392","0.0-2.0-23.0-1.0","battery-v0.2","","""event"",""trial"",""time""
""fullscreenenter"",""1"",""2367""
","
","
","""event"",""trial"",""time""
""fullscreenenter"",""1"",""2367""
","
","","[{""page_index"":0,""viewing_time"":1636}]","1636.1000000238419","","","","","","","","","","","","","","","","","","","","","","","",""
"pit-comprehension","111","911564","0.0-2.0-24.0-0.0","battery-v0.2","","""event"",""trial"",""time""
""fullscreenenter"",""1"",""2367""
","
","
","""event"",""trial"",""time""
""fullscreenenter"",""1"",""2367""
","
","","","9166.799999952316","[""True""]","0","25","16602","2286","","","","","","","","","","","","","","","","","","",""
"pit-instructions","112","913252","0.0-2.0-24.0-1.0","battery-v0.2","","""event"",""trial"",""time""
""fullscreenenter"",""1"",""2367""
","
","
","""event"",""trial"",""time""
""fullscreenenter"",""1"",""2367""
","
","","[{""page_index"":0,""viewing_time"":1654.3999999761581}]","1654.6000000238419","","","","","","","","","","","","","","","","","","","","","","","",""
"pit-comprehension","113","920821","0.0-2.0-25.0-0.0","battery-v0.2","","""event"",""trial"",""time""
""fullscreenenter"",""1"",""2367""
","
","
","""event"",""trial"",""time""
""fullscreenenter"",""1"",""2367""
","
","","","7566.600000023842","[""True""]","0","25","16602","2286","","","","","","","","","","","","","","","","","","",""
"pit-instructions","114","922620","0.0-2.0-25.0-1.0","battery-v0.2","","""event"",""trial"",""time""
""fullscreenenter"",""1"",""2367""
","
","
","""event"",""trial"",""time""
""fullscreenenter"",""1"",""2367""
","
","","[{""page_index"":0,""viewing_time"":1776.2999999523163}]","1776.3999999761581","","","","","","","","","","","","","","","","","","","","","","","",""
"pit-comprehension","115","931085","0.0-2.0-26.0-0.0","battery-v0.2","","""event"",""trial"",""time""
""fullscreenenter"",""1"",""2367""
","
","
","""event"",""trial"",""time""
""fullscreenenter"",""1"",""2367""
","
","","","8463.199999928474","[""False""]","0","25","16602","2286","","","","","","","","","","","","","","","","","","",""
"pit-instructions","116","932732","0.0-2.0-26.0-1.0","battery-v0.2","","""event"",""trial"",""time""
""fullscreenenter"",""1"",""2367""
","
","
","""event"",""trial"",""time""
""fullscreenenter"",""1"",""2367""
","
","","[{""page_index"":0,""viewing_time"":1618.3000000715256}]","1618.3000000715256","","","","","","","","","","","","","","","","","","","","","","","",""
"pit-instructions","117","955660","0.0-3.0","battery-v0.2","","""event"",""trial"",""time""
""fullscreenenter"",""1"",""2367""
","
","
","""event"",""trial"",""time""
""fullscreenenter"",""1"",""2367""
","
","","[{""page_index"":0,""viewing_time"":4111.100000023842},{""page_index"":1,""viewing_time"":5119.799999952316},{""page_index"":2,""viewing_time"":13696.100000023842}]","22927.100000023842","","","","","","","","","","","","","","","","","","","","","","","",""
"pit-trial","118","959744","0.0-4.0","battery-v0.2","","""event"",""trial"",""time""
""fullscreenenter"",""1"",""2367""
","
","
","""event"",""trial"",""time""
""fullscreenenter"",""1"",""2367""
","
","","","1221.3999999761581","","","25","16602","2286","&#9728;","elianto","#f73b6a7A","-1"," ","0","-10","[2078.2999999523163]","1","1","","","16602","1","0","4","lose","no-go","0"
"pit-trial","119","963332","0.0-5.0","battery-v0.2","","""event"",""trial"",""time""
""fullscreenenter"",""1"",""2367""
","
","
","""event"",""trial"",""time""
""fullscreenenter"",""1"",""2367""
","
","","","721","","","25","16602","2286","&#9752;","elianto","#f73b6a7A"," "," ","1","0","[1578.8999999761581]","1","1","","","16602","2","3","3","lose","go","0"
"pit-trial","120","966823","0.0-6.0","battery-v0.2","","""event"",""trial"",""time""
""fullscreenenter"",""1"",""2367""
","
","
","""event"",""trial"",""time""
""fullscreenenter"",""1"",""2367""
","
","","","626.5","","","25","16602","2286","&#9730;","elianto","#3366ff99"," "," ","1","+10","[1485.6999999284744]","1","1","","","16602","3","1","1","win","go","0"
"pit-trial","121","970274","0.0-7.0","battery-v0.2","","""event"",""trial"",""time""
""fullscreenenter"",""1"",""2367""
","
","
","""event"",""trial"",""time""
""fullscreenenter"",""1"",""2367""
","
","","","572.1999999284744","","","25","16602","2286","&#9733;","elianto","#3366ff99","-1"," ","0","0","[1427.3999999761581]","1","1","","","16602","4","2","2","win","no-go","0"
"pit-trial","122","975144","0.0-8.0","battery-v0.2","","""event"",""trial"",""time""
""fullscreenenter"",""1"",""2367""
","
","
","""event"",""trial"",""time""
""fullscreenenter"",""1"",""2367""
","
","","","-1","","","25","16602","2286","&#9728;","elianto","#f73b6a7A","-1","-1","1","-10","[]","0","1","","","16602","5","0","4","lose","no-go","1"
"pit-trial","123","978703","0.0-9.0","battery-v0.2","","""event"",""trial"",""time""
""fullscreenenter"",""1"",""2367""
","
","
","""event"",""trial"",""time""
""fullscreenenter"",""1"",""2367""
","
","","","679.2999999523163","","","25","16602","2286","&#9733;","elianto","#3366ff99","-1"," ","0","+10","[1538.7999999523163]","1","1","","","16602","6","2","2","win","no-go","1"
"pit-trial","124","982199","0.0-10.0","battery-v0.2","","""event"",""trial"",""time""
""fullscreenenter"",""1"",""2367""
","
","
","""event"",""trial"",""time""
""fullscreenenter"",""1"",""2367""
","
","","","640.8000000715256","","","25","16602","2286","&#9730;","elianto","#3366ff99"," "," ","1","+10","[1491.3000000715256]","1","1","","","16602","7","1","1","win","go","0"
"pit-trial","125","985886","0.0-11.0","battery-v0.2","","""event"",""trial"",""time""
""fullscreenenter"",""1"",""2367""
","
","
","""event"",""trial"",""time""
""fullscreenenter"",""1"",""2367""
","
","","","833.2000000476837","","","25","16602","2286","&#9752;","elianto","#f73b6a7A"," "," ","1","0","[1684.1000000238419]","1","1","","","16602","8","3","3","lose","go","0"
"pit-trial","126","989574","0.0-12.0","battery-v0.2","","""event"",""trial"",""time""
""fullscreenenter"",""1"",""2367""
","
","
","""event"",""trial"",""time""
""fullscreenenter"",""1"",""2367""
","
","","","833.8000000715256","","","25","16602","2286","&#9728;","elianto","#f73b6a7A","-1"," ","0","-10","[1684.7000000476837]","1","1","","","16602","9","0","4","lose","no-go","0"
"pit-trial","127","993093","0.0-13.0","battery-v0.2","","""event"",""trial"",""time""
""fullscreenenter"",""1"",""2367""
","
","
","""event"",""trial"",""time""
""fullscreenenter"",""1"",""2367""
","
","","","666.1999999284744","","","25","16602","2286","&#9733;","elianto","#3366ff99","-1"," ","0","0","[1516.7999999523163]","1","1","","","16602","10","2","2","win","no-go","0"
"pit-trial","128","996638","0.0-14.0","battery-v0.2","","""event"",""trial"",""time""
""fullscreenenter"",""1"",""2367""
","
","
","""event"",""trial"",""time""
""fullscreenenter"",""1"",""2367""
","
","","","690.8999999761581","","","25","16602","2286","&#9730;","elianto","#3366ff99"," "," ","1","+10","[1541.5]","1","1","","","16602","11","1","1","win","go","0"
"pit-trial","129","1000677","0.0-15.0","battery-v0.2","","""event"",""trial"",""time""
""fullscreenenter"",""1"",""2367""
","
","
","""event"",""trial"",""time""
""fullscreenenter"",""1"",""2367""
","
","","","1186.2000000476837","","","25","16602","2286","&#9752;","elianto","#f73b6a7A"," "," ","1","0","[2036.3999999761581]","1","1","","","16602","12","3","3","lose","go","0"
"pit-trial","130","1004415","0.0-16.0","battery-v0.2","","""event"",""trial"",""time""
""fullscreenenter"",""1"",""2367""
","
","
","""event"",""trial"",""time""
""fullscreenenter"",""1"",""2367""
","
","","","881.8999999761581","","","25","16602","2286","&#9752;","elianto","#f73b6a7A"," "," ","1","0","[1734.2000000476837]","1","1","","","16602","13","3","3","lose","go","0"
"pit-trial","131","1007853","0.0-17.0","battery-v0.2","","""event"",""trial"",""time""
""fullscreenenter"",""1"",""2367""
","
","
","""event"",""trial"",""time""
""fullscreenenter"",""1"",""2367""
","
","","","585.1000000238419","","","25","16602","2286","&#9733;","elianto","#3366ff99","-1"," ","0","0","[1436.1000000238419]","1","1","","","16602","14","2","2","win","no-go","0"
"pit-trial","132","1012706","0.0-18.0","battery-v0.2","","""event"",""trial"",""time""
""fullscreenenter"",""1"",""2367""
","
","
","""event"",""trial"",""time""
""fullscreenenter"",""1"",""2367""
","
","","","-1","","","25","16602","2286","&#9728;","elianto","#f73b6a7A","-1","-1","1","-10","[]","0","1","","","16602","15","0","4","lose","no-go","1"
"pit-trial","133","1016165","0.0-19.0","battery-v0.2","","""event"",""trial"",""time""
""fullscreenenter"",""1"",""2367""
","
","
","""event"",""trial"",""time""
""fullscreenenter"",""1"",""2367""
","
","","","605.9000000953674","","","25","16602","2286","&#9730;","elianto","#3366ff99"," "," ","1","+10","[1456.2000000476837]","1","1","","","16602","16","1","1","win","go","0"
"pit-trial","134","1019693","0.0-20.0","battery-v0.2","","""event"",""trial"",""time""
""fullscreenenter"",""1"",""2367""
","
","
","""event"",""trial"",""time""
""fullscreenenter"",""1"",""2367""
","
","","","673.7000000476837","","","25","16602","2286","&#9730;","elianto","#3366ff99"," "," ","1","+10","[1525.3999999761581]","1","1","","","16602","17","1","1","win","go","0"
"pit-trial","135","1024546","0.0-21.0","battery-v0.2","","""event"",""trial"",""time""
""fullscreenenter"",""1"",""2367""
","
","
","""event"",""trial"",""time""
""fullscreenenter"",""1"",""2367""
","
","","","-1","","","25","16602","2286","&#9733;","elianto","#3366ff99","-1","-1","1","0","[]","0","1","","","16602","18","2","2","win","no-go","1"
"pit-trial","136","1028133","0.0-22.0","battery-v0.2","","""event"",""trial"",""time""
""fullscreenenter"",""1"",""2367""
","
","
","""event"",""trial"",""time""
""fullscreenenter"",""1"",""2367""
","
","","","734","","","25","16602","2286","&#9752;","elianto","#f73b6a7A"," "," ","1","0","[1584.6000000238419]","1","1","","","16602","19","3","3","lose","go","0"
"pit-trial","137","1032988","0.0-23.0","battery-v0.2","","""event"",""trial"",""time""
""fullscreenenter"",""1"",""2367""
","
","
","""event"",""trial"",""time""
""fullscreenenter"",""1"",""2367""
","
","","","-1","","","25","16602","2286","&#9728;","elianto","#f73b6a7A","-1","-1","1","-10","[]","0","1","","","16602","20","0","4","lose","no-go","1"
"pit-instructions","138","1052660","0.0-24.0","battery-v0.2","","""event"",""trial"",""time""
""fullscreenenter"",""1"",""2367""
","
","
","""event"",""trial"",""time""
""fullscreenenter"",""1"",""2367""
","
","","[{""page_index"":0,""viewing_time"":11301.700000047684},{""page_index"":1,""viewing_time"":8367.899999976158}]","19669.700000047684","","","","","","","","","","","","","","","","","","","","","","","",""
"pit-trial","139","1056456","0.0-25.0","battery-v0.2","","""event"",""trial"",""time""
""fullscreenenter"",""1"",""2367""
","
","
","""event"",""trial"",""time""
""fullscreenenter"",""1"",""2367""
","
","","","929.3000000715256","","","25","16602","2286","e","elianto","#f73b6a7A"," "," ","1","-10","[1783.4000000953674]","1","2","","","16602","21","2","3","lose","go","1"
"pit-trial","140","1059936","0.0-26.0","battery-v0.2","","""event"",""trial"",""time""
""fullscreenenter"",""1"",""2367""
","
","
","""event"",""trial"",""time""
""fullscreenenter"",""1"",""2367""
","
","","","604.6000000238419","","","25","16602","2286","w","elianto","#f73b6a7A","-1"," ","0","-10","[1466.8999999761581]","1","2","","","16602","22","3","4","lose","no-go","0"
"pit-trial","141","1063295","0.0-27.0","battery-v0.2","","""event"",""trial"",""time""
""fullscreenenter"",""1"",""2367""
","
","
","""event"",""trial"",""time""
""fullscreenenter"",""1"",""2367""
","
","","","486.7000000476837","","","25","16602","2286","d","elianto","#3366ff99","-1"," ","0","0","[1338.7000000476837]","1","2","","","16602","23","1","2","win","no-go","0"
"pit-trial","142","1066536","0.0-28.0","battery-v0.2","","""event"",""trial"",""time""
""fullscreenenter"",""1"",""2367""
","
","
","""event"",""trial"",""time""
""fullscreenenter"",""1"",""2367""
","
","","","372.59999990463257","","","25","16602","2286","j","elianto","#f73b6a7A"," "," ","1","0","[1235.2999999523163]","1","2","","","16602","24","0","3","lose","go","0"
"pit-trial","143","1071415","0.0-29.0","battery-v0.2","","""event"",""trial"",""time""
""fullscreenenter"",""1"",""2367""
","
","
","""event"",""trial"",""time""
""fullscreenenter"",""1"",""2367""
","
","","","-1","","","25","16602","2286","w","elianto","#f73b6a7A","-1","-1","1","0","[]","0","2","","","16602","25","3","4","lose","no-go","0"
"pit-trial","144","1076295","0.0-30.0","battery-v0.2","","""event"",""trial"",""time""
""fullscreenenter"",""1"",""2367""
","
","
","""event"",""trial"",""time""
""fullscreenenter"",""1"",""2367""
","
","","","-1","","","25","16602","2286","e","elianto","#f73b6a7A"," ","-1","0","-10","[]","0","2","","","16602","26","2","3","lose","go","0"
"pit-trial","145","1079761","0.0-31.0","battery-v0.2","","""event"",""trial"",""time""
""fullscreenenter"",""1"",""2367""
","
","
","""event"",""trial"",""time""
""fullscreenenter"",""1"",""2367""
","
","","","601.2999999523163","","","25","16602","2286","d","elianto","#3366ff99","-1"," ","0","0","[1458.8999999761581]","1","2","","","16602","27","1","2","win","no-go","0"
"pit-trial","146","1083397","0.0-32.0","battery-v0.2","","""event"",""trial"",""time""
""fullscreenenter"",""1"",""2367""
","
","
","""event"",""trial"",""time""
""fullscreenenter"",""1"",""2367""
","
","","","770.1000000238419","","","25","16602","2286","j","elianto","#f73b6a7A"," "," ","1","0","[1633.7999999523163]","1","2","","","16602","28","0","3","lose","go","0"
"pit-trial","147","1088252","0.0-33.0","battery-v0.2","","""event"",""trial"",""time""
""fullscreenenter"",""1"",""2367""
","
","
","""event"",""trial"",""time""
""fullscreenenter"",""1"",""2367""
","
","","","-1","","","25","16602","2286","w","elianto","#f73b6a7A","-1","-1","1","0","[]","0","2","","","16602","29","3","4","lose","no-go","0"
"pit-trial","148","1092253","0.0-34.0","battery-v0.2","","""event"",""trial"",""time""
""fullscreenenter"",""1"",""2367""
","
","
","""event"",""trial"",""time""
""fullscreenenter"",""1"",""2367""
","
","","","1147.9000000953674","","","25","16602","2286","e","elianto","#f73b6a7A"," "," ","1","0","[1998.6000000238419]","1","2","","","16602","30","2","3","lose","go","0"
"pit-trial","149","1095917","0.0-35.0","battery-v0.2","","""event"",""trial"",""time""
""fullscreenenter"",""1"",""2367""
","
","
","""event"",""trial"",""time""
""fullscreenenter"",""1"",""2367""
","
","","","810.8999999761581","","","25","16602","2286","d","elianto","#3366ff99","-1"," ","0","0","[1661.2000000476837]","1","2","","","16602","31","1","2","win","no-go","0"
"pit-trial","150","1100771","0.0-36.0","battery-v0.2","","""event"",""trial"",""time""
""fullscreenenter"",""1"",""2367""
","
","
","""event"",""trial"",""time""
""fullscreenenter"",""1"",""2367""
","
","","","-1","","","25","16602","2286","j","elianto","#f73b6a7A"," ","-1","0","-10","[]","0","2","","","16602","32","0","3","lose","go","0"
"pit-trial","151","1105061","0.0-37.0","battery-v0.2","","""event"",""trial"",""time""
""fullscreenenter"",""1"",""2367""
","
","
","""event"",""trial"",""time""
""fullscreenenter"",""1"",""2367""
","
","","","1437.5","","","25","16602","2286","e","elianto","#f73b6a7A"," "," ","1","0","[2288]","1","2","","","16602","33","2","3","lose","go","0"
"pit-trial","152","1108511","0.0-38.0","battery-v0.2","","""event"",""trial"",""time""
""fullscreenenter"",""1"",""2367""
","
","
","""event"",""trial"",""time""
""fullscreenenter"",""1"",""2367""
","
","","","595.8999999761581","","","25","16602","2286","j","elianto","#f73b6a7A"," "," ","1","0","[1446.3000000715256]","1","2","","","16602","34","0","3","lose","go","0"
"pit-trial","153","1113365","0.0-39.0","battery-v0.2","","""event"",""trial"",""time""
""fullscreenenter"",""1"",""2367""
","
","
","""event"",""trial"",""time""
""fullscreenenter"",""1"",""2367""
","
","","","-1","","","25","16602","2286","d","elianto","#3366ff99","-1","-1","1","+10","[]","0","2","","","16602","35","1","2","win","no-go","0"
"pit-trial","154","1118218","0.0-40.0","battery-v0.2","","""event"",""trial"",""time""
""fullscreenenter"",""1"",""2367""
","
","
","""event"",""trial"",""time""
""fullscreenenter"",""1"",""2367""
","
","","","-1","","","25","16602","2286","w","elianto","#f73b6a7A","-1","-1","1","0","[]","0","2","","","16602","36","3","4","lose","no-go","0"
"pit-trial","155","1123072","0.0-41.0","battery-v0.2","","""event"",""trial"",""time""
""fullscreenenter"",""1"",""2367""
","
","
","""event"",""trial"",""time""
""fullscreenenter"",""1"",""2367""
","
","","","-1","","","25","16602","2286","d","elianto","#3366ff99","-1","-1","1","+10","[]","0","2","","","16602","37","1","2","win","no-go","0"
"pit-trial","156","1127926","0.0-42.0","battery-v0.2","","""event"",""trial"",""time""
""fullscreenenter"",""1"",""2367""
","
","
","""event"",""trial"",""time""
""fullscreenenter"",""1"",""2367""
","
","","","-1","","","25","16602","2286","w","elianto","#f73b6a7A","-1","-1","1","0","[]","0","2","","","16602","38","3","4","lose","no-go","0"
"pit-trial","157","1131669","0.0-43.0","battery-v0.2","","""event"",""trial"",""time""
""fullscreenenter"",""1"",""2367""
","
","
","""event"",""trial"",""time""
""fullscreenenter"",""1"",""2367""
","
","","","890.0999999046326","","","25","16602","2286","e","elianto","#f73b6a7A"," "," ","1","0","[1740.6999999284744]","1","2","","","16602","39","2","3","lose","go","0"
"pit-trial","158","1135045","0.0-44.0","battery-v0.2","","""event"",""trial"",""time""
""fullscreenenter"",""1"",""2367""
","
","
","""event"",""trial"",""time""
""fullscreenenter"",""1"",""2367""
","
","","","522.2000000476837","","","25","16602","2286","j","elianto","#f73b6a7A"," "," ","1","-10","[1373]","1","2","","","16602","40","0","3","lose","go","1"
"pit-trial","159","1139898","0.0-45.0","battery-v0.2","","""event"",""trial"",""time""
""fullscreenenter"",""1"",""2367""
","
","
","""event"",""trial"",""time""
""fullscreenenter"",""1"",""2367""
","
","","","-1","","","25","16602","2286","j","elianto","#f73b6a7A"," ","-1","0","-10","[]","0","2","","","16602","41","0","3","lose","go","0"
"pit-trial","160","1144752","0.0-46.0","battery-v0.2","","""event"",""trial"",""time""
""fullscreenenter"",""1"",""2367""
","
","
","""event"",""trial"",""time""
""fullscreenenter"",""1"",""2367""
","
","","","-1","","","25","16602","2286","w","elianto","#f73b6a7A","-1","-1","1","0","[]","0","2","","","16602","42","3","4","lose","no-go","0"
"pit-trial","161","1149605","0.0-47.0","battery-v0.2","","""event"",""trial"",""time""
""fullscreenenter"",""1"",""2367""
","
","
","""event"",""trial"",""time""
""fullscreenenter"",""1"",""2367""
","
","","","-1","","","25","16602","2286","d","elianto","#3366ff99","-1","-1","1","+10","[]","0","2","","","16602","43","1","2","win","no-go","0"
"pit-trial","162","1153302","0.0-48.0","battery-v0.2","","""event"",""trial"",""time""
""fullscreenenter"",""1"",""2367""
","
","
","""event"",""trial"",""time""
""fullscreenenter"",""1"",""2367""
","
","","","842.3000000715256","","","25","16602","2286","e","elianto","#f73b6a7A"," "," ","1","0","[1693.7000000476837]","1","2","","","16602","44","2","3","lose","go","0"
"pit-trial","163","1156605","0.0-49.0","battery-v0.2","","""event"",""trial"",""time""
""fullscreenenter"",""1"",""2367""
","
","
","""event"",""trial"",""time""
""fullscreenenter"",""1"",""2367""
","
","","","450.1999999284744","","","25","16602","2286","j","elianto","#f73b6a7A"," "," ","1","0","[1300.2999999523163]","1","2","","","16602","45","0","3","lose","go","0"
"pit-trial","164","1160509","0.0-50.0","battery-v0.2","","""event"",""trial"",""time""
""fullscreenenter"",""1"",""2367""
","
","
","""event"",""trial"",""time""
""fullscreenenter"",""1"",""2367""
","
","","","1050.3000000715256","","","25","16602","2286","e","elianto","#f73b6a7A"," "," ","1","-10","[1900.9000000953674]","1","2","","","16602","46","2","3","lose","go","1"
"pit-trial","165","1165364","0.0-51.0","battery-v0.2","","""event"",""trial"",""time""
""fullscreenenter"",""1"",""2367""
","
","
","""event"",""trial"",""time""
""fullscreenenter"",""1"",""2367""
","
","","","-1","","","25","16602","2286","w","elianto","#f73b6a7A","-1","-1","1","0","[]","0","2","","","16602","47","3","4","lose","no-go","0"
"pit-trial","166","1170218","0.0-52.0","battery-v0.2","","""event"",""trial"",""time""
""fullscreenenter"",""1"",""2367""
","
","
","""event"",""trial"",""time""
""fullscreenenter"",""1"",""2367""
","
","","","-1","","","25","16602","2286","d","elianto","#3366ff99","-1","-1","1","+10","[]","0","2","","","16602","48","1","2","win","no-go","0"
"pit-trial","167","1175071","0.0-53.0","battery-v0.2","","""event"",""trial"",""time""
""fullscreenenter"",""1"",""2367""
","
","
","""event"",""trial"",""time""
""fullscreenenter"",""1"",""2367""
","
","","","-1","","","25","16602","2286","w","elianto","#f73b6a7A","-1","-1","1","-10","[]","0","2","","","16602","49","3","4","lose","no-go","1"
"pit-trial","168","1178997","0.0-54.0","battery-v0.2","","""event"",""trial"",""time""
""fullscreenenter"",""1"",""2367""
","
","
","""event"",""trial"",""time""
""fullscreenenter"",""1"",""2367""
","
","","","1073.1999999284744","","","25","16602","2286","e","elianto","#f73b6a7A"," "," ","1","0","[1923.6000000238419]","1","2","","","16602","50","2","3","lose","go","0"
"pit-trial","169","1182389","0.0-55.0","battery-v0.2","","""event"",""trial"",""time""
""fullscreenenter"",""1"",""2367""
","
","
","""event"",""trial"",""time""
""fullscreenenter"",""1"",""2367""
","
","","","538.2999999523163","","","25","16602","2286","j","elianto","#f73b6a7A"," "," ","1","0","[1389.1000000238419]","1","2","","","16602","51","0","3","lose","go","0"
"pit-trial","170","1187242","0.0-56.0","battery-v0.2","","""event"",""trial"",""time""
""fullscreenenter"",""1"",""2367""
","
","
","""event"",""trial"",""time""
""fullscreenenter"",""1"",""2367""
","
","","","-1","","","25","16602","2286","d","elianto","#3366ff99","-1","-1","1","+10","[]","0","2","","","16602","52","1","2","win","no-go","0"
"pit-trial","171","1192094","0.0-57.0","battery-v0.2","","""event"",""trial"",""time""
""fullscreenenter"",""1"",""2367""
","
","
","""event"",""trial"",""time""
""fullscreenenter"",""1"",""2367""
","
","","","-1","","","25","16602","2286","d","elianto","#3366ff99","-1","-1","1","+10","[]","0","2","","","16602","53","1","2","win","no-go","0"
"pit-trial","172","1196181","0.0-58.0","battery-v0.2","","""event"",""trial"",""time""
""fullscreenenter"",""1"",""2367""
","
","
","""event"",""trial"",""time""
""fullscreenenter"",""1"",""2367""
","
","","","1233.7000000476837","","","25","16602","2286","e","elianto","#f73b6a7A"," "," ","1","0","[2084]","1","2","","","16602","54","2","3","lose","go","0"
"pit-trial","173","1201035","0.0-59.0","battery-v0.2","","""event"",""trial"",""time""
""fullscreenenter"",""1"",""2367""
","
","
","""event"",""trial"",""time""
""fullscreenenter"",""1"",""2367""
","
","","","-1","","","25","16602","2286","w","elianto","#f73b6a7A","-1","-1","1","0","[]","0","2","","","16602","55","3","4","lose","no-go","0"
"pit-trial","174","1204878","0.0-60.0","battery-v0.2","","""event"",""trial"",""time""
""fullscreenenter"",""1"",""2367""
","
","
","""event"",""trial"",""time""
""fullscreenenter"",""1"",""2367""
","
","","","989.7000000476837","","","25","16602","2286","j","elianto","#f73b6a7A"," "," ","1","0","[1839.8000000715256]","1","2","","","16602","56","0","3","lose","go","0"
"pit-trial","175","1209109","0.0-61.0","battery-v0.2","","""event"",""trial"",""time""
""fullscreenenter"",""1"",""2367""
","
","
","""event"",""trial"",""time""
""fullscreenenter"",""1"",""2367""
","
","","","1378.8999999761581","","","25","16602","2286","s","elianto","#3366ff99"," "," ","1","+10","[2229.5]","1","2","","","16602","57","4","1","win","go","0"
"pit-trial","176","1213962","0.0-62.0","battery-v0.2","","""event"",""trial"",""time""
""fullscreenenter"",""1"",""2367""
","
","
","""event"",""trial"",""time""
""fullscreenenter"",""1"",""2367""
","
","","","-1","","","25","16602","2286","w","elianto","#f73b6a7A","-1","-1","1","0","[]","0","2","","","16602","58","3","4","lose","no-go","0"
"pit-trial","177","1217437","0.0-63.0","battery-v0.2","","""event"",""trial"",""time""
""fullscreenenter"",""1"",""2367""
","
","
","""event"",""trial"",""time""
""fullscreenenter"",""1"",""2367""
","
","","","621.1000000238419","","","25","16602","2286","j","elianto","#f73b6a7A"," "," ","1","0","[1472.3999999761581]","1","2","","","16602","59","0","3","lose","go","0"
"pit-trial","178","1221142","0.0-64.0","battery-v0.2","","""event"",""trial"",""time""
""fullscreenenter"",""1"",""2367""
","
","
","""event"",""trial"",""time""
""fullscreenenter"",""1"",""2367""
","
","","","851.2000000476837","","","25","16602","2286","e","elianto","#f73b6a7A"," "," ","1","0","[1701.8000000715256]","1","2","","","16602","60","2","3","lose","go","0"
"pit-trial","179","1224549","0.0-65.0","battery-v0.2","","""event"",""trial"",""time""
""fullscreenenter"",""1"",""2367""
","
","
","""event"",""trial"",""time""
""fullscreenenter"",""1"",""2367""
","
","","","552.7000000476837","","","25","16602","2286","s","elianto","#3366ff99"," "," ","1","+10","[1403.6000000238419]","1","2","","","16602","61","4","1","win","go","0"
"pit-trial","180","1228645","0.0-66.0","battery-v0.2","","""event"",""trial"",""time""
""fullscreenenter"",""1"",""2367""
","
","
","""event"",""trial"",""time""
""fullscreenenter"",""1"",""2367""
","
","","","1242.2999999523163","","","25","16602","2286","d","elianto","#3366ff99","-1"," ","0","0","[2092.899999976158]","1","2","","","16602","62","1","2","win","no-go","0"
"pit-trial","181","1233499","0.0-67.0","battery-v0.2","","""event"",""trial"",""time""
""fullscreenenter"",""1"",""2367""
","
","
","""event"",""trial"",""time""
""fullscreenenter"",""1"",""2367""
","
","","","-1","","","25","16602","2286","w","elianto","#f73b6a7A","-1","-1","1","-10","[]","0","2","","","16602","63","3","4","lose","no-go","1"
"pit-trial","182","1237189","0.0-68.0","battery-v0.2","","""event"",""trial"",""time""
""fullscreenenter"",""1"",""2367""
","
","
","""event"",""trial"",""time""
""fullscreenenter"",""1"",""2367""
","
","","","836.4000000953674","","","25","16602","2286","e","elianto","#f73b6a7A"," "," ","1","0","[1687.5]","1","2","","","16602","64","2","3","lose","go","0"
"pit-trial","183","1242042","0.0-69.0","battery-v0.2","","""event"",""trial"",""time""
""fullscreenenter"",""1"",""2367""
","
","
","""event"",""trial"",""time""
""fullscreenenter"",""1"",""2367""
","
","","","-1","","","25","16602","2286","d","elianto","#3366ff99","-1","-1","1","+10","[]","0","2","","","16602","65","1","2","win","no-go","0"
"pit-trial","184","1245789","0.0-70.0","battery-v0.2","","""event"",""trial"",""time""
""fullscreenenter"",""1"",""2367""
","
","
","""event"",""trial"",""time""
""fullscreenenter"",""1"",""2367""
","
","","","893.5","","","25","16602","2286","p","elianto","#3366ff99","-1"," ","0","+10","[1744.5]","1","2","","","16602","66","5","2","win","no-go","1"
"pit-trial","185","1250642","0.0-71.0","battery-v0.2","","""event"",""trial"",""time""
""fullscreenenter"",""1"",""2367""
","
","
","""event"",""trial"",""time""
""fullscreenenter"",""1"",""2367""
","
","","","-1","","","25","16602","2286","w","elianto","#f73b6a7A","-1","-1","1","0","[]","0","2","","","16602","67","3","4","lose","no-go","0"
"pit-trial","186","1254661","0.0-72.0","battery-v0.2","","""event"",""trial"",""time""
""fullscreenenter"",""1"",""2367""
","
","
","""event"",""trial"",""time""
""fullscreenenter"",""1"",""2367""
","
","","","1165.3000000715256","","","25","16602","2286","s","elianto","#3366ff99"," "," ","1","+10","[2016.3000000715256]","1","2","","","16602","68","4","1","win","go","0"
"pit-trial","187","1258341","0.0-73.0","battery-v0.2","","""event"",""trial"",""time""
""fullscreenenter"",""1"",""2367""
","
","
","""event"",""trial"",""time""
""fullscreenenter"",""1"",""2367""
","
","","","826.3999999761581","","","25","16602","2286","d","elianto","#3366ff99","-1"," ","0","+10","[1677.3999999761581]","1","2","","","16602","69","1","2","win","no-go","1"
"pit-trial","188","1262093","0.0-74.0","battery-v0.2","","""event"",""trial"",""time""
""fullscreenenter"",""1"",""2367""
","
","
","""event"",""trial"",""time""
""fullscreenenter"",""1"",""2367""
","
","","","898.8999999761581","","","25","16602","2286","e","elianto","#f73b6a7A"," "," ","1","0","[1749.0999999046326]","1","2","","","16602","70","2","3","lose","go","0"
"pit-trial","189","1265741","0.0-75.0","battery-v0.2","","""event"",""trial"",""time""
""fullscreenenter"",""1"",""2367""
","
","
","""event"",""trial"",""time""
""fullscreenenter"",""1"",""2367""
","
","","","794.6000000238419","","","25","16602","2286","p","elianto","#3366ff99","-1"," ","0","+10","[1645.1999999284744]","1","2","","","16602","71","5","2","win","no-go","1"
"pit-trial","190","1269286","0.0-76.0","battery-v0.2","","""event"",""trial"",""time""
""fullscreenenter"",""1"",""2367""
","
","
","""event"",""trial"",""time""
""fullscreenenter"",""1"",""2367""
","
","","","690.1999999284744","","","25","16602","2286","s","elianto","#3366ff99"," "," ","1","+10","[1541.2999999523163]","1","2","","","16602","72","4","1","win","go","0"
"pit-trial","191","1272725","0.0-77.0","battery-v0.2","","""event"",""trial"",""time""
""fullscreenenter"",""1"",""2367""
","
","
","""event"",""trial"",""time""
""fullscreenenter"",""1"",""2367""
","
","","","585.2999999523163","","","25","16602","2286","d","elianto","#3366ff99","-1"," ","0","0","[1436.3999999761581]","1","2","","","16602","73","1","2","win","no-go","0"
"pit-trial","192","1277581","0.0-78.0","battery-v0.2","","""event"",""trial"",""time""
""fullscreenenter"",""1"",""2367""
","
","
","""event"",""trial"",""time""
""fullscreenenter"",""1"",""2367""
","
","","","-1","","","25","16602","2286","w","elianto","#f73b6a7A","-1","-1","1","-10","[]","0","2","","","16602","74","3","4","lose","no-go","1"
"pit-trial","193","1282118","0.0-79.0","battery-v0.2","","""event"",""trial"",""time""
""fullscreenenter"",""1"",""2367""
","
","
","""event"",""trial"",""time""
""fullscreenenter"",""1"",""2367""
","
","","","1682.8000000715256","","","25","16602","2286","p","elianto","#3366ff99","-1"," ","0","0","[2533.8000000715256]","1","2","","","16602","75","5","2","win","no-go","0"
"pit-trial","194","1285597","0.0-80.0","battery-v0.2","","""event"",""trial"",""time""
""fullscreenenter"",""1"",""2367""
","
","
","""event"",""trial"",""time""
""fullscreenenter"",""1"",""2367""
","
","","","625.1999999284744","","","25","16602","2286","s","elianto","#3366ff99"," "," ","1","+10","[1476.3000000715256]","1","2","","","16602","76","4","1","win","go","0"
"pit-trial","195","1289229","0.0-81.0","battery-v0.2","","""event"",""trial"",""time""
""fullscreenenter"",""1"",""2367""
","
","
","""event"",""trial"",""time""
""fullscreenenter"",""1"",""2367""
","
","","","777.1999999284744","","","25","16602","2286","s","elianto","#3366ff99"," "," ","1","+10","[1629.1999999284744]","1","2","","","16602","77","4","1","win","go","0"
"pit-trial","196","1294082","0.0-82.0","battery-v0.2","","""event"",""trial"",""time""
""fullscreenenter"",""1"",""2367""
","
","
","""event"",""trial"",""time""
""fullscreenenter"",""1"",""2367""
","
","","","-1","","","25","16602","2286","w","elianto","#f73b6a7A","-1","-1","1","0","[]","0","2","","","16602","78","3","4","lose","no-go","0"
"pit-trial","197","1297493","0.0-83.0","battery-v0.2","","""event"",""trial"",""time""
""fullscreenenter"",""1"",""2367""
","
","
","""event"",""trial"",""time""
""fullscreenenter"",""1"",""2367""
","
","","","558.2999999523163","","","25","16602","2286","s","elianto","#3366ff99"," "," ","1","0","[1408.7000000476837]","1","2","","","16602","79","4","1","win","go","1"
"pit-trial","198","1301070","0.0-84.0","battery-v0.2","","""event"",""trial"",""time""
""fullscreenenter"",""1"",""2367""
","
","
","""event"",""trial"",""time""
""fullscreenenter"",""1"",""2367""
","
","","","722.2000000476837","","","25","16602","2286","p","elianto","#3366ff99","-1"," ","0","0","[1573.1999999284744]","1","2","","","16602","80","5","2","win","no-go","0"
"pit-trial","199","1305923","0.0-85.0","battery-v0.2","","""event"",""trial"",""time""
""fullscreenenter"",""1"",""2367""
","
","
","""event"",""trial"",""time""
""fullscreenenter"",""1"",""2367""
","
","","","-1","","","25","16602","2286","w","elianto","#f73b6a7A","-1","-1","1","0","[]","0","2","","","16602","81","3","4","lose","no-go","0"
"pit-trial","200","1309485","0.0-86.0","battery-v0.2","","""event"",""trial"",""time""
""fullscreenenter"",""1"",""2367""
","
","
","""event"",""trial"",""time""
""fullscreenenter"",""1"",""2367""
","
","","","708.9000000953674","","","25","16602","2286","p","elianto","#3366ff99","-1"," ","0","0","[1559.1000000238419]","1","2","","","16602","82","5","2","win","no-go","0"
"pit-trial","201","1312957","0.0-87.0","battery-v0.2","","""event"",""trial"",""time""
""fullscreenenter"",""1"",""2367""
","
","
","""event"",""trial"",""time""
""fullscreenenter"",""1"",""2367""
","
","","","618.8999999761581","","","25","16602","2286","s","elianto","#3366ff99"," "," ","1","+10","[1469.1999999284744]","1","2","","","16602","83","4","1","win","go","0"
"pit-trial","202","1317812","0.0-88.0","battery-v0.2","","""event"",""trial"",""time""
""fullscreenenter"",""1"",""2367""
","
","
","""event"",""trial"",""time""
""fullscreenenter"",""1"",""2367""
","
","","","-1","","","25","16602","2286","a","elianto","#f73b6a7A","-1","-1","1","-10","[]","0","2","","","16602","84","7","4","lose","no-go","1"
"pit-trial","203","1321293","0.0-89.0","battery-v0.2","","""event"",""trial"",""time""
""fullscreenenter"",""1"",""2367""
","
","
","""event"",""trial"",""time""
""fullscreenenter"",""1"",""2367""
","
","","","627.5","","","25","16602","2286","s","elianto","#3366ff99"," "," ","1","+10","[1478.2000000476837]","1","2","","","16602","85","4","1","win","go","0"
"pit-trial","204","1324733","0.0-90.0","battery-v0.2","","""event"",""trial"",""time""
""fullscreenenter"",""1"",""2367""
","
","
","""event"",""trial"",""time""
""fullscreenenter"",""1"",""2367""
","
","","","585.8999999761581","","","25","16602","2286","p","elianto","#3366ff99","-1"," ","0","0","[1437]","1","2","","","16602","86","5","2","win","no-go","0"
"pit-trial","205","1328597","0.0-91.0","battery-v0.2","","""event"",""trial"",""time""
""fullscreenenter"",""1"",""2367""
","
","
","""event"",""trial"",""time""
""fullscreenenter"",""1"",""2367""
","
","","","1010.2999999523163","","","25","16602","2286","a","elianto","#f73b6a7A","-1"," ","0","-10","[1860.7999999523163]","1","2","","","16602","87","7","4","lose","no-go","0"
"pit-trial","206","1332573","0.0-92.0","battery-v0.2","","""event"",""trial"",""time""
""fullscreenenter"",""1"",""2367""
","
","
","""event"",""trial"",""time""
""fullscreenenter"",""1"",""2367""
","
","","","1122","","","25","16602","2286","g","elianto","#f73b6a7A"," "," ","1","-10","[1973]","1","2","","","16602","88","6","3","lose","go","1"
"pit-trial","207","1336061","0.0-93.0","battery-v0.2","","""event"",""trial"",""time""
""fullscreenenter"",""1"",""2367""
","
","
","""event"",""trial"",""time""
""fullscreenenter"",""1"",""2367""
","
","","","634","","","25","16602","2286","s","elianto","#3366ff99"," "," ","1","+10","[1484.8999999761581]","1","2","","","16602","89","4","1","win","go","0"
"pit-trial","208","1339453","0.0-94.0","battery-v0.2","","""event"",""trial"",""time""
""fullscreenenter"",""1"",""2367""
","
","
","""event"",""trial"",""time""
""fullscreenenter"",""1"",""2367""
","
","","","538.5","","","25","16602","2286","p","elianto","#3366ff99","-1"," ","0","0","[1388.9000000953674]","1","2","","","16602","90","5","2","win","no-go","0"
"pit-trial","209","1344307","0.0-95.0","battery-v0.2","","""event"",""trial"",""time""
""fullscreenenter"",""1"",""2367""
","
","
","""event"",""trial"",""time""
""fullscreenenter"",""1"",""2367""
","
","","","-1","","","25","16602","2286","g","elianto","#f73b6a7A"," ","-1","0","-10","[]","0","2","","","16602","91","6","3","lose","go","0"
"pit-trial","210","1347997","0.0-96.0","battery-v0.2","","""event"",""trial"",""time""
""fullscreenenter"",""1"",""2367""
","
","
","""event"",""trial"",""time""
""fullscreenenter"",""1"",""2367""
","
","","","837","","","25","16602","2286","a","elianto","#f73b6a7A","-1"," ","0","-10","[1687]","1","2","","","16602","92","7","4","lose","no-go","0"
"pit-trial","211","1352851","0.0-97.0","battery-v0.2","","""event"",""trial"",""time""
""fullscreenenter"",""1"",""2367""
","
","
","""event"",""trial"",""time""
""fullscreenenter"",""1"",""2367""
","
","","","-1","","","25","16602","2286","a","elianto","#f73b6a7A","-1","-1","1","0","[]","0","2","","","16602","93","7","4","lose","no-go","0"
"pit-trial","212","1356597","0.0-98.0","battery-v0.2","","""event"",""trial"",""time""
""fullscreenenter"",""1"",""2367""
","
","
","""event"",""trial"",""time""
""fullscreenenter"",""1"",""2367""
","
","","","893.1000000238419","","","25","16602","2286","g","elianto","#f73b6a7A"," "," ","1","0","[1743.0999999046326]","1","2","","","16602","94","6","3","lose","go","0"
"pit-trial","213","1360373","0.0-99.0","battery-v0.2","","""event"",""trial"",""time""
""fullscreenenter"",""1"",""2367""
","
","
","""event"",""trial"",""time""
""fullscreenenter"",""1"",""2367""
","
","","","921.6000000238419","","","25","16602","2286","l","elianto","#3366ff99"," "," ","1","0","[1773.2000000476837]","1","2","","","16602","95","8","1","win","go","1"
"pit-trial","214","1363821","0.0-100.0","battery-v0.2","","""event"",""trial"",""time""
""fullscreenenter"",""1"",""2367""
","
","
","""event"",""trial"",""time""
""fullscreenenter"",""1"",""2367""
","
","","","594.3999999761581","","","25","16602","2286","p","elianto","#3366ff99","-1"," ","0","0","[1446.1000000238419]","1","2","","","16602","96","5","2","win","no-go","0"
"pit-trial","215","1367421","0.0-101.0","battery-v0.2","","""event"",""trial"",""time""
""fullscreenenter"",""1"",""2367""
","
","
","""event"",""trial"",""time""
""fullscreenenter"",""1"",""2367""
","
","","","746.1000000238419","","","25","16602","2286","l","elianto","#3366ff99"," "," ","1","0","[1597]","1","2","","","16602","97","8","1","win","go","1"
"pit-trial","216","1371021","0.0-102.0","battery-v0.2","","""event"",""trial"",""time""
""fullscreenenter"",""1"",""2367""
","
","
","""event"",""trial"",""time""
""fullscreenenter"",""1"",""2367""
","
","","","745.8999999761581","","","25","16602","2286","g","elianto","#f73b6a7A"," "," ","1","0","[1597]","1","2","","","16602","98","6","3","lose","go","0"
"pit-trial","217","1374724","0.0-103.0","battery-v0.2","","""event"",""trial"",""time""
""fullscreenenter"",""1"",""2367""
","
","
","""event"",""trial"",""time""
""fullscreenenter"",""1"",""2367""
","
","","","850.3000000715256","","","25","16602","2286","a","elianto","#f73b6a7A","-1"," ","0","0","[1700.8000000715256]","1","2","","","16602","99","7","4","lose","no-go","1"
"pit-trial","218","1378292","0.0-104.0","battery-v0.2","","""event"",""trial"",""time""
""fullscreenenter"",""1"",""2367""
","
","
","""event"",""trial"",""time""
""fullscreenenter"",""1"",""2367""
","
","","","715.1000000238419","","","25","16602","2286","p","elianto","#3366ff99","-1"," ","0","+10","[1565.2999999523163]","1","2","","","16602","100","5","2","win","no-go","1"
"pit-trial","219","1381845","0.0-105.0","battery-v0.2","","""event"",""trial"",""time""
""fullscreenenter"",""1"",""2367""
","
","
","""event"",""trial"",""time""
""fullscreenenter"",""1"",""2367""
","
","","","699.9000000953674","","","25","16602","2286","u","elianto","#3366ff99"," "," ","1","0","[1550]","1","2","","","16602","101","9","1","win","go","1"
"pit-trial","220","1385860","0.0-106.0","battery-v0.2","","""event"",""trial"",""time""
""fullscreenenter"",""1"",""2367""
","
","
","""event"",""trial"",""time""
""fullscreenenter"",""1"",""2367""
","
","","","1162","","","25","16602","2286","a","elianto","#f73b6a7A","-1"," ","0","-10","[2013.2999999523163]","1","2","","","16602","102","7","4","lose","no-go","0"
"pit-trial","221","1389316","0.0-107.0","battery-v0.2","","""event"",""trial"",""time""
""fullscreenenter"",""1"",""2367""
","
","
","""event"",""trial"",""time""
""fullscreenenter"",""1"",""2367""
","
","","","603.1000000238419","","","25","16602","2286","p","elianto","#3366ff99","-1"," ","0","0","[1453.7999999523163]","1","2","","","16602","103","5","2","win","no-go","0"
"pit-trial","222","1392773","0.0-108.0","battery-v0.2","","""event"",""trial"",""time""
""fullscreenenter"",""1"",""2367""
","
","
","""event"",""trial"",""time""
""fullscreenenter"",""1"",""2367""
","
","","","603.8000000715256","","","25","16602","2286","l","elianto","#3366ff99"," "," ","1","+10","[1454.2000000476837]","1","2","","","16602","104","8","1","win","go","0"
"pit-trial","223","1396189","0.0-109.0","battery-v0.2","","""event"",""trial"",""time""
""fullscreenenter"",""1"",""2367""
","
","
","""event"",""trial"",""time""
""fullscreenenter"",""1"",""2367""
","
","","","562.2999999523163","","","25","16602","2286","s","elianto","#3366ff99"," "," ","1","+10","[1413.1999999284744]","1","2","","","16602","105","4","1","win","go","0"
"pit-trial","224","1399844","0.0-110.0","battery-v0.2","","""event"",""trial"",""time""
""fullscreenenter"",""1"",""2367""
","
","
","""event"",""trial"",""time""
""fullscreenenter"",""1"",""2367""
","
","","","801.3000000715256","","","25","16602","2286","g","elianto","#f73b6a7A"," "," ","1","0","[1653]","1","2","","","16602","106","6","3","lose","go","0"
"pit-trial","225","1403222","0.0-111.0","battery-v0.2","","""event"",""trial"",""time""
""fullscreenenter"",""1"",""2367""
","
","
","""event"",""trial"",""time""
""fullscreenenter"",""1"",""2367""
","
","","","522.3999999761581","","","25","16602","2286","l","elianto","#3366ff99"," "," ","1","+10","[1374.2999999523163]","1","2","","","16602","107","8","1","win","go","0"
"pit-trial","226","1406629","0.0-112.0","battery-v0.2","","""event"",""trial"",""time""
""fullscreenenter"",""1"",""2367""
","
","
","""event"",""trial"",""time""
""fullscreenenter"",""1"",""2367""
","
","","","554.0999999046326","","","25","16602","2286","u","elianto","#3366ff99"," "," ","1","0","[1405.0999999046326]","1","2","","","16602","108","9","1","win","go","1"
"pit-trial","227","1409805","0.0-113.0","battery-v0.2","","""event"",""trial"",""time""
""fullscreenenter"",""1"",""2367""
","
","
","""event"",""trial"",""time""
""fullscreenenter"",""1"",""2367""
","
","","","323","","","25","16602","2286","u","elianto","#3366ff99"," "," ","1","+10","[1173.4000000953674]","1","2","","","16602","109","9","1","win","go","0"
"pit-trial","228","1413358","0.0-114.0","battery-v0.2","","""event"",""trial"",""time""
""fullscreenenter"",""1"",""2367""
","
","
","""event"",""trial"",""time""
""fullscreenenter"",""1"",""2367""
","
","","","697.8999999761581","","","25","16602","2286","g","elianto","#f73b6a7A"," "," ","1","0","[1549.2999999523163]","1","2","","","16602","110","6","3","lose","go","0"
"pit-trial","229","1416725","0.0-115.0","battery-v0.2","","""event"",""trial"",""time""
""fullscreenenter"",""1"",""2367""
","
","
","""event"",""trial"",""time""
""fullscreenenter"",""1"",""2367""
","
","","","514.7999999523163","","","25","16602","2286","l","elianto","#3366ff99"," "," ","1","+10","[1365.3999999761581]","1","2","","","16602","111","8","1","win","go","0"
"pit-trial","230","1420038","0.0-116.0","battery-v0.2","","""event"",""trial"",""time""
""fullscreenenter"",""1"",""2367""
","
","
","""event"",""trial"",""time""
""fullscreenenter"",""1"",""2367""
","
","","","458.39999997615814","","","25","16602","2286","p","elianto","#3366ff99","-1"," ","0","0","[1309.2999999523163]","1","2","","","16602","112","5","2","win","no-go","0"
"pit-trial","231","1423254","0.0-117.0","battery-v0.2","","""event"",""trial"",""time""
""fullscreenenter"",""1"",""2367""
","
","
","""event"",""trial"",""time""
""fullscreenenter"",""1"",""2367""
","
","","","361.40000009536743","","","25","16602","2286","p","elianto","#3366ff99","-1"," ","0","+10","[1212.9000000953674]","1","2","","","16602","113","5","2","win","no-go","1"
"pit-trial","232","1426317","0.0-118.0","battery-v0.2","","""event"",""trial"",""time""
""fullscreenenter"",""1"",""2367""
","
","
","""event"",""trial"",""time""
""fullscreenenter"",""1"",""2367""
","
","","","210.29999995231628","","","25","16602","2286","u","elianto","#3366ff99"," "," ","1","+10","[1061.2000000476837]","1","2","","","16602","114","9","1","win","go","0"
"pit-trial","233","1429453","0.0-119.0","battery-v0.2","","""event"",""trial"",""time""
""fullscreenenter"",""1"",""2367""
","
","
","""event"",""trial"",""time""
""fullscreenenter"",""1"",""2367""
","
","","","281.5","","","25","16602","2286","g","elianto","#f73b6a7A"," "," ","1","0","[1133.3000000715256]","1","2","","","16602","115","6","3","lose","go","0"
"pit-trial","234","1432845","0.0-120.0","battery-v0.2","","""event"",""trial"",""time""
""fullscreenenter"",""1"",""2367""
","
","
","""event"",""trial"",""time""
""fullscreenenter"",""1"",""2367""
","
","","","538.0999999046326","","","25","16602","2286","l","elianto","#3366ff99"," "," ","1","+10","[1389]","1","2","","","16602","116","8","1","win","go","0"
"pit-trial","235","1436117","0.0-121.0","battery-v0.2","","""event"",""trial"",""time""
""fullscreenenter"",""1"",""2367""
","
","
","""event"",""trial"",""time""
""fullscreenenter"",""1"",""2367""
","
","","","418.59999990463257","","","25","16602","2286","u","elianto","#3366ff99"," "," ","1","+10","[1269.1000000238419]","1","2","","","16602","117","9","1","win","go","0"
"pit-trial","236","1439357","0.0-122.0","battery-v0.2","","""event"",""trial"",""time""
""fullscreenenter"",""1"",""2367""
","
","
","""event"",""trial"",""time""
""fullscreenenter"",""1"",""2367""
","
","","","387","","","25","16602","2286","l","elianto","#3366ff99"," "," ","1","+10","[1237.3999999761581]","1","2","","","16602","118","8","1","win","go","0"
"pit-trial","237","1442677","0.0-123.0","battery-v0.2","","""event"",""trial"",""time""
""fullscreenenter"",""1"",""2367""
","
","
","""event"",""trial"",""time""
""fullscreenenter"",""1"",""2367""
","
","","","465","","","25","16602","2286","g","elianto","#f73b6a7A"," "," ","1","0","[1317.1000000238419]","1","2","","","16602","119","6","3","lose","go","0"
"pit-trial","238","1445909","0.0-124.0","battery-v0.2","","""event"",""trial"",""time""
""fullscreenenter"",""1"",""2367""
","
","
","""event"",""trial"",""time""
""fullscreenenter"",""1"",""2367""
","
","","","378.39999997615814","","","25","16602","2286","p","elianto","#3366ff99","-1"," ","0","0","[1228.8999999761581]","1","2","","","16602","120","5","2","win","no-go","0"
"pit-trial","239","1449061","0.0-125.0","battery-v0.2","","""event"",""trial"",""time""
""fullscreenenter"",""1"",""2367""
","
","
","""event"",""trial"",""time""
""fullscreenenter"",""1"",""2367""
","
","","","298.2000000476837","","","25","16602","2286","g","elianto","#f73b6a7A"," "," ","1","0","[1149.1000000238419]","1","2","","","16602","121","6","3","lose","go","0"
"pit-trial","240","1452181","0.0-126.0","battery-v0.2","","""event"",""trial"",""time""
""fullscreenenter"",""1"",""2367""
","
","
","""event"",""trial"",""time""
""fullscreenenter"",""1"",""2367""
","
","","","266.6999999284744","","","25","16602","2286","a","elianto","#f73b6a7A","-1"," ","0","-10","[1117.1000000238419]","1","2","","","16602","122","7","4","lose","no-go","0"
"pit-trial","241","1455341","0.0-127.0","battery-v0.2","","""event"",""trial"",""time""
""fullscreenenter"",""1"",""2367""
","
","
","""event"",""trial"",""time""
""fullscreenenter"",""1"",""2367""
","
","","","306.60000002384186","","","25","16602","2286","l","elianto","#3366ff99"," "," ","1","0","[1156.6000000238419]","1","2","","","16602","123","8","1","win","go","1"
"pit-trial","242","1458573","0.0-128.0","battery-v0.2","","""event"",""trial"",""time""
""fullscreenenter"",""1"",""2367""
","
","
","""event"",""trial"",""time""
""fullscreenenter"",""1"",""2367""
","
","","","378.40000009536743","","","25","16602","2286","u","elianto","#3366ff99"," "," ","1","+10","[1229.4000000953674]","1","2","","","16602","124","9","1","win","go","0"
"pit-trial","243","1461837","0.0-129.0","battery-v0.2","","""event"",""trial"",""time""
""fullscreenenter"",""1"",""2367""
","
","
","""event"",""trial"",""time""
""fullscreenenter"",""1"",""2367""
","
","","","410.2000000476837","","","25","16602","2286","a","elianto","#f73b6a7A","-1"," ","0","-10","[1260.9000000953674]","1","2","","","16602","125","7","4","lose","no-go","0"
"pit-trial","244","1465677","0.0-130.0","battery-v0.2","","""event"",""trial"",""time""
""fullscreenenter"",""1"",""2367""
","
","
","""event"",""trial"",""time""
""fullscreenenter"",""1"",""2367""
","
","","","986.1000000238419","","","25","16602","2286","g","elianto","#f73b6a7A"," "," ","1","0","[1837.7000000476837]","1","2","","","16602","126","6","3","lose","go","0"
"pit-trial","245","1468981","0.0-131.0","battery-v0.2","","""event"",""trial"",""time""
""fullscreenenter"",""1"",""2367""
","
","
","""event"",""trial"",""time""
""fullscreenenter"",""1"",""2367""
","
","","","451.60000002384186","","","25","16602","2286","l","elianto","#3366ff99"," "," ","1","+10","[1301.7000000476837]","1","2","","","16602","127","8","1","win","go","0"
"pit-trial","246","1472197","0.0-132.0","battery-v0.2","","""event"",""trial"",""time""
""fullscreenenter"",""1"",""2367""
","
","
","""event"",""trial"",""time""
""fullscreenenter"",""1"",""2367""
","
","","","362.2999999523163","","","25","16602","2286","u","elianto","#3366ff99"," "," ","1","+10","[1213.1000000238419]","1","2","","","16602","128","9","1","win","go","0"
"pit-trial","247","1475317","0.0-133.0","battery-v0.2","","""event"",""trial"",""time""
""fullscreenenter"",""1"",""2367""
","
","
","""event"",""trial"",""time""
""fullscreenenter"",""1"",""2367""
","
","","","265.5","","","25","16602","2286","l","elianto","#3366ff99"," "," ","1","+10","[1117.3000000715256]","1","2","","","16602","129","8","1","win","go","0"
"pit-trial","248","1478501","0.0-134.0","battery-v0.2","","""event"",""trial"",""time""
""fullscreenenter"",""1"",""2367""
","
","
","""event"",""trial"",""time""
""fullscreenenter"",""1"",""2367""
","
","","","330.39999997615814","","","25","16602","2286","u","elianto","#3366ff99"," "," ","1","+10","[1181.5]","1","2","","","16602","130","9","1","win","go","0"
"pit-trial","249","1481693","0.0-135.0","battery-v0.2","","""event"",""trial"",""time""
""fullscreenenter"",""1"",""2367""
","
","
","""event"",""trial"",""time""
""fullscreenenter"",""1"",""2367""
","
","","","338","","","25","16602","2286","g","elianto","#f73b6a7A"," "," ","1","-10","[1188.8999999761581]","1","2","","","16602","131","6","3","lose","go","1"
"pit-trial","250","1486548","0.0-136.0","battery-v0.2","","""event"",""trial"",""time""
""fullscreenenter"",""1"",""2367""
","
","
","""event"",""trial"",""time""
""fullscreenenter"",""1"",""2367""
","
","","","-1","","","25","16602","2286","a","elianto","#f73b6a7A","-1","-1","1","0","[]","0","2","","","16602","132","7","4","lose","no-go","0"
"pit-trial","251","1491402","0.0-137.0","battery-v0.2","","""event"",""trial"",""time""
""fullscreenenter"",""1"",""2367""
","
","
","""event"",""trial"",""time""
""fullscreenenter"",""1"",""2367""
","
","","","-1","","","25","16602","2286","a","elianto","#f73b6a7A","-1","-1","1","0","[]","0","2","","","16602","133","7","4","lose","no-go","0"
"pit-trial","252","1495053","0.0-138.0","battery-v0.2","","""event"",""trial"",""time""
""fullscreenenter"",""1"",""2367""
","
","
","""event"",""trial"",""time""
""fullscreenenter"",""1"",""2367""
","
","","","798.1000000238419","","","25","16602","2286","g","elianto","#f73b6a7A"," "," ","1","0","[1648.1999999284744]","1","2","","","16602","134","6","3","lose","go","0"
"pit-trial","253","1498557","0.0-139.0","battery-v0.2","","""event"",""trial"",""time""
""fullscreenenter"",""1"",""2367""
","
","
","""event"",""trial"",""time""
""fullscreenenter"",""1"",""2367""
","
","","","649.6000000238419","","","25","16602","2286","u","elianto","#3366ff99"," "," ","1","0","[1500.3000000715256]","1","2","","","16602","135","9","1","win","go","1"
"pit-trial","254","1501909","0.0-140.0","battery-v0.2","","""event"",""trial"",""time""
""fullscreenenter"",""1"",""2367""
","
","
","""event"",""trial"",""time""
""fullscreenenter"",""1"",""2367""
","
","","","497.90000009536743","","","25","16602","2286","l","elianto","#3366ff99"," "," ","1","+10","[1349.5]","1","2","","","16602","136","8","1","win","go","0"
"pit-trial","255","1505229","0.0-141.0","battery-v0.2","","""event"",""trial"",""time""
""fullscreenenter"",""1"",""2367""
","
","
","""event"",""trial"",""time""
""fullscreenenter"",""1"",""2367""
","
","","","466.2999999523163","","","25","16602","2286","u","elianto","#3366ff99"," "," ","1","+10","[1317.1000000238419]","1","2","","","16602","137","9","1","win","go","0"
"pit-trial","256","1508557","0.0-142.0","battery-v0.2","","""event"",""trial"",""time""
""fullscreenenter"",""1"",""2367""
","
","
","""event"",""trial"",""time""
""fullscreenenter"",""1"",""2367""
","
","","","474.40000009536743","","","25","16602","2286","l","elianto","#3366ff99"," "," ","1","0","[1324.8000000715256]","1","2","","","16602","138","8","1","win","go","1"
"pit-trial","257","1511845","0.0-143.0","battery-v0.2","","""event"",""trial"",""time""
""fullscreenenter"",""1"",""2367""
","
","
","""event"",""trial"",""time""
""fullscreenenter"",""1"",""2367""
","
","","","433.60000002384186","","","25","16602","2286","a","elianto","#f73b6a7A","-1"," ","0","-10","[1285.1000000238419]","1","2","","","16602","139","7","4","lose","no-go","0"
"pit-trial","258","1516699","0.0-144.0","battery-v0.2","","""event"",""trial"",""time""
""fullscreenenter"",""1"",""2367""
","
","
","""event"",""trial"",""time""
""fullscreenenter"",""1"",""2367""
","
","","","-1","","","25","16602","2286","g","elianto","#f73b6a7A"," ","-1","0","-10","[]","0","2","","","16602","140","6","3","lose","go","0"
"pit-instructions","259","1550243","0.0-145.0","battery-v0.2","","""event"",""trial"",""time""
""fullscreenenter"",""1"",""2367""
","
","
","""event"",""trial"",""time""
""fullscreenenter"",""1"",""2367""
","
","","[{""page_index"":0,""viewing_time"":22798.299999952316},{""page_index"":1,""viewing_time"":10743.899999976158}]","33542.39999997616","","","","","","","","","","","","","","","","","","","","","","","",""
"pit-trial","260","1553990","0.0-146.0","battery-v0.2","","""event"",""trial"",""time""
""fullscreenenter"",""1"",""2367""
","
","
","""event"",""trial"",""time""
""fullscreenenter"",""1"",""2367""
","
","","","875.8999999761581","","","25","16602","2286","r","elianto","#3366ff99"," "," ","1","+10","[1726.3999999761581]","1","3","","","16602","141","1","1","win","go","0"
"pit-trial","261","1557430","0.0-147.0","battery-v0.2","","""event"",""trial"",""time""
""fullscreenenter"",""1"",""2367""
","
","
","""event"",""trial"",""time""
""fullscreenenter"",""1"",""2367""
","
","","","570.5","","","25","16602","2286","m","elianto","#f73b6a7A","-1"," ","0","0","[1428.2999999523163]","1","3","","","16602","142","0","4","lose","no-go","1"
"pit-trial","262","1560949","0.0-148.0","battery-v0.2","","""event"",""trial"",""time""
""fullscreenenter"",""1"",""2367""
","
","
","""event"",""trial"",""time""
""fullscreenenter"",""1"",""2367""
","
","","","645.1999999284744","","","25","16602","2286","h","elianto","#f73b6a7A"," "," ","1","0","[1500]","1","3","","","16602","143","3","3","lose","go","0"
"pit-trial","263","1564299","0.0-149.0","battery-v0.2","","""event"",""trial"",""time""
""fullscreenenter"",""1"",""2367""
","
","
","""event"",""trial"",""time""
""fullscreenenter"",""1"",""2367""
","
","","","477.3000000715256","","","25","16602","2286","y","elianto","#f73b6a7A","-1"," ","0","-10","[1332.9000000953674]","1","3","","","16602","144","2","4","lose","no-go","0"
"pit-trial","264","1567639","0.0-150.0","battery-v0.2","","""event"",""trial"",""time""
""fullscreenenter"",""1"",""2367""
","
","
","""event"",""trial"",""time""
""fullscreenenter"",""1"",""2367""
","
