"trial_type","trial_index","time_elapsed","internal_node_id","task_version","subject_id","interactions","blur_events","focus_events","fullscreenenter_events","fullscreenexit_events","success","view_history","rt","responses","num_errors","age","subject","participantId","rune","rune_set","hex","correct","choice","accuracy","outcome","keys","total_keys","block","practice","value","sub","trial","stimulus","robot","valence","action","sham"
"pavlovia","0","12","0.0-0.0","battery-v0.2","","""event"",""trial"",""time""
""fullscreenenter"",""1"",""2589""
","
","
","""event"",""trial"",""time""
""fullscreenenter"",""1"",""2589""
","
","","","","","","","","","","","","","","","","","","","","","","","","","","",""
"fullscreen","1","3520","0.0-1.0","battery-v0.2","","""event"",""trial"",""time""
""fullscreenenter"",""1"",""2589""
","
","
","""event"",""trial"",""time""
""fullscreenenter"",""1"",""2589""
","
","true","","","","","","","","","","","","","","","","","","","","","","","","","",""
"pit-instructions","2","7916","0.0-2.0-0.0","battery-v0.2","","""event"",""trial"",""time""
""fullscreenenter"",""1"",""2589""
","
","
","""event"",""trial"",""time""
""fullscreenenter"",""1"",""2589""
","
","","[{""page_index"":0,""viewing_time"":4388}]","4388.900000095367","","","","","","","","","","","","","","","","","","","","","","","",""
"pit-comprehension","3","11675","0.0-2.0-1.0-0.0","battery-v0.2","","""event"",""trial"",""time""
""fullscreenenter"",""1"",""2589""
","
","
","""event"",""trial"",""time""
""fullscreenenter"",""1"",""2589""
","
","","","3743.4000000953674","[""shark""]","0","15","3006","2575","","","","","","","","","","","","","","","","","","",""
"pit-instructions","4","12959","0.0-2.0-1.0-1.0","battery-v0.2","","""event"",""trial"",""time""
""fullscreenenter"",""1"",""2589""
","
","
","""event"",""trial"",""time""
""fullscreenenter"",""1"",""2589""
","
","","[{""page_index"":0,""viewing_time"":1237.2999999523163}]","1238.1000001430511","","","","","","","","","","","","","","","","","","","","","","","",""
"pit-comprehension","5","16680","0.0-2.0-2.0-0.0","battery-v0.2","","""event"",""trial"",""time""
""fullscreenenter"",""1"",""2589""
","
","
","""event"",""trial"",""time""
""fullscreenenter"",""1"",""2589""
","
","","","3707.800000190735","[""tiger""]","0","15","3006","2575","","","","","","","","","","","","","","","","","","",""
"pit-instructions","6","17657","0.0-2.0-2.0-1.0","battery-v0.2","","""event"",""trial"",""time""
""fullscreenenter"",""1"",""2589""
","
","
","""event"",""trial"",""time""
""fullscreenenter"",""1"",""2589""
","
","","[{""page_index"":0,""viewing_time"":959.5}]","960.5","","","","","","","","","","","","","","","","","","","","","","","",""
"pit-instructions","7","124042","0.0-2.0-3.0","battery-v0.2","","""event"",""trial"",""time""
""fullscreenenter"",""1"",""2589""
","
","
","""event"",""trial"",""time""
""fullscreenenter"",""1"",""2589""
","
","","[{""page_index"":0,""viewing_time"":8569},{""page_index"":1,""viewing_time"":5403.399999856949},{""page_index"":2,""viewing_time"":6582.300000190735},{""page_index"":3,""viewing_time"":5078.799999952316},{""page_index"":4,""viewing_time"":6060.599999904633},{""page_index"":5,""viewing_time"":6128.400000095367},{""page_index"":6,""viewing_time"":7121.799999952316},{""page_index"":7,""viewing_time"":6198.200000047684},{""page_index"":8,""viewing_time"":6523},{""page_index"":9,""viewing_time"":8659.899999856949},{""page_index"":10,""viewing_time"":6490.100000143051},{""page_index"":9,""viewing_time"":6189.200000047684},{""page_index"":10,""viewing_time"":7789.399999856949},{""page_index"":11,""viewing_time"":7266.200000047684},{""page_index"":12,""viewing_time"":7841.099999904633},{""page_index"":13,""viewing_time"":4469.700000047684}]","106371.79999995232","","","","","","","","","","","","","","","","","","","","","","","",""
"pit-trial","8","127479","0.0-2.0-4.0-0.0","battery-v0.2","","""event"",""trial"",""time""
""fullscreenenter"",""1"",""2589""
","
","
","""event"",""trial"",""time""
""fullscreenenter"",""1"",""2589""
","
","","","565.9000000953674","","","15","3006","2575","&#9784;","elianto","#FFFFF080"," "," ","1","&#10004","[1421.0999999046326]","1","0","0","","","","","","","",""
"pit-trial","9","130880","0.0-2.0-4.1-0.1","battery-v0.2","","""event"",""trial"",""time""
""fullscreenenter"",""1"",""2589""
","
","
","""event"",""trial"",""time""
""fullscreenenter"",""1"",""2589""
","
","","","536.5","","","15","3006","2575","&#9784;","elianto","#FFFFF080"," "," ","1","&#10004","[1389.2999999523163]","1","0","0","","","","","","","",""
"pit-trial","10","134370","0.0-2.0-4.2-0.2","battery-v0.2","","""event"",""trial"",""time""
""fullscreenenter"",""1"",""2589""
","
","
","""event"",""trial"",""time""
""fullscreenenter"",""1"",""2589""
","
","","","615.6000001430511","","","15","3006","2575","&#9784;","elianto","#FFFFF080"," "," ","1","&#10004","[1470.2999999523163]","1","0","0","","","","","","","",""
"pit-trial","11","137739","0.0-2.0-4.3-0.3","battery-v0.2","","""event"",""trial"",""time""
""fullscreenenter"",""1"",""2589""
","
","
","""event"",""trial"",""time""
""fullscreenenter"",""1"",""2589""
","
","","","497.69999980926514","","","15","3006","2575","&#9784;","elianto","#FFFFF080"," "," ","1","&#10004","[1349.4000000953674]","1","0","0","","","","","","","",""
"pit-trial","12","141121","0.0-2.0-4.4-0.4","battery-v0.2","","""event"",""trial"",""time""
""fullscreenenter"",""1"",""2589""
","
","
","""event"",""trial"",""time""
""fullscreenenter"",""1"",""2589""
","
","","","511.5","","","15","3006","2575","&#9784;","elianto","#FFFFF080"," "," ","1","&#10004","[1362.9000000953674]","1","0","0","","","","","","","",""
"pit-instructions","13","162955","0.0-2.0-5.0","battery-v0.2","","""event"",""trial"",""time""
""fullscreenenter"",""1"",""2589""
","
","
","""event"",""trial"",""time""
""fullscreenenter"",""1"",""2589""
","
","","[{""page_index"":0,""viewing_time"":5264.099999904633},{""page_index"":1,""viewing_time"":5881.299999952316},{""page_index"":2,""viewing_time"":5398.5},{""page_index"":3,""viewing_time"":5280.400000095367}]","21825.199999809265","","","","","","","","","","","","","","","","","","","","","","","",""
"pit-trial","14","167841","0.0-2.0-6.0-0.0","battery-v0.2","","""event"",""trial"",""time""
""fullscreenenter"",""1"",""2589""
","
","
","""event"",""trial"",""time""
""fullscreenenter"",""1"",""2589""
","
","","","-1","","","15","3006","2575","&#9854;","elianto","#FFFFF080","-1","-1","1","&#10004","[]","0","0","1","","","","","","","",""
"pit-trial","15","172721","0.0-2.0-6.1-0.1","battery-v0.2","","""event"",""trial"",""time""
""fullscreenenter"",""1"",""2589""
","
","
","""event"",""trial"",""time""
""fullscreenenter"",""1"",""2589""
","
","","","-1","","","15","3006","2575","&#9854;","elianto","#FFFFF080","-1","-1","1","&#10004","[]","0","0","1","","","","","","","",""
"pit-trial","16","177591","0.0-2.0-6.2-0.2","battery-v0.2","","""event"",""trial"",""time""
""fullscreenenter"",""1"",""2589""
","
","
","""event"",""trial"",""time""
""fullscreenenter"",""1"",""2589""
","
","","","-1","","","15","3006","2575","&#9854;","elianto","#FFFFF080","-1","-1","1","&#10004","[]","0","0","1","","","","","","","",""
"pit-trial","17","182471","0.0-2.0-6.3-0.3","battery-v0.2","","""event"",""trial"",""time""
""fullscreenenter"",""1"",""2589""
","
","
","""event"",""trial"",""time""
""fullscreenenter"",""1"",""2589""
","
","","","-1","","","15","3006","2575","&#9854;","elianto","#FFFFF080","-1","-1","1","&#10004","[]","0","0","1","","","","","","","",""
"pit-trial","18","187348","0.0-2.0-6.4-0.4","battery-v0.2","","""event"",""trial"",""time""
""fullscreenenter"",""1"",""2589""
","
","
","""event"",""trial"",""time""
""fullscreenenter"",""1"",""2589""
","
","","","-1","","","15","3006","2575","&#9854;","elianto","#FFFFF080","-1","-1","1","&#10004","[]","0","0","1","","","","","","","",""
"pit-instructions","19","321696","0.0-2.0-7.0","battery-v0.2","","""event"",""trial"",""time""
""fullscreenenter"",""1"",""2589""
","
","
","""event"",""trial"",""time""
""fullscreenenter"",""1"",""2589""
","
","","[{""page_index"":0,""viewing_time"":5670.5},{""page_index"":1,""viewing_time"":7159.5},{""page_index"":2,""viewing_time"":6599.900000095367},{""page_index"":3,""viewing_time"":6080.200000047684},{""page_index"":4,""viewing_time"":5240.799999952316},{""page_index"":5,""viewing_time"":4362.899999856949},{""page_index"":4,""viewing_time"":398.2000000476837},{""page_index"":3,""viewing_time"":6628.200000047684},{""page_index"":4,""viewing_time"":5691.200000047684},{""page_index"":5,""viewing_time"":6327.799999952316},{""page_index"":6,""viewing_time"":4268.799999952316},{""page_index"":7,""viewing_time"":7934},{""page_index"":8,""viewing_time"":7479.700000047684},{""page_index"":9,""viewing_time"":5939.700000047684},{""page_index"":10,""viewing_time"":6968.700000047684},{""page_index"":11,""viewing_time"":4818.399999856949},{""page_index"":12,""viewing_time"":6680.400000095367},{""page_index"":13,""viewing_time"":6521.299999952316},{""page_index"":14,""viewing_time"":6219.599999904633},{""page_index"":15,""viewing_time"":6882.300000190735},{""page_index"":16,""viewing_time"":6779.199999809265},{""page_index"":17,""viewing_time"":9690}]","134342.10000014305","","","","","","","","","","","","","","","","","","","","","","","",""
"pit-trial","20","325268","0.0-2.0-8.0-0.0","battery-v0.2","","""event"",""trial"",""time""
""fullscreenenter"",""1"",""2589""
","
","
","""event"",""trial"",""time""
""fullscreenenter"",""1"",""2589""
","
","","","699.2999999523163","","","15","3006","2575","&#9776;","elianto","#3366ff99"," "," ","1","+10","[1552.7000000476837]","1","0","1","","","","","","","",""
"pit-trial","21","328590","0.0-2.0-8.0-1.0","battery-v0.2","","""event"",""trial"",""time""
""fullscreenenter"",""1"",""2589""
","
","
","""event"",""trial"",""time""
""fullscreenenter"",""1"",""2589""
","
","","","458.7000000476837","","","15","3006","2575","&#9776;","elianto","#3366ff99"," "," ","1","+10","[1312.5]","1","0","1","","","","","","","",""
"pit-trial","22","331950","0.0-2.0-8.0-2.0","battery-v0.2","","""event"",""trial"",""time""
""fullscreenenter"",""1"",""2589""
","
","
","""event"",""trial"",""time""
""fullscreenenter"",""1"",""2589""
","
","","","496.69999980926514","","","15","3006","2575","&#9776;","elianto","#3366ff99"," "," ","1","+10","[1347.7000000476837]","1","0","1","","","","","","","",""
"pit-trial","23","335270","0.0-2.0-8.0-3.0","battery-v0.2","","""event"",""trial"",""time""
""fullscreenenter"",""1"",""2589""
","
","
","""event"",""trial"",""time""
""fullscreenenter"",""1"",""2589""
","
","","","452.90000009536743","","","15","3006","2575","&#9776;","elianto","#3366ff99"," "," ","1","0","[1305.7999999523163]","1","0","1","","","","","","","",""
"pit-trial","24","338650","0.0-2.0-8.0-4.0","battery-v0.2","","""event"",""trial"",""time""
""fullscreenenter"",""1"",""2589""
","
","
","""event"",""trial"",""time""
""fullscreenenter"",""1"",""2589""
","
","","","503","","","15","3006","2575","&#9776;","elianto","#3366ff99"," "," ","1","+10","[1360.1000001430511]","1","0","1","","","","","","","",""
"call-function","25","338660","0.0-2.0-9.0","battery-v0.2","","""event"",""trial"",""time""
""fullscreenenter"",""1"",""2589""
","
","
","""event"",""trial"",""time""
""fullscreenenter"",""1"",""2589""
","
","","","","","","","","","","","","","","","","","","","","","","","","","","",""
"pit-instructions","26","382794","0.0-2.0-10.0","battery-v0.2","","""event"",""trial"",""time""
""fullscreenenter"",""1"",""2589""
","
","
","""event"",""trial"",""time""
""fullscreenenter"",""1"",""2589""
","
","","[{""page_index"":0,""viewing_time"":5989.5},{""page_index"":1,""viewing_time"":7022.200000047684},{""page_index"":2,""viewing_time"":9831.199999809265},{""page_index"":3,""viewing_time"":12525.600000143051},{""page_index"":4,""viewing_time"":8764.099999904633}]","44133.39999985695","","","","","","","","","","","","","","","","","","","","","","","",""
"pit-trial","27","387670","0.0-2.0-11.0-0.0","battery-v0.2","","""event"",""trial"",""time""
""fullscreenenter"",""1"",""2589""
","
","
","""event"",""trial"",""time""
""fullscreenenter"",""1"",""2589""
","
","","","-1","","","15","3006","2575","&#9761;","elianto","#3366ff99","-1","-1","1","+10","[]","0","0","2","","","","","","","",""
"pit-trial","28","392549","0.0-2.0-11.0-1.0","battery-v0.2","","""event"",""trial"",""time""
""fullscreenenter"",""1"",""2589""
","
","
","""event"",""trial"",""time""
""fullscreenenter"",""1"",""2589""
","
","","","-1","","","15","3006","2575","&#9761;","elianto","#3366ff99","-1","-1","1","+10","[]","0","0","2","","","","","","","",""
"pit-trial","29","397420","0.0-2.0-11.0-2.0","battery-v0.2","","""event"",""trial"",""time""
""fullscreenenter"",""1"",""2589""
","
","
","""event"",""trial"",""time""
""fullscreenenter"",""1"",""2589""
","
","","","-1","","","15","3006","2575","&#9761;","elianto","#3366ff99","-1","-1","1","+10","[]","0","0","2","","","","","","","",""
"pit-trial","30","402300","0.0-2.0-11.0-3.0","battery-v0.2","","""event"",""trial"",""time""
""fullscreenenter"",""1"",""2589""
","
","
","""event"",""trial"",""time""
""fullscreenenter"",""1"",""2589""
","
","","","-1","","","15","3006","2575","&#9761;","elianto","#3366ff99","-1","-1","1","0","[]","0","0","2","","","","","","","",""
"pit-trial","31","407179","0.0-2.0-11.0-4.0","battery-v0.2","","""event"",""trial"",""time""
""fullscreenenter"",""1"",""2589""
","
","
","""event"",""trial"",""time""
""fullscreenenter"",""1"",""2589""
","
","","","-1","","","15","3006","2575","&#9761;","elianto","#3366ff99","-1","-1","1","+10","[]","0","0","2","","","","","","","",""
"call-function","32","407185","0.0-2.0-12.0","battery-v0.2","","""event"",""trial"",""time""
""fullscreenenter"",""1"",""2589""
","
","
","""event"",""trial"",""time""
""fullscreenenter"",""1"",""2589""
","
","","","","","","","","","","","","","","","","","","","","","","","","","","",""
"pit-instructions","33","439623","0.0-2.0-13.0","battery-v0.2","","""event"",""trial"",""time""
""fullscreenenter"",""1"",""2589""
","
","
","""event"",""trial"",""time""
""fullscreenenter"",""1"",""2589""
","
","","[{""page_index"":0,""viewing_time"":4695.599999904633},{""page_index"":1,""viewing_time"":7024.200000047684},{""page_index"":2,""viewing_time"":4009.2000000476837},{""page_index"":3,""viewing_time"":10580.599999904633},{""page_index"":4,""viewing_time"":6127}]","32437.5","","","","","","","","","","","","","","","","","","","","","","","",""
"pit-trial","34","443948","0.0-2.0-14.0-0.0","battery-v0.2","","""event"",""trial"",""time""
""fullscreenenter"",""1"",""2589""
","
","
","""event"",""trial"",""time""
""fullscreenenter"",""1"",""2589""
","
","","","1462.6999998092651","","","15","3006","2575","&#9826;","elianto","#f73b6a7A","-1"," ","0","-10","[2313.5999999046326]","1","0","3","","","","","","","",""
"pit-trial","35","446990","0.0-2.0-14.0-1.0","battery-v0.2","","""event"",""trial"",""time""
""fullscreenenter"",""1"",""2589""
","
","
","""event"",""trial"",""time""
""fullscreenenter"",""1"",""2589""
","
","","","170.90000009536743","","","15","3006","2575","&#9826;","elianto","#f73b6a7A","-1"," ","0","-10","[1022.0999999046326]","1","0","3","","","","","","","",""
"pit-trial","36","451870","0.0-2.0-14.0-2.0","battery-v0.2","","""event"",""trial"",""time""
""fullscreenenter"",""1"",""2589""
","
","
","""event"",""trial"",""time""
""fullscreenenter"",""1"",""2589""
","
","","","-1","","","15","3006","2575","&#9826;","elianto","#f73b6a7A","-1","-1","1","0","[]","0","0","3","","","","","","","",""
"pit-trial","37","456761","0.0-2.0-14.0-3.0","battery-v0.2","","""event"",""trial"",""time""
""fullscreenenter"",""1"",""2589""
","
","
","""event"",""trial"",""time""
""fullscreenenter"",""1"",""2589""
","
","","","-1","","","15","3006","2575","&#9826;","elianto","#f73b6a7A","-1","-1","1","-10","[]","0","0","3","","","","","","","",""
"pit-trial","38","461641","0.0-2.0-14.0-4.0","battery-v0.2","","""event"",""trial"",""time""
""fullscreenenter"",""1"",""2589""
","
","
","""event"",""trial"",""time""
""fullscreenenter"",""1"",""2589""
","
","","","-1","","","15","3006","2575","&#9826;","elianto","#f73b6a7A","-1","-1","1","0","[]","0","0","3","","","","","","","",""
"pit-trial","39","466521","0.0-2.0-14.1-0.1","battery-v0.2","","""event"",""trial"",""time""
""fullscreenenter"",""1"",""2589""
","
","
","""event"",""trial"",""time""
""fullscreenenter"",""1"",""2589""
","
","","","-1","","","15","3006","2575","&#9826;","elianto","#f73b6a7A","-1","-1","1","0","[]","0","0","3","","","","","","","",""
"pit-trial","40","471398","0.0-2.0-14.1-1.1","battery-v0.2","","""event"",""trial"",""time""
""fullscreenenter"",""1"",""2589""
","
","
","""event"",""trial"",""time""
""fullscreenenter"",""1"",""2589""
","
","","","-1","","","15","3006","2575","&#9826;","elianto","#f73b6a7A","-1","-1","1","0","[]","0","0","3","","","","","","","",""
"pit-trial","41","476289","0.0-2.0-14.1-2.1","battery-v0.2","","""event"",""trial"",""time""
""fullscreenenter"",""1"",""2589""
","
","
","""event"",""trial"",""time""
""fullscreenenter"",""1"",""2589""
","
","","","-1","","","15","3006","2575","&#9826;","elianto","#f73b6a7A","-1","-1","1","0","[]","0","0","3","","","","","","","",""
"pit-trial","42","481163","0.0-2.0-14.1-3.1","battery-v0.2","","""event"",""trial"",""time""
""fullscreenenter"",""1"",""2589""
","
","
","""event"",""trial"",""time""
""fullscreenenter"",""1"",""2589""
","
","","","-1","","","15","3006","2575","&#9826;","elianto","#f73b6a7A","-1","-1","1","-10","[]","0","0","3","","","","","","","",""
"pit-trial","43","486024","0.0-2.0-14.1-4.1","battery-v0.2","","""event"",""trial"",""time""
""fullscreenenter"",""1"",""2589""
","
","
","""event"",""trial"",""time""
""fullscreenenter"",""1"",""2589""
","
","","","-1","","","15","3006","2575","&#9826;","elianto","#f73b6a7A","-1","-1","1","0","[]","0","0","3","","","","","","","",""
"call-function","44","486034","0.0-2.0-15.0","battery-v0.2","","""event"",""trial"",""time""
""fullscreenenter"",""1"",""2589""
","
","
","""event"",""trial"",""time""
""fullscreenenter"",""1"",""2589""
","
","","","","","","","","","","","","","","","","","","","","","","","","","","",""
"pit-instructions","45","512896","0.0-2.0-16.0","battery-v0.2","","""event"",""trial"",""time""
""fullscreenenter"",""1"",""2589""
","
","
","""event"",""trial"",""time""
""fullscreenenter"",""1"",""2589""
","
","","[{""page_index"":0,""viewing_time"":6580.100000143051},{""page_index"":1,""viewing_time"":10028.199999809265},{""page_index"":2,""viewing_time"":5000.700000047684},{""page_index"":3,""viewing_time"":5251.799999952316}]","26861.700000047684","","","","","","","","","","","","","","","","","","","","","","","",""
"pit-trial","46","516339","0.0-2.0-17.0-0.0","battery-v0.2","","""event"",""trial"",""time""
""fullscreenenter"",""1"",""2589""
","
","
","""event"",""trial"",""time""
""fullscreenenter"",""1"",""2589""
","
","","","572.7000000476837","","","15","3006","2575","&#9789;","elianto","#f73b6a7A"," "," ","1","0","[1425.3000001907349]","1","0","4","","","","","","","",""
"pit-trial","47","519289","0.0-2.0-17.0-1.0","battery-v0.2","","""event"",""trial"",""time""
""fullscreenenter"",""1"",""2589""
","
","
","""event"",""trial"",""time""
""fullscreenenter"",""1"",""2589""
","
","","","77.79999995231628","","","15","3006","2575","&#9789;","elianto","#f73b6a7A"," "," ","1","0","[937.2000000476837]","1","0","4","","","","","","","",""
"pit-trial","48","522299","0.0-2.0-17.0-2.0","battery-v0.2","","""event"",""trial"",""time""
""fullscreenenter"",""1"",""2589""
","
","
","""event"",""trial"",""time""
""fullscreenenter"",""1"",""2589""
","
","","","130.09999990463257","","","15","3006","2575","&#9789;","elianto","#f73b6a7A"," "," ","1","0","[471.90000009536743,988.0999999046326]","2","0","4","","","","","","","",""
"pit-trial","49","525399","0.0-2.0-17.0-3.0","battery-v0.2","","""event"",""trial"",""time""
""fullscreenenter"",""1"",""2589""
","
","
","""event"",""trial"",""time""
""fullscreenenter"",""1"",""2589""
","
","","","225.69999980926514","","","15","3006","2575","&#9789;","elianto","#f73b6a7A"," "," ","1","-10","[1078.2999999523163]","1","0","4","","","","","","","",""
"pit-trial","50","528298","0.0-2.0-17.0-4.0","battery-v0.2","","""event"",""trial"",""time""
""fullscreenenter"",""1"",""2589""
","
","
","""event"",""trial"",""time""
""fullscreenenter"",""1"",""2589""
","
","","","33.5","","","15","3006","2575","&#9789;","elianto","#f73b6a7A"," "," ","1","0","[886.3999998569489]","1","0","4","","","","","","","",""
"call-function","51","528304","0.0-2.0-18.0","battery-v0.2","","""event"",""trial"",""time""
""fullscreenenter"",""1"",""2589""
","
","
","""event"",""trial"",""time""
""fullscreenenter"",""1"",""2589""
","
","","","","","","","","","","","","","","","","","","","","","","","","","","",""
"pit-instructions","52","596995","0.0-2.0-19.0","battery-v0.2","","""event"",""trial"",""time""
""fullscreenenter"",""1"",""2589""
","
","
","""event"",""trial"",""time""
""fullscreenenter"",""1"",""2589""
","
","","[{""page_index"":0,""viewing_time"":8065.399999856949},{""page_index"":1,""viewing_time"":6854.700000047684},{""page_index"":2,""viewing_time"":10098.799999952316},{""page_index"":3,""viewing_time"":7679.600000143051},{""page_index"":4,""viewing_time"":8620.599999904633},{""page_index"":5,""viewing_time"":8300.200000047684},{""page_index"":6,""viewing_time"":8738.599999904633},{""page_index"":7,""viewing_time"":6119.400000095367},{""page_index"":8,""viewing_time"":4212.200000047684}]","68690.39999985695","","","","","","","","","","","","","","","","","","","","","","","",""
"pit-comprehension","53","601785","0.0-2.0-20.0-0.0","battery-v0.2","","""event"",""trial"",""time""
""fullscreenenter"",""1"",""2589""
","
","
","""event"",""trial"",""time""
""fullscreenenter"",""1"",""2589""
","
","","","4776.299999952316","[""SPACE""]","0","15","3006","2575","","","","","","","","","","","","","","","","","","",""
"pit-instructions","54","604586","0.0-2.0-20.0-1.0","battery-v0.2","","""event"",""trial"",""time""
""fullscreenenter"",""1"",""2589""
","
","
","""event"",""trial"",""time""
""fullscreenenter"",""1"",""2589""
","
","","[{""page_index"":0,""viewing_time"":2734.5}]","2735.2999999523163","","","","","","","","","","","","","","","","","","","","","","","",""
"pit-comprehension","55","610287","0.0-2.0-21.0-0.0","battery-v0.2","","""event"",""trial"",""time""
""fullscreenenter"",""1"",""2589""
","
","
","""event"",""trial"",""time""
""fullscreenenter"",""1"",""2589""
","
","","","5687.299999952316","[""10""]","0","15","3006","2575","","","","","","","","","","","","","","","","","","",""
"pit-instructions","56","612701","0.0-2.0-21.0-1.0","battery-v0.2","","""event"",""trial"",""time""
""fullscreenenter"",""1"",""2589""
","
","
","""event"",""trial"",""time""
""fullscreenenter"",""1"",""2589""
","
","","[{""page_index"":0,""viewing_time"":2351.7999999523163}]","2352.5","","","","","","","","","","","","","","","","","","","","","","","",""
"pit-comprehension","57","619345","0.0-2.0-22.0-0.0","battery-v0.2","","""event"",""trial"",""time""
""fullscreenenter"",""1"",""2589""
","
","
","""event"",""trial"",""time""
""fullscreenenter"",""1"",""2589""
","
","","","6631.199999809265","[""0""]","0","15","3006","2575","","","","","","","","","","","","","","","","","","",""
"pit-instructions","58","621685","0.0-2.0-22.0-1.0","battery-v0.2","","""event"",""trial"",""time""
""fullscreenenter"",""1"",""2589""
","
","
","""event"",""trial"",""time""
""fullscreenenter"",""1"",""2589""
","
","","[{""page_index"":0,""viewing_time"":2287.7999999523163}]","2288.600000143051","","","","","","","","","","","","","","","","","","","","","","","",""
"pit-comprehension","59","639685","0.0-2.0-23.0-0.0","battery-v0.2","","""event"",""trial"",""time""
""fullscreenenter"",""1"",""2589""
","
","
","""event"",""trial"",""time""
""fullscreenenter"",""1"",""2589""
","
","","","17987.099999904633","[""True""]","0","15","3006","2575","","","","","","","","","","","","","","","","","","",""
"pit-instructions","60","641565","0.0-2.0-23.0-1.0","battery-v0.2","","""event"",""trial"",""time""
""fullscreenenter"",""1"",""2589""
","
","
","""event"",""trial"",""time""
""fullscreenenter"",""1"",""2589""
","
","","[{""page_index"":0,""viewing_time"":1815.1000001430511}]","1815.7000000476837","","","","","","","","","","","","","","","","","","","","","","","",""
"pit-comprehension","61","649084","0.0-2.0-24.0-0.0","battery-v0.2","","""event"",""trial"",""time""
""fullscreenenter"",""1"",""2589""
","
","
","""event"",""trial"",""time""
""fullscreenenter"",""1"",""2589""
","
","","","7506.700000047684","[""True""]","0","15","3006","2575","","","","","","","","","","","","","","","","","","",""
"pit-instructions","62","651244","0.0-2.0-24.0-1.0","battery-v0.2","","""event"",""trial"",""time""
""fullscreenenter"",""1"",""2589""
","
","
","""event"",""trial"",""time""
""fullscreenenter"",""1"",""2589""
","
","","[{""page_index"":0,""viewing_time"":2110.5}]","2111.2000000476837","","","","","","","","","","","","","","","","","","","","","","","",""
"pit-comprehension","63","657916","0.0-2.0-25.0-0.0","battery-v0.2","","""event"",""trial"",""time""
""fullscreenenter"",""1"",""2589""
","
","
","""event"",""trial"",""time""
""fullscreenenter"",""1"",""2589""
","
","","","6658.799999952316","[""True""]","0","15","3006","2575","","","","","","","","","","","","","","","","","","",""
"pit-instructions","64","660331","0.0-2.0-25.0-1.0","battery-v0.2","","""event"",""trial"",""time""
""fullscreenenter"",""1"",""2589""
","
","
","""event"",""trial"",""time""
""fullscreenenter"",""1"",""2589""
","
","","[{""page_index"":0,""viewing_time"":2342.4000000953674}]","2343","","","","","","","","","","","","","","","","","","","","","","","",""
"pit-comprehension","65","666715","0.0-2.0-26.0-0.0","battery-v0.2","","""event"",""trial"",""time""
""fullscreenenter"",""1"",""2589""
","
","
","""event"",""trial"",""time""
""fullscreenenter"",""1"",""2589""
","
","","","6371.099999904633","[""False""]","0","15","3006","2575","","","","","","","","","","","","","","","","","","",""
"pit-instructions","66","669354","0.0-2.0-26.0-1.0","battery-v0.2","","""event"",""trial"",""time""
""fullscreenenter"",""1"",""2589""
","
","
","""event"",""trial"",""time""
""fullscreenenter"",""1"",""2589""
","
","","[{""page_index"":0,""viewing_time"":2579.0999999046326}]","2579.699999809265","","","","","","","","","","","","","","","","","","","","","","","",""
"pit-instructions","67","687453","0.0-3.0","battery-v0.2","","""event"",""trial"",""time""
""fullscreenenter"",""1"",""2589""
","
","
","""event"",""trial"",""time""
""fullscreenenter"",""1"",""2589""
","
","","[{""page_index"":0,""viewing_time"":6586.200000047684},{""page_index"":1,""viewing_time"":5214.399999856949},{""page_index"":2,""viewing_time"":6287.800000190735}]","18089.099999904633","","","","","","","","","","","","","","","","","","","","","","","",""
"pit-trial","68","692333","0.0-4.0","battery-v0.2","","""event"",""trial"",""time""
""fullscreenenter"",""1"",""2589""
","
","
","""event"",""trial"",""time""
""fullscreenenter"",""1"",""2589""
","
","","","-1","","","15","3006","2575","&#9752;","elianto","#f73b6a7A"," ","-1","0","-10","[]","0","1","","","3006","1","3","3","lose","go","0"
"pit-trial","69","696939","0.0-5.0","battery-v0.2","","""event"",""trial"",""time""
""fullscreenenter"",""1"",""2589""
","
","
","""event"",""trial"",""time""
""fullscreenenter"",""1"",""2589""
","
","","","1732.7999999523163","","","15","3006","2575","&#9728;","elianto","#f73b6a7A","-1"," ","0","0","[2584.199999809265]","1","1","","","3006","2","0","4","lose","no-go","1"
"pit-trial","70","701818","0.0-6.0","battery-v0.2","","""event"",""trial"",""time""
""fullscreenenter"",""1"",""2589""
","
","
","""event"",""trial"",""time""
""fullscreenenter"",""1"",""2589""
","
","","","-1","","","15","3006","2575","&#9730;","elianto","#3366ff99"," ","-1","0","0","[]","0","1","","","3006","3","1","1","win","go","0"
"pit-trial","71","705479","0.0-7.0","battery-v0.2","","""event"",""trial"",""time""
""fullscreenenter"",""1"",""2589""
","
","
","""event"",""trial"",""time""
""fullscreenenter"",""1"",""2589""
","
","","","784.2000000476837","","","15","3006","2575","&#9733;","elianto","#3366ff99","-1"," ","0","0","[1645.8000001907349]","1","1","","","3006","4","2","2","win","no-go","0"
"pit-trial","72","709307","0.0-8.0","battery-v0.2","","""event"",""trial"",""time""
""fullscreenenter"",""1"",""2589""
","
","
","""event"",""trial"",""time""
""fullscreenenter"",""1"",""2589""
","
","","","959.2000000476837","","","15","3006","2575","&#9752;","elianto","#f73b6a7A"," "," ","1","0","[1810]","1","1","","","3006","5","3","3","lose","go","0"
"pit-trial","73","713219","0.0-9.0","battery-v0.2","","""event"",""trial"",""time""
""fullscreenenter"",""1"",""2589""
","
","
","""event"",""trial"",""time""
""fullscreenenter"",""1"",""2589""
","
","","","1047.6000001430511","","","15","3006","2575","&#9733;","elianto","#3366ff99","-1"," ","0","+10","[1900.4000000953674]","1","1","","","3006","6","2","2","win","no-go","1"
"pit-trial","74","716699","0.0-10.0","battery-v0.2","","""event"",""trial"",""time""
""fullscreenenter"",""1"",""2589""
","
","
","""event"",""trial"",""time""
""fullscreenenter"",""1"",""2589""
","
","","","605.5","","","15","3006","2575","&#9730;","elianto","#3366ff99"," "," ","1","+10","[1465.5999999046326]","1","1","","","3006","7","1","1","win","go","0"
"pit-trial","75","720656","0.0-11.0","battery-v0.2","","""event"",""trial"",""time""
""fullscreenenter"",""1"",""2589""
","
","
","""event"",""trial"",""time""
""fullscreenenter"",""1"",""2589""
","
","","","1087","","","15","3006","2575","&#9728;","elianto","#f73b6a7A","-1"," ","0","-10","[1944.5]","1","1","","","3006","8","0","4","lose","no-go","0"
"pit-trial","76","724183","0.0-12.0","battery-v0.2","","""event"",""trial"",""time""
""fullscreenenter"",""1"",""2589""
","
","
","""event"",""trial"",""time""
""fullscreenenter"",""1"",""2589""
","
","","","665.5999999046326","","","15","3006","2575","&#9752;","elianto","#f73b6a7A"," "," ","1","-10","[1516.2999999523163]","1","1","","","3006","9","3","3","lose","go","1"
"pit-trial","77","727637","0.0-13.0","battery-v0.2","","""event"",""trial"",""time""
""fullscreenenter"",""1"",""2589""
","
","
","""event"",""trial"",""time""
""fullscreenenter"",""1"",""2589""
","
","","","583.2999999523163","","","15","3006","2575","&#9730;","elianto","#3366ff99"," "," ","1","+10","[1441.1000001430511]","1","1","","","3006","10","1","1","win","go","0"
"pit-trial","78","731097","0.0-14.0","battery-v0.2","","""event"",""trial"",""time""
""fullscreenenter"",""1"",""2589""
","
","
","""event"",""trial"",""time""
""fullscreenenter"",""1"",""2589""
","
","","","581.1000001430511","","","15","3006","2575","&#9733;","elianto","#3366ff99","-1"," ","0","0","[1440.5999999046326]","1","1","","","3006","11","2","2","win","no-go","0"
"pit-trial","79","734573","0.0-15.0","battery-v0.2","","""event"",""trial"",""time""
""fullscreenenter"",""1"",""2589""
","
","
","""event"",""trial"",""time""
""fullscreenenter"",""1"",""2589""
","
","","","610.9000000953674","","","15","3006","2575","&#9728;","elianto","#f73b6a7A","-1"," ","0","0","[1461.4000000953674]","1","1","","","3006","12","0","4","lose","no-go","1"
"pit-trial","80","737946","0.0-16.0","battery-v0.2","","""event"",""trial"",""time""
""fullscreenenter"",""1"",""2589""
","
","
","""event"",""trial"",""time""
""fullscreenenter"",""1"",""2589""
","
","","","503.2999999523163","","","15","3006","2575","&#9733;","elianto","#3366ff99","-1"," ","0","0","[1354.9000000953674]","1","1","","","3006","13","2","2","win","no-go","0"
"pit-trial","81","741731","0.0-17.0","battery-v0.2","","""event"",""trial"",""time""
""fullscreenenter"",""1"",""2589""
","
","
","""event"",""trial"",""time""
""fullscreenenter"",""1"",""2589""
","
","","","915.5999999046326","","","15","3006","2575","&#9728;","elianto","#f73b6a7A","-1"," ","0","-10","[1767]","1","1","","","3006","14","0","4","lose","no-go","0"
"pit-trial","82","745344","0.0-18.0","battery-v0.2","","""event"",""trial"",""time""
""fullscreenenter"",""1"",""2589""
","
","
","""event"",""trial"",""time""
""fullscreenenter"",""1"",""2589""
","
","","","741.6000001430511","","","15","3006","2575","&#9752;","elianto","#f73b6a7A"," "," ","1","-10","[1600.2000000476837]","1","1","","","3006","15","3","3","lose","go","1"
"pit-trial","83","749080","0.0-19.0","battery-v0.2","","""event"",""trial"",""time""
""fullscreenenter"",""1"",""2589""
","
","
","""event"",""trial"",""time""
""fullscreenenter"",""1"",""2589""
","
","","","869","","","15","3006","2575","&#9730;","elianto","#3366ff99"," "," ","1","+10","[1720.5]","1","1","","","3006","16","1","1","win","go","0"
"pit-trial","84","753948","0.0-20.0","battery-v0.2","","""event"",""trial"",""time""
""fullscreenenter"",""1"",""2589""
","
","
","""event"",""trial"",""time""
""fullscreenenter"",""1"",""2589""
","
","","","-1","","","15","3006","2575","&#9728;","elianto","#f73b6a7A","-1","-1","1","-10","[]","0","1","","","3006","17","0","4","lose","no-go","1"
"pit-trial","85","758827","0.0-21.0","battery-v0.2","","""event"",""trial"",""time""
""fullscreenenter"",""1"",""2589""
","
","
","""event"",""trial"",""time""
""fullscreenenter"",""1"",""2589""
","
","","","-1","","","15","3006","2575","&#9752;","elianto","#f73b6a7A"," ","-1","0","-10","[]","0","1","","","3006","18","3","3","lose","go","0"
"pit-trial","86","762162","0.0-22.0","battery-v0.2","","""event"",""trial"",""time""
""fullscreenenter"",""1"",""2589""
","
","
","""event"",""trial"",""time""
""fullscreenenter"",""1"",""2589""
","
","","","469.30000019073486","","","15","3006","2575","&#9730;","elianto","#3366ff99"," "," ","1","+10","[1319.2999999523163]","1","1","","","3006","19","1","1","win","go","0"
"pit-trial","87","765427","0.0-23.0","battery-v0.2","","""event"",""trial"",""time""
""fullscreenenter"",""1"",""2589""
","
","
","""event"",""trial"",""time""
""fullscreenenter"",""1"",""2589""
","
","","","403.7000000476837","","","15","3006","2575","&#9733;","elianto","#3366ff99","-1"," ","0","0","[1255.2999999523163]","1","1","","","3006","20","2","2","win","no-go","0"
"pit-instructions","88","778126","0.0-24.0","battery-v0.2","","""event"",""trial"",""time""
""fullscreenenter"",""1"",""2589""
","
","
","""event"",""trial"",""time""
""fullscreenenter"",""1"",""2589""
","
","","[{""page_index"":0,""viewing_time"":5930.700000047684},{""page_index"":1,""viewing_time"":6762.700000047684}]","12694.200000047684","","","","","","","","","","","","","","","","","","","","","","","",""
"pit-trial","89","783001","0.0-25.0","battery-v0.2","","""event"",""trial"",""time""
""fullscreenenter"",""1"",""2589""
","
","
","""event"",""trial"",""time""
""fullscreenenter"",""1"",""2589""
","
","","","-1","","","15","3006","2575","g","elianto","#f73b6a7A","-1","-1","1","0","[]","0","2","","","3006","21","3","4","lose","no-go","0"
"pit-trial","90","787262","0.0-26.0","battery-v0.2","","""event"",""trial"",""time""
""fullscreenenter"",""1"",""2589""
","
","
","""event"",""trial"",""time""
""fullscreenenter"",""1"",""2589""
","
","","","1389","","","15","3006","2575","u","elianto","#f73b6a7A"," "," ","1","-10","[2242.5]","1","2","","","3006","22","0","3","lose","go","1"
"pit-trial","91","791462","0.0-27.0","battery-v0.2","","""event"",""trial"",""time""
""fullscreenenter"",""1"",""2589""
","
","
","""event"",""trial"",""time""
""fullscreenenter"",""1"",""2589""
","
","","","1337.9000000953674","","","15","3006","2575","l","elianto","#3366ff99","-1"," ","0","+10","[2191.100000143051]","1","2","","","3006","23","1","2","win","no-go","1"
"pit-trial","92","796331","0.0-28.0","battery-v0.2","","""event"",""trial"",""time""
""fullscreenenter"",""1"",""2589""
","
","
","""event"",""trial"",""time""
""fullscreenenter"",""1"",""2589""
","
","","","-1","","","15","3006","2575","a","elianto","#f73b6a7A"," ","-1","0","0","[]","0","2","","","3006","24","2","3","lose","go","1"
"pit-trial","93","801202","0.0-29.0","battery-v0.2","","""event"",""trial"",""time""
""fullscreenenter"",""1"",""2589""
","
","
","""event"",""trial"",""time""
""fullscreenenter"",""1"",""2589""
","
","","","-1","","","15","3006","2575","g","elianto","#f73b6a7A","-1","-1","1","0","[]","0","2","","","3006","25","3","4","lose","no-go","0"
"pit-trial","94","804922","0.0-30.0","battery-v0.2","","""event"",""trial"",""time""
""fullscreenenter"",""1"",""2589""
","
","
","""event"",""trial"",""time""
""fullscreenenter"",""1"",""2589""
","
","","","844.7000000476837","","","15","3006","2575","l","elianto","#3366ff99","-1"," ","0","0","[1695.7999999523163]","1","2","","","3006","26","1","2","win","no-go","0"
"pit-trial","95","809808","0.0-31.0","battery-v0.2","","""event"",""trial"",""time""
""fullscreenenter"",""1"",""2589""
","
","
","""event"",""trial"",""time""
""fullscreenenter"",""1"",""2589""
","
","","","-1","","","15","3006","2575","u","elianto","#f73b6a7A"," ","-1","0","-10","[]","0","2","","","3006","27","0","3","lose","go","0"
"pit-trial","96","814680","0.0-32.0","battery-v0.2","","""event"",""trial"",""time""
""fullscreenenter"",""1"",""2589""
","
","
","""event"",""trial"",""time""
""fullscreenenter"",""1"",""2589""
","
","","","-1","","","15","3006","2575","a","elianto","#f73b6a7A"," ","-1","0","-10","[]","0","2","","","3006","28","2","3","lose","go","0"
"pit-trial","97","818371","0.0-33.0","battery-v0.2","","""event"",""trial"",""time""
""fullscreenenter"",""1"",""2589""
","
","
","""event"",""trial"",""time""
""fullscreenenter"",""1"",""2589""
","
","","","816.1999998092651","","","15","3006","2575","l","elianto","#3366ff99","-1"," ","0","0","[1669.7999999523163]","1","2","","","3006","29","1","2","win","no-go","0"
"pit-trial","98","823256","0.0-34.0","battery-v0.2","","""event"",""trial"",""time""
""fullscreenenter"",""1"",""2589""
","
","
","""event"",""trial"",""time""
""fullscreenenter"",""1"",""2589""
","
","","","-1","","","15","3006","2575","u","elianto","#f73b6a7A"," ","-1","0","-10","[]","0","2","","","3006","30","0","3","lose","go","0"
"pit-trial","99","828122","0.0-35.0","battery-v0.2","","""event"",""trial"",""time""
""fullscreenenter"",""1"",""2589""
","
","
","""event"",""trial"",""time""
""fullscreenenter"",""1"",""2589""
","
","","","-1","","","15","3006","2575","g","elianto","#f73b6a7A","-1","-1","1","0","[]","0","2","","","3006","31","3","4","lose","no-go","0"
"pit-trial","100","833004","0.0-36.0","battery-v0.2","","""event"",""trial"",""time""
""fullscreenenter"",""1"",""2589""
","
","
","""event"",""trial"",""time""
""fullscreenenter"",""1"",""2589""
","
","","","-1","","","15","3006","2575","a","elianto","#f73b6a7A"," ","-1","0","0","[]","0","2","","","3006","32","2","3","lose","go","1"
"pit-trial","101","837873","0.0-37.0","battery-v0.2","","""event"",""trial"",""time""
""fullscreenenter"",""1"",""2589""
","
","
","""event"",""trial"",""time""
""fullscreenenter"",""1"",""2589""
","
","","","-1","","","15","3006","2575","l","elianto","#3366ff99","-1","-1","1","0","[]","0","2","","","3006","33","1","2","win","no-go","1"
"pit-trial","102","842739","0.0-38.0","battery-v0.2","","""event"",""trial"",""time""
""fullscreenenter"",""1"",""2589""
","
","
","""event"",""trial"",""time""
""fullscreenenter"",""1"",""2589""
","
","","","-1","","","15","3006","2575","g","elianto","#f73b6a7A","-1","-1","1","0","[]","0","2","","","3006","34","3","4","lose","no-go","0"
"pit-trial","103","847612","0.0-39.0","battery-v0.2","","""event"",""trial"",""time""
""fullscreenenter"",""1"",""2589""
","
","
","""event"",""trial"",""time""
""fullscreenenter"",""1"",""2589""
","
","","","-1","","","15","3006","2575","a","elianto","#f73b6a7A"," ","-1","0","-10","[]","0","2","","","3006","35","2","3","lose","go","0"
"pit-trial","104","851368","0.0-40.0","battery-v0.2","","""event"",""trial"",""time""
""fullscreenenter"",""1"",""2589""
","
","
","""event"",""trial"",""time""
""fullscreenenter"",""1"",""2589""
","
","","","886.7999999523163","","","15","3006","2575","u","elianto","#f73b6a7A"," "," ","1","-10","[1737.7000000476837]","1","2","","","3006","36","0","3","lose","go","1"
"pit-trial","105","856239","0.0-41.0","battery-v0.2","","""event"",""trial"",""time""
""fullscreenenter"",""1"",""2589""
","
","
","""event"",""trial"",""time""
""fullscreenenter"",""1"",""2589""
","
","","","-1","","","15","3006","2575","a","elianto","#f73b6a7A"," ","-1","0","-10","[]","0","2","","","3006","37","2","3","lose","go","0"
"pit-trial","106","861118","0.0-42.0","battery-v0.2","","""event"",""trial"",""time""
""fullscreenenter"",""1"",""2589""
","
","
","""event"",""trial"",""time""
""fullscreenenter"",""1"",""2589""
","
","","","-1","","","15","3006","2575","g","elianto","#f73b6a7A","-1","-1","1","0","[]","0","2","","","3006","38","3","4","lose","no-go","0"
"pit-trial","107","865993","0.0-43.0","battery-v0.2","","""event"",""trial"",""time""
""fullscreenenter"",""1"",""2589""
","
","
","""event"",""trial"",""time""
""fullscreenenter"",""1"",""2589""
","
","","","-1","","","15","3006","2575","u","elianto","#f73b6a7A"," ","-1","0","-10","[]","0","2","","","3006","39","0","3","lose","go","0"
"pit-trial","108","870035","0.0-44.0","battery-v0.2","","""event"",""trial"",""time""
""fullscreenenter"",""1"",""2589""
","
","
","""event"",""trial"",""time""
""fullscreenenter"",""1"",""2589""
","
","","","1173.4000000953674","","","15","3006","2575","l","elianto","#3366ff99","-1"," ","0","0","[2023.8000001907349]","1","2","","","3006","40","1","2","win","no-go","0"
"pit-trial","109","873883","0.0-45.0","battery-v0.2","","""event"",""trial"",""time""
""fullscreenenter"",""1"",""2589""
","
","
","""event"",""trial"",""time""
""fullscreenenter"",""1"",""2589""
","
","","","971.6000001430511","","","15","3006","2575","l","elianto","#3366ff99","-1"," ","0","0","[1831.0999999046326]","1","2","","","3006","41","1","2","win","no-go","0"
"pit-trial","110","878757","0.0-46.0","battery-v0.2","","""event"",""trial"",""time""
""fullscreenenter"",""1"",""2589""
","
","
","""event"",""trial"",""time""
""fullscreenenter"",""1"",""2589""
","
","","","-1","","","15","3006","2575","g","elianto","#f73b6a7A","-1","-1","1","0","[]","0","2","","","3006","42","3","4","lose","no-go","0"
"pit-trial","111","882650","0.0-47.0","battery-v0.2","","""event"",""trial"",""time""
""fullscreenenter"",""1"",""2589""
","
","
","""event"",""trial"",""time""
""fullscreenenter"",""1"",""2589""
","
","","","1025.9000000953674","","","15","3006","2575","a","elianto","#f73b6a7A"," "," ","1","0","[1880.2000000476837]","1","2","","","3006","43","2","3","lose","go","0"
"pit-trial","112","887531","0.0-48.0","battery-v0.2","","""event"",""trial"",""time""
""fullscreenenter"",""1"",""2589""
","
","
","""event"",""trial"",""time""
""fullscreenenter"",""1"",""2589""
","
","","","-1","","","15","3006","2575","u","elianto","#f73b6a7A"," ","-1","0","-10","[]","0","2","","","3006","44","0","3","lose","go","0"
"pit-trial","113","891831","0.0-49.0","battery-v0.2","","""event"",""trial"",""time""
""fullscreenenter"",""1"",""2589""
","
","
","""event"",""trial"",""time""
""fullscreenenter"",""1"",""2589""
","
","","","1434.4000000953674","","","15","3006","2575","a","elianto","#f73b6a7A"," "," ","1","0","[2286.600000143051]","1","2","","","3006","45","2","3","lose","go","0"
"pit-trial","114","895514","0.0-50.0","battery-v0.2","","""event"",""trial"",""time""
""fullscreenenter"",""1"",""2589""
","
","
","""event"",""trial"",""time""
""fullscreenenter"",""1"",""2589""
","
","","","803.4000000953674","","","15","3006","2575","u","elianto","#f73b6a7A"," "," ","1","0","[1663.0999999046326]","1","2","","","3006","46","0","3","lose","go","0"
"pit-trial","115","900388","0.0-51.0","battery-v0.2","","""event"",""trial"",""time""
""fullscreenenter"",""1"",""2589""
","
","
","""event"",""trial"",""time""
""fullscreenenter"",""1"",""2589""
","
","","","-1","","","15","3006","2575","g","elianto","#f73b6a7A","-1","-1","1","-10","[]","0","2","","","3006","47","3","4","lose","no-go","1"
"pit-trial","116","905263","0.0-52.0","battery-v0.2","","""event"",""trial"",""time""
""fullscreenenter"",""1"",""2589""
","
","
","""event"",""trial"",""time""
""fullscreenenter"",""1"",""2589""
","
","","","-1","","","15","3006","2575","l","elianto","#3366ff99","-1","-1","1","+10","[]","0","2","","","3006","48","1","2","win","no-go","0"
"pit-trial","117","908830","0.0-53.0","battery-v0.2","","""event"",""trial"",""time""
""fullscreenenter"",""1"",""2589""
","
","
","""event"",""trial"",""time""
""fullscreenenter"",""1"",""2589""
","
","","","696.5","","","15","3006","2575","u","elianto","#f73b6a7A"," "," ","1","0","[1546.7000000476837]","1","2","","","3006","49","0","3","lose","go","0"
"pit-trial","118","912295","0.0-54.0","battery-v0.2","","""event"",""trial"",""time""
""fullscreenenter"",""1"",""2589""
","
","
","""event"",""trial"",""time""
""fullscreenenter"",""1"",""2589""
","
","","","592.2000000476837","","","15","3006","2575","a","elianto","#f73b6a7A"," "," ","1","0","[1451.0999999046326]","1","2","","","3006","50","2","3","lose","go","0"
"pit-trial","119","916028","0.0-55.0","battery-v0.2","","""event"",""trial"",""time""
""fullscreenenter"",""1"",""2589""
","
","
","""event"",""trial"",""time""
""fullscreenenter"",""1"",""2589""
","
","","","864.0999999046326","","","15","3006","2575","l","elianto","#3366ff99","-1"," ","0","0","[1714.5]","1","2","","","3006","51","1","2","win","no-go","0"
"pit-trial","120","920902","0.0-56.0","battery-v0.2","","""event"",""trial"",""time""
""fullscreenenter"",""1"",""2589""
","
","
","""event"",""trial"",""time""
""fullscreenenter"",""1"",""2589""
","
","","","-1","","","15","3006","2575","g","elianto","#f73b6a7A","-1","-1","1","0","[]","0","2","","","3006","52","3","4","lose","no-go","0"
"pit-trial","121","925769","0.0-57.0","battery-v0.2","","""event"",""trial"",""time""
""fullscreenenter"",""1"",""2589""
","
","
","""event"",""trial"",""time""
""fullscreenenter"",""1"",""2589""
","
","","","-1","","","15","3006","2575","g","elianto","#f73b6a7A","-1","-1","1","0","[]","0","2","","","3006","53","3","4","lose","no-go","0"
"pit-trial","122","930656","0.0-58.0","battery-v0.2","","""event"",""trial"",""time""
""fullscreenenter"",""1"",""2589""
","
","
","""event"",""trial"",""time""
""fullscreenenter"",""1"",""2589""
","
","","","-1","","","15","3006","2575","l","elianto","#3366ff99","-1","-1","1","+10","[]","0","2","","","3006","54","1","2","win","no-go","0"
"pit-trial","123","934077","0.0-59.0","battery-v0.2","","""event"",""trial"",""time""
""fullscreenenter"",""1"",""2589""
","
","
","""event"",""trial"",""time""
""fullscreenenter"",""1"",""2589""
","
","","","558.5","","","15","3006","2575","a","elianto","#f73b6a7A"," "," ","1","0","[1410.0999999046326]","1","2","","","3006","55","2","3","lose","go","0"
"pit-trial","124","937492","0.0-60.0","battery-v0.2","","""event"",""trial"",""time""
""fullscreenenter"",""1"",""2589""
","
","
","""event"",""trial"",""time""
""fullscreenenter"",""1"",""2589""
","
","","","551.0999999046326","","","15","3006","2575","u","elianto","#f73b6a7A"," "," ","1","0","[1403.0999999046326]","1","2","","","3006","56","0","3","lose","go","0"
"pit-trial","125","941442","0.0-61.0","battery-v0.2","","""event"",""trial"",""time""
""fullscreenenter"",""1"",""2589""
","
","
","""event"",""trial"",""time""
""fullscreenenter"",""1"",""2589""
","
","","","1076.0999999046326","","","15","3006","2575","u","elianto","#f73b6a7A"," "," ","1","0","[1926.6000001430511]","1","2","","","3006","57","0","3","lose","go","0"
"pit-trial","126","946314","0.0-62.0","battery-v0.2","","""event"",""trial"",""time""
""fullscreenenter"",""1"",""2589""
","
","
","""event"",""trial"",""time""
""fullscreenenter"",""1"",""2589""
","
","","","-1","","","15","3006","2575","p","elianto","#3366ff99"," ","-1","0","+10","[]","0","2","","","3006","58","4","1","win","go","1"
"pit-trial","127","949810","0.0-63.0","battery-v0.2","","""event"",""trial"",""time""
""fullscreenenter"",""1"",""2589""
","
","
","""event"",""trial"",""time""
""fullscreenenter"",""1"",""2589""
","
","","","631.9000000953674","","","15","3006","2575","a","elianto","#f73b6a7A"," "," ","1","0","[1484]","1","2","","","3006","59","2","3","lose","go","0"
"pit-trial","128","954679","0.0-64.0","battery-v0.2","","""event"",""trial"",""time""
""fullscreenenter"",""1"",""2589""
","
","
","""event"",""trial"",""time""
""fullscreenenter"",""1"",""2589""
","
","","","-1","","","15","3006","2575","g","elianto","#f73b6a7A","-1","-1","1","0","[]","0","2","","","3006","60","3","4","lose","no-go","0"
"pit-trial","129","959558","0.0-65.0","battery-v0.2","","""event"",""trial"",""time""
""fullscreenenter"",""1"",""2589""
","
","
","""event"",""trial"",""time""
""fullscreenenter"",""1"",""2589""
","
","","","-1","","","15","3006","2575","g","elianto","#f73b6a7A","-1","-1","1","0","[]","0","2","","","3006","61","3","4","lose","no-go","0"
"pit-trial","130","963166","0.0-66.0","battery-v0.2","","""event"",""trial"",""time""
""fullscreenenter"",""1"",""2589""
","
","
","""event"",""trial"",""time""
""fullscreenenter"",""1"",""2589""
","
","","","733.6999998092651","","","15","3006","2575","a","elianto","#f73b6a7A"," "," ","1","0","[1594.5]","1","2","","","3006","62","2","3","lose","go","0"
"pit-trial","131","968043","0.0-67.0","battery-v0.2","","""event"",""trial"",""time""
""fullscreenenter"",""1"",""2589""
","
","
","""event"",""trial"",""time""
""fullscreenenter"",""1"",""2589""
","
","","","-1","","","15","3006","2575","l","elianto","#3366ff99","-1","-1","1","+10","[]","0","2","","","3006","63","1","2","win","no-go","0"
"pit-trial","132","972913","0.0-68.0","battery-v0.2","","""event"",""trial"",""time""
""fullscreenenter"",""1"",""2589""
","
","
","""event"",""trial"",""time""
""fullscreenenter"",""1"",""2589""
","
","","","-1","","","15","3006","2575","p","elianto","#3366ff99"," ","-1","0","0","[]","0","2","","","3006","64","4","1","win","go","0"
"pit-trial","133","977781","0.0-69.0","battery-v0.2","","""event"",""trial"",""time""
""fullscreenenter"",""1"",""2589""
","
","
","""event"",""trial"",""time""
""fullscreenenter"",""1"",""2589""
","
","","","-1","","","15","3006","2575","p","elianto","#3366ff99"," ","-1","0","0","[]","0","2","","","3006","65","4","1","win","go","0"
"pit-trial","134","982646","0.0-70.0","battery-v0.2","","""event"",""trial"",""time""
""fullscreenenter"",""1"",""2589""
","
","
","""event"",""trial"",""time""
""fullscreenenter"",""1"",""2589""
","
","","","-1","","","15","3006","2575","s","elianto","#3366ff99","-1","-1","1","+10","[]","0","2","","","3006","66","5","2","win","no-go","0"
"pit-trial","135","987523","0.0-71.0","battery-v0.2","","""event"",""trial"",""time""
""fullscreenenter"",""1"",""2589""
","
","
","""event"",""trial"",""time""
""fullscreenenter"",""1"",""2589""
","
","","","-1","","","15","3006","2575","l","elianto","#3366ff99","-1","-1","1","0","[]","0","2","","","3006","67","1","2","win","no-go","1"
"pit-trial","136","992392","0.0-72.0","battery-v0.2","","""event"",""trial"",""time""
""fullscreenenter"",""1"",""2589""
","
","
","""event"",""trial"",""time""
""fullscreenenter"",""1"",""2589""
","
","","","-1","","","15","3006","2575","g","elianto","#f73b6a7A","-1","-1","1","0","[]","0","2","","","3006","68","3","4","lose","no-go","0"
"pit-trial","137","996436","0.0-73.0","battery-v0.2","","""event"",""trial"",""time""
""fullscreenenter"",""1"",""2589""
","
","
","""event"",""trial"",""time""
""fullscreenenter"",""1"",""2589""
","
","","","1167.2000000476837","","","15","3006","2575","s","elianto","#3366ff99","-1"," ","0","0","[2025.7000000476837]","1","2","","","3006","69","5","2","win","no-go","0"
"pit-trial","138","1000189","0.0-74.0","battery-v0.2","","""event"",""trial"",""time""
""fullscreenenter"",""1"",""2589""
","
","
","""event"",""trial"",""time""
""fullscreenenter"",""1"",""2589""
","
","","","883.1000001430511","","","15","3006","2575","p","elianto","#3366ff99"," "," ","1","0","[1734]","1","2","","","3006","70","4","1","win","go","1"
"pit-trial","139","1003709","0.0-75.0","battery-v0.2","","""event"",""trial"",""time""
""fullscreenenter"",""1"",""2589""
","
","
","""event"",""trial"",""time""
""fullscreenenter"",""1"",""2589""
","
","","","637.4000000953674","","","15","3006","2575","a","elianto","#f73b6a7A"," "," ","1","0","[1499.2000000476837]","1","2","","","3006","71","2","3","lose","go","0"
"pit-trial","140","1008588","0.0-76.0","battery-v0.2","","""event"",""trial"",""time""
""fullscreenenter"",""1"",""2589""
","
","
","""event"",""trial"",""time""
""fullscreenenter"",""1"",""2589""
","
","","","-1","","","15","3006","2575","l","elianto","#3366ff99","-1","-1","1","+10","[]","0","2","","","3006","72","1","2","win","no-go","0"
"pit-trial","141","1013465","0.0-77.0","battery-v0.2","","""event"",""trial"",""time""
""fullscreenenter"",""1"",""2589""
","
","
","""event"",""trial"",""time""
""fullscreenenter"",""1"",""2589""
","
","","","-1","","","15","3006","2575","s","elianto","#3366ff99","-1","-1","1","+10","[]","0","2","","","3006","73","5","2","win","no-go","0"
"pit-trial","142","1017020","0.0-78.0","battery-v0.2","","""event"",""trial"",""time""
""fullscreenenter"",""1"",""2589""
","
","
","""event"",""trial"",""time""
""fullscreenenter"",""1"",""2589""
","
","","","691.2000000476837","","","15","3006","2575","p","elianto","#3366ff99"," "," ","1","0","[1542.9000000953674]","1","2","","","3006","74","4","1","win","go","1"
"pit-trial","143","1021892","0.0-79.0","battery-v0.2","","""event"",""trial"",""time""
""fullscreenenter"",""1"",""2589""
","
","
","""event"",""trial"",""time""
""fullscreenenter"",""1"",""2589""
","
","","","-1","","","15","3006","2575","l","elianto","#3366ff99","-1","-1","1","+10","[]","0","2","","","3006","75","1","2","win","no-go","0"
"pit-trial","144","1026764","0.0-80.0","battery-v0.2","","""event"",""trial"",""time""
""fullscreenenter"",""1"",""2589""
","
","
","""event"",""trial"",""time""
""fullscreenenter"",""1"",""2589""
","
","","","-1","","","15","3006","2575","g","elianto","#f73b6a7A","-1","-1","1","0","[]","0","2","","","3006","76","3","4","lose","no-go","0"
"pit-trial","145","1031634","0.0-81.0","battery-v0.2","","""event"",""trial"",""time""
""fullscreenenter"",""1"",""2589""
","
","
","""event"",""trial"",""time""
""fullscreenenter"",""1"",""2589""
","
","","","-1","","","15","3006","2575","p","elianto","#3366ff99"," ","-1","0","0","[]","0","2","","","3006","77","4","1","win","go","0"
"pit-trial","146","1036507","0.0-82.0","battery-v0.2","","""event"",""trial"",""time""
""fullscreenenter"",""1"",""2589""
","
","
","""event"",""trial"",""time""
""fullscreenenter"",""1"",""2589""
","
","","","-1","","","15","3006","2575","g","elianto","#f73b6a7A","-1","-1","1","0","[]","0","2","","","3006","78","3","4","lose","no-go","0"
"pit-trial","147","1041386","0.0-83.0","battery-v0.2","","""event"",""trial"",""time""
""fullscreenenter"",""1"",""2589""
","
","
","""event"",""trial"",""time""
""fullscreenenter"",""1"",""2589""
","
","","","-1","","","15","3006","2575","s","elianto","#3366ff99","-1","-1","1","+10","[]","0","2","","","3006","79","5","2","win","no-go","0"
"pit-trial","148","1045051","0.0-84.0","battery-v0.2","","""event"",""trial"",""time""
""fullscreenenter"",""1"",""2589""
","
","
","""event"",""trial"",""time""
""fullscreenenter"",""1"",""2589""
","
","","","793.7000000476837","","","15","3006","2575","p","elianto","#3366ff99"," "," ","1","+10","[1653.6999998092651]","1","2","","","3006","80","4","1","win","go","0"
"pit-trial","149","1048581","0.0-85.0","battery-v0.2","","""event"",""trial"",""time""
""fullscreenenter"",""1"",""2589""
","
","
","""event"",""trial"",""time""
""fullscreenenter"",""1"",""2589""
","
","","","659.5999999046326","","","15","3006","2575","p","elianto","#3366ff99"," "," ","1","+10","[1519.2000000476837]","1","2","","","3006","81","4","1","win","go","0"
"pit-trial","150","1053455","0.0-86.0","battery-v0.2","","""event"",""trial"",""time""
""fullscreenenter"",""1"",""2589""
","
","
","""event"",""trial"",""time""
""fullscreenenter"",""1"",""2589""
","
","","","-1","","","15","3006","2575","e","elianto","#f73b6a7A","-1","-1","1","0","[]","0","2","","","3006","82","7","4","lose","no-go","0"
"pit-trial","151","1058322","0.0-87.0","battery-v0.2","","""event"",""trial"",""time""
""fullscreenenter"",""1"",""2589""
","
","
","""event"",""trial"",""time""
""fullscreenenter"",""1"",""2589""
","
","","","-1","","","15","3006","2575","s","elianto","#3366ff99","-1","-1","1","+10","[]","0","2","","","3006","83","5","2","win","no-go","0"
"pit-trial","152","1063197","0.0-88.0","battery-v0.2","","""event"",""trial"",""time""
""fullscreenenter"",""1"",""2589""
","
","
","""event"",""trial"",""time""
""fullscreenenter"",""1"",""2589""
","
","","","-1","","","15","3006","2575","g","elianto","#f73b6a7A","-1","-1","1","-10","[]","0","2","","","3006","84","3","4","lose","no-go","1"
"pit-trial","153","1068064","0.0-89.0","battery-v0.2","","""event"",""trial"",""time""
""fullscreenenter"",""1"",""2589""
","
","
","""event"",""trial"",""time""
""fullscreenenter"",""1"",""2589""
","
","","","-1","","","15","3006","2575","e","elianto","#f73b6a7A","-1","-1","1","0","[]","0","2","","","3006","85","7","4","lose","no-go","0"
"pit-trial","154","1072950","0.0-90.0","battery-v0.2","","""event"",""trial"",""time""
""fullscreenenter"",""1"",""2589""
","
","
","""event"",""trial"",""time""
""fullscreenenter"",""1"",""2589""
","
","","","-1","","","15","3006","2575","s","elianto","#3366ff99","-1","-1","1","+10","[]","0","2","","","3006","86","5","2","win","no-go","0"
"pit-trial","155","1077820","0.0-91.0","battery-v0.2","","""event"",""trial"",""time""
""fullscreenenter"",""1"",""2589""
","
","
","""event"",""trial"",""time""
""fullscreenenter"",""1"",""2589""
","
","","","-1","","","15","3006","2575","w","elianto","#f73b6a7A"," ","-1","0","-10","[]","0","2","","","3006","87","6","3","lose","go","0"
"pit-trial","156","1081279","0.0-92.0","battery-v0.2","","""event"",""trial"",""time""
""fullscreenenter"",""1"",""2589""
","
","
","""event"",""trial"",""time""
""fullscreenenter"",""1"",""2589""
","
","","","589.8000001907349","","","15","3006","2575","p","elianto","#3366ff99"," "," ","1","+10","[1443.5]","1","2","","","3006","88","4","1","win","go","0"
"pit-trial","157","1084983","0.0-93.0","battery-v0.2","","""event"",""trial"",""time""
""fullscreenenter"",""1"",""2589""
","
","
","""event"",""trial"",""time""
""fullscreenenter"",""1"",""2589""
","
","","","832.9000000953674","","","15","3006","2575","w","elianto","#f73b6a7A"," "," ","1","0","[1693]","1","2","","","3006","89","6","3","lose","go","0"
"pit-trial","158","1089862","0.0-94.0","battery-v0.2","","""event"",""trial"",""time""
""fullscreenenter"",""1"",""2589""
","
","
","""event"",""trial"",""time""
""fullscreenenter"",""1"",""2589""
","
","","","-1","","","15","3006","2575","s","elianto","#3366ff99","-1","-1","1","+10","[]","0","2","","","3006","90","5","2","win","no-go","0"
"pit-trial","159","1093426","0.0-95.0","battery-v0.2","","""event"",""trial"",""time""
""fullscreenenter"",""1"",""2589""
","
","
","""event"",""trial"",""time""
""fullscreenenter"",""1"",""2589""
","
","","","687.5","","","15","3006","2575","p","elianto","#3366ff99"," "," ","1","+10","[1545.8999998569489]","1","2","","","3006","91","4","1","win","go","0"
"pit-trial","160","1098294","0.0-96.0","battery-v0.2","","""event"",""trial"",""time""
""fullscreenenter"",""1"",""2589""
","
","
","""event"",""trial"",""time""
""fullscreenenter"",""1"",""2589""
","
","","","-1","","","15","3006","2575","e","elianto","#f73b6a7A","-1","-1","1","0","[]","0","2","","","3006","92","7","4","lose","no-go","0"
"pit-trial","161","1103165","0.0-97.0","battery-v0.2","","""event"",""trial"",""time""
""fullscreenenter"",""1"",""2589""
","
","
","""event"",""trial"",""time""
""fullscreenenter"",""1"",""2589""
","
","","","-1","","","15","3006","2575","s","elianto","#3366ff99","-1","-1","1","+10","[]","0","2","","","3006","93","5","2","win","no-go","0"
"pit-trial","162","1108030","0.0-98.0","battery-v0.2","","""event"",""trial"",""time""
""fullscreenenter"",""1"",""2589""
","
","
","""event"",""trial"",""time""
""fullscreenenter"",""1"",""2589""
","
","","","-1","","","15","3006","2575","e","elianto","#f73b6a7A","-1","-1","1","0","[]","0","2","","","3006","94","7","4","lose","no-go","0"
"pit-trial","163","1112907","0.0-99.0","battery-v0.2","","""event"",""trial"",""time""
""fullscreenenter"",""1"",""2589""
","
","
","""event"",""trial"",""time""
""fullscreenenter"",""1"",""2589""
","
","","","-1","","","15","3006","2575","d","elianto","#3366ff99"," ","-1","0","0","[]","0","2","","","3006","95","8","1","win","go","0"
"pit-trial","164","1116659","0.0-100.0","battery-v0.2","","""event"",""trial"",""time""
""fullscreenenter"",""1"",""2589""
","
","
","""event"",""trial"",""time""
""fullscreenenter"",""1"",""2589""
","
","","","888.9000000953674","","","15","3006","2575","w","elianto","#f73b6a7A"," "," ","1","0","[1741.0999999046326]","1","2","","","3006","96","6","3","lose","go","0"
"pit-trial","165","1120225","0.0-101.0","battery-v0.2","","""event"",""trial"",""time""
""fullscreenenter"",""1"",""2589""
","
","
","""event"",""trial"",""time""
""fullscreenenter"",""1"",""2589""
","
","","","700.6000001430511","","","15","3006","2575","w","elianto","#f73b6a7A"," "," ","1","-10","[1552.3999998569489]","1","2","","","3006","97","6","3","lose","go","1"
"pit-trial","166","1125099","0.0-102.0","battery-v0.2","","""event"",""trial"",""time""
""fullscreenenter"",""1"",""2589""
","
","
","""event"",""trial"",""time""
""fullscreenenter"",""1"",""2589""
","
","","","-1","","","15","3006","2575","e","elianto","#f73b6a7A","-1","-1","1","-10","[]","0","2","","","3006","98","7","4","lose","no-go","1"
"pit-trial","167","1128707","0.0-103.0","battery-v0.2","","""event"",""trial"",""time""
""fullscreenenter"",""1"",""2589""
","
","
","""event"",""trial"",""time""
""fullscreenenter"",""1"",""2589""
","
","","","732.9000000953674","","","15","3006","2575","d","elianto","#3366ff99"," "," ","1","+10","[1589.0999999046326]","1","2","","","3006","99","8","1","win","go","0"
"pit-trial","168","1133575","0.0-104.0","battery-v0.2","","""event"",""trial"",""time""
""fullscreenenter"",""1"",""2589""
","
","
","""event"",""trial"",""time""
""fullscreenenter"",""1"",""2589""
","
","","","-1","","","15","3006","2575","s","elianto","#3366ff99","-1","-1","1","+10","[]","0","2","","","3006","100","5","2","win","no-go","0"
"pit-trial","169","1138456","0.0-105.0","battery-v0.2","","""event"",""trial"",""time""
""fullscreenenter"",""1"",""2589""
","
","
","""event"",""trial"",""time""
""fullscreenenter"",""1"",""2589""
","
","","","-1","","","15","3006","2575","s","elianto","#3366ff99","-1","-1","1","+10","[]","0","2","","","3006","101","5","2","win","no-go","0"
"pit-trial","170","1142108","0.0-106.0","battery-v0.2","","""event"",""trial"",""time""
""fullscreenenter"",""1"",""2589""
","
","
","""event"",""trial"",""time""
""fullscreenenter"",""1"",""2589""
","
","","","787.6000001430511","","","15","3006","2575","d","elianto","#3366ff99"," "," ","1","+10","[1640.4000000953674]","1","2","","","3006","102","8","1","win","go","0"
"pit-trial","171","1146974","0.0-107.0","battery-v0.2","","""event"",""trial"",""time""
""fullscreenenter"",""1"",""2589""
","
","
","""event"",""trial"",""time""
""fullscreenenter"",""1"",""2589""
","
","","","-1","","","15","3006","2575","j","elianto","#3366ff99"," ","-1","0","+10","[]","0","2","","","3006","103","9","1","win","go","1"
"pit-trial","172","1151857","0.0-108.0","battery-v0.2","","""event"",""trial"",""time""
""fullscreenenter"",""1"",""2589""
","
","
","""event"",""trial"",""time""
""fullscreenenter"",""1"",""2589""
","
","","","-1","","","15","3006","2575","e","elianto","#f73b6a7A","-1","-1","1","0","[]","0","2","","","3006","104","7","4","lose","no-go","0"
"pit-trial","173","1155792","0.0-109.0","battery-v0.2","","""event"",""trial"",""time""
""fullscreenenter"",""1"",""2589""
","
","
","""event"",""trial"",""time""
""fullscreenenter"",""1"",""2589""
","
","","","1055.7000000476837","","","15","3006","2575","p","elianto","#3366ff99"," "," ","1","0","[1914.5]","1","2","","","3006","105","4","1","win","go","1"
"pit-trial","174","1159662","0.0-110.0","battery-v0.2","","""event"",""trial"",""time""
""fullscreenenter"",""1"",""2589""
","
","
","""event"",""trial"",""time""
""fullscreenenter"",""1"",""2589""
","
","","","997.1000001430511","","","15","3006","2575","w","elianto","#f73b6a7A"," "," ","1","-10","[1850.7000000476837]","1","2","","","3006","106","6","3","lose","go","1"
"pit-trial","175","1163404","0.0-111.0","battery-v0.2","","""event"",""trial"",""time""
""fullscreenenter"",""1"",""2589""
","
","
","""event"",""trial"",""time""
""fullscreenenter"",""1"",""2589""
","
","","","870.6000001430511","","","15","3006","2575","d","elianto","#3366ff99"," "," ","1","0","[1724.0999999046326]","1","2","","","3006","107","8","1","win","go","1"
"pit-trial","176","1168273","0.0-112.0","battery-v0.2","","""event"",""trial"",""time""
""fullscreenenter"",""1"",""2589""
","
","
","""event"",""trial"",""time""
""fullscreenenter"",""1"",""2589""
","
","","","-1","","","15","3006","2575","j","elianto","#3366ff99"," ","-1","0","0","[]","0","2","","","3006","108","9","1","win","go","0"
"pit-trial","177","1173146","0.0-113.0","battery-v0.2","","""event"",""trial"",""time""
""fullscreenenter"",""1"",""2589""
","
","
","""event"",""trial"",""time""
""fullscreenenter"",""1"",""2589""
","
","","","-1","","","15","3006","2575","j","elianto","#3366ff99"," ","-1","0","0","[]","0","2","","","3006","109","9","1","win","go","0"
"pit-trial","178","1176976","0.0-114.0","battery-v0.2","","""event"",""trial"",""time""
""fullscreenenter"",""1"",""2589""
","
","
","""event"",""trial"",""time""
""fullscreenenter"",""1"",""2589""
","
","","","966.4000000953674","","","15","3006","2575","w","elianto","#f73b6a7A"," "," ","1","0","[1816.9000000953674]","1","2","","","3006","110","6","3","lose","go","0"
"pit-trial","179","1181119","0.0-115.0","battery-v0.2","","""event"",""trial"",""time""
""fullscreenenter"",""1"",""2589""
","
","
","""event"",""trial"",""time""
""fullscreenenter"",""1"",""2589""
","
","","","1273.6000001430511","","","15","3006","2575","d","elianto","#3366ff99"," "," ","1","+10","[2129.7999999523163]","1","2","","","3006","111","8","1","win","go","0"
"pit-trial","180","1185986","0.0-116.0","battery-v0.2","","""event"",""trial"",""time""
""fullscreenenter"",""1"",""2589""
","
","
","""event"",""trial"",""time""
""fullscreenenter"",""1"",""2589""
","
","","","-1","","","15","3006","2575","s","elianto","#3366ff99","-1","-1","1","+10","[]","0","2","","","3006","112","5","2","win","no-go","0"
"pit-trial","181","1189720","0.0-117.0","battery-v0.2","","""event"",""trial"",""time""
""fullscreenenter"",""1"",""2589""
","
","
","""event"",""trial"",""time""
""fullscreenenter"",""1"",""2589""
","
","","","864.9000000953674","","","15","3006","2575","w","elianto","#f73b6a7A"," "," ","1","0","[1715]","1","2","","","3006","113","6","3","lose","go","0"
"pit-trial","182","1193684","0.0-118.0","battery-v0.2","","""event"",""trial"",""time""
""fullscreenenter"",""1"",""2589""
","
","
","""event"",""trial"",""time""
""fullscreenenter"",""1"",""2589""
","
","","","1089.2000000476837","","","15","3006","2575","d","elianto","#3366ff99"," "," ","1","+10","[1949.2000000476837]","1","2","","","3006","114","8","1","win","go","0"
"pit-trial","183","1197369","0.0-119.0","battery-v0.2","","""event"",""trial"",""time""
""fullscreenenter"",""1"",""2589""
","
","
","""event"",""trial"",""time""
""fullscreenenter"",""1"",""2589""
","
","","","818.8000001907349","","","15","3006","2575","j","elianto","#3366ff99"," "," ","1","+10","[1669.7000000476837]","1","2","","","3006","115","9","1","win","go","0"
"pit-trial","184","1202235","0.0-120.0","battery-v0.2","","""event"",""trial"",""time""
""fullscreenenter"",""1"",""2589""
","
","
","""event"",""trial"",""time""
""fullscreenenter"",""1"",""2589""
","
","","","-1","","","15","3006","2575","s","elianto","#3366ff99","-1","-1","1","+10","[]","0","2","","","3006","116","5","2","win","no-go","0"
"pit-trial","185","1205891","0.0-121.0","battery-v0.2","","""event"",""trial"",""time""
""fullscreenenter"",""1"",""2589""
","
","
","""event"",""trial"",""time""
""fullscreenenter"",""1"",""2589""
","
","","","779.9000000953674","","","15","3006","2575","w","elianto","#f73b6a7A"," "," ","1","0","[1638.7999999523163]","1","2","","","3006","117","6","3","lose","go","0"
"pit-trial","186","1209736","0.0-122.0","battery-v0.2","","""event"",""trial"",""time""
""fullscreenenter"",""1"",""2589""
","
","
","""event"",""trial"",""time""
""fullscreenenter"",""1"",""2589""
","
","","","967.9000000953674","","","15","3006","2575","d","elianto","#3366ff99"," "," ","1","+10","[1822.2999999523163]","1","2","","","3006","118","8","1","win","go","0"
"pit-trial","187","1214608","0.0-123.0","battery-v0.2","","""event"",""trial"",""time""
""fullscreenenter"",""1"",""2589""
","
","
","""event"",""trial"",""time""
""fullscreenenter"",""1"",""2589""
","
","","","-1","","","15","3006","2575","s","elianto","#3366ff99","-1","-1","1","+10","[]","0","2","","","3006","119","5","2","win","no-go","0"
"pit-trial","188","1218572","0.0-124.0","battery-v0.2","","""event"",""trial"",""time""
""fullscreenenter"",""1"",""2589""
","
","
","""event"",""trial"",""time""
""fullscreenenter"",""1"",""2589""
","
","","","1092","","","15","3006","2575","j","elianto","#3366ff99"," "," ","1","+10","[1946]","1","2","","","3006","120","9","1","win","go","0"
"pit-trial","189","1222649","0.0-125.0","battery-v0.2","","""event"",""trial"",""time""
""fullscreenenter"",""1"",""2589""
","
","
","""event"",""trial"",""time""
""fullscreenenter"",""1"",""2589""
","
","","","1205.1999998092651","","","15","3006","2575","d","elianto","#3366ff99"," "," ","1","+10","[2056.399999856949]","1","2","","","3006","121","8","1","win","go","0"
"pit-trial","190","1226216","0.0-126.0","battery-v0.2","","""event"",""trial"",""time""
""fullscreenenter"",""1"",""2589""
","
","
","""event"",""trial"",""time""
""fullscreenenter"",""1"",""2589""
","
","","","696.7000000476837","","","15","3006","2575","j","elianto","#3366ff99"," "," ","1","0","[1550.4000000953674]","1","2","","","3006","122","9","1","win","go","1"
"pit-trial","191","1231097","0.0-127.0","battery-v0.2","","""event"",""trial"",""time""
""fullscreenenter"",""1"",""2589""
","
","
","""event"",""trial"",""time""
""fullscreenenter"",""1"",""2589""
","
","","","-1","","","15","3006","2575","e","elianto","#f73b6a7A","-1","-1","1","0","[]","0","2","","","3006","123","7","4","lose","no-go","0"
"pit-trial","192","1234746","0.0-128.0","battery-v0.2","","""event"",""trial"",""time""
""fullscreenenter"",""1"",""2589""
","
","
","""event"",""trial"",""time""
""fullscreenenter"",""1"",""2589""
","
","","","778.5","","","15","3006","2575","w","elianto","#f73b6a7A"," "," ","1","-10","[1628.5999999046326]","1","2","","","3006","124","6","3","lose","go","1"
"pit-trial","193","1239613","0.0-129.0","battery-v0.2","","""event"",""trial"",""time""
""fullscreenenter"",""1"",""2589""
","
","
","""event"",""trial"",""time""
""fullscreenenter"",""1"",""2589""
","
","","","-1","","","15","3006","2575","e","elianto","#f73b6a7A","-1","-1","1","-10","[]","0","2","","","3006","125","7","4","lose","no-go","1"
"pit-trial","194","1243196","0.0-130.0","battery-v0.2","","""event"",""trial"",""time""
""fullscreenenter"",""1"",""2589""
","
","
","""event"",""trial"",""time""
""fullscreenenter"",""1"",""2589""
","
","","","704.2000000476837","","","15","3006","2575","d","elianto","#3366ff99"," "," ","1","+10","[1564.3000001907349]","1","2","","","3006","126","8","1","win","go","0"
"pit-trial","195","1246853","0.0-131.0","battery-v0.2","","""event"",""trial"",""time""
""fullscreenenter"",""1"",""2589""
","
","
","""event"",""trial"",""time""
""fullscreenenter"",""1"",""2589""
","
","","","785.7999999523163","","","15","3006","2575","j","elianto","#3366ff99"," "," ","1","+10","[1644.5]","1","2","","","3006","127","9","1","win","go","0"
"pit-trial","196","1250336","0.0-132.0","battery-v0.2","","""event"",""trial"",""time""
""fullscreenenter"",""1"",""2589""
","
","
","""event"",""trial"",""time""
""fullscreenenter"",""1"",""2589""
","
","","","616.4000000953674","","","15","3006","2575","w","elianto","#f73b6a7A"," "," ","1","-10","[1474.7000000476837]","1","2","","","3006","128","6","3","lose","go","1"
"pit-trial","197","1253795","0.0-133.0","battery-v0.2","","""event"",""trial"",""time""
""fullscreenenter"",""1"",""2589""
","
","
","""event"",""trial"",""time""
""fullscreenenter"",""1"",""2589""
","
","","","592.7000000476837","","","15","3006","2575","j","elianto","#3366ff99"," "," ","1","+10","[1445.5]","1","2","","","3006","129","9","1","win","go","0"
"pit-trial","198","1257213","0.0-134.0","battery-v0.2","","""event"",""trial"",""time""
""fullscreenenter"",""1"",""2589""
","
","
","""event"",""trial"",""time""
""fullscreenenter"",""1"",""2589""
","
","","","547","","","15","3006","2575","d","elianto","#3366ff99"," "," ","1","0","[1397.7000000476837]","1","2","","","3006","130","8","1","win","go","1"
"pit-trial","199","1262095","0.0-135.0","battery-v0.2","","""event"",""trial"",""time""
""fullscreenenter"",""1"",""2589""
","
","
","""event"",""trial"",""time""
""fullscreenenter"",""1"",""2589""
","
","","","-1","","","15","3006","2575","e","elianto","#f73b6a7A","-1","-1","1","0","[]","0","2","","","3006","131","7","4","lose","no-go","0"
"pit-trial","200","1266966","0.0-136.0","battery-v0.2","","""event"",""trial"",""time""
""fullscreenenter"",""1"",""2589""
","
","
","""event"",""trial"",""time""
""fullscreenenter"",""1"",""2589""
","
","","","-1","","","15","3006","2575","w","elianto","#f73b6a7A"," ","-1","0","-10","[]","0","2","","","3006","132","6","3","lose","go","0"
"pit-trial","201","1271834","0.0-137.0","battery-v0.2","","""event"",""trial"",""time""
""fullscreenenter"",""1"",""2589""
","
","
","""event"",""trial"",""time""
""fullscreenenter"",""1"",""2589""
","
","","","-1","","","15","3006","2575","w","elianto","#f73b6a7A"," ","-1","0","-10","[]","0","2","","","3006","133","6","3","lose","go","0"
"pit-trial","202","1275346","0.0-138.0","battery-v0.2","","""event"",""trial"",""time""
""fullscreenenter"",""1"",""2589""
","
","
","""event"",""trial"",""time""
""fullscreenenter"",""1"",""2589""
","
","","","642.5","","","15","3006","2575","j","elianto","#3366ff99"," "," ","1","+10","[1495.2000000476837]","1","2","","","3006","134","9","1","win","go","0"
"pit-trial","203","1280215","0.0-139.0","battery-v0.2","","""event"",""trial"",""time""
""fullscreenenter"",""1"",""2589""
","
","
","""event"",""trial"",""time""
""fullscreenenter"",""1"",""2589""
","
","","","-1","","","15","3006","2575","e","elianto","#f73b6a7A","-1","-1","1","0","[]","0","2","","","3006","135","7","4","lose","no-go","0"
"pit-trial","204","1283691","0.0-140.0","battery-v0.2","","""event"",""trial"",""time""
""fullscreenenter"",""1"",""2589""
","
","
","""event"",""trial"",""time""
""fullscreenenter"",""1"",""2589""
","
","","","598.3000001907349","","","15","3006","2575","d","elianto","#3366ff99"," "," ","1","+10","[1455.8000001907349]","1","2","","","3006","136","8","1","win","go","0"
"pit-trial","205","1288563","0.0-141.0","battery-v0.2","","""event"",""trial"",""time""
""fullscreenenter"",""1"",""2589""
","
","
","""event"",""trial"",""time""
""fullscreenenter"",""1"",""2589""
","
","","","-1","","","15","3006","2575","e","elianto","#f73b6a7A","-1","-1","1","0","[]","0","2","","","3006","137","7","4","lose","no-go","0"
"pit-trial","206","1292316","0.0-142.0","battery-v0.2","","""event"",""trial"",""time""
""fullscreenenter"",""1"",""2589""
","
","
","""event"",""trial"",""time""
""fullscreenenter"",""1"",""2589""
","
","","","884.5","","","15","3006","2575","w","elianto","#f73b6a7A"," "," ","1","0","[1741.5]","1","2","","","3006","138","6","3","lose","go","0"
"pit-trial","207","1295891","0.0-143.0","battery-v0.2","","""event"",""trial"",""time""
""fullscreenenter"",""1"",""2589""
","
","
","""event"",""trial"",""time""
""fullscreenenter"",""1"",""2589""
","
","","","708.2999999523163","","","15","3006","2575","d","elianto","#3366ff99"," "," ","1","0","[1563.0999999046326]","1","2","","","3006","139","8","1","win","go","1"
"pit-trial","208","1299327","0.0-144.0","battery-v0.2","","""event"",""trial"",""time""
""fullscreenenter"",""1"",""2589""
","
","
","""event"",""trial"",""time""
""fullscreenenter"",""1"",""2589""
","
","","","567","","","15","3006","2575","j","elianto","#3366ff99"," "," ","1","+10","[1418.5]","1","2","","","3006","140","9","1","win","go","0"
"pit-instructions","209","1318947","0.0-145.0","battery-v0.2","","""event"",""trial"",""time""
""fullscreenenter"",""1"",""2589""
","
","
","""event"",""trial"",""time""
""fullscreenenter"",""1"",""2589""
","
","","[{""page_index"":0,""viewing_time"":11178.200000047684},{""page_index"":1,""viewing_time"":8434.799999952316}]","19613.89999985695","","","","","","","","","","","","","","","","","","","","","","","",""
"pit-trial","210","1323832","0.0-146.0","battery-v0.2","","""event"",""trial"",""time""
""fullscreenenter"",""1"",""2589""
","
","
","""event"",""trial"",""time""
""fullscreenenter"",""1"",""2589""
","
","","","-1","","","15","3006","2575","f","elianto","#3366ff99"," ","-1","0","0","[]","0","3","","","3006","141","1","1","win","go","0"
"pit-trial","211","1328711","0.0-147.0","battery-v0.2","","""event"",""trial"",""time""
""fullscreenenter"",""1"",""2589""
","
","
","""event"",""trial"",""time""
""fullscreenenter"",""1"",""2589""
","
","","","-1","","","15","3006","2575","n","elianto","#f73b6a7A","-1","-1","1","0","[]","0","3","","","3006","142","0","4","lose","no-go","0"
"pit-trial","212","1333582","0.0-148.0","battery-v0.2","","""event"",""trial"",""time""
""fullscreenenter"",""1"",""2589""
","
","
","""event"",""trial"",""time""
""fullscreenenter"",""1"",""2589""
","
","","","-1","","","15","3006","2575","b","elianto","#f73b6a7A"," ","-1","0","-10","[]","0","3","","","3006","143","3","3","lose","go","0"
"pit-trial","213","1338452","0.0-149.0","battery-v0.2","","""event"",""trial"",""time""
""fullscreenenter"",""1"",""2589""
","
","
","""event"",""trial"",""time""
""fullscreenenter"",""1"",""2589""
","
","","","-1","","","15","3006","2575","t","elianto","#f73b6a7A","-1","-1","1","0","[]","0","3","","","3006","144","2","4","lose","no-go","0"
"pit-trial","214","1343342","0.0-150.0","battery-v0.2","","""event"",""trial"",""time""
""fullscreenenter"",""1"",""2589""
","
","
","""event"",""trial"",""time""
""fullscreenenter"",""1"",""2589""
","
","","","-1","","","15","3006","2575","t","elianto","#f73b6a7A","-1","-1","1","0","[]","0","3","","","3006","145","2","4","lose","no-go","0"
"pit-trial","215","1348221","0.0-151.0","battery-v0.2","","""event"",""trial"",""time""
""fullscreenenter"",""1"",""2589""
","
","
","""event"",""trial"",""time""
""fullscreenenter"",""1"",""2589""
","
","","","-1","","","15","3006","2575","n","elianto","#f73b6a7A","-1","-1","1","0","[]","0","3","","","3006","146","0","4","lose","no-go","0"
"pit-trial","216","1352093","0.0-152.0","battery-v0.2","","""event"",""trial"",""time""
""fullscreenenter"",""1"",""2589""
","
","
","""event"",""trial"",""time""
""fullscreenenter"",""1"",""2589""
","
","","","999.5999999046326","","","15","3006","2575","b","elianto","#f73b6a7A"," "," ","1","0","[1856.7999999523163]","1","3","","","3006","147","3","3","lose","go","0"
"pit-trial","217","1355553","0.0-153.0","battery-v0.2","","""event"",""trial"",""time""
""fullscreenenter"",""1"",""2589""
","
","
","""event"",""trial"",""time""
""fullscreenenter"",""1"",""2589""
","
","","","586.4000000953674","","","15","3006","2575","f","elianto","#3366ff99"," "," ","1","0","[1441.7000000476837]","1","3","","","3006","148","1","1","win","go","1"
"pit-trial","218","1359251","0.0-154.0","battery-v0.2","","""event"",""trial"",""time""
""fullscreenenter"",""1"",""2589""
","
","
","""event"",""trial"",""time""
""fullscreenenter"",""1"",""2589""
","
","","","820.4000000953674","","","15","3006","2575","f","elianto","#3366ff99"," "," ","1","0","[1680.4000000953674]","1","3","","","3006","149","1","1","win","go","1"
"pit-trial","219","1362769","0.0-155.0","battery-v0.2","","""event"",""trial"",""time""
""fullscreenenter"",""1"",""2589""
","
","
","""event"",""trial"",""time""
""fullscreenenter"",""1"",""2589""
","
","","","643.1999998092651","","","15","3006","2575","b","elianto","#f73b6a7A"," "," ","1","-10","[1493.2999999523163]","1","3","","","3006","150","3","3","lose","go","1"
"pit-trial","220","1367637","0.0-156.0","battery-v0.2","","""event"",""trial"",""time""
""fullscreenenter"",""1"",""2589""
","
","
","""event"",""trial"",""time""
""fullscreenenter"",""1"",""2589""
","
","","","-1","","","15","3006","2575","n","elianto","#f73b6a7A","-1","-1","1","-10","[]","0","3","","","3006","151","0","4","lose","no-go","1"
"pit-trial","221","1372507","0.0-157.0","battery-v0.2","","""event"",""trial"",""time""
""fullscreenenter"",""1"",""2589""
","
","
","""event"",""trial"",""time""
""fullscreenenter"",""1"",""2589""
","
","","","-1","","","15","3006","2575","t","elianto","#f73b6a7A","-1","-1","1","0","[]","0","3","","","3006","152","2","4","lose","no-go","0"
"pit-trial","222","1377374","0.0-158.0","battery-v0.2","","""event"",""trial"",""time""
""fullscreenenter"",""1"",""2589""
","
","
","""event"",""trial"",""time""
""fullscreenenter"",""1"",""2589""
","
","","","-1","","","15","3006","2575","t","elianto","#f73b6a7A","-1","-1","1","0","[]","0","3","","","3006","153","2","4","lose","no-go","0"
"pit-trial","223","1382250","0.0-159.0","battery-v0.2","","""event"",""trial"",""time""
""fullscreenenter"",""1"",""2589""
","
","
","""event"",""trial"",""time""
""fullscreenenter"",""1"",""2589""
","
","","","-1","","","15","3006","2575","n","elianto","#f73b6a7A","-1","-1","1","0","[]","0","3","","","3006","154","0","4","lose","no-go","0"
"pit-trial","224","1385965","0.0-160.0","battery-v0.2","","""event"",""trial"",""time""
""fullscreenenter"",""1"",""2589""
","
","
","""event"",""trial"",""time""
""fullscreenenter"",""1"",""2589""
","
","","","840.5999999046326","","","15","3006","2575","b","elianto","#f73b6a7A"," "," ","1","0","[1700.5999999046326]","1","3","","","3006","155","3","3","lose","go","0"
"pit-trial","225","1390832","0.0-161.0","battery-v0.2","","""event"",""trial"",""time""
""fullscreenenter"",""1"",""2589""
","
","
","""event"",""trial"",""time""
""fullscreenenter"",""1"",""2589""
","
","","","-1","","","15","3006","2575","f","elianto","#3366ff99"," ","-1","0","0","[]","0","3","","","3006","156","1","1","win","go","0"
"pit-trial","226","1395709","0.0-162.0","battery-v0.2","","""event"",""trial"",""time""
""fullscreenenter"",""1"",""2589""
","
","
","""event"",""trial"",""time""
""fullscreenenter"",""1"",""2589""
","
","","","-1","","","15","3006","2575","n","elianto","#f73b6a7A","-1","-1","1","0","[]","0","3","","","3006","157","0","4","lose","no-go","0"
"pit-trial","227","1399170","0.0-163.0","battery-v0.2","","""event"",""trial"",""time""
""fullscreenenter"",""1"",""2589""
","
","
","""event"",""trial"",""time""
""fullscreenenter"",""1"",""2589""
","
","","","601.7999999523163","","","15","3006","2575","f","elianto","#3366ff99"," "," ","1","+10","[1452.1999998092651]","1","3","","","3006","158","1","1","win","go","0"
"pit-trial","228","1404046","0.0-164.0","battery-v0.2","","""event"",""trial"",""time""
""fullscreenenter"",""1"",""2589""
","
","
","""event"",""trial"",""time""
""fullscreenenter"",""1"",""2589""
","
","","","-1","","","15","3006","2575","t","elianto","#f73b6a7A","-1","-1","1","0","[]","0","3","","","3006","159","2","4","lose","no-go","0"
"pit-trial","229","1407648","0.0-165.0","battery-v0.2","","""event"",""trial"",""time""
""fullscreenenter"",""1"",""2589""
","
","
","""event"",""trial"",""time""
""fullscreenenter"",""1"",""2589""
","
","","","738.5999999046326","","","15","3006","2575","b","elianto","#f73b6a7A"," "," ","1","0","[1589.7000000476837]","1","3","","","3006","160","3","3","lose","go","0"
"pit-trial","230","1412513","0.0-166.0","battery-v0.2","","""event"",""trial"",""time""
""fullscreenenter"",""1"",""2589""
","
","
","""event"",""trial"",""time""
""fullscreenenter"",""1"",""2589""
","
","","","-1","","","15","3006","2575","n","elianto","#f73b6a7A","-1","-1","1","0","[]","0","3","","","3006","161","0","4","lose","no-go","0"
"pit-trial","231","1416362","0.0-167.0","battery-v0.2","","""event"",""trial"",""time""
""fullscreenenter"",""1"",""2589""
","
","
","""event"",""trial"",""time""
""fullscreenenter"",""1"",""2589""
","
","","","989","","","15","3006","2575","b","elianto","#f73b6a7A"," "," ","1","-10","[1840]","1","3","","","3006","162","3","3","lose","go","1"
"pit-trial","232","1419780","0.0-168.0","battery-v0.2","","""event"",""trial"",""time""
""fullscreenenter"",""1"",""2589""
","
","
","""event"",""trial"",""time""
""fullscreenenter"",""1"",""2589""
","
","","","540.3999998569489","","","15","3006","2575","f","elianto","#3366ff99"," "," ","1","+10","[1390.5]","1","3","","","3006","163","1","1","win","go","0"
"pit-trial","233","1424652","0.0-169.0","battery-v0.2","","""event"",""trial"",""time""
""fullscreenenter"",""1"",""2589""
","
","
","""event"",""trial"",""time""
""fullscreenenter"",""1"",""2589""
","
","","","-1","","","15","3006","2575","t","elianto","#f73b6a7A","-1","-1","1","0","[]","0","3","","","3006","164","2","4","lose","no-go","0"
"pit-trial","234","1428615","0.0-170.0","battery-v0.2","","""event"",""trial"",""time""
""fullscreenenter"",""1"",""2589""
","
","
","""event"",""trial"",""time""
""fullscreenenter"",""1"",""2589""
","
","","","1089.0999999046326","","","15","3006","2575","b","elianto","#f73b6a7A"," "," ","1","0","[1943.7000000476837]","1","3","","","3006","165","3","3","lose","go","0"
"pit-trial","235","1433496","0.0-171.0","battery-v0.2","","""event"",""trial"",""time""
""fullscreenenter"",""1"",""2589""
","
","
","""event"",""trial"",""time""
""fullscreenenter"",""1"",""2589""
","
","","","-1","","","15","3006","2575","n","elianto","#f73b6a7A","-1","-1","1","0","[]","0","3","","","3006","166","0","4","lose","no-go","0"
"pit-trial","236","1438368","0.0-172.0","battery-v0.2","","""event"",""trial"",""time""
""fullscreenenter"",""1"",""2589""
","
","
","""event"",""trial"",""time""
""fullscreenenter"",""1"",""2589""
","
","","","-1","","","15","3006","2575","c","elianto","#3366ff99","-1","-1","1","+10","[]","0","3","","","3006","167","4","2","win","no-go","0"
"pit-trial","237","1443231","0.0-173.0","battery-v0.2","","""event"",""trial"",""time""
""fullscreenenter"",""1"",""2589""
","
","
","""event"",""trial"",""time""
""fullscreenenter"",""1"",""2589""
","
","","","-1","","","15","3006","2575","t","elianto","#f73b6a7A","-1","-1","1","0","[]","0","3","","","3006","168","2","4","lose","no-go","0"
"pit-trial","238","1448096","0.0-174.0","battery-v0.2","","""event"",""trial"",""time""
""fullscreenenter"",""1"",""2589""
","
","
","""event"",""trial"",""time""
""fullscreenenter"",""1"",""2589""
","
","","","-1","","","15","3006","2575","c","elianto","#3366ff99","-1","-1","1","+10","[]","0","3","","","3006","169","4","2","win","no-go","0"
"pit-trial","239","1451844","0.0-175.0","battery-v0.2","","""event"",""trial"",""time""
""fullscreenenter"",""1"",""2589""
","
","
","""event"",""trial"",""time""
""fullscreenenter"",""1"",""2589""
","
","","","871.5999999046326","","","15","3006","2575","b","elianto","#f73b6a7A"," "," ","1","0","[1727.8999998569489]","1","3","","","3006","170","3","3","lose","go","0"
"pit-trial","240","1455461","0.0-176.0","battery-v0.2","","""event"",""trial"",""time""
""fullscreenenter"",""1"",""2589""
","
","
","""event"",""trial"",""time""
""fullscreenenter"",""1"",""2589""
","
","","","734","","","15","3006","2575","f","elianto","#3366ff99"," "," ","1","+10","[1593.5]","1","3","","","3006","171","1","1","win","go","0"
"pit-trial","241","1460333","0.0-177.0","battery-v0.2","","""event"",""trial"",""time""
""fullscreenenter"",""1"",""2589""
","
","
","""event"",""trial"",""time""
""fullscreenenter"",""1"",""2589""
","
","","","-1","","","15","3006","2575","n","elianto","#f73b6a7A","-1","-1","1","-10","[]","0","3","","","3006","172","0","4","lose","no-go","1"
"pit-trial","242","1463778","0.0-178.0","battery-v0.2","","""event"",""trial"",""time""
""fullscreenenter"",""1"",""2589""
","
","
","""event"",""trial"",""time""
""fullscreenenter"",""1"",""2589""
","
","","","573.7000000476837","","","15","3006","2575","f","elianto","#3366ff99"," "," ","1","+10","[1429.7000000476837]","1","3","","","3006","173","1","1","win","go","0"
"pit-trial","243","1468658","0.0-179.0","battery-v0.2","","""event"",""trial"",""time""
""fullscreenenter"",""1"",""2589""
","
","
","""event"",""trial"",""time""
""fullscreenenter"",""1"",""2589""
","
","","","-1","","","15","3006","2575","n","elianto","#f73b6a7A","-1","-1","1","0","[]","0","3","","","3006","174","0","4","lose","no-go","0"
"pit-trial","244","1473533","0.0-180.0","battery-v0.2","","""event"",""trial"",""time""
""fullscreenenter"",""1"",""2589""
","
","
","""event"",""trial"",""time""
""fullscreenenter"",""1"",""2589""
","
","","","-1","","","15","3006","2575","t","elianto","#f73b6a7A","-1","-1","1","-10","[]","0","3","","","3006","175","2","4","lose","no-go","1"
"pit-trial","245","1478408","0.0-181.0","battery-v0.2","","""event"",""trial"",""time""
""fullscreenenter"",""1"",""2589""
","
","
","""event"",""trial"",""time""
""fullscreenenter"",""1"",""2589""
","
","","","-1","","","15","3006","2575","c","elianto","#3366ff99","-1","-1","1","+10","[]","0","3","","","3006","176","4","2","win","no-go","0"
"pit-trial","246","1481889","0.0-182.0","battery-v0.2","","""event"",""trial"",""time""
""fullscreenenter"",""1"",""2589""
","
","
","""event"",""trial"",""time""
""fullscreenenter"",""1"",""2589""
","
","","","610.6999998092651","","","15","3006","2575","f","elianto","#3366ff99"," "," ","1","0","[1461.6999998092651]","1","3","","","3006","177","1","1","win","go","1"
"pit-trial","247","1485432","0.0-183.0","battery-v0.2","","""event"",""trial"",""time""
""fullscreenenter"",""1"",""2589""
","
","
","""event"",""trial"",""time""
""fullscreenenter"",""1"",""2589""
","
","","","676.2999999523163","","","15","3006","2575","b","elianto","#f73b6a7A"," "," ","1","0","[1527.6999998092651]","1","3","","","3006","178","3","3","lose","go","0"
"pit-trial","248","1490305","0.0-184.0","battery-v0.2","","""event"",""trial"",""time""
""fullscreenenter"",""1"",""2589""
","
","
","""event"",""trial"",""time""
""fullscreenenter"",""1"",""2589""
","
","","","-1","","","15","3006","2575","n","elianto","#f73b6a7A","-1","-1","1","0","[]","0","3","","","3006","179","0","4","lose","no-go","0"
"pit-trial","249","1495190","0.0-185.0","battery-v0.2","","""event"",""trial"",""time""
""fullscreenenter"",""1"",""2589""
","
","
","""event"",""trial"",""time""
""fullscreenenter"",""1"",""2589""
","
","","","-1","","","15","3006","2575","c","elianto","#3366ff99","-1","-1","1","+10","[]","0","3","","","3006","180","4","2","win","no-go","0"
"pit-trial","250","1499288","0.0-186.0","battery-v0.2","","""event"",""trial"",""time""
""fullscreenenter"",""1"",""2589""
","
","
","""event"",""trial"",""time""
""fullscreenenter"",""1"",""2589""
","
","","","1226.5","","","15","3006","2575","b","elianto","#f73b6a7A"," "," ","1","0","[2084.2999999523163]","1","3","","","3006","181","3","3","lose","go","0"
"pit-trial","251","1502679","0.0-187.0","battery-v0.2","","""event"",""trial"",""time""
""fullscreenenter"",""1"",""2589""
","
","
","""event"",""trial"",""time""
""fullscreenenter"",""1"",""2589""
","
","","","529.2999999523163","","","15","3006","2575","f","elianto","#3366ff99"," "," ","1","+10","[1379.5]","1","3","","","3006","182","1","1","win","go","0"
"pit-trial","252","1507545","0.0-188.0","battery-v0.2","","""event"",""trial"",""time""
""fullscreenenter"",""1"",""2589""
","
","
","""event"",""trial"",""time""
""fullscreenenter"",""1"",""2589""
","
","","","-1","","","15","3006","2575","c","elianto","#3366ff99","-1","-1","1","0","[]","0","3","","","3006","183","4","2","win","no-go","1"
"pit-trial","253","1512436","0.0-189.0","battery-v0.2","","""event"",""trial"",""time""
""fullscreenenter"",""1"",""2589""
","
","
","""event"",""trial"",""time""
""fullscreenenter"",""1"",""2589""
","
","","","-1","","","15","3006","2575","t","elianto","#f73b6a7A","-1","-1","1","0","[]","0","3","","","3006","184","2","4","lose","no-go","0"
"pit-trial","254","1517308","0.0-190.0","battery-v0.2","","""event"",""trial"",""time""
""fullscreenenter"",""1"",""2589""
","
","
","""event"",""trial"",""time""
""fullscreenenter"",""1"",""2589""
","
","","","-1","","","15","3006","2575","t","elianto","#f73b6a7A","-1","-1","1","-10","[]","0","3","","","3006","185","2","4","lose","no-go","1"
"pit-trial","255","1522171","0.0-191.0","battery-v0.2","","""event"",""trial"",""time""
""fullscreenenter"",""1"",""2589""
","
","
","""event"",""trial"",""time""
""fullscreenenter"",""1"",""2589""
","
","","","-1","","","15","3006","2575","c","elianto","#3366ff99","-1","-1","1","+10","[]","0","3","","","3006","186","4","2","win","no-go","0"
"pit-trial","256","1525868","0.0-192.0","battery-v0.2","","""event"",""trial"",""time""
""fullscreenenter"",""1"",""2589""
","
","
","""event"",""trial"",""time""
""fullscreenenter"",""1"",""2589""
","
","","","818.5","","","15","3006","2575","f","elianto","#3366ff99"," "," ","1","+10","[1679]","1","3","","","3006","187","1","1","win","go","0"
"pit-trial","257","1529311","0.0-193.0","battery-v0.2","","""event"",""trial"",""time""
""fullscreenenter"",""1"",""2589""
","
","
","""event"",""trial"",""time""
""fullscreenenter"",""1"",""2589""
","
","","","579.2999999523163","","","15","3006","2575","b","elianto","#f73b6a7A"," "," ","1","-10","[1431.2000000476837]","1","3","","","3006","188","3","3","lose","go","1"
"pit-trial","258","1534184","0.0-194.0","battery-v0.2","","""event"",""trial"",""time""
""fullscreenenter"",""1"",""2589""
","
","
","""event"",""trial"",""time""
""fullscreenenter"",""1"",""2589""
","
","","","-1","","","15","3006","2575","z","elianto","#3366ff99"," ","-1","0","0","[]","0","3","","","3006","189","5","1","win","go","0"
"pit-trial","259","1539052","0.0-195.0","battery-v0.2","","""event"",""trial"",""time""
""fullscreenenter"",""1"",""2589""
","
","
","""event"",""trial"",""time""
""fullscreenenter"",""1"",""2589""
","
","","","-1","","","15","3006","2575","c","elianto","#3366ff99","-1","-1","1","0","[]","0","3","","","3006","190","4","2","win","no-go","1"
"pit-trial","260","1542685","0.0-196.0","battery-v0.2","","""event"",""trial"",""time""
""fullscreenenter"",""1"",""2589""
","
","
","""event"",""trial"",""time""
""fullscreenenter"",""1"",""2589""
","
","","","754.5999999046326","","","15","3006","2575","f","elianto","#3366ff99"," "," ","1","+10","[1614.2000000476837]","1","3","","","3006","191","1","1","win","go","0"
"pit-trial","261","1547553","0.0-197.0","battery-v0.2","","""event"",""trial"",""time""
""fullscreenenter"",""1"",""2589""
","
","
","""event"",""trial"",""time""
""fullscreenenter"",""1"",""2589""
","
","","","-1","","","15","3006","2575","b","elianto","#f73b6a7A"," ","-1","0","-10","[]","0","3","","","3006","192","3","3","lose","go","0"
"pit-trial","262","1551217","0.0-198.0","battery-v0.2","","""event"",""trial"",""time""
""fullscreenenter"",""1"",""2589""
","
","
","""event"",""trial"",""time""
""fullscreenenter"",""1"",""2589""
","
","","","792.8999998569489","","","15","3006","2575","c","elianto","#3366ff99","-1"," ","0","0","[1653.3999998569489]","1","3","","","3006","193","4","2","win","no-go","0"
"pit-trial","263","1555382","0.0-199.0","battery-v0.2","","""event"",""trial"",""time""
""fullscreenenter"",""1"",""2589""
","
","
","""event"",""trial"",""time""
""fullscreenenter"",""1"",""2589""
","
","","","1291","","","15","3006","2575","b","elianto","#f73b6a7A"," "," ","1","0","[2148.7999999523163]","1","3","","","3006","194","3","3","lose","go","0"
"pit-trial","264","1559118","0.0-200.0","battery-v0.2","","""event"",""trial"",""time""
""fullscreenenter"",""1"",""2589""
","
","
","""event"",""trial"",""time""
""fullscreenenter"",""1"",""2589""
","
","","","867.2999999523163","","","15","3006","2575","f","elianto","#3366ff99"," "," ","1","+10","[1718.2000000476837]","1","3","","","3006","195","1","1","win","go","0"
"pit-trial","265","1562915","0.0-201.0","battery-v0.2","","""event"",""trial"",""time""
""fullscreenenter"",""1"",""2589""
","
","
","""event"",""trial"",""time""
""fullscreenenter"",""1"",""2589""
","
","","","921.7000000476837","","","15","3006","2575","z","elianto","#3366ff99"," "," ","1","0","[1780.8999998569489]","1","3","","","3006","196","5","1","win","go","1"
"pit-trial","266","1566632","0.0-202.0","battery-v0.2","","""event"",""trial"",""time""
""fullscreenenter"",""1"",""2589""
","
","
","""event"",""trial"",""time""
""fullscreenenter"",""1"",""2589""
","
","","","845.3999998569489","","","15","3006","2575","b","elianto","#f73b6a7A"," "," ","1","0","[1696.1000001430511]","1","3","","","3006","197","3","3","lose","go","0"
"pit-trial","267","1571515","0.0-203.0","battery-v0.2","","""event"",""trial"",""time""
""fullscreenenter"",""1"",""2589""
","
","
","""event"",""trial"",""time""
""fullscreenenter"",""1"",""2589""
","
