"trial_type","trial_index","time_elapsed","internal_node_id","task_version","subject_id","interactions","blur_events","focus_events","fullscreenenter_events","fullscreenexit_events","success","view_history","rt","responses","num_errors","age","subject","participantId","rune","rune_set","hex","correct","choice","accuracy","outcome","keys","total_keys","block","practice","value","sub","trial","stimulus","robot","valence","action","sham"
"pavlovia","0","22","0.0-0.0","battery-v0.2","","""event"",""trial"",""time""
""fullscreenenter"",""1"",""3982""
","
","
","""event"",""trial"",""time""
""fullscreenenter"",""1"",""3982""
","
","","","","","","","","","","","","","","","","","","","","","","","","","","",""
"fullscreen","1","4973","0.0-1.0","battery-v0.2","","""event"",""trial"",""time""
""fullscreenenter"",""1"",""3982""
","
","
","""event"",""trial"",""time""
""fullscreenenter"",""1"",""3982""
","
","true","","","","","","","","","","","","","","","","","","","","","","","","","",""
"pit-instructions","2","12052","0.0-2.0-0.0","battery-v0.2","","""event"",""trial"",""time""
""fullscreenenter"",""1"",""3982""
","
","
","""event"",""trial"",""time""
""fullscreenenter"",""1"",""3982""
","
","","[{""page_index"":0,""viewing_time"":7052.300000000047}]","7056.59999999986","","","","","","","","","","","","","","","","","","","","","","","",""
"pit-comprehension","3","22509","0.0-2.0-1.0-0.0","battery-v0.2","","""event"",""trial"",""time""
""fullscreenenter"",""1"",""3982""
","
","
","""event"",""trial"",""time""
""fullscreenenter"",""1"",""3982""
","
","","","10426.100000000093","[""shark""]","0","11","7583","3573","","","","","","","","","","","","","","","","","","",""
"pit-instructions","4","24684","0.0-2.0-1.0-1.0","battery-v0.2","","""event"",""trial"",""time""
""fullscreenenter"",""1"",""3982""
","
","
","""event"",""trial"",""time""
""fullscreenenter"",""1"",""3982""
","
","","[{""page_index"":0,""viewing_time"":2109.399999999907}]","2111","","","","","","","","","","","","","","","","","","","","","","","",""
"pit-comprehension","5","28735","0.0-2.0-2.0-0.0","battery-v0.2","","""event"",""trial"",""time""
""fullscreenenter"",""1"",""3982""
","
","
","""event"",""trial"",""time""
""fullscreenenter"",""1"",""3982""
","
","","","4027.1999999999534","[""tiger""]","0","11","7583","3573","","","","","","","","","","","","","","","","","","",""
"pit-instructions","6","30098","0.0-2.0-2.0-1.0","battery-v0.2","","""event"",""trial"",""time""
""fullscreenenter"",""1"",""3982""
","
","
","""event"",""trial"",""time""
""fullscreenenter"",""1"",""3982""
","
","","[{""page_index"":0,""viewing_time"":1345.9000000001397}]","1347.9000000001397","","","","","","","","","","","","","","","","","","","","","","","",""
"pit-instructions","7","138358","0.0-2.0-3.0","battery-v0.2","","""event"",""trial"",""time""
""fullscreenenter"",""1"",""3982""
","
","
","""event"",""trial"",""time""
""fullscreenenter"",""1"",""3982""
","
","","[{""page_index"":0,""viewing_time"":8405},{""page_index"":1,""viewing_time"":8901},{""page_index"":2,""viewing_time"":6417.100000000093},{""page_index"":3,""viewing_time"":6588.899999999907},{""page_index"":4,""viewing_time"":6555.800000000047},{""page_index"":5,""viewing_time"":5716.800000000047},{""page_index"":6,""viewing_time"":10668.800000000047},{""page_index"":7,""viewing_time"":7565.5},{""page_index"":8,""viewing_time"":6514.899999999907},{""page_index"":9,""viewing_time"":10238.800000000047},{""page_index"":10,""viewing_time"":9664.899999999907},{""page_index"":11,""viewing_time"":8269.90000000014},{""page_index"":12,""viewing_time"":7608.59999999986},{""page_index"":13,""viewing_time"":5121.40000000014}]","108239","","","","","","","","","","","","","","","","","","","","","","","",""
"pit-trial","8","142069","0.0-2.0-4.0-0.0","battery-v0.2","","""event"",""trial"",""time""
""fullscreenenter"",""1"",""3982""
","
","
","""event"",""trial"",""time""
""fullscreenenter"",""1"",""3982""
","
","","","839.6000000000931","","","11","7583","3573","&#9784;","elianto","#FFFFF080"," "," ","1","&#10004","[1690.6000000000931]","1","0","0","","","","","","","",""
"pit-trial","9","145637","0.0-2.0-4.1-0.1","battery-v0.2","","""event"",""trial"",""time""
""fullscreenenter"",""1"",""3982""
","
","
","""event"",""trial"",""time""
""fullscreenenter"",""1"",""3982""
","
","","","698.3999999999069","","","11","7583","3573","&#9784;","elianto","#FFFFF080"," "," ","1","&#10004","[1550]","1","0","0","","","","","","","",""
"pit-trial","10","149141","0.0-2.0-4.2-0.2","battery-v0.2","","""event"",""trial"",""time""
""fullscreenenter"",""1"",""3982""
","
","
","""event"",""trial"",""time""
""fullscreenenter"",""1"",""3982""
","
","","","627.8000000000466","","","11","7583","3573","&#9784;","elianto","#FFFFF080"," "," ","1","&#10004","[1485.1999999999534]","1","0","0","","","","","","","",""
"pit-trial","11","152581","0.0-2.0-4.3-0.3","battery-v0.2","","""event"",""trial"",""time""
""fullscreenenter"",""1"",""3982""
","
","
","""event"",""trial"",""time""
""fullscreenenter"",""1"",""3982""
","
","","","566.1000000000931","","","11","7583","3573","&#9784;","elianto","#FFFFF080"," "," ","1","&#10004","[1422.4000000001397]","1","0","0","","","","","","","",""
"pit-trial","12","155997","0.0-2.0-4.4-0.4","battery-v0.2","","""event"",""trial"",""time""
""fullscreenenter"",""1"",""3982""
","
","
","""event"",""trial"",""time""
""fullscreenenter"",""1"",""3982""
","
","","","543.1999999999534","","","11","7583","3573","&#9784;","elianto","#FFFFF080"," "," ","1","&#10004","[1396.4000000001397]","1","0","0","","","","","","","",""
"pit-instructions","13","183437","0.0-2.0-5.0","battery-v0.2","","""event"",""trial"",""time""
""fullscreenenter"",""1"",""3982""
","
","
","""event"",""trial"",""time""
""fullscreenenter"",""1"",""3982""
","
","","[{""page_index"":0,""viewing_time"":5263.699999999953},{""page_index"":1,""viewing_time"":5553.5},{""page_index"":2,""viewing_time"":6559},{""page_index"":3,""viewing_time"":10044.199999999953}]","27422.399999999907","","","","","","","","","","","","","","","","","","","","","","","",""
"pit-trial","14","188309","0.0-2.0-6.0-0.0","battery-v0.2","","""event"",""trial"",""time""
""fullscreenenter"",""1"",""3982""
","
","
","""event"",""trial"",""time""
""fullscreenenter"",""1"",""3982""
","
","","","-1","","","11","7583","3573","&#9854;","elianto","#FFFFF080","-1","-1","1","&#10004","[]","0","0","1","","","","","","","",""
"pit-trial","15","193189","0.0-2.0-6.1-0.1","battery-v0.2","","""event"",""trial"",""time""
""fullscreenenter"",""1"",""3982""
","
","
","""event"",""trial"",""time""
""fullscreenenter"",""1"",""3982""
","
","","","-1","","","11","7583","3573","&#9854;","elianto","#FFFFF080","-1","-1","1","&#10004","[]","0","0","1","","","","","","","",""
"pit-trial","16","198069","0.0-2.0-6.2-0.2","battery-v0.2","","""event"",""trial"",""time""
""fullscreenenter"",""1"",""3982""
","
","
","""event"",""trial"",""time""
""fullscreenenter"",""1"",""3982""
","
","","","-1","","","11","7583","3573","&#9854;","elianto","#FFFFF080","-1","-1","1","&#10004","[]","0","0","1","","","","","","","",""
"pit-trial","17","202949","0.0-2.0-6.3-0.3","battery-v0.2","","""event"",""trial"",""time""
""fullscreenenter"",""1"",""3982""
","
","
","""event"",""trial"",""time""
""fullscreenenter"",""1"",""3982""
","
","","","-1","","","11","7583","3573","&#9854;","elianto","#FFFFF080","-1","-1","1","&#10004","[]","0","0","1","","","","","","","",""
"pit-trial","18","207821","0.0-2.0-6.4-0.4","battery-v0.2","","""event"",""trial"",""time""
""fullscreenenter"",""1"",""3982""
","
","
","""event"",""trial"",""time""
""fullscreenenter"",""1"",""3982""
","
","","","-1","","","11","7583","3573","&#9854;","elianto","#FFFFF080","-1","-1","1","&#10004","[]","0","0","1","","","","","","","",""
"pit-instructions","19","346239","0.0-2.0-7.0","battery-v0.2","","""event"",""trial"",""time""
""fullscreenenter"",""1"",""3982""
","
","
","""event"",""trial"",""time""
""fullscreenenter"",""1"",""3982""
","
","","[{""page_index"":0,""viewing_time"":6208.399999999907},{""page_index"":1,""viewing_time"":6746.800000000047},{""page_index"":2,""viewing_time"":10075.100000000093},{""page_index"":3,""viewing_time"":7009.799999999814},{""page_index"":4,""viewing_time"":6293.100000000093},{""page_index"":5,""viewing_time"":5836.899999999907},{""page_index"":6,""viewing_time"":4946.300000000047},{""page_index"":7,""viewing_time"":13141.300000000047},{""page_index"":8,""viewing_time"":8208.5},{""page_index"":9,""viewing_time"":7080.899999999907},{""page_index"":10,""viewing_time"":7393.800000000047},{""page_index"":11,""viewing_time"":7970.800000000047},{""page_index"":12,""viewing_time"":8265.199999999953},{""page_index"":13,""viewing_time"":7470.90000000014},{""page_index"":14,""viewing_time"":8044.799999999814},{""page_index"":15,""viewing_time"":7898.200000000186},{""page_index"":16,""viewing_time"":9233.899999999907},{""page_index"":17,""viewing_time"":6571.899999999907}]","138398","","","","","","","","","","","","","","","","","","","","","","","",""
"pit-trial","20","349845","0.0-2.0-8.0-0.0","battery-v0.2","","""event"",""trial"",""time""
""fullscreenenter"",""1"",""3982""
","
","
","""event"",""trial"",""time""
""fullscreenenter"",""1"",""3982""
","
","","","735.6999999999534","","","11","7583","3573","&#9776;","elianto","#3366ff99"," "," ","1","+10","[1588.0999999998603]","1","0","1","","","","","","","",""
"pit-trial","21","353437","0.0-2.0-8.0-1.0","battery-v0.2","","""event"",""trial"",""time""
""fullscreenenter"",""1"",""3982""
","
","
","""event"",""trial"",""time""
""fullscreenenter"",""1"",""3982""
","
","","","724.4000000001397","","","11","7583","3573","&#9776;","elianto","#3366ff99"," "," ","1","+10","[1575.5]","1","0","1","","","","","","","",""
"pit-trial","22","356997","0.0-2.0-8.0-2.0","battery-v0.2","","""event"",""trial"",""time""
""fullscreenenter"",""1"",""3982""
","
","
","""event"",""trial"",""time""
""fullscreenenter"",""1"",""3982""
","
","","","687.5","","","11","7583","3573","&#9776;","elianto","#3366ff99"," "," ","1","+10","[1538.1999999999534]","1","0","1","","","","","","","",""
"pit-trial","23","360557","0.0-2.0-8.0-3.0","battery-v0.2","","""event"",""trial"",""time""
""fullscreenenter"",""1"",""3982""
","
","
","""event"",""trial"",""time""
""fullscreenenter"",""1"",""3982""
","
","","","690.3000000000466","","","11","7583","3573","&#9776;","elianto","#3366ff99"," "," ","1","0","[1542]","1","0","1","","","","","","","",""
"pit-trial","24","364005","0.0-2.0-8.0-4.0","battery-v0.2","","""event"",""trial"",""time""
""fullscreenenter"",""1"",""3982""
","
","
","""event"",""trial"",""time""
""fullscreenenter"",""1"",""3982""
","
","","","577.4000000001397","","","11","7583","3573","&#9776;","elianto","#3366ff99"," "," ","1","+10","[1431.5]","1","0","1","","","","","","","",""
"pit-trial","25","367334","0.0-2.0-8.1-0.1","battery-v0.2","","""event"",""trial"",""time""
""fullscreenenter"",""1"",""3982""
","
","
","""event"",""trial"",""time""
""fullscreenenter"",""1"",""3982""
","
","","","455.10000000009313","","","11","7583","3573","&#9776;","elianto","#3366ff99"," "," ","1","+10","[1312.5]","1","0","1","","","","","","","",""
"pit-trial","26","370820","0.0-2.0-8.1-1.1","battery-v0.2","","""event"",""trial"",""time""
""fullscreenenter"",""1"",""3982""
","
","
","""event"",""trial"",""time""
""fullscreenenter"",""1"",""3982""
","
","","","621.5","","","11","7583","3573","&#9776;","elianto","#3366ff99"," "," ","1","+10","[1472.6000000000931]","1","0","1","","","","","","","",""
"pit-trial","27","374197","0.0-2.0-8.1-2.1","battery-v0.2","","""event"",""trial"",""time""
""fullscreenenter"",""1"",""3982""
","
","
","""event"",""trial"",""time""
""fullscreenenter"",""1"",""3982""
","
","","","507.30000000004657","","","11","7583","3573","&#9776;","elianto","#3366ff99"," "," ","1","+10","[1360.6999999999534]","1","0","1","","","","","","","",""
"pit-trial","28","377613","0.0-2.0-8.1-3.1","battery-v0.2","","""event"",""trial"",""time""
""fullscreenenter"",""1"",""3982""
","
","
","""event"",""trial"",""time""
""fullscreenenter"",""1"",""3982""
","
","","","536.8000000000466","","","11","7583","3573","&#9776;","elianto","#3366ff99"," "," ","1","0","[1392]","1","0","1","","","","","","","",""
"pit-trial","29","380965","0.0-2.0-8.1-4.1","battery-v0.2","","""event"",""trial"",""time""
""fullscreenenter"",""1"",""3982""
","
","
","""event"",""trial"",""time""
""fullscreenenter"",""1"",""3982""
","
","","","488.29999999981374","","","11","7583","3573","&#9776;","elianto","#3366ff99"," "," ","1","+10","[1338.5]","1","0","1","","","","","","","",""
"pit-trial","30","384349","0.0-2.0-8.2-0.2","battery-v0.2","","""event"",""trial"",""time""
""fullscreenenter"",""1"",""3982""
","
","
","""event"",""trial"",""time""
""fullscreenenter"",""1"",""3982""
","
","","","504","","","11","7583","3573","&#9776;","elianto","#3366ff99"," "," ","1","+10","[1363.8000000002794]","1","0","1","","","","","","","",""
"pit-trial","31","387781","0.0-2.0-8.2-1.2","battery-v0.2","","""event"",""trial"",""time""
""fullscreenenter"",""1"",""3982""
","
","
","""event"",""trial"",""time""
""fullscreenenter"",""1"",""3982""
","
","","","560","","","11","7583","3573","&#9776;","elianto","#3366ff99"," "," ","1","+10","[1413.1000000000931]","1","0","1","","","","","","","",""
"pit-trial","32","391140","0.0-2.0-8.2-2.2","battery-v0.2","","""event"",""trial"",""time""
""fullscreenenter"",""1"",""3982""
","
","
","""event"",""trial"",""time""
""fullscreenenter"",""1"",""3982""
","
","","","486.5","","","11","7583","3573","&#9776;","elianto","#3366ff99"," "," ","1","+10","[1339.5999999996275]","1","0","1","","","","","","","",""
"pit-trial","33","394365","0.0-2.0-8.2-3.2","battery-v0.2","","""event"",""trial"",""time""
""fullscreenenter"",""1"",""3982""
","
","
","""event"",""trial"",""time""
""fullscreenenter"",""1"",""3982""
","
","","","358.8000000002794","","","11","7583","3573","&#9776;","elianto","#3366ff99"," "," ","1","0","[1210.6000000000931]","1","0","1","","","","","","","",""
"pit-trial","34","398220","0.0-2.0-8.2-4.2","battery-v0.2","","""event"",""trial"",""time""
""fullscreenenter"",""1"",""3982""
","
","
","""event"",""trial"",""time""
""fullscreenenter"",""1"",""3982""
","
","","","989.5","","","11","7583","3573","&#9776;","elianto","#3366ff99"," "," ","1","+10","[1840.6000000000931]","1","0","1","","","","","","","",""
"call-function","35","398232","0.0-2.0-9.0","battery-v0.2","","""event"",""trial"",""time""
""fullscreenenter"",""1"",""3982""
","
","
","""event"",""trial"",""time""
""fullscreenenter"",""1"",""3982""
","
","","","","","","","","","","","","","","","","","","","","","","","","","","",""
"pit-instructions","36","440267","0.0-2.0-10.0","battery-v0.2","","""event"",""trial"",""time""
""fullscreenenter"",""1"",""3982""
","
","
","""event"",""trial"",""time""
""fullscreenenter"",""1"",""3982""
","
","","[{""page_index"":0,""viewing_time"":6281.600000000093},{""page_index"":1,""viewing_time"":7182.299999999814},{""page_index"":2,""viewing_time"":12257},{""page_index"":3,""viewing_time"":8268.5},{""page_index"":4,""viewing_time"":8039.300000000279}]","42030.5","","","","","","","","","","","","","","","","","","","","","","","",""
"pit-trial","37","443669","0.0-2.0-11.0-0.0","battery-v0.2","","""event"",""trial"",""time""
""fullscreenenter"",""1"",""3982""
","
","
","""event"",""trial"",""time""
""fullscreenenter"",""1"",""3982""
","
","","","530.8999999999069","","","11","7583","3573","&#9761;","elianto","#3366ff99","-1"," ","0","0","[1381.7000000001863]","1","0","2","","","","","","","",""
"pit-trial","38","448549","0.0-2.0-11.0-1.0","battery-v0.2","","""event"",""trial"",""time""
""fullscreenenter"",""1"",""3982""
","
","
","""event"",""trial"",""time""
""fullscreenenter"",""1"",""3982""
","
","","","-1","","","11","7583","3573","&#9761;","elianto","#3366ff99","-1","-1","1","+10","[]","0","0","2","","","","","","","",""
"pit-trial","39","453421","0.0-2.0-11.0-2.0","battery-v0.2","","""event"",""trial"",""time""
""fullscreenenter"",""1"",""3982""
","
","
","""event"",""trial"",""time""
""fullscreenenter"",""1"",""3982""
","
","","","-1","","","11","7583","3573","&#9761;","elianto","#3366ff99","-1","-1","1","+10","[]","0","0","2","","","","","","","",""
"pit-trial","40","458301","0.0-2.0-11.0-3.0","battery-v0.2","","""event"",""trial"",""time""
""fullscreenenter"",""1"",""3982""
","
","
","""event"",""trial"",""time""
""fullscreenenter"",""1"",""3982""
","
","","","-1","","","11","7583","3573","&#9761;","elianto","#3366ff99","-1","-1","1","0","[]","0","0","2","","","","","","","",""
"pit-trial","41","463180","0.0-2.0-11.0-4.0","battery-v0.2","","""event"",""trial"",""time""
""fullscreenenter"",""1"",""3982""
","
","
","""event"",""trial"",""time""
""fullscreenenter"",""1"",""3982""
","
","","","-1","","","11","7583","3573","&#9761;","elianto","#3366ff99","-1","-1","1","+10","[]","0","0","2","","","","","","","",""
"pit-trial","42","468062","0.0-2.0-11.1-0.1","battery-v0.2","","""event"",""trial"",""time""
""fullscreenenter"",""1"",""3982""
","
","
","""event"",""trial"",""time""
""fullscreenenter"",""1"",""3982""
","
","","","-1","","","11","7583","3573","&#9761;","elianto","#3366ff99","-1","-1","1","+10","[]","0","0","2","","","","","","","",""
"pit-trial","43","472940","0.0-2.0-11.1-1.1","battery-v0.2","","""event"",""trial"",""time""
""fullscreenenter"",""1"",""3982""
","
","
","""event"",""trial"",""time""
""fullscreenenter"",""1"",""3982""
","
","","","-1","","","11","7583","3573","&#9761;","elianto","#3366ff99","-1","-1","1","+10","[]","0","0","2","","","","","","","",""
"pit-trial","44","477813","0.0-2.0-11.1-2.1","battery-v0.2","","""event"",""trial"",""time""
""fullscreenenter"",""1"",""3982""
","
","
","""event"",""trial"",""time""
""fullscreenenter"",""1"",""3982""
","
","","","-1","","","11","7583","3573","&#9761;","elianto","#3366ff99","-1","-1","1","+10","[]","0","0","2","","","","","","","",""
"pit-trial","45","482685","0.0-2.0-11.1-3.1","battery-v0.2","","""event"",""trial"",""time""
""fullscreenenter"",""1"",""3982""
","
","
","""event"",""trial"",""time""
""fullscreenenter"",""1"",""3982""
","
","","","-1","","","11","7583","3573","&#9761;","elianto","#3366ff99","-1","-1","1","0","[]","0","0","2","","","","","","","",""
"pit-trial","46","487557","0.0-2.0-11.1-4.1","battery-v0.2","","""event"",""trial"",""time""
""fullscreenenter"",""1"",""3982""
","
","
","""event"",""trial"",""time""
""fullscreenenter"",""1"",""3982""
","
","","","-1","","","11","7583","3573","&#9761;","elianto","#3366ff99","-1","-1","1","+10","[]","0","0","2","","","","","","","",""
"pit-trial","47","492437","0.0-2.0-11.2-0.2","battery-v0.2","","""event"",""trial"",""time""
""fullscreenenter"",""1"",""3982""
","
","
","""event"",""trial"",""time""
""fullscreenenter"",""1"",""3982""
","
","","","-1","","","11","7583","3573","&#9761;","elianto","#3366ff99","-1","-1","1","+10","[]","0","0","2","","","","","","","",""
"pit-trial","48","497309","0.0-2.0-11.2-1.2","battery-v0.2","","""event"",""trial"",""time""
""fullscreenenter"",""1"",""3982""
","
","
","""event"",""trial"",""time""
""fullscreenenter"",""1"",""3982""
","
","","","-1","","","11","7583","3573","&#9761;","elianto","#3366ff99","-1","-1","1","+10","[]","0","0","2","","","","","","","",""
"pit-trial","49","502181","0.0-2.0-11.2-2.2","battery-v0.2","","""event"",""trial"",""time""
""fullscreenenter"",""1"",""3982""
","
","
","""event"",""trial"",""time""
""fullscreenenter"",""1"",""3982""
","
","","","-1","","","11","7583","3573","&#9761;","elianto","#3366ff99","-1","-1","1","+10","[]","0","0","2","","","","","","","",""
"pit-trial","50","507061","0.0-2.0-11.2-3.2","battery-v0.2","","""event"",""trial"",""time""
""fullscreenenter"",""1"",""3982""
","
","
","""event"",""trial"",""time""
""fullscreenenter"",""1"",""3982""
","
","","","-1","","","11","7583","3573","&#9761;","elianto","#3366ff99","-1","-1","1","0","[]","0","0","2","","","","","","","",""
"pit-trial","51","511933","0.0-2.0-11.2-4.2","battery-v0.2","","""event"",""trial"",""time""
""fullscreenenter"",""1"",""3982""
","
","
","""event"",""trial"",""time""
""fullscreenenter"",""1"",""3982""
","
","","","-1","","","11","7583","3573","&#9761;","elianto","#3366ff99","-1","-1","1","+10","[]","0","0","2","","","","","","","",""
"pit-trial","52","516813","0.0-2.0-11.3-0.3","battery-v0.2","","""event"",""trial"",""time""
""fullscreenenter"",""1"",""3982""
","
","
","""event"",""trial"",""time""
""fullscreenenter"",""1"",""3982""
","
","","","-1","","","11","7583","3573","&#9761;","elianto","#3366ff99","-1","-1","1","+10","[]","0","0","2","","","","","","","",""
"pit-trial","53","521685","0.0-2.0-11.3-1.3","battery-v0.2","","""event"",""trial"",""time""
""fullscreenenter"",""1"",""3982""
","
","
","""event"",""trial"",""time""
""fullscreenenter"",""1"",""3982""
","
","","","-1","","","11","7583","3573","&#9761;","elianto","#3366ff99","-1","-1","1","+10","[]","0","0","2","","","","","","","",""
"pit-trial","54","526557","0.0-2.0-11.3-2.3","battery-v0.2","","""event"",""trial"",""time""
""fullscreenenter"",""1"",""3982""
","
","
","""event"",""trial"",""time""
""fullscreenenter"",""1"",""3982""
","
","","","-1","","","11","7583","3573","&#9761;","elianto","#3366ff99","-1","-1","1","+10","[]","0","0","2","","","","","","","",""
"pit-trial","55","531429","0.0-2.0-11.3-3.3","battery-v0.2","","""event"",""trial"",""time""
""fullscreenenter"",""1"",""3982""
","
","
","""event"",""trial"",""time""
""fullscreenenter"",""1"",""3982""
","
","","","-1","","","11","7583","3573","&#9761;","elianto","#3366ff99","-1","-1","1","0","[]","0","0","2","","","","","","","",""
"pit-trial","56","536301","0.0-2.0-11.3-4.3","battery-v0.2","","""event"",""trial"",""time""
""fullscreenenter"",""1"",""3982""
","
","
","""event"",""trial"",""time""
""fullscreenenter"",""1"",""3982""
","
","","","-1","","","11","7583","3573","&#9761;","elianto","#3366ff99","-1","-1","1","+10","[]","0","0","2","","","","","","","",""
"call-function","57","536312","0.0-2.0-12.0","battery-v0.2","","""event"",""trial"",""time""
""fullscreenenter"",""1"",""3982""
","
","
","""event"",""trial"",""time""
""fullscreenenter"",""1"",""3982""
","
","","","","","","","","","","","","","","","","","","","","","","","","","","",""
"pit-instructions","58","573037","0.0-2.0-13.0","battery-v0.2","","""event"",""trial"",""time""
""fullscreenenter"",""1"",""3982""
","
","
","""event"",""trial"",""time""
""fullscreenenter"",""1"",""3982""
","
","","[{""page_index"":0,""viewing_time"":5084.300000000279},{""page_index"":1,""viewing_time"":7428.5},{""page_index"":2,""viewing_time"":4505.699999999721},{""page_index"":3,""viewing_time"":12559.400000000373},{""page_index"":4,""viewing_time"":7141.0999999996275}]","36721.700000000186","","","","","","","","","","","","","","","","","","","","","","","",""
"pit-trial","59","576397","0.0-2.0-14.0-0.0","battery-v0.2","","""event"",""trial"",""time""
""fullscreenenter"",""1"",""3982""
","
","
","""event"",""trial"",""time""
""fullscreenenter"",""1"",""3982""
","
","","","488","","","11","7583","3573","&#9826;","elianto","#f73b6a7A","-1"," ","0","-10","[1338.6000000000931,1450.1000000000931]","2","0","3","","","","","","","",""
"pit-trial","60","581269","0.0-2.0-14.0-1.0","battery-v0.2","","""event"",""trial"",""time""
""fullscreenenter"",""1"",""3982""
","
","
","""event"",""trial"",""time""
""fullscreenenter"",""1"",""3982""
","
","","","-1","","","11","7583","3573","&#9826;","elianto","#f73b6a7A","-1","-1","1","0","[]","0","0","3","","","","","","","",""
"pit-trial","61","586141","0.0-2.0-14.0-2.0","battery-v0.2","","""event"",""trial"",""time""
""fullscreenenter"",""1"",""3982""
","
","
","""event"",""trial"",""time""
""fullscreenenter"",""1"",""3982""
","
","","","-1","","","11","7583","3573","&#9826;","elianto","#f73b6a7A","-1","-1","1","0","[]","0","0","3","","","","","","","",""
"pit-trial","62","591013","0.0-2.0-14.0-3.0","battery-v0.2","","""event"",""trial"",""time""
""fullscreenenter"",""1"",""3982""
","
","
","""event"",""trial"",""time""
""fullscreenenter"",""1"",""3982""
","
","","","-1","","","11","7583","3573","&#9826;","elianto","#f73b6a7A","-1","-1","1","-10","[]","0","0","3","","","","","","","",""
"pit-trial","63","595885","0.0-2.0-14.0-4.0","battery-v0.2","","""event"",""trial"",""time""
""fullscreenenter"",""1"",""3982""
","
","
","""event"",""trial"",""time""
""fullscreenenter"",""1"",""3982""
","
","","","-1","","","11","7583","3573","&#9826;","elianto","#f73b6a7A","-1","-1","1","0","[655.5]","1","0","3","","","","","","","",""
"pit-trial","64","600765","0.0-2.0-14.1-0.1","battery-v0.2","","""event"",""trial"",""time""
""fullscreenenter"",""1"",""3982""
","
","
","""event"",""trial"",""time""
""fullscreenenter"",""1"",""3982""
","
","","","-1","","","11","7583","3573","&#9826;","elianto","#f73b6a7A","-1","-1","1","0","[]","0","0","3","","","","","","","",""
"pit-trial","65","605637","0.0-2.0-14.1-1.1","battery-v0.2","","""event"",""trial"",""time""
""fullscreenenter"",""1"",""3982""
","
","
","""event"",""trial"",""time""
""fullscreenenter"",""1"",""3982""
","
","","","-1","","","11","7583","3573","&#9826;","elianto","#f73b6a7A","-1","-1","1","0","[]","0","0","3","","","","","","","",""
"pit-trial","66","610517","0.0-2.0-14.1-2.1","battery-v0.2","","""event"",""trial"",""time""
""fullscreenenter"",""1"",""3982""
","
","
","""event"",""trial"",""time""
""fullscreenenter"",""1"",""3982""
","
","","","-1","","","11","7583","3573","&#9826;","elianto","#f73b6a7A","-1","-1","1","0","[]","0","0","3","","","","","","","",""
"pit-trial","67","615396","0.0-2.0-14.1-3.1","battery-v0.2","","""event"",""trial"",""time""
""fullscreenenter"",""1"",""3982""
","
","
","""event"",""trial"",""time""
""fullscreenenter"",""1"",""3982""
","
","","","-1","","","11","7583","3573","&#9826;","elianto","#f73b6a7A","-1","-1","1","-10","[]","0","0","3","","","","","","","",""
"pit-trial","68","620269","0.0-2.0-14.1-4.1","battery-v0.2","","""event"",""trial"",""time""
""fullscreenenter"",""1"",""3982""
","
","
","""event"",""trial"",""time""
""fullscreenenter"",""1"",""3982""
","
","","","-1","","","11","7583","3573","&#9826;","elianto","#f73b6a7A","-1","-1","1","0","[]","0","0","3","","","","","","","",""
"pit-trial","69","625149","0.0-2.0-14.2-0.2","battery-v0.2","","""event"",""trial"",""time""
""fullscreenenter"",""1"",""3982""
","
","
","""event"",""trial"",""time""
""fullscreenenter"",""1"",""3982""
","
","","","-1","","","11","7583","3573","&#9826;","elianto","#f73b6a7A","-1","-1","1","0","[]","0","0","3","","","","","","","",""
"pit-trial","70","630021","0.0-2.0-14.2-1.2","battery-v0.2","","""event"",""trial"",""time""
""fullscreenenter"",""1"",""3982""
","
","
","""event"",""trial"",""time""
""fullscreenenter"",""1"",""3982""
","
","","","-1","","","11","7583","3573","&#9826;","elianto","#f73b6a7A","-1","-1","1","0","[]","0","0","3","","","","","","","",""
"pit-trial","71","634893","0.0-2.0-14.2-2.2","battery-v0.2","","""event"",""trial"",""time""
""fullscreenenter"",""1"",""3982""
","
","
","""event"",""trial"",""time""
""fullscreenenter"",""1"",""3982""
","
","","","-1","","","11","7583","3573","&#9826;","elianto","#f73b6a7A","-1","-1","1","0","[]","0","0","3","","","","","","","",""
"pit-trial","72","639773","0.0-2.0-14.2-3.2","battery-v0.2","","""event"",""trial"",""time""
""fullscreenenter"",""1"",""3982""
","
","
","""event"",""trial"",""time""
""fullscreenenter"",""1"",""3982""
","
","","","-1","","","11","7583","3573","&#9826;","elianto","#f73b6a7A","-1","-1","1","-10","[]","0","0","3","","","","","","","",""
"pit-trial","73","644645","0.0-2.0-14.2-4.2","battery-v0.2","","""event"",""trial"",""time""
""fullscreenenter"",""1"",""3982""
","
","
","""event"",""trial"",""time""
""fullscreenenter"",""1"",""3982""
","
","","","-1","","","11","7583","3573","&#9826;","elianto","#f73b6a7A","-1","-1","1","0","[]","0","0","3","","","","","","","",""
"pit-trial","74","649525","0.0-2.0-14.3-0.3","battery-v0.2","","""event"",""trial"",""time""
""fullscreenenter"",""1"",""3982""
","
","
","""event"",""trial"",""time""
""fullscreenenter"",""1"",""3982""
","
","","","-1","","","11","7583","3573","&#9826;","elianto","#f73b6a7A","-1","-1","1","0","[]","0","0","3","","","","","","","",""
"pit-trial","75","654397","0.0-2.0-14.3-1.3","battery-v0.2","","""event"",""trial"",""time""
""fullscreenenter"",""1"",""3982""
","
","
","""event"",""trial"",""time""
""fullscreenenter"",""1"",""3982""
","
","","","-1","","","11","7583","3573","&#9826;","elianto","#f73b6a7A","-1","-1","1","0","[]","0","0","3","","","","","","","",""
"pit-trial","76","659268","0.0-2.0-14.3-2.3","battery-v0.2","","""event"",""trial"",""time""
""fullscreenenter"",""1"",""3982""
","
","
","""event"",""trial"",""time""
""fullscreenenter"",""1"",""3982""
","
","","","-1","","","11","7583","3573","&#9826;","elianto","#f73b6a7A","-1","-1","1","0","[]","0","0","3","","","","","","","",""
"pit-trial","77","664140","0.0-2.0-14.3-3.3","battery-v0.2","","""event"",""trial"",""time""
""fullscreenenter"",""1"",""3982""
","
","
","""event"",""trial"",""time""
""fullscreenenter"",""1"",""3982""
","
","","","-1","","","11","7583","3573","&#9826;","elianto","#f73b6a7A","-1","-1","1","-10","[]","0","0","3","","","","","","","",""
"pit-trial","78","668965","0.0-2.0-14.3-4.3","battery-v0.2","","""event"",""trial"",""time""
""fullscreenenter"",""1"",""3982""
","
","
","""event"",""trial"",""time""
""fullscreenenter"",""1"",""3982""
","
","","","1956.7000000001863","","","11","7583","3573","&#9826;","elianto","#f73b6a7A","-1"," ","0","-10","[2810,3318.600000000093]","2","0","3","","","","","","","",""
"call-function","79","668976","0.0-2.0-15.0","battery-v0.2","","""event"",""trial"",""time""
""fullscreenenter"",""1"",""3982""
","
","
","""event"",""trial"",""time""
""fullscreenenter"",""1"",""3982""
","
","","","","","","","","","","","","","","","","","","","","","","","","","","",""
"pit-instructions","80","699363","0.0-2.0-16.0","battery-v0.2","","""event"",""trial"",""time""
""fullscreenenter"",""1"",""3982""
","
","
","""event"",""trial"",""time""
""fullscreenenter"",""1"",""3982""
","
","","[{""page_index"":0,""viewing_time"":7562},{""page_index"":1,""viewing_time"":11821.900000000373},{""page_index"":2,""viewing_time"":5476.5999999996275},{""page_index"":3,""viewing_time"":5522.5}]","30384.30000000028","","","","","","","","","","","","","","","","","","","","","","","",""
"pit-trial","81","703133","0.0-2.0-17.0-0.0","battery-v0.2","","""event"",""trial"",""time""
""fullscreenenter"",""1"",""3982""
","
","
","""event"",""trial"",""time""
""fullscreenenter"",""1"",""3982""
","
","","","904.2000000001863","","","11","7583","3573","&#9789;","elianto","#f73b6a7A"," "," ","1","0","[1754.3999999999069]","1","0","4","","","","","","","",""
"pit-trial","82","706470","0.0-2.0-17.0-1.0","battery-v0.2","","""event"",""trial"",""time""
""fullscreenenter"",""1"",""3982""
","
","
","""event"",""trial"",""time""
""fullscreenenter"",""1"",""3982""
","
","","","465.89999999990687","","","11","7583","3573","&#9789;","elianto","#f73b6a7A"," "," ","1","0","[1319.0999999996275]","1","0","4","","","","","","","",""
"pit-trial","83","711341","0.0-2.0-17.0-2.0","battery-v0.2","","""event"",""trial"",""time""
""fullscreenenter"",""1"",""3982""
","
","
","""event"",""trial"",""time""
""fullscreenenter"",""1"",""3982""
","
","","","-1","","","11","7583","3573","&#9789;","elianto","#f73b6a7A"," ","-1","0","-10","[]","0","0","4","","","","","","","",""
"pit-trial","84","716213","0.0-2.0-17.0-3.0","battery-v0.2","","""event"",""trial"",""time""
""fullscreenenter"",""1"",""3982""
","
","
","""event"",""trial"",""time""
""fullscreenenter"",""1"",""3982""
","
","","","-1","","","11","7583","3573","&#9789;","elianto","#f73b6a7A"," ","-1","0","0","[]","0","0","4","","","","","","","",""
"pit-trial","85","719589","0.0-2.0-17.0-4.0","battery-v0.2","","""event"",""trial"",""time""
""fullscreenenter"",""1"",""3982""
","
","
","""event"",""trial"",""time""
""fullscreenenter"",""1"",""3982""
","
","","","504.60000000009313","","","11","7583","3573","&#9789;","elianto","#f73b6a7A"," "," ","1","0","[1356.8999999999069]","1","0","4","","","","","","","",""
"pit-trial","86","722797","0.0-2.0-17.1-0.1","battery-v0.2","","""event"",""trial"",""time""
""fullscreenenter"",""1"",""3982""
","
","
","""event"",""trial"",""time""
""fullscreenenter"",""1"",""3982""
","
","","","337","","","11","7583","3573","&#9789;","elianto","#f73b6a7A"," "," ","1","0","[1187.3999999999069]","1","0","4","","","","","","","",""
"pit-trial","87","725956","0.0-2.0-17.1-1.1","battery-v0.2","","""event"",""trial"",""time""
""fullscreenenter"",""1"",""3982""
","
","
","""event"",""trial"",""time""
""fullscreenenter"",""1"",""3982""
","
","","","288","","","11","7583","3573","&#9789;","elianto","#f73b6a7A"," "," ","1","0","[1143.1999999997206]","1","0","4","","","","","","","",""
"pit-trial","88","729557","0.0-2.0-17.1-2.1","battery-v0.2","","""event"",""trial"",""time""
""fullscreenenter"",""1"",""3982""
","
","
","""event"",""trial"",""time""
""fullscreenenter"",""1"",""3982""
","
","","","734.6999999997206","","","11","7583","3573","&#9789;","elianto","#f73b6a7A"," "," ","1","0","[1592.3999999999069]","1","0","4","","","","","","","",""
"pit-trial","89","732998","0.0-2.0-17.1-3.1","battery-v0.2","","""event"",""trial"",""time""
""fullscreenenter"",""1"",""3982""
","
","
","""event"",""trial"",""time""
""fullscreenenter"",""1"",""3982""
","
","","","561.6999999997206","","","11","7583","3573","&#9789;","elianto","#f73b6a7A"," "," ","1","-10","[1419.7000000001863]","1","0","4","","","","","","","",""
"pit-trial","90","736253","0.0-2.0-17.1-4.1","battery-v0.2","","""event"",""trial"",""time""
""fullscreenenter"",""1"",""3982""
","
","
","""event"",""trial"",""time""
""fullscreenenter"",""1"",""3982""
","
","","","387.5","","","11","7583","3573","&#9789;","elianto","#f73b6a7A"," "," ","1","0","[1237.8000000002794]","1","0","4","","","","","","","",""
"pit-trial","91","739933","0.0-2.0-17.2-0.2","battery-v0.2","","""event"",""trial"",""time""
""fullscreenenter"",""1"",""3982""
","
","
","""event"",""trial"",""time""
""fullscreenenter"",""1"",""3982""
","
","","","809.1000000000931","","","11","7583","3573","&#9789;","elianto","#f73b6a7A"," "," ","1","0","[1660.7000000001863]","1","0","4","","","","","","","",""
"pit-trial","92","743013","0.0-2.0-17.2-1.2","battery-v0.2","","""event"",""trial"",""time""
""fullscreenenter"",""1"",""3982""
","
","
","""event"",""trial"",""time""
""fullscreenenter"",""1"",""3982""
","
","","","206.29999999981374","","","11","7583","3573","&#9789;","elianto","#f73b6a7A"," "," ","1","0","[1059.5999999996275]","1","0","4","","","","","","","",""
"pit-trial","93","746756","0.0-2.0-17.2-2.2","battery-v0.2","","""event"",""trial"",""time""
""fullscreenenter"",""1"",""3982""
","
","
","""event"",""trial"",""time""
""fullscreenenter"",""1"",""3982""
","
","","","875.2999999998137","","","11","7583","3573","&#9789;","elianto","#f73b6a7A"," "," ","1","0","[1726.6000000000931]","1","0","4","","","","","","","",""
"pit-trial","94","750437","0.0-2.0-17.2-3.2","battery-v0.2","","""event"",""trial"",""time""
""fullscreenenter"",""1"",""3982""
","
","
","""event"",""trial"",""time""
""fullscreenenter"",""1"",""3982""
","
","","","808.5","","","11","7583","3573","&#9789;","elianto","#f73b6a7A"," "," ","1","-10","[1664.7999999998137]","1","0","4","","","","","","","",""
"pit-trial","95","753366","0.0-2.0-17.2-4.2","battery-v0.2","","""event"",""trial"",""time""
""fullscreenenter"",""1"",""3982""
","
","
","""event"",""trial"",""time""
""fullscreenenter"",""1"",""3982""
","
","","","59","","","11","7583","3573","&#9789;","elianto","#f73b6a7A"," "," ","1","0","[909.3999999999069]","1","0","4","","","","","","","",""
"pit-trial","96","756853","0.0-2.0-17.3-0.3","battery-v0.2","","""event"",""trial"",""time""
""fullscreenenter"",""1"",""3982""
","
","
","""event"",""trial"",""time""
""fullscreenenter"",""1"",""3982""
","
","","","614.7000000001863","","","11","7583","3573","&#9789;","elianto","#f73b6a7A"," "," ","1","0","[1465.7999999998137]","1","0","4","","","","","","","",""
"pit-trial","97","760389","0.0-2.0-17.3-1.3","battery-v0.2","","""event"",""trial"",""time""
""fullscreenenter"",""1"",""3982""
","
","
","""event"",""trial"",""time""
""fullscreenenter"",""1"",""3982""
","
","","","660.2000000001863","","","11","7583","3573","&#9789;","elianto","#f73b6a7A"," "," ","1","0","[1515.3000000002794]","1","0","4","","","","","","","",""
"pit-trial","98","763925","0.0-2.0-17.3-2.3","battery-v0.2","","""event"",""trial"",""time""
""fullscreenenter"",""1"",""3982""
","
","
","""event"",""trial"",""time""
""fullscreenenter"",""1"",""3982""
","
","","","665.7000000001863","","","11","7583","3573","&#9789;","elianto","#f73b6a7A"," "," ","1","0","[1518.1000000000931]","1","0","4","","","","","","","",""
"pit-trial","99","767269","0.0-2.0-17.3-3.3","battery-v0.2","","""event"",""trial"",""time""
""fullscreenenter"",""1"",""3982""
","
","
","""event"",""trial"",""time""
""fullscreenenter"",""1"",""3982""
","
","","","473.89999999990687","","","11","7583","3573","&#9789;","elianto","#f73b6a7A"," "," ","1","-10","[1325.1000000000931]","1","0","4","","","","","","","",""
"pit-trial","100","770445","0.0-2.0-17.3-4.3","battery-v0.2","","""event"",""trial"",""time""
""fullscreenenter"",""1"",""3982""
","
","
","""event"",""trial"",""time""
""fullscreenenter"",""1"",""3982""
","
","","","308.09999999962747","","","11","7583","3573","&#9789;","elianto","#f73b6a7A"," "," ","1","0","[1159.9000000003725]","1","0","4","","","","","","","",""
"call-function","101","770458","0.0-2.0-18.0","battery-v0.2","","""event"",""trial"",""time""
""fullscreenenter"",""1"",""3982""
","
","
","""event"",""trial"",""time""
""fullscreenenter"",""1"",""3982""
","
","","","","","","","","","","","","","","","","","","","","","","","","","","",""
"pit-instructions","102","858314","0.0-2.0-19.0","battery-v0.2","","""event"",""trial"",""time""
""fullscreenenter"",""1"",""3982""
","
","
","""event"",""trial"",""time""
""fullscreenenter"",""1"",""3982""
","
","","[{""page_index"":0,""viewing_time"":7015.5},{""page_index"":1,""viewing_time"":5933.0999999996275},{""page_index"":2,""viewing_time"":27662.400000000373},{""page_index"":3,""viewing_time"":7957.0999999996275},{""page_index"":4,""viewing_time"":8785},{""page_index"":5,""viewing_time"":8041.5},{""page_index"":6,""viewing_time"":9025.700000000186},{""page_index"":7,""viewing_time"":7696.100000000093},{""page_index"":8,""viewing_time"":5734.899999999907}]","87852.8999999999","","","","","","","","","","","","","","","","","","","","","","","",""
"pit-comprehension","103","867972","0.0-2.0-20.0-0.0","battery-v0.2","","""event"",""trial"",""time""
""fullscreenenter"",""1"",""3982""
","
","
","""event"",""trial"",""time""
""fullscreenenter"",""1"",""3982""
","
","","","9632.80000000028","[""SPACE""]","0","11","7583","3573","","","","","","","","","","","","","","","","","","",""
"pit-instructions","104","871897","0.0-2.0-20.0-1.0","battery-v0.2","","""event"",""trial"",""time""
""fullscreenenter"",""1"",""3982""
","
","
","""event"",""trial"",""time""
""fullscreenenter"",""1"",""3982""
","
","","[{""page_index"":0,""viewing_time"":3819.5}]","3821","","","","","","","","","","","","","","","","","","","","","","","",""
"pit-comprehension","105","878623","0.0-2.0-21.0-0.0","battery-v0.2","","""event"",""trial"",""time""
""fullscreenenter"",""1"",""3982""
","
","
","""event"",""trial"",""time""
""fullscreenenter"",""1"",""3982""
","
","","","6704.399999999907","[""10""]","0","11","7583","3573","","","","","","","","","","","","","","","","","","",""
"pit-instructions","106","880257","0.0-2.0-21.0-1.0","battery-v0.2","","""event"",""trial"",""time""
""fullscreenenter"",""1"",""3982""
","
","
","""event"",""trial"",""time""
""fullscreenenter"",""1"",""3982""
","
","","[{""page_index"":0,""viewing_time"":1531.6000000000931}]","1533.1999999997206","","","","","","","","","","","","","","","","","","","","","","","",""
"pit-comprehension","107","889362","0.0-2.0-22.0-0.0","battery-v0.2","","""event"",""trial"",""time""
""fullscreenenter"",""1"",""3982""
","
","
","""event"",""trial"",""time""
""fullscreenenter"",""1"",""3982""
","
","","","9081.900000000373","[""0""]","0","11","7583","3573","","","","","","","","","","","","","","","","","","",""
"pit-instructions","108","890989","0.0-2.0-22.0-1.0","battery-v0.2","","""event"",""trial"",""time""
""fullscreenenter"",""1"",""3982""
","
","
","""event"",""trial"",""time""
""fullscreenenter"",""1"",""3982""
","
","","[{""page_index"":0,""viewing_time"":1522.3999999999069}]","1523.8999999999069","","","","","","","","","","","","","","","","","","","","","","","",""
"pit-comprehension","109","900179","0.0-2.0-23.0-0.0","battery-v0.2","","""event"",""trial"",""time""
""fullscreenenter"",""1"",""3982""
","
","
","""event"",""trial"",""time""
""fullscreenenter"",""1"",""3982""
","
","","","9164.5","[""False""]","1","11","7583","3573","","","","","","","","","","","","","","","","","","",""
"pit-instructions","110","904282","0.0-2.0-23.0-1.0","battery-v0.2","","""event"",""trial"",""time""
""fullscreenenter"",""1"",""3982""
","
","
","""event"",""trial"",""time""
""fullscreenenter"",""1"",""3982""
","
","","[{""page_index"":0,""viewing_time"":3988.100000000093}]","3989.5","","","","","","","","","","","","","","","","","","","","","","","",""
"pit-instructions","111","905378","0.0-2.0-23.0-2.0-0.0","battery-v0.2","","""event"",""trial"",""time""
""fullscreenenter"",""1"",""3982""
","
","
","""event"",""trial"",""time""
""fullscreenenter"",""1"",""3982""
","
","","[{""page_index"":0,""viewing_time"":1083.2999999998137}]","1085.8999999999069","","","","","","","","","","","","","","","","","","","","","","","",""
"pit-comprehension","112","914151","0.0-2.0-23.1-0.1","battery-v0.2","","""event"",""trial"",""time""
""fullscreenenter"",""1"",""3982""
","
","
","""event"",""trial"",""time""
""fullscreenenter"",""1"",""3982""
","
","","","8751.700000000186","[""True""]","0","11","7583","3573","","","","","","","","","","","","","","","","","","",""
"pit-instructions","113","916274","0.0-2.0-23.1-1.1","battery-v0.2","","""event"",""trial"",""time""
""fullscreenenter"",""1"",""3982""
","
","
","""event"",""trial"",""time""
""fullscreenenter"",""1"",""3982""
","
","","[{""page_index"":0,""viewing_time"":2022.7999999998137}]","2023.6999999997206","","","","","","","","","","","","","","","","","","","","","","","",""
"pit-comprehension","114","926464","0.0-2.0-24.0-0.0","battery-v0.2","","""event"",""trial"",""time""
""fullscreenenter"",""1"",""3982""
","
","
","""event"",""trial"",""time""
""fullscreenenter"",""1"",""3982""
","
","","","10175","[""True""]","0","11","7583","3573","","","","","","","","","","","","","","","","","","",""
"pit-instructions","115","928235","0.0-2.0-24.0-1.0","battery-v0.2","","""event"",""trial"",""time""
""fullscreenenter"",""1"",""3982""
","
","
","""event"",""trial"",""time""
""fullscreenenter"",""1"",""3982""
","
","","[{""page_index"":0,""viewing_time"":1662.3999999999069}]","1664.7000000001863","","","","","","","","","","","","","","","","","","","","","","","",""
"pit-comprehension","116","934750","0.0-2.0-25.0-0.0","battery-v0.2","","""event"",""trial"",""time""
""fullscreenenter"",""1"",""3982""
","
","
","""event"",""trial"",""time""
""fullscreenenter"",""1"",""3982""
","
","","","6490.699999999721","[""True""]","0","11","7583","3573","","","","","","","","","","","","","","","","","","",""
"pit-instructions","117","936440","0.0-2.0-25.0-1.0","battery-v0.2","","""event"",""trial"",""time""
""fullscreenenter"",""1"",""3982""
","
","
","""event"",""trial"",""time""
""fullscreenenter"",""1"",""3982""
","
","","[{""page_index"":0,""viewing_time"":1581.3000000002794}]","1583","","","","","","","","","","","","","","","","","","","","","","","",""
"pit-comprehension","118","942183","0.0-2.0-26.0-0.0","battery-v0.2","","""event"",""trial"",""time""
""fullscreenenter"",""1"",""3982""
","
","
","""event"",""trial"",""time""
""fullscreenenter"",""1"",""3982""
","
","","","5721.700000000186","[""False""]","0","11","7583","3573","","","","","","","","","","","","","","","","","","",""
"pit-instructions","119","944063","0.0-2.0-26.0-1.0","battery-v0.2","","""event"",""trial"",""time""
""fullscreenenter"",""1"",""3982""
","
","
","""event"",""trial"",""time""
""fullscreenenter"",""1"",""3982""
","
","","[{""page_index"":0,""viewing_time"":1770.8999999999069}]","1772.3999999999069","","","","","","","","","","","","","","","","","","","","","","","",""
"pit-instructions","120","962085","0.0-3.0","battery-v0.2","","""event"",""trial"",""time""
""fullscreenenter"",""1"",""3982""
","
","
","""event"",""trial"",""time""
""fullscreenenter"",""1"",""3982""
","
","","[{""page_index"":0,""viewing_time"":4066.8000000002794},{""page_index"":1,""viewing_time"":5587.899999999907},{""page_index"":2,""viewing_time"":8345.5}]","18003.899999999907","","","","","","","","","","","","","","","","","","","","","","","",""
"pit-trial","121","965717","0.0-4.0","battery-v0.2","","""event"",""trial"",""time""
""fullscreenenter"",""1"",""3982""
","
","
","""event"",""trial"",""time""
""fullscreenenter"",""1"",""3982""
","
","","","742.1000000000931","","","11","7583","3573","&#9730;","elianto","#3366ff99"," "," ","1","+10","[1596.8000000002794]","1","1","","","7583","1","1","1","win","go","0"
"pit-trial","122","970597","0.0-5.0","battery-v0.2","","""event"",""trial"",""time""
""fullscreenenter"",""1"",""3982""
","
","
","""event"",""trial"",""time""
""fullscreenenter"",""1"",""3982""
","
","","","-1","","","11","7583","3573","&#9752;","elianto","#f73b6a7A"," ","-1","0","-10","[]","0","1","","","7583","2","3","3","lose","go","0"
"pit-trial","123","974349","0.0-6.0","battery-v0.2","","""event"",""trial"",""time""
""fullscreenenter"",""1"",""3982""
","
","
","""event"",""trial"",""time""
""fullscreenenter"",""1"",""3982""
","
","","","885","","","11","7583","3573","&#9728;","elianto","#f73b6a7A","-1"," ","0","-10","[1735.3999999999069]","1","1","","","7583","3","0","4","lose","no-go","0"
"pit-trial","124","978013","0.0-7.0","battery-v0.2","","""event"",""trial"",""time""
""fullscreenenter"",""1"",""3982""
","
","
","""event"",""trial"",""time""
""fullscreenenter"",""1"",""3982""
","
","","","796.3000000002794","","","11","7583","3573","&#9733;","elianto","#3366ff99","-1"," ","0","0","[1648.7000000001863]","1","1","","","7583","4","2","2","win","no-go","0"
"pit-trial","125","982158","0.0-8.0","battery-v0.2","","""event"",""trial"",""time""
""fullscreenenter"",""1"",""3982""
","
","
","""event"",""trial"",""time""
""fullscreenenter"",""1"",""3982""
","
","","","1272.6999999997206","","","11","7583","3573","&#9728;","elianto","#f73b6a7A","-1"," ","0","-10","[2124.5]","1","1","","","7583","5","0","4","lose","no-go","0"
"pit-trial","126","987029","0.0-9.0","battery-v0.2","","""event"",""trial"",""time""
""fullscreenenter"",""1"",""3982""
","
","
","""event"",""trial"",""time""
""fullscreenenter"",""1"",""3982""
","
","","","-1","","","11","7583","3573","&#9733;","elianto","#3366ff99","-1","-1","1","0","[]","0","1","","","7583","6","2","2","win","no-go","1"
"pit-trial","127","991237","0.0-10.0","battery-v0.2","","""event"",""trial"",""time""
""fullscreenenter"",""1"",""3982""
","
","
","""event"",""trial"",""time""
""fullscreenenter"",""1"",""3982""
","
","","","1336.5","","","11","7583","3573","&#9752;","elianto","#f73b6a7A"," "," ","1","0","[2189.1999999997206]","1","1","","","7583","7","3","3","lose","go","0"
"pit-trial","128","995078","0.0-11.0","battery-v0.2","","""event"",""trial"",""time""
""fullscreenenter"",""1"",""3982""
","
","
","""event"",""trial"",""time""
""fullscreenenter"",""1"",""3982""
","
","","","971.2999999998137","","","11","7583","3573","&#9730;","elianto","#3366ff99"," "," ","1","+10","[1821.5]","1","1","","","7583","8","1","1","win","go","0"
"pit-trial","129","998765","0.0-12.0","battery-v0.2","","""event"",""trial"",""time""
""fullscreenenter"",""1"",""3982""
","
","
","""event"",""trial"",""time""
""fullscreenenter"",""1"",""3982""
","
","","","813.6000000000931","","","11","7583","3573","&#9730;","elianto","#3366ff99"," "," ","1","+10","[1667.8999999999069]","1","1","","","7583","9","1","1","win","go","0"
"pit-trial","130","1003637","0.0-13.0","battery-v0.2","","""event"",""trial"",""time""
""fullscreenenter"",""1"",""3982""
","
","
","""event"",""trial"",""time""
""fullscreenenter"",""1"",""3982""
","
","","","-1","","","11","7583","3573","&#9728;","elianto","#f73b6a7A","-1","-1","1","0","[]","0","1","","","7583","10","0","4","lose","no-go","0"
"pit-trial","131","1007253","0.0-14.0","battery-v0.2","","""event"",""trial"",""time""
""fullscreenenter"",""1"",""3982""
","
","
","""event"",""trial"",""time""
""fullscreenenter"",""1"",""3982""
","
","","","745.3000000002794","","","11","7583","3573","&#9733;","elianto","#3366ff99","-1"," ","0","+10","[1597.3000000002794]","1","1","","","7583","11","2","2","win","no-go","1"
"pit-trial","132","1010541","0.0-15.0","battery-v0.2","","""event"",""trial"",""time""
""fullscreenenter"",""1"",""3982""
","
","
","""event"",""trial"",""time""
""fullscreenenter"",""1"",""3982""
","
","","","411.89999999990687","","","11","7583","3573","&#9752;","elianto","#f73b6a7A"," "," ","1","-10","[212.60000000009313,1266.7999999998137]","2","1","","","7583","12","3","3","lose","go","1"
"pit-trial","133","1014157","0.0-16.0","battery-v0.2","","""event"",""trial"",""time""
""fullscreenenter"",""1"",""3982""
","
","
","""event"",""trial"",""time""
""fullscreenenter"",""1"",""3982""
","
","","","745","","","11","7583","3573","&#9730;","elianto","#3366ff99"," "," ","1","+10","[1598.2999999998137]","1","1","","","7583","13","1","1","win","go","0"
"pit-trial","134","1019029","0.0-17.0","battery-v0.2","","""event"",""trial"",""time""
""fullscreenenter"",""1"",""3982""
","
","
","""event"",""trial"",""time""
""fullscreenenter"",""1"",""3982""
","
","","","-1","","","11","7583","3573","&#9752;","elianto","#f73b6a7A"," ","-1","0","-10","[]","0","1","","","7583","14","3","3","lose","go","0"
"pit-trial","135","1023902","0.0-18.0","battery-v0.2","","""event"",""trial"",""time""
""fullscreenenter"",""1"",""3982""
","
","
","""event"",""trial"",""time""
""fullscreenenter"",""1"",""3982""
","
","","","-1","","","11","7583","3573","&#9728;","elianto","#f73b6a7A","-1","-1","1","0","[]","0","1","","","7583","15","0","4","lose","no-go","0"
"pit-trial","136","1028780","0.0-19.0","battery-v0.2","","""event"",""trial"",""time""
""fullscreenenter"",""1"",""3982""
","
","
","""event"",""trial"",""time""
""fullscreenenter"",""1"",""3982""
","
","","","-1","","","11","7583","3573","&#9733;","elianto","#3366ff99","-1","-1","1","+10","[]","0","1","","","7583","16","2","2","win","no-go","0"
"pit-trial","137","1032549","0.0-20.0","battery-v0.2","","""event"",""trial"",""time""
""fullscreenenter"",""1"",""3982""
","
","
","""event"",""trial"",""time""
""fullscreenenter"",""1"",""3982""
","
","","","895.5","","","11","7583","3573","&#9730;","elianto","#3366ff99"," "," ","1","+10","[1746.5]","1","1","","","7583","17","1","1","win","go","0"
"pit-trial","138","1037429","0.0-21.0","battery-v0.2","","""event"",""trial"",""time""
""fullscreenenter"",""1"",""3982""
","
","
","""event"",""trial"",""time""
""fullscreenenter"",""1"",""3982""
","
","","","-1","","","11","7583","3573","&#9728;","elianto","#f73b6a7A","-1","-1","1","0","[]","0","1","","","7583","18","0","4","lose","no-go","0"
"pit-trial","139","1040974","0.0-22.0","battery-v0.2","","""event"",""trial"",""time""
""fullscreenenter"",""1"",""3982""
","
","
","""event"",""trial"",""time""
""fullscreenenter"",""1"",""3982""
","
","","","675.0999999996275","","","11","7583","3573","&#9752;","elianto","#f73b6a7A"," "," ","1","-10","[1528]","1","1","","","7583","19","3","3","lose","go","1"
"pit-trial","140","1044877","0.0-23.0","battery-v0.2","","""event"",""trial"",""time""
""fullscreenenter"",""1"",""3982""
","
","
","""event"",""trial"",""time""
""fullscreenenter"",""1"",""3982""
","
","","","1033","","","11","7583","3573","&#9733;","elianto","#3366ff99","-1"," ","0","0","[1886.1000000000931]","1","1","","","7583","20","2","2","win","no-go","0"
"pit-instructions","141","1059077","0.0-24.0","battery-v0.2","","""event"",""trial"",""time""
""fullscreenenter"",""1"",""3982""
","
","
","""event"",""trial"",""time""
""fullscreenenter"",""1"",""3982""
","
","","[{""page_index"":0,""viewing_time"":6268.5999999996275},{""page_index"":1,""viewing_time"":7918.5}]","14188.5","","","","","","","","","","","","","","","","","","","","","","","",""
"pit-trial","142","1062949","0.0-25.0","battery-v0.2","","""event"",""trial"",""time""
""fullscreenenter"",""1"",""3982""
","
","
","""event"",""trial"",""time""
""fullscreenenter"",""1"",""3982""
","
","","","993.7000000001863","","","11","7583","3573","d","elianto","#3366ff99"," "," ","1","+10","[1844.7000000001863,3209.3000000002794]","2","2","","","7583","21","1","1","win","go","0"
"pit-trial","143","1067821","0.0-26.0","battery-v0.2","","""event"",""trial"",""time""
""fullscreenenter"",""1"",""3982""
","
","
","""event"",""trial"",""time""
""fullscreenenter"",""1"",""3982""
","
","","","-1","","","11","7583","3573","w","elianto","#f73b6a7A"," ","-1","0","0","[]","0","2","","","7583","22","3","3","lose","go","1"
"pit-trial","144","1072692","0.0-27.0","battery-v0.2","","""event"",""trial"",""time""
""fullscreenenter"",""1"",""3982""
","
","
","""event"",""trial"",""time""
""fullscreenenter"",""1"",""3982""
","
","","","-1","","","11","7583","3573","j","elianto","#f73b6a7A","-1","-1","1","-10","[]","0","2","","","7583","23","0","4","lose","no-go","1"
"pit-trial","145","1076733","0.0-28.0","battery-v0.2","","""event"",""trial"",""time""
""fullscreenenter"",""1"",""3982""
","
","
","""event"",""trial"",""time""
""fullscreenenter"",""1"",""3982""
","
","","","1173.0999999996275","","","11","7583","3573","e","elianto","#f73b6a7A","-1"," ","0","0","[2023.5]","1","2","","","7583","24","2","4","lose","no-go","1"
"pit-trial","146","1081181","0.0-29.0","battery-v0.2","","""event"",""trial"",""time""
""fullscreenenter"",""1"",""3982""
","
","
","""event"",""trial"",""time""
""fullscreenenter"",""1"",""3982""
","
","","","1579.5999999996275","","","11","7583","3573","d","elianto","#3366ff99"," "," ","1","+10","[2430.0999999996275]","1","2","","","7583","25","1","1","win","go","0"
"pit-trial","147","1085540","0.0-30.0","battery-v0.2","","""event"",""trial"",""time""
""fullscreenenter"",""1"",""3982""
","
","
","""event"",""trial"",""time""
""fullscreenenter"",""1"",""3982""
","
","","","1491.8999999999069","","","11","7583","3573","w","elianto","#f73b6a7A"," "," ","1","0","[2343.100000000093]","1","2","","","7583","26","3","3","lose","go","0"
"pit-trial","148","1089061","0.0-31.0","battery-v0.2","","""event"",""trial"",""time""
""fullscreenenter"",""1"",""3982""
","
","
","""event"",""trial"",""time""
""fullscreenenter"",""1"",""3982""
","
","","","656.4000000003725","","","11","7583","3573","e","elianto","#f73b6a7A","-1"," ","0","-10","[1508.6000000000931]","1","2","","","7583","27","2","4","lose","no-go","0"
"pit-trial","149","1093253","0.0-32.0","battery-v0.2","","""event"",""trial"",""time""
""fullscreenenter"",""1"",""3982""
","
","
","""event"",""trial"",""time""
""fullscreenenter"",""1"",""3982""
","
","","","1325.3000000002794","","","11","7583","3573","j","elianto","#f73b6a7A","-1"," ","0","-10","[2175.899999999907]","1","2","","","7583","28","0","4","lose","no-go","0"
"pit-trial","150","1097349","0.0-33.0","battery-v0.2","","""event"",""trial"",""time""
""fullscreenenter"",""1"",""3982""
","
","
","""event"",""trial"",""time""
""fullscreenenter"",""1"",""3982""
","
","","","1232.2999999998137","","","11","7583","3573","j","elianto","#f73b6a7A","-1"," ","0","-10","[2082.399999999907]","1","2","","","7583","29","0","4","lose","no-go","0"
"pit-trial","151","1101661","0.0-34.0","battery-v0.2","","""event"",""trial"",""time""
""fullscreenenter"",""1"",""3982""
","
","
","""event"",""trial"",""time""
""fullscreenenter"",""1"",""3982""
","
","","","1442.7000000001863","","","11","7583","3573","w","elianto","#f73b6a7A"," "," ","1","0","[2294.5]","1","2","","","7583","30","3","3","lose","go","0"
"pit-trial","152","1105477","0.0-35.0","battery-v0.2","","""event"",""trial"",""time""
""fullscreenenter"",""1"",""3982""
","
","
","""event"",""trial"",""time""
""fullscreenenter"",""1"",""3982""
","
","","","949.9000000003725","","","11","7583","3573","d","elianto","#3366ff99"," "," ","1","+10","[1802.6000000000931]","1","2","","","7583","31","1","1","win","go","0"
"pit-trial","153","1110349","0.0-36.0","battery-v0.2","","""event"",""trial"",""time""
""fullscreenenter"",""1"",""3982""
","
","
","""event"",""trial"",""time""
""fullscreenenter"",""1"",""3982""
","
","","","-1","","","11","7583","3573","e","elianto","#f73b6a7A","-1","-1","1","0","[]","0","2","","","7583","32","2","4","lose","no-go","0"
"pit-trial","154","1114308","0.0-37.0","battery-v0.2","","""event"",""trial"",""time""
""fullscreenenter"",""1"",""3982""
","
","
","""event"",""trial"",""time""
""fullscreenenter"",""1"",""3982""
","
","","","1084.3999999999069","","","11","7583","3573","d","elianto","#3366ff99"," "," ","1","+10","[1940.5]","1","2","","","7583","33","1","1","win","go","0"
"pit-trial","155","1119181","0.0-38.0","battery-v0.2","","""event"",""trial"",""time""
""fullscreenenter"",""1"",""3982""
","
","
","""event"",""trial"",""time""
""fullscreenenter"",""1"",""3982""
","
","","","-1","","","11","7583","3573","e","elianto","#f73b6a7A","-1","-1","1","0","[]","0","2","","","7583","34","2","4","lose","no-go","0"
"pit-trial","156","1124053","0.0-39.0","battery-v0.2","","""event"",""trial"",""time""
""fullscreenenter"",""1"",""3982""
","
","
","""event"",""trial"",""time""
""fullscreenenter"",""1"",""3982""
","
","","","-1","","","11","7583","3573","j","elianto","#f73b6a7A","-1","-1","1","0","[]","0","2","","","7583","35","0","4","lose","no-go","0"
"pit-trial","157","1127517","0.0-40.0","battery-v0.2","","""event"",""trial"",""time""
""fullscreenenter"",""1"",""3982""
","
","
","""event"",""trial"",""time""
""fullscreenenter"",""1"",""3982""
","
","","","590","","","11","7583","3573","w","elianto","#f73b6a7A"," "," ","1","-10","[1445.3999999999069]","1","2","","","7583","36","3","3","lose","go","1"
"pit-trial","158","1132397","0.0-41.0","battery-v0.2","","""event"",""trial"",""time""
""fullscreenenter"",""1"",""3982""
","
","
","""event"",""trial"",""time""
""fullscreenenter"",""1"",""3982""
","
","","","-1","","","11","7583","3573","j","elianto","#f73b6a7A","-1","-1","1","0","[]","0","2","","","7583","37","0","4","lose","no-go","0"
"pit-trial","159","1136581","0.0-42.0","battery-v0.2","","""event"",""trial"",""time""
""fullscreenenter"",""1"",""3982""
","
","
","""event"",""trial"",""time""
""fullscreenenter"",""1"",""3982""
","
","","","1312.1000000000931","","","11","7583","3573","d","elianto","#3366ff99"," "," ","1","+10","[2166.2000000001863]","1","2","","","7583","38","1","1","win","go","0"
"pit-trial","160","1141461","0.0-43.0","battery-v0.2","","""event"",""trial"",""time""
""fullscreenenter"",""1"",""3982""
","
","
","""event"",""trial"",""time""
""fullscreenenter"",""1"",""3982""
","
","","","-1","","","11","7583","3573","e","elianto","#f73b6a7A","-1","-1","1","0","[]","0","2","","","7583","39","2","4","lose","no-go","0"
"pit-trial","161","1146333","0.0-44.0","battery-v0.2","","""event"",""trial"",""time""
""fullscreenenter"",""1"",""3982""
","
","
","""event"",""trial"",""time""
""fullscreenenter"",""1"",""3982""
","
","","","-1","","","11","7583","3573","w","elianto","#f73b6a7A"," ","-1","0","-10","[]","0","2","","","7583","40","3","3","lose","go","0"
"pit-trial","162","1150908","0.0-45.0","battery-v0.2","","""event"",""trial"",""time""
""fullscreenenter"",""1"",""3982""
","
","
","""event"",""trial"",""time""
""fullscreenenter"",""1"",""3982""
","
","","","1704","","","11","7583","3573","w","elianto","#f73b6a7A"," "," ","1","0","[2559.100000000093]","1","2","","","7583","41","3","3","lose","go","0"
"pit-trial","163","1155781","0.0-46.0","battery-v0.2","","""event"",""trial"",""time""
""fullscreenenter"",""1"",""3982""
","
","
","""event"",""trial"",""time""
""fullscreenenter"",""1"",""3982""
","
","","","-1","","","11","7583","3573","j","elianto","#f73b6a7A","-1","-1","1","0","[]","0","2","","","7583","42","0","4","lose","no-go","0"
"pit-trial","164","1159933","0.0-47.0","battery-v0.2","","""event"",""trial"",""time""
""fullscreenenter"",""1"",""3982""
","
","
","""event"",""trial"",""time""
""fullscreenenter"",""1"",""3982""
","
","","","1279.8999999999069","","","11","7583","3573","d","elianto","#3366ff99"," "," ","1","+10","[2131]","1","2","","","7583","43","1","1","win","go","0"
"pit-trial","165","1164805","0.0-48.0","battery-v0.2","","""event"",""trial"",""time""
""fullscreenenter"",""1"",""3982""
","
","
","""event"",""trial"",""time""
""fullscreenenter"",""1"",""3982""
","
","","","-1","","","11","7583","3573","e","elianto","#f73b6a7A","-1","-1","1","0","[]","0","2","","","7583","44","2","4","lose","no-go","0"
"pit-trial","166","1168733","0.0-49.0","battery-v0.2","","""event"",""trial"",""time""
""fullscreenenter"",""1"",""3982""
","
","
","""event"",""trial"",""time""
""fullscreenenter"",""1"",""3982""
","
","","","1060.2999999998137","","","11","7583","3573","w","elianto","#f73b6a7A"," "," ","1","-10","[1913]","1","2","","","7583","45","3","3","lose","go","1"
"pit-trial","167","1173616","0.0-50.0","battery-v0.2","","""event"",""trial"",""time""
""fullscreenenter"",""1"",""3982""
","
","
","""event"",""trial"",""time""
""fullscreenenter"",""1"",""3982""
","
","","","-1","","","11","7583","3573","e","elianto","#f73b6a7A","-1","-1","1","0","[]","0","2","","","7583","46","2","4","lose","no-go","0"
"pit-trial","168","1177292","0.0-51.0","battery-v0.2","","""event"",""trial"",""time""
""fullscreenenter"",""1"",""3982""
","
","
","""event"",""trial"",""time""
""fullscreenenter"",""1"",""3982""
","
","","","805.4000000003725","","","11","7583","3573","s","elianto","#3366ff99","-1"," ","0","0","[1656.5]","1","2","","","7583","47","4","2","win","no-go","0"
"pit-trial","169","1182173","0.0-52.0","battery-v0.2","","""event"",""trial"",""time""
""fullscreenenter"",""1"",""3982""
","
","
","""event"",""trial"",""time""
""fullscreenenter"",""1"",""3982""
","
","","","-1","","","11","7583","3573","j","elianto","#f73b6a7A","-1","-1","1","0","[515]","1","2","","","7583","48","0","4","lose","no-go","0"
"pit-trial","170","1185879","0.0-53.0","battery-v0.2","","""event"",""trial"",""time""
""fullscreenenter"",""1"",""3982""
","
","
","""event"",""trial"",""time""
""fullscreenenter"",""1"",""3982""
","
","","","836","","","11","7583","3573","d","elianto","#3366ff99"," "," ","1","+10","[1688.8999999999069]","1","2","","","7583","49","1","1","win","go","0"
"pit-trial","171","1189573","0.0-54.0","battery-v0.2","","""event"",""trial"",""time""
""fullscreenenter"",""1"",""3982""
","
","
","""event"",""trial"",""time""
""fullscreenenter"",""1"",""3982""
","
","","","821.9000000003725","","","11","7583","3573","s","elianto","#3366ff99","-1"," ","0","+10","[1675.5]","1","2","","","7583","50","4","2","win","no-go","1"
"pit-trial","172","1194445","0.0-55.0","battery-v0.2","","""event"",""trial"",""time""
""fullscreenenter"",""1"",""3982""
","
","
","""event"",""trial"",""time""
""fullscreenenter"",""1"",""3982""
","
","","","-1","","","11","7583","3573","w","elianto","#f73b6a7A"," ","-1","0","-10","[]","0","2","","","7583","51","3","3","lose","go","0"
"pit-trial","173","1199317","0.0-56.0","battery-v0.2","","""event"",""trial"",""time""
""fullscreenenter"",""1"",""3982""
","
","
","""event"",""trial"",""time""
""fullscreenenter"",""1"",""3982""
","
","","","-1","","","11","7583","3573","j","elianto","#f73b6a7A","-1","-1","1","0","[]","0","2","","","7583","52","0","4","lose","no-go","0"
"pit-trial","174","1204189","0.0-57.0","battery-v0.2","","""event"",""trial"",""time""
""fullscreenenter"",""1"",""3982""
","
","
","""event"",""trial"",""time""
""fullscreenenter"",""1"",""3982""
","
","","","-1","","","11","7583","3573","e","elianto","#f73b6a7A","-1","-1","1","-10","[]","0","2","","","7583","53","2","4","lose","no-go","1"
"pit-trial","175","1209060","0.0-58.0","battery-v0.2","","""event"",""trial"",""time""
""fullscreenenter"",""1"",""3982""
","
","
","""event"",""trial"",""time""
""fullscreenenter"",""1"",""3982""
","
","","","-1","","","11","7583","3573","j","elianto","#f73b6a7A","-1","-1","1","0","[]","0","2","","","7583","54","0","4","lose","no-go","0"
"pit-trial","176","1212845","0.0-59.0","battery-v0.2","","""event"",""trial"",""time""
""fullscreenenter"",""1"",""3982""
","
","
","""event"",""trial"",""time""
""fullscreenenter"",""1"",""3982""
","
","","","914.6999999997206","","","11","7583","3573","s","elianto","#3366ff99","-1"," ","0","0","[1766]","1","2","","","7583","55","4","2","win","no-go","0"
"pit-trial","177","1217181","0.0-60.0","battery-v0.2","","""event"",""trial"",""time""
""fullscreenenter"",""1"",""3982""
","
","
","""event"",""trial"",""time""
""fullscreenenter"",""1"",""3982""
","
","","","1463.2999999998137","","","11","7583","3573","d","elianto","#3366ff99"," "," ","1","+10","[2317.899999999907]","1","2","","","7583","56","1","1","win","go","0"
"pit-trial","178","1220853","0.0-61.0","battery-v0.2","","""event"",""trial"",""time""
""fullscreenenter"",""1"",""3982""
","
","
","""event"",""trial"",""time""
""fullscreenenter"",""1"",""3982""
","
","","","805.1999999997206","","","11","7583","3573","w","elianto","#f73b6a7A"," "," ","1","0","[1655.8999999999069]","1","2","","","7583","57","3","3","lose","go","0"
"pit-trial","179","1225045","0.0-62.0","battery-v0.2","","""event"",""trial"",""time""
""fullscreenenter"",""1"",""3982""
","
","
","""event"",""trial"",""time""
""fullscreenenter"",""1"",""3982""
","
","","","1316.8999999999069","","","11","7583","3573","s","elianto","#3366ff99","-1"," ","0","0","[2174.0999999996275,2644.1999999997206]","2","2","","","7583","58","4","2","win","no-go","0"
"pit-trial","180","1229924","0.0-63.0","battery-v0.2","","""event"",""trial"",""time""
""fullscreenenter"",""1"",""3982""
","
","
","""event"",""trial"",""time""
""fullscreenenter"",""1"",""3982""
","
","","","-1","","","11","7583","3573","j","elianto","#f73b6a7A","-1","-1","1","0","[]","0","2","","","7583","59","0","4","lose","no-go","0"
"pit-trial","181","1233733","0.0-64.0","battery-v0.2","","""event"",""trial"",""time""
""fullscreenenter"",""1"",""3982""
","
","
","""event"",""trial"",""time""
""fullscreenenter"",""1"",""3982""
","
","","","936.3999999999069","","","11","7583","3573","d","elianto","#3366ff99"," "," ","1","+10","[1787]","1","2","","","7583","60","1","1","win","go","0"
"pit-trial","182","1238604","0.0-65.0","battery-v0.2","","""event"",""trial"",""time""
""fullscreenenter"",""1"",""3982""
","
","
","""event"",""trial"",""time""
""fullscreenenter"",""1"",""3982""
","
","","","-1","","","11","7583","3573","s","elianto","#3366ff99","-1","-1","1","+10","[]","0","2","","","7583","61","4","2","win","no-go","0"
"pit-trial","183","1243477","0.0-66.0","battery-v0.2","","""event"",""trial"",""time""
""fullscreenenter"",""1"",""3982""
","
","
","""event"",""trial"",""time""
""fullscreenenter"",""1"",""3982""
","
","","","-1","","","11","7583","3573","e","elianto","#f73b6a7A","-1","-1","1","0","[]","0","2","","","7583","62","2","4","lose","no-go","0"
"pit-trial","184","1247157","0.0-67.0","battery-v0.2","","""event"",""trial"",""time""
""fullscreenenter"",""1"",""3982""
","
","
","""event"",""trial"",""time""
""fullscreenenter"",""1"",""3982""
","
","","","807.4000000003725","","","11","7583","3573","w","elianto","#f73b6a7A"," "," ","1","0","[1657.8999999999069]","1","2","","","7583","63","3","3","lose","go","0"
"pit-trial","185","1250621","0.0-68.0","battery-v0.2","","""event"",""trial"",""time""
""fullscreenenter"",""1"",""3982""
","
","
","""event"",""trial"",""time""
""fullscreenenter"",""1"",""3982""
","
","","","597.4000000003725","","","11","7583","3573","d","elianto","#3366ff99"," "," ","1","+10","[1449.1000000000931]","1","2","","","7583","64","1","1","win","go","0"
"pit-trial","186","1254301","0.0-69.0","battery-v0.2","","""event"",""trial"",""time""
""fullscreenenter"",""1"",""3982""
","
","
","""event"",""trial"",""time""
""fullscreenenter"",""1"",""3982""
","
","","","812.2000000001863","","","11","7583","3573","s","elianto","#3366ff99","-1"," ","0","+10","[1663.6000000000931]","1","2","","","7583","65","4","2","win","no-go","1"
"pit-trial","187","1258021","0.0-70.0","battery-v0.2","","""event"",""trial"",""time""
""fullscreenenter"",""1"",""3982""
","
","
","""event"",""trial"",""time""
""fullscreenenter"",""1"",""3982""
","
","","","851.6000000000931","","","11","7583","3573","w","elianto","#f73b6a7A"," "," ","1","0","[1702.6999999997206]","1","2","","","7583","66","3","3","lose","go","0"
"pit-trial","188","1262901","0.0-71.0","battery-v0.2","","""event"",""trial"",""time""
""fullscreenenter"",""1"",""3982""
","
","
","""event"",""trial"",""time""
""fullscreenenter"",""1"",""3982""
","
","","","-1","","","11","7583","3573","d","elianto","#3366ff99"," ","-1","0","0","[3740.899999999907]","1","2","","","7583","67","1","1","win","go","0"
"pit-trial","189","1267773","0.0-72.0","battery-v0.2","","""event"",""trial"",""time""
""fullscreenenter"",""1"",""3982""
","
","
","""event"",""trial"",""time""
""fullscreenenter"",""1"",""3982""
","
","","","-1","","","11","7583","3573","e","elianto","#f73b6a7A","-1","-1","1","0","[]","0","2","","","7583","68","2","4","lose","no-go","0"
"pit-trial","190","1271468","0.0-73.0","battery-v0.2","","""event"",""trial"",""time""
""fullscreenenter"",""1"",""3982""
","
","
","""event"",""trial"",""time""
""fullscreenenter"",""1"",""3982""
","
","","","831.3999999999069","","","11","7583","3573","w","elianto","#f73b6a7A"," "," ","1","0","[1682]","1","2","","","7583","69","3","3","lose","go","0"
"pit-trial","191","1275701","0.0-74.0","battery-v0.2","","""event"",""trial"",""time""
""fullscreenenter"",""1"",""3982""
","
","
","""event"",""trial"",""time""
""fullscreenenter"",""1"",""3982""
","
","","","1365.6000000000931","","","11","7583","3573","p","elianto","#3366ff99"," "," ","1","+10","[2219.5,3613.2000000001863,4060.4000000003725]","3","2","","","7583","70","5","1","win","go","0"
"pit-trial","192","1279189","0.0-75.0","battery-v0.2","","""event"",""trial"",""time""
""fullscreenenter"",""1"",""3982""
","
","
","""event"",""trial"",""time""
""fullscreenenter"",""1"",""3982""
","
","","","620.1000000000931","","","11","7583","3573","d","elianto","#3366ff99"," "," ","1","+10","[1471.5999999996275]","1","2","","","7583","71","1","1","win","go","0"
"pit-trial","193","1282717","0.0-76.0","battery-v0.2","","""event"",""trial"",""time""
""fullscreenenter"",""1"",""3982""
","
","
","""event"",""trial"",""time""
""fullscreenenter"",""1"",""3982""
","
","","","652.3000000002794","","","11","7583","3573","s","elianto","#3366ff99","-1"," ","0","0","[1506.7999999998137]","1","2","","","7583","72","4","2","win","no-go","0"
"pit-trial","194","1286421","0.0-77.0","battery-v0.2","","""event"",""trial"",""time""
""fullscreenenter"",""1"",""3982""
","
","
","""event"",""trial"",""time""
""fullscreenenter"",""1"",""3982""
","
","","","814.8000000002794","","","11","7583","3573","d","elianto","#3366ff99"," "," ","1","+10","[1675.7000000001863,2917.600000000093]","2","2","","","7583","73","1","1","win","go","0"
"pit-trial","195","1290036","0.0-78.0","battery-v0.2","","""event"",""trial"",""time""
""fullscreenenter"",""1"",""3982""
","
","
","""event"",""trial"",""time""
""fullscreenenter"",""1"",""3982""
","
","","","744.9000000003725","","","11","7583","3573","w","elianto","#f73b6a7A"," "," ","1","0","[1595.3999999999069]","1","2","","","7583","74","3","3","lose","go","0"
"pit-trial","196","1293693","0.0-79.0","battery-v0.2","","""event"",""trial"",""time""
""fullscreenenter"",""1"",""3982""
","
","
","""event"",""trial"",""time""
""fullscreenenter"",""1"",""3982""
","
","","","783.5","","","11","7583","3573","s","elianto","#3366ff99","-1"," ","0","0","[1634.8999999999069]","1","2","","","7583","75","4","2","win","no-go","0"
"pit-trial","197","1297653","0.0-80.0","battery-v0.2","","""event"",""trial"",""time""
""fullscreenenter"",""1"",""3982""
","
","
","""event"",""trial"",""time""
""fullscreenenter"",""1"",""3982""
","
","","","1090.7000000001863","","","11","7583","3573","p","elianto","#3366ff99"," "," ","1","+10","[1945.6000000000931]","1","2","","","7583","76","5","1","win","go","0"
"pit-trial","198","1301333","0.0-81.0","battery-v0.2","","""event"",""trial"",""time""
""fullscreenenter"",""1"",""3982""
","
","
","""event"",""trial"",""time""
""fullscreenenter"",""1"",""3982""
","
","","","800.7000000001863","","","11","7583","3573","w","elianto","#f73b6a7A"," "," ","1","0","[1658.1000000000931]","1","2","","","7583","77","3","3","lose","go","0"
"pit-trial","199","1306215","0.0-82.0","battery-v0.2","","""event"",""trial"",""time""
""fullscreenenter"",""1"",""3982""
","
","
","""event"",""trial"",""time""
""fullscreenenter"",""1"",""3982""
","
","","","-1","","","11","7583","3573","g","elianto","#f73b6a7A","-1","-1","1","0","[]","0","2","","","7583","78","6","4","lose","no-go","0"
"pit-trial","200","1309797","0.0-83.0","battery-v0.2","","""event"",""trial"",""time""
""fullscreenenter"",""1"",""3982""
","
","
","""event"",""trial"",""time""
""fullscreenenter"",""1"",""3982""
","
","","","707.2000000001863","","","11","7583","3573","p","elianto","#3366ff99"," "," ","1","+10","[1560.8000000002794]","1","2","","","7583","79","5","1","win","go","0"
"pit-trial","201","1314669","0.0-84.0","battery-v0.2","","""event"",""trial"",""time""
""fullscreenenter"",""1"",""3982""
","
","
","""event"",""trial"",""time""
""fullscreenenter"",""1"",""3982""
","
","","","-1","","","11","7583","3573","s","elianto","#3366ff99","-1","-1","1","+10","[]","0","2","","","7583","80","4","2","win","no-go","0"
"pit-trial","202","1319548","0.0-85.0","battery-v0.2","","""event"",""trial"",""time""
""fullscreenenter"",""1"",""3982""
","
","
","""event"",""trial"",""time""
""fullscreenenter"",""1"",""3982""
","
","","","-1","","","11","7583","3573","g","elianto","#f73b6a7A","-1","-1","1","0","[]","0","2","","","7583","81","6","4","lose","no-go","0"
"pit-trial","203","1324421","0.0-86.0","battery-v0.2","","""event"",""trial"",""time""
""fullscreenenter"",""1"",""3982""
","
","
","""event"",""trial"",""time""
""fullscreenenter"",""1"",""3982""
","
","","","-1","","","11","7583","3573","a","elianto","#f73b6a7A"," ","-1","0","0","[]","0","2","","","7583","82","7","3","lose","go","1"
"pit-trial","204","1329293","0.0-87.0","battery-v0.2","","""event"",""trial"",""time""
""fullscreenenter"",""1"",""3982""
","
","
","""event"",""trial"",""time""
""fullscreenenter"",""1"",""3982""
","
","","","-1","","","11","7583","3573","s","elianto","#3366ff99","-1","-1","1","+10","[]","0","2","","","7583","83","4","2","win","no-go","0"
"pit-trial","205","1333069","0.0-88.0","battery-v0.2","","""event"",""trial"",""time""
""fullscreenenter"",""1"",""3982""
","
","
","""event"",""trial"",""time""
""fullscreenenter"",""1"",""3982""
","
","","","904.6999999997206","","","11","7583","3573","p","elianto","#3366ff99"," "," ","1","+10","[1757.7999999998137]","1","2","","","7583","84","5","1","win","go","0"
"pit-trial","206","1336597","0.0-89.0","battery-v0.2","","""event"",""trial"",""time""
""fullscreenenter"",""1"",""3982""
","
","
","""event"",""trial"",""time""
""fullscreenenter"",""1"",""3982""
","
","","","656.1000000000931","","","11","7583","3573","s","elianto","#3366ff99","-1"," ","0","0","[1507.7999999998137]","1","2","","","7583","85","4","2","win","no-go","0"
"pit-trial","207","1340277","0.0-90.0","battery-v0.2","","""event"",""trial"",""time""
""fullscreenenter"",""1"",""3982""
","
","
","""event"",""trial"",""time""
""fullscreenenter"",""1"",""3982""
","
","","","809.8000000002794","","","11","7583","3573","p","elianto","#3366ff99"," "," ","1","0","[1660]","1","2","","","7583","86","5","1","win","go","1"
"pit-trial","208","1345149","0.0-91.0","battery-v0.2","","""event"",""trial"",""time""
""fullscreenenter"",""1"",""3982""
","
","
","""event"",""trial"",""time""
""fullscreenenter"",""1"",""3982""
","
","","","-1","","","11","7583","3573","a","elianto","#f73b6a7A"," ","-1","0","-10","[]","0","2","","","7583","87","7","3","lose","go","0"
"pit-trial","209","1350021","0.0-92.0","battery-v0.2","","""event"",""trial"",""time""
""fullscreenenter"",""1"",""3982""
","
","
","""event"",""trial"",""time""
""fullscreenenter"",""1"",""3982""
","
","","","-1","","","11","7583","3573","g","elianto","#f73b6a7A","-1","-1","1","0","[]","0","2","","","7583","88","6","4","lose","no-go","0"
"pit-trial","210","1353589","0.0-93.0","battery-v0.2","","""event"",""trial"",""time""
""fullscreenenter"",""1"",""3982""
","
","
","""event"",""trial"",""time""
""fullscreenenter"",""1"",""3982""
","
","","","698.3000000002794","","","11","7583","3573","p","elianto","#3366ff99"," "," ","1","0","[1551.6000000000931]","1","2","","","7583","89","5","1","win","go","1"
"pit-trial","211","1358471","0.0-94.0","battery-v0.2","","""event"",""trial"",""time""
""fullscreenenter"",""1"",""3982""
","
","
","""event"",""trial"",""time""
""fullscreenenter"",""1"",""3982""
","
","","","-1","","","11","7583","3573","s","elianto","#3366ff99","-1","-1","1","+10","[]","0","2","","","7583","90","4","2","win","no-go","0"
"pit-trial","212","1363350","0.0-95.0","battery-v0.2","","""event"",""trial"",""time""
""fullscreenenter"",""1"",""3982""
","
","
","""event"",""trial"",""time""
""fullscreenenter"",""1"",""3982""
","
","","","-1","","","11","7583","3573","a","elianto","#f73b6a7A"," ","-1","0","-10","[]","0","2","","","7583","91","7","3","lose","go","0"
"pit-trial","213","1368229","0.0-96.0","battery-v0.2","","""event"",""trial"",""time""
""fullscreenenter"",""1"",""3982""
","
","
","""event"",""trial"",""time""
""fullscreenenter"",""1"",""3982""
","
","","","-1","","","11","7583","3573","g","elianto","#f73b6a7A","-1","-1","1","-10","[]","0","2","","","7583","92","6","4","lose","no-go","1"
"pit-trial","214","1372029","0.0-97.0","battery-v0.2","","""event"",""trial"",""time""
""fullscreenenter"",""1"",""3982""
","
","
","""event"",""trial"",""time""
""fullscreenenter"",""1"",""3982""
","
","","","926.3999999999069","","","11","7583","3573","l","elianto","#3366ff99","-1"," ","0","0","[1781.1999999997206]","1","2","","","7583","93","8","2","win","no-go","0"
"pit-trial","215","1376900","0.0-98.0","battery-v0.2","","""event"",""trial"",""time""
""fullscreenenter"",""1"",""3982""
","
","
","""event"",""trial"",""time""
""fullscreenenter"",""1"",""3982""
","
","","","-1","","","11","7583","3573","g","elianto","#f73b6a7A","-1","-1","1","0","[]","0","2","","","7583","94","6","4","lose","no-go","0"
"pit-trial","216","1381093","0.0-99.0","battery-v0.2","","""event"",""trial"",""time""
""fullscreenenter"",""1"",""3982""
","
","
","""event"",""trial"",""time""
""fullscreenenter"",""1"",""3982""
","
","","","1325.4000000003725","","","11","7583","3573","p","elianto","#3366ff99"," "," ","1","+10","[2176.899999999907]","1","2","","","7583","95","5","1","win","go","0"
"pit-trial","217","1385117","0.0-100.0","battery-v0.2","","""event"",""trial"",""time""
""fullscreenenter"",""1"",""3982""
","
","
","""event"",""trial"",""time""
""fullscreenenter"",""1"",""3982""
","
","","","1158.2999999998137","","","11","7583","3573","a","elianto","#f73b6a7A"," "," ","1","0","[2008.6999999997206]","1","2","","","7583","96","7","3","lose","go","0"
"pit-trial","218","1389988","0.0-101.0","battery-v0.2","","""event"",""trial"",""time""
""fullscreenenter"",""1"",""3982""
","
","
","""event"",""trial"",""time""
""fullscreenenter"",""1"",""3982""
","
","","","-1","","","11","7583","3573","g","elianto","#f73b6a7A","-1","-1","1","0","[]","0","2","","","7583","97","6","4","lose","no-go","0"
"pit-trial","219","1393612","0.0-102.0","battery-v0.2","","""event"",""trial"",""time""
""fullscreenenter"",""1"",""3982""
","
","
","""event"",""trial"",""time""
""fullscreenenter"",""1"",""3982""
","
","","","754.0999999996275","","","11","7583","3573","l","elianto","#3366ff99","-1"," ","0","0","[1604.7000000001863]","1","2","","","7583","98","8","2","win","no-go","0"
"pit-trial","220","1397205","0.0-103.0","battery-v0.2","","""event"",""trial"",""time""
""fullscreenenter"",""1"",""3982""
","
","
","""event"",""trial"",""time""
""fullscreenenter"",""1"",""3982""
","
","","","726","","","11","7583","3573","a","elianto","#f73b6a7A"," "," ","1","0","[1581.5]","1","2","","","7583","99","7","3","lose","go","0"
"pit-trial","221","1400876","0.0-104.0","battery-v0.2","","""event"",""trial"",""time""
""fullscreenenter"",""1"",""3982""
","
","
","""event"",""trial"",""time""
""fullscreenenter"",""1"",""3982""
","
","","","799.2000000001863","","","11","7583","3573","p","elianto","#3366ff99"," "," ","1","+10","[1651.7000000001863]","1","2","","","7583","100","5","1","win","go","0"
"pit-trial","222","1404733","0.0-105.0","battery-v0.2","","""event"",""trial"",""time""
""fullscreenenter"",""1"",""3982""
","
","
","""event"",""trial"",""time""
""fullscreenenter"",""1"",""3982""
","
","","","983.4000000003725","","","11","7583","3573","u","elianto","#3366ff99","-1"," ","0","0","[1834.8999999999069]","1","2","","","7583","101","9","2","win","no-go","0"
"pit-trial","223","1408565","0.0-106.0","battery-v0.2","","""event"",""trial"",""time""
""fullscreenenter"",""1"",""3982""
","
","
","""event"",""trial"",""time""
""fullscreenenter"",""1"",""3982""
","
","","","960.8999999999069","","","11","7583","3573","p","elianto","#3366ff99"," "," ","1","+10","[1815.2000000001863]","1","2","","","7583","102","5","1","win","go","0"
"pit-trial","224","1413437","0.0-107.0","battery-v0.2","","""event"",""trial"",""time""
""fullscreenenter"",""1"",""3982""
","
","
","""event"",""trial"",""time""
""fullscreenenter"",""1"",""3982""
","
","","","-1","","","11","7583","3573","l","elianto","#3366ff99","-1","-1","1","+10","[]","0","2","","","7583","103","8","2","win","no-go","0"
"pit-trial","225","1418309","0.0-108.0","battery-v0.2","","""event"",""trial"",""time""
""fullscreenenter"",""1"",""3982""
","
","
","""event"",""trial"",""time""
""fullscreenenter"",""1"",""3982""
","
","","","-1","","","11","7583","3573","g","elianto","#f73b6a7A","-1","-1","1","0","[]","0","2","","","7583","104","6","4","lose","no-go","0"
"pit-trial","226","1421949","0.0-109.0","battery-v0.2","","""event"",""trial"",""time""
""fullscreenenter"",""1"",""3982""
","
","
","""event"",""trial"",""time""
""fullscreenenter"",""1"",""3982""
","
","","","768.6000000000931","","","11","7583","3573","l","elianto","#3366ff99","-1"," ","0","0","[1621.1999999997206]","1","2","","","7583","105","8","2","win","no-go","0"
"pit-trial","227","1426829","0.0-110.0","battery-v0.2","","""event"",""trial"",""time""
""fullscreenenter"",""1"",""3982""
","
","
","""event"",""trial"",""time""
""fullscreenenter"",""1"",""3982""
","
","","","-1","","","11","7583","3573","g","elianto","#f73b6a7A","-1","-1","1","0","[]","0","2","","","7583","106","6","4","lose","no-go","0"
"pit-trial","228","1431709","0.0-111.0","battery-v0.2","","""event"",""trial"",""time""
""fullscreenenter"",""1"",""3982""
","
","
","""event"",""trial"",""time""
""fullscreenenter"",""1"",""3982""
","
","","","-1","","","11","7583","3573","u","elianto","#3366ff99","-1","-1","1","+10","[]","0","2","","","7583","107","9","2","win","no-go","0"
"pit-trial","229","1435477","0.0-112.0","battery-v0.2","","""event"",""trial"",""time""
""fullscreenenter"",""1"",""3982""
","
","
","""event"",""trial"",""time""
""fullscreenenter"",""1"",""3982""
","
","","","897.6000000000931","","","11","7583","3573","p","elianto","#3366ff99"," "," ","1","+10","[1750.6000000000931]","1","2","","","7583","108","5","1","win","go","0"
"pit-trial","230","1440351","0.0-113.0","battery-v0.2","","""event"",""trial"",""time""
""fullscreenenter"",""1"",""3982""
","
","
","""event"",""trial"",""time""
""fullscreenenter"",""1"",""3982""
","
","","","-1","","","11","7583","3573","u","elianto","#3366ff99","-1","-1","1","+10","[]","0","2","","","7583","109","9","2","win","no-go","0"
"pit-trial","231","1445229","0.0-114.0","battery-v0.2","","""event"",""trial"",""time""
""fullscreenenter"",""1"",""3982""
","
","
","""event"",""trial"",""time""
""fullscreenenter"",""1"",""3982""
","
","","","-1","","","11","7583","3573","g","elianto","#f73b6a7A","-1","-1","1","0","[]","0","2","","","7583","110","6","4","lose","no-go","0"
"pit-trial","232","1450109","0.0-115.0","battery-v0.2","","""event"",""trial"",""time""
""fullscreenenter"",""1"",""3982""
","
","
","""event"",""trial"",""time""
""fullscreenenter"",""1"",""3982""
","
","","","-1","","","11","7583","3573","l","elianto","#3366ff99","-1","-1","1","+10","[]","0","2","","","7583","111","8","2","win","no-go","0"
"pit-trial","233","1453909","0.0-116.0","battery-v0.2","","""event"",""trial"",""time""
""fullscreenenter"",""1"",""3982""
","
","
","""event"",""trial"",""time""
""fullscreenenter"",""1"",""3982""
","
","","","933.1000000000931","","","11","7583","3573","p","elianto","#3366ff99"," "," ","1","+10","[1785.5]","1","2","","","7583","112","5","1","win","go","0"
"pit-trial","234","1457557","0.0-117.0","battery-v0.2","","""event"",""trial"",""time""
""fullscreenenter"",""1"",""3982""
","
","
","""event"",""trial"",""time""
""fullscreenenter"",""1"",""3982""
","
","","","768.2999999998137","","","11","7583","3573","p","elianto","#3366ff99"," "," ","1","+10","[1626.1999999997206]","1","2","","","7583","113","5","1","win","go","0"
"pit-trial","235","1462429","0.0-118.0","battery-v0.2","","""event"",""trial"",""time""
""fullscreenenter"",""1"",""3982""
","
","
","""event"",""trial"",""time""
""fullscreenenter"",""1"",""3982""
","
","","","-1","","","11","7583","3573","u","elianto","#3366ff99","-1","-1","1","+10","[]","0","2","","","7583","114","9","2","win","no-go","0"
"pit-trial","236","1467301","0.0-119.0","battery-v0.2","","""event"",""trial"",""time""
""fullscreenenter"",""1"",""3982""
","
","
","""event"",""trial"",""time""
""fullscreenenter"",""1"",""3982""
","
","","","-1","","","11","7583","3573","l","elianto","#3366ff99","-1","-1","1","+10","[]","0","2","","","7583","115","8","2","win","no-go","0"
"pit-trial","237","1470877","0.0-120.0","battery-v0.2","","""event"",""trial"",""time""
""fullscreenenter"",""1"",""3982""
","
","
","""event"",""trial"",""time""
""fullscreenenter"",""1"",""3982""
","
","","","709.6999999997206","","","11","7583","3573","a","elianto","#f73b6a7A"," "," ","1","0","[1559.8999999999069]","1","2","","","7583","116","7","3","lose","go","0"
"pit-trial","238","1474453","0.0-121.0","battery-v0.2","","""event"",""trial"",""time""
""fullscreenenter"",""1"",""3982""
","
","
","""event"",""trial"",""time""
""fullscreenenter"",""1"",""3982""
","
","","","701.4000000003725","","","11","7583","3573","p","elianto","#3366ff99"," "," ","1","0","[1559]","1","2","","","7583","117","5","1","win","go","1"
"pit-trial","239","1479333","0.0-122.0","battery-v0.2","","""event"",""trial"",""time""
""fullscreenenter"",""1"",""3982""
","
","
","""event"",""trial"",""time""
""fullscreenenter"",""1"",""3982""
","
","","","-1","","","11","7583","3573","u","elianto","#3366ff99","-1","-1","1","+10","[]","0","2","","","7583","118","9","2","win","no-go","0"
"pit-trial","240","1484212","0.0-123.0","battery-v0.2","","""event"",""trial"",""time""
""fullscreenenter"",""1"",""3982""
","
","
","""event"",""trial"",""time""
""fullscreenenter"",""1"",""3982""
","
","","","-1","","","11","7583","3573","g","elianto","#f73b6a7A","-1","-1","1","-10","[]","0","2","","","7583","119","6","4","lose","no-go","1"
"pit-trial","241","1489085","0.0-124.0","battery-v0.2","","""event"",""trial"",""time""
""fullscreenenter"",""1"",""3982""
","
","
","""event"",""trial"",""time""
""fullscreenenter"",""1"",""3982""
","
","","","-1","","","11","7583","3573","l","elianto","#3366ff99","-1","-1","1","+10","[]","0","2","","","7583","120","8","2","win","no-go","0"
"pit-trial","242","1492861","0.0-125.0","battery-v0.2","","""event"",""trial"",""time""
""fullscreenenter"",""1"",""3982""
","
","
","""event"",""trial"",""time""
""fullscreenenter"",""1"",""3982""
","
","","","909.4000000003725","","","11","7583","3573","p","elianto","#3366ff99"," "," ","1","+10","[1760.2000000001863]","1","2","","","7583","121","5","1","win","go","0"
"pit-trial","243","1497733","0.0-126.0","battery-v0.2","","""event"",""trial"",""time""
""fullscreenenter"",""1"",""3982""
","
","
","""event"",""trial"",""time""
""fullscreenenter"",""1"",""3982""
","
","","","-1","","","11","7583","3573","l","elianto","#3366ff99","-1","-1","1","+10","[]","0","2","","","7583","122","8","2","win","no-go","0"
"pit-trial","244","1501365","0.0-127.0","battery-v0.2","","""event"",""trial"",""time""
""fullscreenenter"",""1"",""3982""
","
","
","""event"",""trial"",""time""
""fullscreenenter"",""1"",""3982""
","
","","","762.1000000000931","","","11","7583","3573","a","elianto","#f73b6a7A"," "," ","1","0","[1614.5]","1","2","","","7583","123","7","3","lose","go","0"
"pit-trial","245","1506237","0.0-128.0","battery-v0.2","","""event"",""trial"",""time""
""fullscreenenter"",""1"",""3982""
","
","
","""event"",""trial"",""time""
""fullscreenenter"",""1"",""3982""
","
","","","-1","","","11","7583","3573","u","elianto","#3366ff99","-1","-1","1","+10","[]","0","2","","","7583","124","9","2","win","no-go","0"
"pit-trial","246","1509885","0.0-129.0","battery-v0.2","","""event"",""trial"",""time""
""fullscreenenter"",""1"",""3982""
","
","
","""event"",""trial"",""time""
""fullscreenenter"",""1"",""3982""
","
","","","781.8000000002794","","","11","7583","3573","a","elianto","#f73b6a7A"," "," ","1","0","[1632.6000000000931,2321.9000000003725]","2","2","","","7583","125","7","3","lose","go","0"
"pit-trial","247","1514757","0.0-130.0","battery-v0.2","","""event"",""trial"",""time""
""fullscreenenter"",""1"",""3982""
","
","
","""event"",""trial"",""time""
""fullscreenenter"",""1"",""3982""
","
","","","-1","","","11","7583","3573","g","elianto","#f73b6a7A","-1","-1","1","0","[]","0","2","","","7583","126","6","4","lose","no-go","0"
"pit-trial","248","1519637","0.0-131.0","battery-v0.2","","""event"",""trial"",""time""
""fullscreenenter"",""1"",""3982""
","
","
","""event"",""trial"",""time""
""fullscreenenter"",""1"",""3982""
","
","","","-1","","","11","7583","3573","u","elianto","#3366ff99","-1","-1","1","0","[]","0","2","","","7583","127","9","2","win","no-go","1"
"pit-trial","249","1524509","0.0-132.0","battery-v0.2","","""event"",""trial"",""time""
""fullscreenenter"",""1"",""3982""
","
","
","""event"",""trial"",""time""
""fullscreenenter"",""1"",""3982""
","
","","","-1","","","11","7583","3573","l","elianto","#3366ff99","-1","-1","1","+10","[]","0","2","","","7583","128","8","2","win","no-go","0"
"pit-trial","250","1529381","0.0-133.0","battery-v0.2","","""event"",""trial"",""time""
""fullscreenenter"",""1"",""3982""
","
","
","""event"",""trial"",""time""
""fullscreenenter"",""1"",""3982""
","
","","","-1","","","11","7583","3573","l","elianto","#3366ff99","-1","-1","1","+10","[]","0","2","","","7583","129","8","2","win","no-go","0"
"pit-trial","251","1534253","0.0-134.0","battery-v0.2","","""event"",""trial"",""time""
""fullscreenenter"",""1"",""3982""
","
","
","""event"",""trial"",""time""
""fullscreenenter"",""1"",""3982""
","
","","","-1","","","11","7583","3573","u","elianto","#3366ff99","-1","-1","1","0","[4451.800000000279]","1","2","","","7583","130","9","2","win","no-go","1"
"pit-trial","252","1537805","0.0-135.0","battery-v0.2","","""event"",""trial"",""time""
""fullscreenenter"",""1"",""3982""
","
","
","""event"",""trial"",""time""
""fullscreenenter"",""1"",""3982""
","
","","","681.8999999999069","","","11","7583","3573","a","elianto","#f73b6a7A"," "," ","1","0","[1536.0999999996275]","1","2","","","7583","131","7","3","lose","go","0"
"pit-trial","253","1542685","0.0-136.0","battery-v0.2","","""event"",""trial"",""time""
""fullscreenenter"",""1"",""3982""
","
","
","""event"",""trial"",""time""
""fullscreenenter"",""1"",""3982""
","
","","","-1","","","11","7583","3573","g","elianto","#f73b6a7A","-1","-1","1","0","[]","0","2","","","7583","132","6","4","lose","no-go","0"
"pit-trial","254","1547557","0.0-137.0","battery-v0.2","","""event"",""trial"",""time""
""fullscreenenter"",""1"",""3982""
","
","
","""event"",""trial"",""time""
""fullscreenenter"",""1"",""3982""
","
","","","-1","","","11","7583","3573","l","elianto","#3366ff99","-1","-1","1","0","[]","0","2","","","7583","133","8","2","win","no-go","1"
"pit-trial","255","1552437","0.0-138.0","battery-v0.2","","""event"",""trial"",""time""
""fullscreenenter"",""1"",""3982""
","
","
","""event"",""trial"",""time""
""fullscreenenter"",""1"",""3982""
","
","","","-1","","","11","7583","3573","g","elianto","#f73b6a7A","-1","-1","1","0","[]","0","2","","","7583","134","6","4","lose","no-go","0"
"pit-trial","256","1556341","0.0-139.0","battery-v0.2","","""event"",""trial"",""time""
""fullscreenenter"",""1"",""3982""
","
","
","""event"",""trial"",""time""
""fullscreenenter"",""1"",""3982""
","
","","","1033.0999999996275","","","11","7583","3573","a","elianto","#f73b6a7A"," "," ","1","0","[1887.8999999999069]","1","2","","","7583","135","7","3","lose","go","0"
"pit-trial","257","1560949","0.0-140.0","battery-v0.2","","""event"",""trial"",""time""
""fullscreenenter"",""1"",""3982""
","
","
","""event"",""trial"",""time""
""fullscreenenter"",""1"",""3982""
","
","","","1739.3000000002794","","","11","7583","3573","u","elianto","#3366ff99","-1"," ","0","0","[2590.600000000093]","1","2","","","7583","136","9","2","win","no-go","0"
"pit-trial","258","1565821","0.0-141.0","battery-v0.2","","""event"",""trial"",""time""
""fullscreenenter"",""1"",""3982""
","
","
","""event"",""trial"",""time""
""fullscreenenter"",""1"",""3982""
","
","","","-1","","","11","7583","3573","g","elianto","#f73b6a7A","-1","-1","1","0","[]","0","2","","","7583","137","6","4","lose","no-go","0"
"pit-trial","259","1570693","0.0-142.0","battery-v0.2","","""event"",""trial"",""time""
""fullscreenenter"",""1"",""3982""
","
","
","""event"",""trial"",""time""
""fullscreenenter"",""1"",""3982""
","
","","","-1","","","11","7583","3573","l","elianto","#3366ff99","-1","-1","1","+10","[]","0","2","","","7583","138","8","2","win","no-go","0"
"pit-trial","260","1575573","0.0-143.0","battery-v0.2","","""event"",""trial"",""time""
""fullscreenenter"",""1"",""3982""
","
","
","""event"",""trial"",""time""
""fullscreenenter"",""1"",""3982""
","
","","","-1","","","11","7583","3573","u","elianto","#3366ff99","-1","-1","1","+10","[]","0","2","","","7583","139","9","2","win","no-go","0"
"pit-trial","261","1579373","0.0-144.0","battery-v0.2","","""event"",""trial"",""time""
""fullscreenenter"",""1"",""3982""
","
","
","""event"",""trial"",""time""
""fullscreenenter"",""1"",""3982""
","
","","","925","","","11","7583","3573","a","elianto","#f73b6a7A"," "," ","1","0","[1783]","1","2","","","7583","140","7","3","lose","go","0"
"pit-instructions","262","1598323","0.0-145.0","battery-v0.2","","""event"",""trial"",""time""
""fullscreenenter"",""1"",""3982""
","
","
","""event"",""trial"",""time""
""fullscreenenter"",""1"",""3982""
","
","","[{""page_index"":0,""viewing_time"":8156.200000000186},{""page_index"":1,""viewing_time"":10780.299999999814}]","18938.700000000186","","","","","","","","","","","","","","","","","","","","","","","",""
"pit-trial","263","1603204","0.0-146.0","battery-v0.2","","""event"",""trial"",""time""
""fullscreenenter"",""1"",""3982""
","
","
","""event"",""trial"",""time""
""fullscreenenter"",""1"",""3982""
","
","","","-1","","","11","7583","3573","b","elianto","#f73b6a7A","-1","-1","1","-10","[4248]","1","3","","","7583","141","3","4","lose","no-go","1"
"pit-trial","264","1606773","0.0-147.0","battery-v0.2","","""event"",""trial"",""time""
""fullscreenenter"",""1"",""3982""
","
","
","""event"",""trial"",""time""
""fullscreenenter"",""1"",""3982""
","
","","","698.9000000003725","","","11","7583","3573","f","elianto","#3366ff99","-1"," ","0","+10","[1553.6000000000931]","1","3","","","7583","142","1","2","win","no-go","1"
"pit-trial","265","1611645","0.0-148.0","battery-v0.2","","""event"",""trial"",""time""
""fullscreenenter"",""1"",""3982""
","
","
","""event"",""trial"",""time""
""fullscreenenter"",""1"",""3982""
","
","","","-1","","","11","7583","3573","t","elianto","#f73b6a7A"," ","-1","0","-10","[]","0","3","","","7583","143","2","3","lose","go","0"
"pit-trial","266","1615413","0.0-149.0","battery-v0.2","","""event"",""trial"",""time""
""fullscreenenter"",""1"",""3982""
","
","
","""event"",""trial"",""time""
""fullscreenenter"",""1"",""3982""
","
","","","891.2000000001863","","","11","7583","3573","n","elianto","#f73b6a7A"," "," ","1","-10","[1744.8000000002794]","1","3","","","7583","144","0","3","lose","go","1"
"pit-trial","267","1620285","0.0-150.0","battery-v0.2","","""event"",""trial"",""time""
""fullscreenenter"",""1"",""3982""
","
","
","""event"",""trial"",""time""
""fullscreenenter"",""1"",""3982""
","
","","","-1","","","11","7583","3573","n","elianto","#f73b6a7A"," ","-1","0","-10","[]","0","3","","","7583","145","0","3","lose","go","0"
"pit-trial","268","1623812","0.0-151.0","battery-v0.2","","""event"",""trial"",""time""
