"trial_type","trial_index","time_elapsed","internal_node_id","task_version","subject_id","interactions","blur_events","focus_events","fullscreenenter_events","fullscreenexit_events","success","view_history","rt","responses","num_errors","age","subject","participantId","rune","rune_set","hex","correct","choice","accuracy","outcome","keys","total_keys","block","practice","value","sub","trial","stimulus","robot","valence","action","sham"
"pavlovia","0","14","0.0-0.0","battery-v0.2","","""event"",""trial"",""time""
""fullscreenenter"",""1"",""1697""
","
","
","""event"",""trial"",""time""
""fullscreenenter"",""1"",""1697""
","
","","","","","","","","","","","","","","","","","","","","","","","","","","",""
"fullscreen","1","2687","0.0-1.0","battery-v0.2","","""event"",""trial"",""time""
""fullscreenenter"",""1"",""1697""
","
","
","""event"",""trial"",""time""
""fullscreenenter"",""1"",""1697""
","
","true","","","","","","","","","","","","","","","","","","","","","","","","","",""
"pit-instructions","2","5753","0.0-2.0-0.0","battery-v0.2","","""event"",""trial"",""time""
""fullscreenenter"",""1"",""1697""
","
","
","""event"",""trial"",""time""
""fullscreenenter"",""1"",""1697""
","
","","[{""page_index"":0,""viewing_time"":3060.199999999255}]","3060.5999999996275","","","","","","","","","","","","","","","","","","","","","","","",""
"pit-comprehension","3","9221","0.0-2.0-1.0-0.0","battery-v0.2","","""event"",""trial"",""time""
""fullscreenenter"",""1"",""1697""
","
","
","""event"",""trial"",""time""
""fullscreenenter"",""1"",""1697""
","
","","","3464","[""shark""]","0","13","10574","4930","","","","","","","","","","","","","","","","","","",""
"pit-instructions","4","10601","0.0-2.0-1.0-1.0","battery-v0.2","","""event"",""trial"",""time""
""fullscreenenter"",""1"",""1697""
","
","
","""event"",""trial"",""time""
""fullscreenenter"",""1"",""1697""
","
","","[{""page_index"":0,""viewing_time"":1373.7000000011176}]","1374.2000000011176","","","","","","","","","","","","","","","","","","","","","","","",""
"pit-comprehension","5","13370","0.0-2.0-2.0-0.0","battery-v0.2","","""event"",""trial"",""time""
""fullscreenenter"",""1"",""1697""
","
","
","""event"",""trial"",""time""
""fullscreenenter"",""1"",""1697""
","
","","","2763.2000000011176","[""tiger""]","0","13","10574","4930","","","","","","","","","","","","","","","","","","",""
"pit-instructions","6","21752","0.0-2.0-2.0-1.0","battery-v0.2","","""event"",""trial"",""time""
""fullscreenenter"",""1"",""1697""
","
","
","""event"",""trial"",""time""
""fullscreenenter"",""1"",""1697""
","
","","[{""page_index"":0,""viewing_time"":8376.900000000373}]","8377.400000000373","","","","","","","","","","","","","","","","","","","","","","","",""
"pit-instructions","7","115102","0.0-2.0-3.0","battery-v0.2","","""event"",""trial"",""time""
""fullscreenenter"",""1"",""1697""
","
","
","""event"",""trial"",""time""
""fullscreenenter"",""1"",""1697""
","
","","[{""page_index"":0,""viewing_time"":8129.299999998882},{""page_index"":1,""viewing_time"":6482.5999999996275},{""page_index"":2,""viewing_time"":7667.4000000003725},{""page_index"":3,""viewing_time"":6600.5999999996275},{""page_index"":4,""viewing_time"":6233},{""page_index"":5,""viewing_time"":5317},{""page_index"":6,""viewing_time"":7133.5},{""page_index"":7,""viewing_time"":6883.60000000149},{""page_index"":8,""viewing_time"":6200.39999999851},{""page_index"":9,""viewing_time"":5900.10000000149},{""page_index"":10,""viewing_time"":7483.299999998882},{""page_index"":11,""viewing_time"":7100.300000000745},{""page_index"":12,""viewing_time"":7322.4000000003725},{""page_index"":13,""viewing_time"":4895.199999999255}]","93349.39999999851","","","","","","","","","","","","","","","","","","","","","","","",""
"pit-trial","8","118550","0.0-2.0-4.0-0.0","battery-v0.2","","""event"",""trial"",""time""
""fullscreenenter"",""1"",""1697""
","
","
","""event"",""trial"",""time""
""fullscreenenter"",""1"",""1697""
","
","","","585.9000000003725","","","13","10574","4930","&#9784;","elianto","#FFFFF080"," "," ","1","&#10004","[1437]","1","0","0","","","","","","","",""
"pit-trial","9","122484","0.0-2.0-4.1-0.1","battery-v0.2","","""event"",""trial"",""time""
""fullscreenenter"",""1"",""1697""
","
","
","""event"",""trial"",""time""
""fullscreenenter"",""1"",""1697""
","
","","","1075.0999999996275","","","13","10574","4930","&#9784;","elianto","#FFFFF080"," "," ","1","&#10004","[1926.800000000745]","1","0","0","","","","","","","",""
"pit-trial","10","125851","0.0-2.0-4.2-0.2","battery-v0.2","","""event"",""trial"",""time""
""fullscreenenter"",""1"",""1697""
","
","
","""event"",""trial"",""time""
""fullscreenenter"",""1"",""1697""
","
","","","509.19999999925494","","","13","10574","4930","&#9784;","elianto","#FFFFF080"," "," ","1","&#10004","[1360.4000000003725]","1","0","0","","","","","","","",""
"pit-trial","11","129471","0.0-2.0-4.3-0.3","battery-v0.2","","""event"",""trial"",""time""
""fullscreenenter"",""1"",""1697""
","
","
","""event"",""trial"",""time""
""fullscreenenter"",""1"",""1697""
","
","","","761","","","13","10574","4930","&#9784;","elianto","#FFFFF080"," "," ","1","&#10004","[1612.2000000011176]","1","0","0","","","","","","","",""
"pit-trial","12","132991","0.0-2.0-4.4-0.4","battery-v0.2","","""event"",""trial"",""time""
""fullscreenenter"",""1"",""1697""
","
","
","""event"",""trial"",""time""
""fullscreenenter"",""1"",""1697""
","
","","","657.3000000007451","","","13","10574","4930","&#9784;","elianto","#FFFFF080"," "," ","1","&#10004","[1509.800000000745]","1","0","0","","","","","","","",""
"pit-instructions","13","155835","0.0-2.0-5.0","battery-v0.2","","""event"",""trial"",""time""
""fullscreenenter"",""1"",""1697""
","
","
","""event"",""trial"",""time""
""fullscreenenter"",""1"",""1697""
","
","","[{""page_index"":0,""viewing_time"":6255.199999999255},{""page_index"":1,""viewing_time"":6017.199999999255},{""page_index"":2,""viewing_time"":4883.5},{""page_index"":3,""viewing_time"":5683.5}]","22840.099999999627","","","","","","","","","","","","","","","","","","","","","","","",""
"pit-trial","14","160696","0.0-2.0-6.0-0.0","battery-v0.2","","""event"",""trial"",""time""
""fullscreenenter"",""1"",""1697""
","
","
","""event"",""trial"",""time""
""fullscreenenter"",""1"",""1697""
","
","","","-1","","","13","10574","4930","&#9854;","elianto","#FFFFF080","-1","-1","1","&#10004","[]","0","0","1","","","","","","","",""
"pit-trial","15","165562","0.0-2.0-6.1-0.1","battery-v0.2","","""event"",""trial"",""time""
""fullscreenenter"",""1"",""1697""
","
","
","""event"",""trial"",""time""
""fullscreenenter"",""1"",""1697""
","
","","","-1","","","13","10574","4930","&#9854;","elianto","#FFFFF080","-1","-1","1","&#10004","[]","0","0","1","","","","","","","",""
"pit-trial","16","170427","0.0-2.0-6.2-0.2","battery-v0.2","","""event"",""trial"",""time""
""fullscreenenter"",""1"",""1697""
","
","
","""event"",""trial"",""time""
""fullscreenenter"",""1"",""1697""
","
","","","-1","","","13","10574","4930","&#9854;","elianto","#FFFFF080","-1","-1","1","&#10004","[]","0","0","1","","","","","","","",""
"pit-trial","17","175291","0.0-2.0-6.3-0.3","battery-v0.2","","""event"",""trial"",""time""
""fullscreenenter"",""1"",""1697""
","
","
","""event"",""trial"",""time""
""fullscreenenter"",""1"",""1697""
","
","","","-1","","","13","10574","4930","&#9854;","elianto","#FFFFF080","-1","-1","1","&#10004","[]","0","0","1","","","","","","","",""
"pit-trial","18","180152","0.0-2.0-6.4-0.4","battery-v0.2","","""event"",""trial"",""time""
""fullscreenenter"",""1"",""1697""
","
","
","""event"",""trial"",""time""
""fullscreenenter"",""1"",""1697""
","
","","","-1","","","13","10574","4930","&#9854;","elianto","#FFFFF080","-1","-1","1","&#10004","[]","0","0","1","","","","","","","",""
"pit-instructions","19","298533","0.0-2.0-7.0","battery-v0.2","","""event"",""trial"",""time""
""fullscreenenter"",""1"",""1697""
","
","
","""event"",""trial"",""time""
""fullscreenenter"",""1"",""1697""
","
","","[{""page_index"":0,""viewing_time"":7726.800000000745},{""page_index"":1,""viewing_time"":7300.5},{""page_index"":2,""viewing_time"":6300},{""page_index"":3,""viewing_time"":6150.699999999255},{""page_index"":4,""viewing_time"":6683.199999999255},{""page_index"":5,""viewing_time"":6977.800000000745},{""page_index"":6,""viewing_time"":4572.5},{""page_index"":7,""viewing_time"":7916.5999999996275},{""page_index"":8,""viewing_time"":6567.0999999996275},{""page_index"":9,""viewing_time"":5233.200000001118},{""page_index"":10,""viewing_time"":6700.5},{""page_index"":11,""viewing_time"":5250.0999999996275},{""page_index"":12,""viewing_time"":6433.4000000003725},{""page_index"":13,""viewing_time"":7882.799999998882},{""page_index"":14,""viewing_time"":7300.200000001118},{""page_index"":15,""viewing_time"":6084.0999999996275},{""page_index"":16,""viewing_time"":6183.4000000003725},{""page_index"":17,""viewing_time"":7117.299999998882}]","118380.90000000037","","","","","","","","","","","","","","","","","","","","","","","",""
"pit-trial","20","301954","0.0-2.0-8.0-0.0","battery-v0.2","","""event"",""trial"",""time""
""fullscreenenter"",""1"",""1697""
","
","
","""event"",""trial"",""time""
""fullscreenenter"",""1"",""1697""
","
","","","560.7000000011176","","","13","10574","4930","&#9776;","elianto","#3366ff99"," "," ","1","+10","[1411]","1","0","1","","","","","","","",""
"pit-trial","21","305880","0.0-2.0-8.0-1.0","battery-v0.2","","""event"",""trial"",""time""
""fullscreenenter"",""1"",""1697""
","
","
","""event"",""trial"",""time""
""fullscreenenter"",""1"",""1697""
","
","","","1068.699999999255","","","13","10574","4930","&#9776;","elianto","#3366ff99"," "," ","1","+10","[1921.199999999255]","1","0","1","","","","","","","",""
"pit-trial","22","309565","0.0-2.0-8.0-2.0","battery-v0.2","","""event"",""trial"",""time""
""fullscreenenter"",""1"",""1697""
","
","
","""event"",""trial"",""time""
""fullscreenenter"",""1"",""1697""
","
","","","824.7999999988824","","","13","10574","4930","&#9776;","elianto","#3366ff99"," "," ","1","+10","[1676.199999999255]","1","0","1","","","","","","","",""
"pit-trial","23","313750","0.0-2.0-8.0-3.0","battery-v0.2","","""event"",""trial"",""time""
""fullscreenenter"",""1"",""1697""
","
","
","""event"",""trial"",""time""
""fullscreenenter"",""1"",""1697""
","
","","","1324.2999999988824","","","13","10574","4930","&#9776;","elianto","#3366ff99"," "," ","1","0","[2176.4000000003725]","1","0","1","","","","","","","",""
"pit-trial","24","318608","0.0-2.0-8.0-4.0","battery-v0.2","","""event"",""trial"",""time""
""fullscreenenter"",""1"",""1697""
","
","
","""event"",""trial"",""time""
""fullscreenenter"",""1"",""1697""
","
","","","-1","","","13","10574","4930","&#9776;","elianto","#3366ff99"," ","-1","0","0","[3489.9000000003725]","1","0","1","","","","","","","",""
"pit-trial","25","321887","0.0-2.0-8.1-0.1","battery-v0.2","","""event"",""trial"",""time""
""fullscreenenter"",""1"",""1697""
","
","
","""event"",""trial"",""time""
""fullscreenenter"",""1"",""1697""
","
","","","419","","","13","10574","4930","&#9776;","elianto","#3366ff99"," "," ","1","+10","[1269.5999999996275]","1","0","1","","","","","","","",""
"pit-trial","26","325262","0.0-2.0-8.1-1.1","battery-v0.2","","""event"",""trial"",""time""
""fullscreenenter"",""1"",""1697""
","
","
","""event"",""trial"",""time""
""fullscreenenter"",""1"",""1697""
","
","","","517.5999999996275","","","13","10574","4930","&#9776;","elianto","#3366ff99"," "," ","1","+10","[1370.7999999988824]","1","0","1","","","","","","","",""
"pit-trial","27","328649","0.0-2.0-8.1-2.1","battery-v0.2","","""event"",""trial"",""time""
""fullscreenenter"",""1"",""1697""
","
","
","""event"",""trial"",""time""
""fullscreenenter"",""1"",""1697""
","
","","","528.7000000011176","","","13","10574","4930","&#9776;","elianto","#3366ff99"," "," ","1","+10","[1379.0999999996275]","1","0","1","","","","","","","",""
"pit-trial","28","333286","0.0-2.0-8.1-3.1","battery-v0.2","","""event"",""trial"",""time""
""fullscreenenter"",""1"",""1697""
","
","
","""event"",""trial"",""time""
""fullscreenenter"",""1"",""1697""
","
","","","1781.4000000003725","","","13","10574","4930","&#9776;","elianto","#3366ff99"," "," ","1","0","[2633.199999999255]","1","0","1","","","","","","","",""
"pit-trial","29","336551","0.0-2.0-8.1-4.1","battery-v0.2","","""event"",""trial"",""time""
""fullscreenenter"",""1"",""1697""
","
","
","""event"",""trial"",""time""
""fullscreenenter"",""1"",""1697""
","
","","","403.90000000037253","","","13","10574","4930","&#9776;","elianto","#3366ff99"," "," ","1","+10","[1256.199999999255]","1","0","1","","","","","","","",""
"pit-trial","30","339807","0.0-2.0-8.2-0.2","battery-v0.2","","""event"",""trial"",""time""
""fullscreenenter"",""1"",""1697""
","
","
","""event"",""trial"",""time""
""fullscreenenter"",""1"",""1697""
","
","","","394","","","13","10574","4930","&#9776;","elianto","#3366ff99"," "," ","1","+10","[1245.8999999985099]","1","0","1","","","","","","","",""
"pit-trial","31","343067","0.0-2.0-8.2-1.2","battery-v0.2","","""event"",""trial"",""time""
""fullscreenenter"",""1"",""1697""
","
","
","""event"",""trial"",""time""
""fullscreenenter"",""1"",""1697""
","
","","","400","","","13","10574","4930","&#9776;","elianto","#3366ff99"," "," ","1","+10","[1252.9000000003725]","1","0","1","","","","","","","",""
"pit-trial","32","346677","0.0-2.0-8.2-2.2","battery-v0.2","","""event"",""trial"",""time""
""fullscreenenter"",""1"",""1697""
","
","
","""event"",""trial"",""time""
""fullscreenenter"",""1"",""1697""
","
","","","750","","","13","10574","4930","&#9776;","elianto","#3366ff99"," "," ","1","+10","[1601.300000000745]","1","0","1","","","","","","","",""
"pit-trial","33","350103","0.0-2.0-8.2-3.2","battery-v0.2","","""event"",""trial"",""time""
""fullscreenenter"",""1"",""1697""
","
","
","""event"",""trial"",""time""
""fullscreenenter"",""1"",""1697""
","
","","","566.6999999992549","","","13","10574","4930","&#9776;","elianto","#3366ff99"," "," ","1","0","[1417.4000000003725]","1","0","1","","","","","","","",""
"pit-trial","34","353358","0.0-2.0-8.2-4.2","battery-v0.2","","""event"",""trial"",""time""
""fullscreenenter"",""1"",""1697""
","
","
","""event"",""trial"",""time""
""fullscreenenter"",""1"",""1697""
","
","","","395","","","13","10574","4930","&#9776;","elianto","#3366ff99"," "," ","1","+10","[1246.7000000011176]","1","0","1","","","","","","","",""
"call-function","35","353361","0.0-2.0-9.0","battery-v0.2","","""event"",""trial"",""time""
""fullscreenenter"",""1"",""1697""
","
","
","""event"",""trial"",""time""
""fullscreenenter"",""1"",""1697""
","
","","","","","","","","","","","","","","","","","","","","","","","","","","",""
"pit-instructions","36","395613","0.0-2.0-10.0","battery-v0.2","","""event"",""trial"",""time""
""fullscreenenter"",""1"",""1697""
","
","
","""event"",""trial"",""time""
""fullscreenenter"",""1"",""1697""
","
","","[{""page_index"":0,""viewing_time"":8687},{""page_index"":1,""viewing_time"":7500.199999999255},{""page_index"":2,""viewing_time"":9333.699999999255},{""page_index"":3,""viewing_time"":9317},{""page_index"":4,""viewing_time"":7414.4000000003725}]","42252.89999999851","","","","","","","","","","","","","","","","","","","","","","","",""
"pit-trial","37","398895","0.0-2.0-11.0-0.0","battery-v0.2","","""event"",""trial"",""time""
""fullscreenenter"",""1"",""1697""
","
","
","""event"",""trial"",""time""
""fullscreenenter"",""1"",""1697""
","
","","","421.5","","","13","10574","4930","&#9761;","elianto","#3366ff99","-1"," ","0","0","[1272.800000000745]","1","0","2","","","","","","","",""
"pit-trial","38","403759","0.0-2.0-11.0-1.0","battery-v0.2","","""event"",""trial"",""time""
""fullscreenenter"",""1"",""1697""
","
","
","""event"",""trial"",""time""
""fullscreenenter"",""1"",""1697""
","
","","","-1","","","13","10574","4930","&#9761;","elianto","#3366ff99","-1","-1","1","+10","[]","0","0","2","","","","","","","",""
"pit-trial","39","408620","0.0-2.0-11.0-2.0","battery-v0.2","","""event"",""trial"",""time""
""fullscreenenter"",""1"",""1697""
","
","
","""event"",""trial"",""time""
""fullscreenenter"",""1"",""1697""
","
","","","-1","","","13","10574","4930","&#9761;","elianto","#3366ff99","-1","-1","1","+10","[]","0","0","2","","","","","","","",""
"pit-trial","40","413480","0.0-2.0-11.0-3.0","battery-v0.2","","""event"",""trial"",""time""
""fullscreenenter"",""1"",""1697""
","
","
","""event"",""trial"",""time""
""fullscreenenter"",""1"",""1697""
","
","","","-1","","","13","10574","4930","&#9761;","elianto","#3366ff99","-1","-1","1","0","[]","0","0","2","","","","","","","",""
"pit-trial","41","418340","0.0-2.0-11.0-4.0","battery-v0.2","","""event"",""trial"",""time""
""fullscreenenter"",""1"",""1697""
","
","
","""event"",""trial"",""time""
""fullscreenenter"",""1"",""1697""
","
","","","-1","","","13","10574","4930","&#9761;","elianto","#3366ff99","-1","-1","1","+10","[]","0","0","2","","","","","","","",""
"pit-trial","42","423201","0.0-2.0-11.1-0.1","battery-v0.2","","""event"",""trial"",""time""
""fullscreenenter"",""1"",""1697""
","
","
","""event"",""trial"",""time""
""fullscreenenter"",""1"",""1697""
","
","","","-1","","","13","10574","4930","&#9761;","elianto","#3366ff99","-1","-1","1","+10","[]","0","0","2","","","","","","","",""
"pit-trial","43","428066","0.0-2.0-11.1-1.1","battery-v0.2","","""event"",""trial"",""time""
""fullscreenenter"",""1"",""1697""
","
","
","""event"",""trial"",""time""
""fullscreenenter"",""1"",""1697""
","
","","","-1","","","13","10574","4930","&#9761;","elianto","#3366ff99","-1","-1","1","+10","[]","0","0","2","","","","","","","",""
"pit-trial","44","432930","0.0-2.0-11.1-2.1","battery-v0.2","","""event"",""trial"",""time""
""fullscreenenter"",""1"",""1697""
","
","
","""event"",""trial"",""time""
""fullscreenenter"",""1"",""1697""
","
","","","-1","","","13","10574","4930","&#9761;","elianto","#3366ff99","-1","-1","1","+10","[]","0","0","2","","","","","","","",""
"pit-trial","45","437794","0.0-2.0-11.1-3.1","battery-v0.2","","""event"",""trial"",""time""
""fullscreenenter"",""1"",""1697""
","
","
","""event"",""trial"",""time""
""fullscreenenter"",""1"",""1697""
","
","","","-1","","","13","10574","4930","&#9761;","elianto","#3366ff99","-1","-1","1","0","[]","0","0","2","","","","","","","",""
"pit-trial","46","442659","0.0-2.0-11.1-4.1","battery-v0.2","","""event"",""trial"",""time""
""fullscreenenter"",""1"",""1697""
","
","
","""event"",""trial"",""time""
""fullscreenenter"",""1"",""1697""
","
","","","-1","","","13","10574","4930","&#9761;","elianto","#3366ff99","-1","-1","1","+10","[]","0","0","2","","","","","","","",""
"pit-trial","47","447520","0.0-2.0-11.2-0.2","battery-v0.2","","""event"",""trial"",""time""
""fullscreenenter"",""1"",""1697""
","
","
","""event"",""trial"",""time""
""fullscreenenter"",""1"",""1697""
","
","","","-1","","","13","10574","4930","&#9761;","elianto","#3366ff99","-1","-1","1","+10","[]","0","0","2","","","","","","","",""
"pit-trial","48","452384","0.0-2.0-11.2-1.2","battery-v0.2","","""event"",""trial"",""time""
""fullscreenenter"",""1"",""1697""
","
","
","""event"",""trial"",""time""
""fullscreenenter"",""1"",""1697""
","
","","","-1","","","13","10574","4930","&#9761;","elianto","#3366ff99","-1","-1","1","+10","[]","0","0","2","","","","","","","",""
"pit-trial","49","457249","0.0-2.0-11.2-2.2","battery-v0.2","","""event"",""trial"",""time""
""fullscreenenter"",""1"",""1697""
","
","
","""event"",""trial"",""time""
""fullscreenenter"",""1"",""1697""
","
","","","-1","","","13","10574","4930","&#9761;","elianto","#3366ff99","-1","-1","1","+10","[]","0","0","2","","","","","","","",""
"pit-trial","50","462114","0.0-2.0-11.2-3.2","battery-v0.2","","""event"",""trial"",""time""
""fullscreenenter"",""1"",""1697""
","
","
","""event"",""trial"",""time""
""fullscreenenter"",""1"",""1697""
","
","","","-1","","","13","10574","4930","&#9761;","elianto","#3366ff99","-1","-1","1","0","[]","0","0","2","","","","","","","",""
"pit-trial","51","466976","0.0-2.0-11.2-4.2","battery-v0.2","","""event"",""trial"",""time""
""fullscreenenter"",""1"",""1697""
","
","
","""event"",""trial"",""time""
""fullscreenenter"",""1"",""1697""
","
","","","-1","","","13","10574","4930","&#9761;","elianto","#3366ff99","-1","-1","1","+10","[]","0","0","2","","","","","","","",""
"pit-trial","52","471840","0.0-2.0-11.3-0.3","battery-v0.2","","""event"",""trial"",""time""
""fullscreenenter"",""1"",""1697""
","
","
","""event"",""trial"",""time""
""fullscreenenter"",""1"",""1697""
","
","","","-1","","","13","10574","4930","&#9761;","elianto","#3366ff99","-1","-1","1","+10","[]","0","0","2","","","","","","","",""
"pit-trial","53","476702","0.0-2.0-11.3-1.3","battery-v0.2","","""event"",""trial"",""time""
""fullscreenenter"",""1"",""1697""
","
","
","""event"",""trial"",""time""
""fullscreenenter"",""1"",""1697""
","
","","","-1","","","13","10574","4930","&#9761;","elianto","#3366ff99","-1","-1","1","+10","[]","0","0","2","","","","","","","",""
"pit-trial","54","481562","0.0-2.0-11.3-2.3","battery-v0.2","","""event"",""trial"",""time""
""fullscreenenter"",""1"",""1697""
","
","
","""event"",""trial"",""time""
""fullscreenenter"",""1"",""1697""
","
","","","-1","","","13","10574","4930","&#9761;","elianto","#3366ff99","-1","-1","1","+10","[]","0","0","2","","","","","","","",""
"pit-trial","55","486426","0.0-2.0-11.3-3.3","battery-v0.2","","""event"",""trial"",""time""
""fullscreenenter"",""1"",""1697""
","
","
","""event"",""trial"",""time""
""fullscreenenter"",""1"",""1697""
","
","","","-1","","","13","10574","4930","&#9761;","elianto","#3366ff99","-1","-1","1","0","[]","0","0","2","","","","","","","",""
"pit-trial","56","491287","0.0-2.0-11.3-4.3","battery-v0.2","","""event"",""trial"",""time""
""fullscreenenter"",""1"",""1697""
","
","
","""event"",""trial"",""time""
""fullscreenenter"",""1"",""1697""
","
","","","-1","","","13","10574","4930","&#9761;","elianto","#3366ff99","-1","-1","1","+10","[]","0","0","2","","","","","","","",""
"call-function","57","491290","0.0-2.0-12.0","battery-v0.2","","""event"",""trial"",""time""
""fullscreenenter"",""1"",""1697""
","
","
","""event"",""trial"",""time""
""fullscreenenter"",""1"",""1697""
","
","","","","","","","","","","","","","","","","","","","","","","","","","","",""
"pit-instructions","58","524464","0.0-2.0-13.0","battery-v0.2","","""event"",""trial"",""time""
""fullscreenenter"",""1"",""1697""
","
","
","""event"",""trial"",""time""
""fullscreenenter"",""1"",""1697""
","
","","[{""page_index"":0,""viewing_time"":5105.9000000003725},{""page_index"":1,""viewing_time"":7250.39999999851},{""page_index"":2,""viewing_time"":4267.10000000149},{""page_index"":3,""viewing_time"":11300.099999999627},{""page_index"":4,""viewing_time"":5250.299999998882}]","33174.40000000037","","","","","","","","","","","","","","","","","","","","","","","",""
"pit-trial","59","528000","0.0-2.0-14.0-0.0","battery-v0.2","","""event"",""trial"",""time""
""fullscreenenter"",""1"",""1697""
","
","
","""event"",""trial"",""time""
""fullscreenenter"",""1"",""1697""
","
","","","674.7000000011176","","","13","10574","4930","&#9826;","elianto","#f73b6a7A","-1"," ","0","-10","[1526.5]","1","0","3","","","","","","","",""
"pit-trial","60","532864","0.0-2.0-14.0-1.0","battery-v0.2","","""event"",""trial"",""time""
""fullscreenenter"",""1"",""1697""
","
","
","""event"",""trial"",""time""
""fullscreenenter"",""1"",""1697""
","
","","","-1","","","13","10574","4930","&#9826;","elianto","#f73b6a7A","-1","-1","1","0","[]","0","0","3","","","","","","","",""
"pit-trial","61","537723","0.0-2.0-14.0-2.0","battery-v0.2","","""event"",""trial"",""time""
""fullscreenenter"",""1"",""1697""
","
","
","""event"",""trial"",""time""
""fullscreenenter"",""1"",""1697""
","
","","","-1","","","13","10574","4930","&#9826;","elianto","#f73b6a7A","-1","-1","1","0","[]","0","0","3","","","","","","","",""
"pit-trial","62","542586","0.0-2.0-14.0-3.0","battery-v0.2","","""event"",""trial"",""time""
""fullscreenenter"",""1"",""1697""
","
","
","""event"",""trial"",""time""
""fullscreenenter"",""1"",""1697""
","
","","","-1","","","13","10574","4930","&#9826;","elianto","#f73b6a7A","-1","-1","1","-10","[]","0","0","3","","","","","","","",""
"pit-trial","63","547449","0.0-2.0-14.0-4.0","battery-v0.2","","""event"",""trial"",""time""
""fullscreenenter"",""1"",""1697""
","
","
","""event"",""trial"",""time""
""fullscreenenter"",""1"",""1697""
","
","","","-1","","","13","10574","4930","&#9826;","elianto","#f73b6a7A","-1","-1","1","0","[]","0","0","3","","","","","","","",""
"pit-trial","64","552311","0.0-2.0-14.1-0.1","battery-v0.2","","""event"",""trial"",""time""
""fullscreenenter"",""1"",""1697""
","
","
","""event"",""trial"",""time""
""fullscreenenter"",""1"",""1697""
","
","","","-1","","","13","10574","4930","&#9826;","elianto","#f73b6a7A","-1","-1","1","0","[]","0","0","3","","","","","","","",""
"pit-trial","65","557173","0.0-2.0-14.1-1.1","battery-v0.2","","""event"",""trial"",""time""
""fullscreenenter"",""1"",""1697""
","
","
","""event"",""trial"",""time""
""fullscreenenter"",""1"",""1697""
","
","","","-1","","","13","10574","4930","&#9826;","elianto","#f73b6a7A","-1","-1","1","0","[]","0","0","3","","","","","","","",""
"pit-trial","66","562037","0.0-2.0-14.1-2.1","battery-v0.2","","""event"",""trial"",""time""
""fullscreenenter"",""1"",""1697""
","
","
","""event"",""trial"",""time""
""fullscreenenter"",""1"",""1697""
","
","","","-1","","","13","10574","4930","&#9826;","elianto","#f73b6a7A","-1","-1","1","0","[]","0","0","3","","","","","","","",""
"pit-trial","67","566901","0.0-2.0-14.1-3.1","battery-v0.2","","""event"",""trial"",""time""
""fullscreenenter"",""1"",""1697""
","
","
","""event"",""trial"",""time""
""fullscreenenter"",""1"",""1697""
","
","","","-1","","","13","10574","4930","&#9826;","elianto","#f73b6a7A","-1","-1","1","-10","[]","0","0","3","","","","","","","",""
"pit-trial","68","571765","0.0-2.0-14.1-4.1","battery-v0.2","","""event"",""trial"",""time""
""fullscreenenter"",""1"",""1697""
","
","
","""event"",""trial"",""time""
""fullscreenenter"",""1"",""1697""
","
","","","-1","","","13","10574","4930","&#9826;","elianto","#f73b6a7A","-1","-1","1","0","[]","0","0","3","","","","","","","",""
"pit-trial","69","576629","0.0-2.0-14.2-0.2","battery-v0.2","","""event"",""trial"",""time""
""fullscreenenter"",""1"",""1697""
","
","
","""event"",""trial"",""time""
""fullscreenenter"",""1"",""1697""
","
","","","-1","","","13","10574","4930","&#9826;","elianto","#f73b6a7A","-1","-1","1","0","[]","0","0","3","","","","","","","",""
"pit-trial","70","581492","0.0-2.0-14.2-1.2","battery-v0.2","","""event"",""trial"",""time""
""fullscreenenter"",""1"",""1697""
","
","
","""event"",""trial"",""time""
""fullscreenenter"",""1"",""1697""
","
","","","-1","","","13","10574","4930","&#9826;","elianto","#f73b6a7A","-1","-1","1","0","[]","0","0","3","","","","","","","",""
"pit-trial","71","586357","0.0-2.0-14.2-2.2","battery-v0.2","","""event"",""trial"",""time""
""fullscreenenter"",""1"",""1697""
","
","
","""event"",""trial"",""time""
""fullscreenenter"",""1"",""1697""
","
","","","-1","","","13","10574","4930","&#9826;","elianto","#f73b6a7A","-1","-1","1","0","[]","0","0","3","","","","","","","",""
"pit-trial","72","591220","0.0-2.0-14.2-3.2","battery-v0.2","","""event"",""trial"",""time""
""fullscreenenter"",""1"",""1697""
","
","
","""event"",""trial"",""time""
""fullscreenenter"",""1"",""1697""
","
","","","-1","","","13","10574","4930","&#9826;","elianto","#f73b6a7A","-1","-1","1","-10","[]","0","0","3","","","","","","","",""
"pit-trial","73","596082","0.0-2.0-14.2-4.2","battery-v0.2","","""event"",""trial"",""time""
""fullscreenenter"",""1"",""1697""
","
","
","""event"",""trial"",""time""
""fullscreenenter"",""1"",""1697""
","
","","","-1","","","13","10574","4930","&#9826;","elianto","#f73b6a7A","-1","-1","1","0","[]","0","0","3","","","","","","","",""
"pit-trial","74","600942","0.0-2.0-14.3-0.3","battery-v0.2","","""event"",""trial"",""time""
""fullscreenenter"",""1"",""1697""
","
","
","""event"",""trial"",""time""
""fullscreenenter"",""1"",""1697""
","
","","","-1","","","13","10574","4930","&#9826;","elianto","#f73b6a7A","-1","-1","1","0","[]","0","0","3","","","","","","","",""
"pit-trial","75","605807","0.0-2.0-14.3-1.3","battery-v0.2","","""event"",""trial"",""time""
""fullscreenenter"",""1"",""1697""
","
","
","""event"",""trial"",""time""
""fullscreenenter"",""1"",""1697""
","
","","","-1","","","13","10574","4930","&#9826;","elianto","#f73b6a7A","-1","-1","1","0","[]","0","0","3","","","","","","","",""
"pit-trial","76","610670","0.0-2.0-14.3-2.3","battery-v0.2","","""event"",""trial"",""time""
""fullscreenenter"",""1"",""1697""
","
","
","""event"",""trial"",""time""
""fullscreenenter"",""1"",""1697""
","
","","","-1","","","13","10574","4930","&#9826;","elianto","#f73b6a7A","-1","-1","1","0","[]","0","0","3","","","","","","","",""
"pit-trial","77","615534","0.0-2.0-14.3-3.3","battery-v0.2","","""event"",""trial"",""time""
""fullscreenenter"",""1"",""1697""
","
","
","""event"",""trial"",""time""
""fullscreenenter"",""1"",""1697""
","
","","","-1","","","13","10574","4930","&#9826;","elianto","#f73b6a7A","-1","-1","1","-10","[]","0","0","3","","","","","","","",""
"pit-trial","78","620398","0.0-2.0-14.3-4.3","battery-v0.2","","""event"",""trial"",""time""
""fullscreenenter"",""1"",""1697""
","
","
","""event"",""trial"",""time""
""fullscreenenter"",""1"",""1697""
","
","","","-1","","","13","10574","4930","&#9826;","elianto","#f73b6a7A","-1","-1","1","0","[]","0","0","3","","","","","","","",""
"call-function","79","620401","0.0-2.0-15.0","battery-v0.2","","""event"",""trial"",""time""
""fullscreenenter"",""1"",""1697""
","
","
","""event"",""trial"",""time""
""fullscreenenter"",""1"",""1697""
","
","","","","","","","","","","","","","","","","","","","","","","","","","","",""
"pit-instructions","80","645930","0.0-2.0-16.0","battery-v0.2","","""event"",""trial"",""time""
""fullscreenenter"",""1"",""1697""
","
","
","""event"",""trial"",""time""
""fullscreenenter"",""1"",""1697""
","
","","[{""page_index"":0,""viewing_time"":8161.199999999255},{""page_index"":1,""viewing_time"":8366.099999999627},{""page_index"":2,""viewing_time"":4242.300000000745},{""page_index"":3,""viewing_time"":4759.0999999996275}]","25529.199999999255","","","","","","","","","","","","","","","","","","","","","","","",""
"pit-trial","81","648837","0.0-2.0-17.0-0.0","battery-v0.2","","""event"",""trial"",""time""
""fullscreenenter"",""1"",""1697""
","
","
","""event"",""trial"",""time""
""fullscreenenter"",""1"",""1697""
","
","","","47.09999999962747","","","13","10574","4930","&#9789;","elianto","#f73b6a7A"," "," ","1","0","[898.5,1613.1000000014901]","2","0","4","","","","","","","",""
"pit-trial","82","652112","0.0-2.0-17.0-1.0","battery-v0.2","","""event"",""trial"",""time""
""fullscreenenter"",""1"",""1697""
","
","
","""event"",""trial"",""time""
""fullscreenenter"",""1"",""1697""
","
","","","414.80000000074506","","","13","10574","4930","&#9789;","elianto","#f73b6a7A"," "," ","1","0","[1266.8999999985099]","1","0","4","","","","","","","",""
"pit-trial","83","656977","0.0-2.0-17.0-2.0","battery-v0.2","","""event"",""trial"",""time""
""fullscreenenter"",""1"",""1697""
","
","
","""event"",""trial"",""time""
""fullscreenenter"",""1"",""1697""
","
","","","-1","","","13","10574","4930","&#9789;","elianto","#f73b6a7A"," ","-1","0","-10","[3887.89999999851]","1","0","4","","","","","","","",""
"pit-trial","84","660193","0.0-2.0-17.0-3.0","battery-v0.2","","""event"",""trial"",""time""
""fullscreenenter"",""1"",""1697""
","
","
","""event"",""trial"",""time""
""fullscreenenter"",""1"",""1697""
","
","","","361.40000000037253","","","13","10574","4930","&#9789;","elianto","#f73b6a7A"," "," ","1","-10","[1211.9000000003725]","1","0","4","","","","","","","",""
"pit-trial","85","663480","0.0-2.0-17.0-4.0","battery-v0.2","","""event"",""trial"",""time""
""fullscreenenter"",""1"",""1697""
","
","
","""event"",""trial"",""time""
""fullscreenenter"",""1"",""1697""
","
","","","427.69999999925494","","","13","10574","4930","&#9789;","elianto","#f73b6a7A"," "," ","1","0","[1278.5999999996275]","1","0","4","","","","","","","",""
"pit-trial","86","666782","0.0-2.0-17.1-0.1","battery-v0.2","","""event"",""trial"",""time""
""fullscreenenter"",""1"",""1697""
","
","
","""event"",""trial"",""time""
""fullscreenenter"",""1"",""1697""
","
","","","440.6000000014901","","","13","10574","4930","&#9789;","elianto","#f73b6a7A"," "," ","1","0","[1292.5]","1","0","4","","","","","","","",""
"pit-trial","87","670208","0.0-2.0-17.1-1.1","battery-v0.2","","""event"",""trial"",""time""
""fullscreenenter"",""1"",""1697""
","
","
","""event"",""trial"",""time""
""fullscreenenter"",""1"",""1697""
","
","","","564.7000000011176","","","13","10574","4930","&#9789;","elianto","#f73b6a7A"," "," ","1","0","[1417.4000000003725]","1","0","4","","","","","","","",""
"pit-trial","88","673732","0.0-2.0-17.1-2.1","battery-v0.2","","""event"",""trial"",""time""
""fullscreenenter"",""1"",""1697""
","
","
","""event"",""trial"",""time""
""fullscreenenter"",""1"",""1697""
","
","","","665.0999999996275","","","13","10574","4930","&#9789;","elianto","#f73b6a7A"," "," ","1","0","[1515.0999999996275]","1","0","4","","","","","","","",""
"pit-trial","89","677209","0.0-2.0-17.1-3.1","battery-v0.2","","""event"",""trial"",""time""
""fullscreenenter"",""1"",""1697""
","
","
","""event"",""trial"",""time""
""fullscreenenter"",""1"",""1697""
","
","","","617.4000000003725","","","13","10574","4930","&#9789;","elianto","#f73b6a7A"," "," ","1","-10","[1468.9000000003725]","1","0","4","","","","","","","",""
"pit-trial","90","680440","0.0-2.0-17.1-4.1","battery-v0.2","","""event"",""trial"",""time""
""fullscreenenter"",""1"",""1697""
","
","
","""event"",""trial"",""time""
""fullscreenenter"",""1"",""1697""
","
","","","374.19999999925494","","","13","10574","4930","&#9789;","elianto","#f73b6a7A"," "," ","1","0","[1224.699999999255]","1","0","4","","","","","","","",""
"pit-trial","91","683805","0.0-2.0-17.2-0.2","battery-v0.2","","""event"",""trial"",""time""
""fullscreenenter"",""1"",""1697""
","
","
","""event"",""trial"",""time""
""fullscreenenter"",""1"",""1697""
","
","","","505","","","13","10574","4930","&#9789;","elianto","#f73b6a7A"," "," ","1","0","[1355.9000000003725]","1","0","4","","","","","","","",""
"pit-trial","92","687103","0.0-2.0-17.2-1.2","battery-v0.2","","""event"",""trial"",""time""
""fullscreenenter"",""1"",""1697""
","
","
","""event"",""trial"",""time""
""fullscreenenter"",""1"",""1697""
","
","","","436.69999999925494","","","13","10574","4930","&#9789;","elianto","#f73b6a7A"," "," ","1","0","[1288.9000000003725]","1","0","4","","","","","","","",""
"pit-trial","93","690893","0.0-2.0-17.2-2.2","battery-v0.2","","""event"",""trial"",""time""
""fullscreenenter"",""1"",""1697""
","
","
","""event"",""trial"",""time""
""fullscreenenter"",""1"",""1697""
","
","","","928.2000000011176","","","13","10574","4930","&#9789;","elianto","#f73b6a7A"," "," ","1","0","[1781.9000000003725]","1","0","4","","","","","","","",""
"pit-trial","94","694381","0.0-2.0-17.2-3.2","battery-v0.2","","""event"",""trial"",""time""
""fullscreenenter"",""1"",""1697""
","
","
","""event"",""trial"",""time""
""fullscreenenter"",""1"",""1697""
","
","","","628","","","13","10574","4930","&#9789;","elianto","#f73b6a7A"," "," ","1","-10","[1478.7999999988824]","1","0","4","","","","","","","",""
"pit-trial","95","697787","0.0-2.0-17.2-4.2","battery-v0.2","","""event"",""trial"",""time""
""fullscreenenter"",""1"",""1697""
","
","
","""event"",""trial"",""time""
""fullscreenenter"",""1"",""1697""
","
","","","544.7000000011176","","","13","10574","4930","&#9789;","elianto","#f73b6a7A"," "," ","1","0","[1397.800000000745]","1","0","4","","","","","","","",""
"pit-trial","96","701101","0.0-2.0-17.3-0.3","battery-v0.2","","""event"",""trial"",""time""
""fullscreenenter"",""1"",""1697""
","
","
","""event"",""trial"",""time""
""fullscreenenter"",""1"",""1697""
","
","","","454.7999999988824","","","13","10574","4930","&#9789;","elianto","#f73b6a7A"," "," ","1","0","[1306.4000000003725]","1","0","4","","","","","","","",""
"pit-trial","97","704387","0.0-2.0-17.3-1.3","battery-v0.2","","""event"",""trial"",""time""
""fullscreenenter"",""1"",""1697""
","
","
","""event"",""trial"",""time""
""fullscreenenter"",""1"",""1697""
","
","","","425.09999999962747","","","13","10574","4930","&#9789;","elianto","#f73b6a7A"," "," ","1","0","[1277.5999999996275]","1","0","4","","","","","","","",""
"pit-trial","98","707713","0.0-2.0-17.3-2.3","battery-v0.2","","""event"",""trial"",""time""
""fullscreenenter"",""1"",""1697""
","
","
","""event"",""trial"",""time""
""fullscreenenter"",""1"",""1697""
","
","","","467.59999999962747","","","13","10574","4930","&#9789;","elianto","#f73b6a7A"," "," ","1","0","[1318.2000000011176]","1","0","4","","","","","","","",""
"pit-trial","99","711024","0.0-2.0-17.3-3.3","battery-v0.2","","""event"",""trial"",""time""
""fullscreenenter"",""1"",""1697""
","
","
","""event"",""trial"",""time""
""fullscreenenter"",""1"",""1697""
","
","","","449.09999999962747","","","13","10574","4930","&#9789;","elianto","#f73b6a7A"," "," ","1","-10","[1301.5]","1","0","4","","","","","","","",""
"pit-trial","100","714309","0.0-2.0-17.3-4.3","battery-v0.2","","""event"",""trial"",""time""
""fullscreenenter"",""1"",""1697""
","
","
","""event"",""trial"",""time""
""fullscreenenter"",""1"",""1697""
","
","","","425.69999999925494","","","13","10574","4930","&#9789;","elianto","#f73b6a7A"," "," ","1","0","[1276.9000000003725]","1","0","4","","","","","","","",""
"call-function","101","714312","0.0-2.0-18.0","battery-v0.2","","""event"",""trial"",""time""
""fullscreenenter"",""1"",""1697""
","
","
","""event"",""trial"",""time""
""fullscreenenter"",""1"",""1697""
","
","","","","","","","","","","","","","","","","","","","","","","","","","","",""
"pit-instructions","102","789381","0.0-2.0-19.0","battery-v0.2","","""event"",""trial"",""time""
""fullscreenenter"",""1"",""1697""
","
","
","""event"",""trial"",""time""
""fullscreenenter"",""1"",""1697""
","
","","[{""page_index"":0,""viewing_time"":6466.5},{""page_index"":1,""viewing_time"":6100},{""page_index"":2,""viewing_time"":13733.200000001118},{""page_index"":3,""viewing_time"":8300.299999998882},{""page_index"":4,""viewing_time"":12017.800000000745},{""page_index"":5,""viewing_time"":8913.900000000373},{""page_index"":6,""viewing_time"":9869.299999998882},{""page_index"":7,""viewing_time"":5742.800000000745},{""page_index"":8,""viewing_time"":3926.4000000003725}]","75071","","","","","","","","","","","","","","","","","","","","","","","",""
"pit-comprehension","103","793798","0.0-2.0-20.0-0.0","battery-v0.2","","""event"",""trial"",""time""
""fullscreenenter"",""1"",""1697""
","
","
","""event"",""trial"",""time""
""fullscreenenter"",""1"",""1697""
","
","","","4410.800000000745","[""SPACE""]","0","13","10574","4930","","","","","","","","","","","","","","","","","","",""
"pit-instructions","104","796312","0.0-2.0-20.0-1.0","battery-v0.2","","""event"",""trial"",""time""
""fullscreenenter"",""1"",""1697""
","
","
","""event"",""trial"",""time""
""fullscreenenter"",""1"",""1697""
","
","","[{""page_index"":0,""viewing_time"":2489.699999999255}]","2490.2999999988824","","","","","","","","","","","","","","","","","","","","","","","",""
"pit-comprehension","105","801530","0.0-2.0-21.0-0.0","battery-v0.2","","""event"",""trial"",""time""
""fullscreenenter"",""1"",""1697""
","
","
","""event"",""trial"",""time""
""fullscreenenter"",""1"",""1697""
","
","","","5212.89999999851","[""10""]","0","13","10574","4930","","","","","","","","","","","","","","","","","","",""
"pit-instructions","106","803046","0.0-2.0-21.0-1.0","battery-v0.2","","""event"",""trial"",""time""
""fullscreenenter"",""1"",""1697""
","
","
","""event"",""trial"",""time""
""fullscreenenter"",""1"",""1697""
","
","","[{""page_index"":0,""viewing_time"":1486.7999999988824}]","1487.4000000003725","","","","","","","","","","","","","","","","","","","","","","","",""
"pit-comprehension","107","809413","0.0-2.0-22.0-0.0","battery-v0.2","","""event"",""trial"",""time""
""fullscreenenter"",""1"",""1697""
","
","
","""event"",""trial"",""time""
""fullscreenenter"",""1"",""1697""
","
","","","6363.0999999996275","[""0""]","0","13","10574","4930","","","","","","","","","","","","","","","","","","",""
"pit-instructions","108","810912","0.0-2.0-22.0-1.0","battery-v0.2","","""event"",""trial"",""time""
""fullscreenenter"",""1"",""1697""
","
","
","""event"",""trial"",""time""
""fullscreenenter"",""1"",""1697""
","
","","[{""page_index"":0,""viewing_time"":1471.5999999996275}]","1472.0999999996275","","","","","","","","","","","","","","","","","","","","","","","",""
"pit-comprehension","109","819096","0.0-2.0-23.0-0.0","battery-v0.2","","""event"",""trial"",""time""
""fullscreenenter"",""1"",""1697""
","
","
","""event"",""trial"",""time""
""fullscreenenter"",""1"",""1697""
","
","","","8179.89999999851","[""True""]","0","13","10574","4930","","","","","","","","","","","","","","","","","","",""
"pit-instructions","110","821796","0.0-2.0-23.0-1.0","battery-v0.2","","""event"",""trial"",""time""
""fullscreenenter"",""1"",""1697""
","
","
","""event"",""trial"",""time""
""fullscreenenter"",""1"",""1697""
","
","","[{""page_index"":0,""viewing_time"":2672.9000000003725}]","2673.5","","","","","","","","","","","","","","","","","","","","","","","",""
"pit-comprehension","111","829197","0.0-2.0-24.0-0.0","battery-v0.2","","""event"",""trial"",""time""
""fullscreenenter"",""1"",""1697""
","
","
","""event"",""trial"",""time""
""fullscreenenter"",""1"",""1697""
","
","","","7396.299999998882","[""True""]","0","13","10574","4930","","","","","","","","","","","","","","","","","","",""
"pit-instructions","112","831262","0.0-2.0-24.0-1.0","battery-v0.2","","""event"",""trial"",""time""
""fullscreenenter"",""1"",""1697""
","
","
","""event"",""trial"",""time""
""fullscreenenter"",""1"",""1697""
","
","","[{""page_index"":0,""viewing_time"":2037.699999999255}]","2038.2999999988824","","","","","","","","","","","","","","","","","","","","","","","",""
"pit-comprehension","113","837596","0.0-2.0-25.0-0.0","battery-v0.2","","""event"",""trial"",""time""
""fullscreenenter"",""1"",""1697""
","
","
","""event"",""trial"",""time""
""fullscreenenter"",""1"",""1697""
","
","","","6329.699999999255","[""True""]","0","13","10574","4930","","","","","","","","","","","","","","","","","","",""
"pit-instructions","114","839112","0.0-2.0-25.0-1.0","battery-v0.2","","""event"",""trial"",""time""
""fullscreenenter"",""1"",""1697""
","
","
","""event"",""trial"",""time""
""fullscreenenter"",""1"",""1697""
","
","","[{""page_index"":0,""viewing_time"":1488.1000000014901}]","1488.7000000011176","","","","","","","","","","","","","","","","","","","","","","","",""
"pit-comprehension","115","843546","0.0-2.0-26.0-0.0","battery-v0.2","","""event"",""trial"",""time""
""fullscreenenter"",""1"",""1697""
","
","
","""event"",""trial"",""time""
""fullscreenenter"",""1"",""1697""
","
","","","4429.5","[""False""]","0","13","10574","4930","","","","","","","","","","","","","","","","","","",""
"pit-instructions","116","845112","0.0-2.0-26.0-1.0","battery-v0.2","","""event"",""trial"",""time""
""fullscreenenter"",""1"",""1697""
","
","
","""event"",""trial"",""time""
""fullscreenenter"",""1"",""1697""
","
","","[{""page_index"":0,""viewing_time"":1539.7000000011176}]","1540.300000000745","","","","","","","","","","","","","","","","","","","","","","","",""
"pit-instructions","117","861345","0.0-3.0","battery-v0.2","","""event"",""trial"",""time""
""fullscreenenter"",""1"",""1697""
","
","
","""event"",""trial"",""time""
""fullscreenenter"",""1"",""1697""
","
","","[{""page_index"":0,""viewing_time"":3896.2999999988824},{""page_index"":1,""viewing_time"":5050.10000000149},{""page_index"":2,""viewing_time"":7283.5999999996275}]","16230.5","","","","","","","","","","","","","","","","","","","","","","","",""
"pit-trial","118","864650","0.0-4.0","battery-v0.2","","""event"",""trial"",""time""
""fullscreenenter"",""1"",""1697""
","
","
","""event"",""trial"",""time""
""fullscreenenter"",""1"",""1697""
","
","","","440.30000000074506","","","13","10574","4930","&#9728;","elianto","#f73b6a7A","-1"," ","0","0","[1292.5999999996275]","1","1","","","10574","1","0","4","lose","no-go","1"
"pit-trial","119","868105","0.0-5.0","battery-v0.2","","""event"",""trial"",""time""
""fullscreenenter"",""1"",""1697""
","
","
","""event"",""trial"",""time""
""fullscreenenter"",""1"",""1697""
","
","","","593.1999999992549","","","13","10574","4930","&#9733;","elianto","#3366ff99","-1"," ","0","0","[1446.800000000745]","1","1","","","10574","2","2","2","win","no-go","0"
"pit-trial","120","871328","0.0-6.0","battery-v0.2","","""event"",""trial"",""time""
""fullscreenenter"",""1"",""1697""
","
","
","""event"",""trial"",""time""
""fullscreenenter"",""1"",""1697""
","
","","","366.30000000074506","","","13","10574","4930","&#9730;","elianto","#3366ff99"," "," ","1","+10","[1216.800000000745]","1","1","","","10574","3","1","1","win","go","0"
"pit-trial","121","874897","0.0-7.0","battery-v0.2","","""event"",""trial"",""time""
""fullscreenenter"",""1"",""1697""
","
","
","""event"",""trial"",""time""
""fullscreenenter"",""1"",""1697""
","
","","","707.4000000003725","","","13","10574","4930","&#9752;","elianto","#f73b6a7A"," "," ","1","0","[1559.7000000011176]","1","1","","","10574","4","3","3","lose","go","0"
"pit-trial","122","879762","0.0-8.0","battery-v0.2","","""event"",""trial"",""time""
""fullscreenenter"",""1"",""1697""
","
","
","""event"",""trial"",""time""
""fullscreenenter"",""1"",""1697""
","
","","","-1","","","13","10574","4930","&#9728;","elianto","#f73b6a7A","-1","-1","1","0","[]","0","1","","","10574","5","0","4","lose","no-go","0"
"pit-trial","123","883311","0.0-9.0","battery-v0.2","","""event"",""trial"",""time""
""fullscreenenter"",""1"",""1697""
","
","
","""event"",""trial"",""time""
""fullscreenenter"",""1"",""1697""
","
","","","688","","","13","10574","4930","&#9730;","elianto","#3366ff99"," "," ","1","+10","[1539.8999999985099]","1","1","","","10574","6","1","1","win","go","0"
"pit-trial","124","886890","0.0-10.0","battery-v0.2","","""event"",""trial"",""time""
""fullscreenenter"",""1"",""1697""
","
","
","""event"",""trial"",""time""
""fullscreenenter"",""1"",""1697""
","
","","","719.4000000003725","","","13","10574","4930","&#9752;","elianto","#f73b6a7A"," "," ","1","-10","[1570.2000000011176]","1","1","","","10574","7","3","3","lose","go","1"
"pit-trial","125","890178","0.0-11.0","battery-v0.2","","""event"",""trial"",""time""
""fullscreenenter"",""1"",""1697""
","
","
","""event"",""trial"",""time""
""fullscreenenter"",""1"",""1697""
","
","","","428.40000000037253","","","13","10574","4930","&#9733;","elianto","#3366ff99","-1"," ","0","0","[1279.4000000003725]","1","1","","","10574","8","2","2","win","no-go","0"
"pit-trial","126","893541","0.0-12.0","battery-v0.2","","""event"",""trial"",""time""
""fullscreenenter"",""1"",""1697""
","
","
","""event"",""trial"",""time""
""fullscreenenter"",""1"",""1697""
","
","","","503.80000000074506","","","13","10574","4930","&#9730;","elianto","#3366ff99"," "," ","1","+10","[1355.300000000745]","1","1","","","10574","9","1","1","win","go","0"
"pit-trial","127","898401","0.0-13.0","battery-v0.2","","""event"",""trial"",""time""
""fullscreenenter"",""1"",""1697""
","
","
","""event"",""trial"",""time""
""fullscreenenter"",""1"",""1697""
","
","","","-1","","","13","10574","4930","&#9752;","elianto","#f73b6a7A"," ","-1","0","0","[]","0","1","","","10574","10","3","3","lose","go","1"
"pit-trial","128","901767","0.0-14.0","battery-v0.2","","""event"",""trial"",""time""
""fullscreenenter"",""1"",""1697""
","
","
","""event"",""trial"",""time""
""fullscreenenter"",""1"",""1697""
","
","","","506.3999999985099","","","13","10574","4930","&#9733;","elianto","#3366ff99","-1"," ","0","0","[1357.699999999255]","1","1","","","10574","11","2","2","win","no-go","0"
"pit-trial","129","904784","0.0-15.0","battery-v0.2","","""event"",""trial"",""time""
""fullscreenenter"",""1"",""1697""
","
","
","""event"",""trial"",""time""
""fullscreenenter"",""1"",""1697""
","
","","","156.59999999962747","","","13","10574","4930","&#9728;","elianto","#f73b6a7A","-1"," ","0","-10","[1007.8000000007451]","1","1","","","10574","12","0","4","lose","no-go","0"
"pit-trial","130","909648","0.0-16.0","battery-v0.2","","""event"",""trial"",""time""
""fullscreenenter"",""1"",""1697""
","
","
","""event"",""trial"",""time""
""fullscreenenter"",""1"",""1697""
","
","","","-1","","","13","10574","4930","&#9752;","elianto","#f73b6a7A"," ","-1","0","-10","[]","0","1","","","10574","13","3","3","lose","go","0"
"pit-trial","131","913019","0.0-17.0","battery-v0.2","","""event"",""trial"",""time""
""fullscreenenter"",""1"",""1697""
","
","
","""event"",""trial"",""time""
""fullscreenenter"",""1"",""1697""
","
","","","508","","","13","10574","4930","&#9730;","elianto","#3366ff99"," "," ","1","+10","[1361.5999999996275]","1","1","","","10574","14","1","1","win","go","0"
"pit-trial","132","916749","0.0-18.0","battery-v0.2","","""event"",""trial"",""time""
""fullscreenenter"",""1"",""1697""
","
","
","""event"",""trial"",""time""
""fullscreenenter"",""1"",""1697""
","
","","","868.6999999992549","","","13","10574","4930","&#9728;","elianto","#f73b6a7A","-1"," ","0","-10","[1720.7999999988824]","1","1","","","10574","15","0","4","lose","no-go","0"
"pit-trial","133","920386","0.0-19.0","battery-v0.2","","""event"",""trial"",""time""
""fullscreenenter"",""1"",""1697""
","
","
","""event"",""trial"",""time""
""fullscreenenter"",""1"",""1697""
","
","","","776.8000000007451","","","13","10574","4930","&#9733;","elianto","#3366ff99","-1"," ","0","0","[1628.0999999996275]","1","1","","","10574","16","2","2","win","no-go","0"
"pit-trial","134","923675","0.0-20.0","battery-v0.2","","""event"",""trial"",""time""
""fullscreenenter"",""1"",""1697""
","
","
","""event"",""trial"",""time""
""fullscreenenter"",""1"",""1697""
","
","","","430.80000000074506","","","13","10574","4930","&#9733;","elianto","#3366ff99","-1"," ","0","0","[1282.9000000003725]","1","1","","","10574","17","2","2","win","no-go","0"
"pit-trial","135","927035","0.0-21.0","battery-v0.2","","""event"",""trial"",""time""
""fullscreenenter"",""1"",""1697""
","
","
","""event"",""trial"",""time""
""fullscreenenter"",""1"",""1697""
","
","","","499.6000000014901","","","13","10574","4930","&#9730;","elianto","#3366ff99"," "," ","1","+10","[1351.300000000745]","1","1","","","10574","18","1","1","win","go","0"
"pit-trial","136","931899","0.0-22.0","battery-v0.2","","""event"",""trial"",""time""
""fullscreenenter"",""1"",""1697""
","
","
","""event"",""trial"",""time""
""fullscreenenter"",""1"",""1697""
","
","","","-1","","","13","10574","4930","&#9728;","elianto","#f73b6a7A","-1","-1","1","0","[]","0","1","","","10574","19","0","4","lose","no-go","0"
"pit-trial","137","936757","0.0-23.0","battery-v0.2","","""event"",""trial"",""time""
""fullscreenenter"",""1"",""1697""
","
","
","""event"",""trial"",""time""
""fullscreenenter"",""1"",""1697""
","
","","","-1","","","13","10574","4930","&#9752;","elianto","#f73b6a7A"," ","-1","0","0","[]","0","1","","","10574","20","3","3","lose","go","1"
"pit-instructions","138","959561","0.0-24.0","battery-v0.2","","""event"",""trial"",""time""
""fullscreenenter"",""1"",""1697""
","
","
","""event"",""trial"",""time""
""fullscreenenter"",""1"",""1697""
","
","","[{""page_index"":0,""viewing_time"":15934.200000001118},{""page_index"":1,""viewing_time"":6866.89999999851}]","22801.599999999627","","","","","","","","","","","","","","","","","","","","","","","",""
"pit-trial","139","963114","0.0-25.0","battery-v0.2","","""event"",""trial"",""time""
""fullscreenenter"",""1"",""1697""
","
","
","""event"",""trial"",""time""
""fullscreenenter"",""1"",""1697""
","
","","","691.9000000003725","","","13","10574","4930","n","elianto","#f73b6a7A","-1"," ","0","0","[1543.699999999255]","1","2","","","10574","21","0","4","lose","no-go","1"
"pit-trial","140","966576","0.0-26.0","battery-v0.2","","""event"",""trial"",""time""
""fullscreenenter"",""1"",""1697""
","
","
","""event"",""trial"",""time""
""fullscreenenter"",""1"",""1697""
","
","","","599.5999999996275","","","13","10574","4930","f","elianto","#3366ff99"," "," ","1","+10","[1452.699999999255]","1","2","","","10574","22","1","1","win","go","0"
"pit-trial","141","970140","0.0-27.0","battery-v0.2","","""event"",""trial"",""time""
""fullscreenenter"",""1"",""1697""
","
","
","""event"",""trial"",""time""
""fullscreenenter"",""1"",""1697""
","
","","","704.5999999996275","","","13","10574","4930","b","elianto","#f73b6a7A"," "," ","1","0","[1555.5999999996275]","1","2","","","10574","23","3","3","lose","go","0"
"pit-trial","142","973838","0.0-28.0","battery-v0.2","","""event"",""trial"",""time""
""fullscreenenter"",""1"",""1697""
","
","
","""event"",""trial"",""time""
""fullscreenenter"",""1"",""1697""
","
","","","837.7999999988824","","","13","10574","4930","t","elianto","#f73b6a7A","-1"," ","0","-10","[1689]","1","2","","","10574","24","2","4","lose","no-go","0"
"pit-trial","143","977218","0.0-29.0","battery-v0.2","","""event"",""trial"",""time""
""fullscreenenter"",""1"",""1697""
","
","
","""event"",""trial"",""time""
""fullscreenenter"",""1"",""1697""
","
","","","521.3000000007451","","","13","10574","4930","b","elianto","#f73b6a7A"," "," ","1","0","[1371.5]","1","2","","","10574","25","3","3","lose","go","0"
"pit-trial","144","982082","0.0-30.0","battery-v0.2","","""event"",""trial"",""time""
""fullscreenenter"",""1"",""1697""
","
","
","""event"",""trial"",""time""
""fullscreenenter"",""1"",""1697""
","
","","","-1","","","13","10574","4930","t","elianto","#f73b6a7A","-1","-1","1","0","[]","0","2","","","10574","26","2","4","lose","no-go","0"
"pit-trial","145","985440","0.0-31.0","battery-v0.2","","""event"",""trial"",""time""
""fullscreenenter"",""1"",""1697""
","
","
","""event"",""trial"",""time""
""fullscreenenter"",""1"",""1697""
","
","","","496.59999999962747","","","13","10574","4930","f","elianto","#3366ff99"," "," ","1","+10","[1349.5]","1","2","","","10574","27","1","1","win","go","0"
"pit-trial","146","988950","0.0-32.0","battery-v0.2","","""event"",""trial"",""time""
""fullscreenenter"",""1"",""1697""
","
","
","""event"",""trial"",""time""
""fullscreenenter"",""1"",""1697""
","
","","","651","","","13","10574","4930","n","elianto","#f73b6a7A","-1"," ","0","-10","[1501.699999999255]","1","2","","","10574","28","0","4","lose","no-go","0"
"pit-trial","147","993815","0.0-33.0","battery-v0.2","","""event"",""trial"",""time""
""fullscreenenter"",""1"",""1697""
","
","
","""event"",""trial"",""time""
""fullscreenenter"",""1"",""1697""
","
","","","-1","","","13","10574","4930","t","elianto","#f73b6a7A","-1","-1","1","-10","[]","0","2","","","10574","29","2","4","lose","no-go","1"
"pit-trial","148","997276","0.0-34.0","battery-v0.2","","""event"",""trial"",""time""
""fullscreenenter"",""1"",""1697""
","
","
","""event"",""trial"",""time""
""fullscreenenter"",""1"",""1697""
","
","","","599","","","13","10574","4930","b","elianto","#f73b6a7A"," "," ","1","0","[1451.5]","1","2","","","10574","30","3","3","lose","go","0"
"pit-trial","149","1000748","0.0-35.0","battery-v0.2","","""event"",""trial"",""time""
""fullscreenenter"",""1"",""1697""
","
","
","""event"",""trial"",""time""
""fullscreenenter"",""1"",""1697""
","
","","","612.1999999992549","","","13","10574","4930","f","elianto","#3366ff99"," "," ","1","+10","[1463.800000000745]","1","2","","","10574","31","1","1","win","go","0"
"pit-trial","150","1004098","0.0-36.0","battery-v0.2","","""event"",""trial"",""time""
""fullscreenenter"",""1"",""1697""
","
","
","""event"",""trial"",""time""
""fullscreenenter"",""1"",""1697""
","
","","","491.5","","","13","10574","4930","n","elianto","#f73b6a7A","-1"," ","0","-10","[1344.7000000011176]","1","2","","","10574","32","0","4","lose","no-go","0"
"pit-trial","151","1008962","0.0-37.0","battery-v0.2","","""event"",""trial"",""time""
""fullscreenenter"",""1"",""1697""
","
","
","""event"",""trial"",""time""
""fullscreenenter"",""1"",""1697""
","
","","","-1","","","13","10574","4930","t","elianto","#f73b6a7A","-1","-1","1","0","[]","0","2","","","10574","33","2","4","lose","no-go","0"
"pit-trial","152","1012446","0.0-38.0","battery-v0.2","","""event"",""trial"",""time""
""fullscreenenter"",""1"",""1697""
","
","
","""event"",""trial"",""time""
""fullscreenenter"",""1"",""1697""
","
","","","621.5999999996275","","","13","10574","4930","b","elianto","#f73b6a7A"," "," ","1","0","[1474.4000000003725]","1","2","","","10574","34","3","3","lose","go","0"
"pit-trial","153","1015928","0.0-39.0","battery-v0.2","","""event"",""trial"",""time""
""fullscreenenter"",""1"",""1697""
","
","
","""event"",""trial"",""time""
""fullscreenenter"",""1"",""1697""
","
","","","621.0999999996275","","","13","10574","4930","f","elianto","#3366ff99"," "," ","1","+10","[1472.699999999255]","1","2","","","10574","35","1","1","win","go","0"
"pit-trial","154","1020790","0.0-40.0","battery-v0.2","","""event"",""trial"",""time""
""fullscreenenter"",""1"",""1697""
","
","
","""event"",""trial"",""time""
""fullscreenenter"",""1"",""1697""
","
","","","-1","","","13","10574","4930","n","elianto","#f73b6a7A","-1","-1","1","0","[]","0","2","","","10574","36","0","4","lose","no-go","0"
"pit-trial","155","1024301","0.0-41.0","battery-v0.2","","""event"",""trial"",""time""
""fullscreenenter"",""1"",""1697""
","
","
","""event"",""trial"",""time""
""fullscreenenter"",""1"",""1697""
","
","","","650.5999999996275","","","13","10574","4930","b","elianto","#f73b6a7A"," "," ","1","0","[1501.5999999996275]","1","2","","","10574","37","3","3","lose","go","0"
"pit-trial","156","1027837","0.0-42.0","battery-v0.2","","""event"",""trial"",""time""
""fullscreenenter"",""1"",""1697""
","
","
","""event"",""trial"",""time""
""fullscreenenter"",""1"",""1697""
","
","","","676.7999999988824","","","13","10574","4930","n","elianto","#f73b6a7A","-1"," ","0","-10","[1527.8999999985099]","1","2","","","10574","38","0","4","lose","no-go","0"
"pit-trial","157","1031280","0.0-43.0","battery-v0.2","","""event"",""trial"",""time""
""fullscreenenter"",""1"",""1697""
","
","
","""event"",""trial"",""time""
""fullscreenenter"",""1"",""1697""
","
","","","582.1000000014901","","","13","10574","4930","f","elianto","#3366ff99"," "," ","1","+10","[1433.7999999988824]","1","2","","","10574","39","1","1","win","go","0"
"pit-trial","158","1036141","0.0-44.0","battery-v0.2","","""event"",""trial"",""time""
""fullscreenenter"",""1"",""1697""
","
","
","""event"",""trial"",""time""
""fullscreenenter"",""1"",""1697""
","
","","","-1","","","13","10574","4930","t","elianto","#f73b6a7A","-1","-1","1","-10","[]","0","2","","","10574","40","2","4","lose","no-go","1"
"pit-trial","159","1039605","0.0-45.0","battery-v0.2","","""event"",""trial"",""time""
""fullscreenenter"",""1"",""1697""
","
","
","""event"",""trial"",""time""
""fullscreenenter"",""1"",""1697""
","
","","","604.2999999988824","","","13","10574","4930","b","elianto","#f73b6a7A"," "," ","1","0","[1455.0999999996275]","1","2","","","10574","41","3","3","lose","go","0"
"pit-trial","160","1044470","0.0-46.0","battery-v0.2","","""event"",""trial"",""time""
""fullscreenenter"",""1"",""1697""
","
","
","""event"",""trial"",""time""
""fullscreenenter"",""1"",""1697""
","
","","","-1","","","13","10574","4930","n","elianto","#f73b6a7A","-1","-1","1","0","[]","0","2","","","10574","42","0","4","lose","no-go","0"
"pit-trial","161","1047898","0.0-47.0","battery-v0.2","","""event"",""trial"",""time""
""fullscreenenter"",""1"",""1697""
","
","
","""event"",""trial"",""time""
""fullscreenenter"",""1"",""1697""
","
","","","569.1999999992549","","","13","10574","4930","f","elianto","#3366ff99"," "," ","1","0","[1420.2999999988824]","1","2","","","10574","43","1","1","win","go","1"
"pit-trial","162","1051350","0.0-48.0","battery-v0.2","","""event"",""trial"",""time""
""fullscreenenter"",""1"",""1697""
","
","
","""event"",""trial"",""time""
""fullscreenenter"",""1"",""1697""
","
","","","591","","","13","10574","4930","t","elianto","#f73b6a7A","-1"," ","0","0","[1443.4000000003725]","1","2","","","10574","44","2","4","lose","no-go","1"
"pit-trial","163","1054920","0.0-49.0","battery-v0.2","","""event"",""trial"",""time""
""fullscreenenter"",""1"",""1697""
","
","
","""event"",""trial"",""time""
""fullscreenenter"",""1"",""1697""
","
","","","709.0999999996275","","","13","10574","4930","b","elianto","#f73b6a7A"," "," ","1","-10","[1561.5]","1","2","","","10574","45","3","3","lose","go","1"
"pit-trial","164","1058505","0.0-50.0","battery-v0.2","","""event"",""trial"",""time""
""fullscreenenter"",""1"",""1697""
","
","
","""event"",""trial"",""time""
""fullscreenenter"",""1"",""1697""
","
","","","725.1999999992549","","","13","10574","4930","c","elianto","#3366ff99","-1"," ","0","0","[1575.800000000745]","1","2","","","10574","46","4","2","win","no-go","0"
"pit-trial","165","1063370","0.0-51.0","battery-v0.2","","""event"",""trial"",""time""
""fullscreenenter"",""1"",""1697""
","
","
","""event"",""trial"",""time""
""fullscreenenter"",""1"",""1697""
","
","","","-1","","","13","10574","4930","n","elianto","#f73b6a7A","-1","-1","1","0","[]","0","2","","","10574","47","0","4","lose","no-go","0"
"pit-trial","166","1068234","0.0-52.0","battery-v0.2","","""event"",""trial"",""time""
""fullscreenenter"",""1"",""1697""
","
","
","""event"",""trial"",""time""
""fullscreenenter"",""1"",""1697""
","
","","","-1","","","13","10574","4930","t","elianto","#f73b6a7A","-1","-1","1","0","[]","0","2","","","10574","48","2","4","lose","no-go","0"
"pit-trial","167","1071672","0.0-53.0","battery-v0.2","","""event"",""trial"",""time""
""fullscreenenter"",""1"",""1697""
","
","
","""event"",""trial"",""time""
""fullscreenenter"",""1"",""1697""
","
","","","576.2999999988824","","","13","10574","4930","f","elianto","#3366ff99"," "," ","1","0","[1429.3999999985099]","1","2","","","10574","49","1","1","win","go","1"
"pit-trial","168","1076533","0.0-54.0","battery-v0.2","","""event"",""trial"",""time""
""fullscreenenter"",""1"",""1697""
","
","
","""event"",""trial"",""time""
""fullscreenenter"",""1"",""1697""
","
","","","-1","","","13","10574","4930","n","elianto","#f73b6a7A","-1","-1","1","0","[]","0","2","","","10574","50","0","4","lose","no-go","0"
"pit-trial","169","1080319","0.0-55.0","battery-v0.2","","""event"",""trial"",""time""
""fullscreenenter"",""1"",""1697""
","
","
","""event"",""trial"",""time""
""fullscreenenter"",""1"",""1697""
","
","","","923.5","","","13","10574","4930","b","elianto","#f73b6a7A"," "," ","1","0","[1776.699999999255]","1","2","","","10574","51","3","3","lose","go","0"
"pit-trial","170","1083858","0.0-56.0","battery-v0.2","","""event"",""trial"",""time""
""fullscreenenter"",""1"",""1697""
","
","
","""event"",""trial"",""time""
""fullscreenenter"",""1"",""1697""
","
","","","680.4000000003725","","","13","10574","4930","c","elianto","#3366ff99","-1"," ","0","0","[1530.9000000003725]","1","2","","","10574","52","4","2","win","no-go","0"
"pit-trial","171","1087426","0.0-57.0","battery-v0.2","","""event"",""trial"",""time""
""fullscreenenter"",""1"",""1697""
","
","
","""event"",""trial"",""time""
""fullscreenenter"",""1"",""1697""
","
","","","707.5","","","13","10574","4930","c","elianto","#3366ff99","-1"," ","0","0","[1558.5999999996275]","1","2","","","10574","53","4","2","win","no-go","0"
"pit-trial","172","1092291","0.0-58.0","battery-v0.2","","""event"",""trial"",""time""
""fullscreenenter"",""1"",""1697""
","
","
","""event"",""trial"",""time""
""fullscreenenter"",""1"",""1697""
","
","","","-1","","","13","10574","4930","t","elianto","#f73b6a7A","-1","-1","1","0","[]","0","2","","","10574","54","2","4","lose","no-go","0"
"pit-trial","173","1097156","0.0-59.0","battery-v0.2","","""event"",""trial"",""time""
""fullscreenenter"",""1"",""1697""
","
","
","""event"",""trial"",""time""
""fullscreenenter"",""1"",""1697""
","
","","","-1","","","13","10574","4930","n","elianto","#f73b6a7A","-1","-1","1","0","[]","0","2","","","10574","55","0","4","lose","no-go","0"
"pit-trial","174","1102016","0.0-60.0","battery-v0.2","","""event"",""trial"",""time""
""fullscreenenter"",""1"",""1697""
","
","
","""event"",""trial"",""time""
""fullscreenenter"",""1"",""1697""
","
","","","-1","","","13","10574","4930","f","elianto","#3366ff99"," ","-1","0","0","[]","0","2","","","10574","56","1","1","win","go","0"
"pit-trial","175","1106880","0.0-61.0","battery-v0.2","","""event"",""trial"",""time""
""fullscreenenter"",""1"",""1697""
","
","
","""event"",""trial"",""time""
""fullscreenenter"",""1"",""1697""
","
","","","-1","","","13","10574","4930","n","elianto","#f73b6a7A","-1","-1","1","0","[]","0","2","","","10574","57","0","4","lose","no-go","0"
"pit-trial","176","1110727","0.0-62.0","battery-v0.2","","""event"",""trial"",""time""
""fullscreenenter"",""1"",""1697""
","
","
","""event"",""trial"",""time""
""fullscreenenter"",""1"",""1697""
","
","","","985.2999999988824","","","13","10574","4930","b","elianto","#f73b6a7A"," "," ","1","0","[1838.4000000003725]","1","2","","","10574","58","3","3","lose","go","0"
"pit-trial","177","1114542","0.0-63.0","battery-v0.2","","""event"",""trial"",""time""
""fullscreenenter"",""1"",""1697""
","
","
","""event"",""trial"",""time""
""fullscreenenter"",""1"",""1697""
","
","","","955.2000000011176","","","13","10574","4930","f","elianto","#3366ff99"," "," ","1","+10","[1807.3999999985099]","1","2","","","10574","59","1","1","win","go","0"
"pit-trial","178","1118067","0.0-64.0","battery-v0.2","","""event"",""trial"",""time""
""fullscreenenter"",""1"",""1697""
","
","
","""event"",""trial"",""time""
""fullscreenenter"",""1"",""1697""
","
","","","671","","","13","10574","4930","c","elianto","#3366ff99","-1"," ","0","0","[1521]","1","2","","","10574","60","4","2","win","no-go","0"
"pit-trial","179","1122084","0.0-65.0","battery-v0.2","","""event"",""trial"",""time""
""fullscreenenter"",""1"",""1697""
","
","
","""event"",""trial"",""time""
""fullscreenenter"",""1"",""1697""
","
","","","1155","","","13","10574","4930","f","elianto","#3366ff99"," "," ","1","0","[2008.0999999996275]","1","2","","","10574","61","1","1","win","go","1"
"pit-trial","180","1126182","0.0-66.0","battery-v0.2","","""event"",""trial"",""time""
""fullscreenenter"",""1"",""1697""
","
","
","""event"",""trial"",""time""
""fullscreenenter"",""1"",""1697""
","
","","","1237.5","","","13","10574","4930","c","elianto","#3366ff99","-1"," ","0","0","[2090.5]","1","2","","","10574","62","4","2","win","no-go","0"
"pit-trial","181","1129821","0.0-67.0","battery-v0.2","","""event"",""trial"",""time""
""fullscreenenter"",""1"",""1697""
","
","
","""event"",""trial"",""time""
""fullscreenenter"",""1"",""1697""
","
","","","781","","","13","10574","4930","t","elianto","#f73b6a7A","-1"," ","0","0","[1632.6000000014901]","1","2","","","10574","63","2","4","lose","no-go","1"
"pit-trial","182","1133718","0.0-68.0","battery-v0.2","","""event"",""trial"",""time""
""fullscreenenter"",""1"",""1697""
","
","
","""event"",""trial"",""time""
""fullscreenenter"",""1"",""1697""
","
","","","1038.2999999988824","","","13","10574","4930","b","elianto","#f73b6a7A"," "," ","1","0","[1888.800000000745]","1","2","","","10574","64","3","3","lose","go","0"
"pit-trial","183","1137351","0.0-69.0","battery-v0.2","","""event"",""trial"",""time""
""fullscreenenter"",""1"",""1697""
","
","
","""event"",""trial"",""time""
""fullscreenenter"",""1"",""1697""
","
","","","771.9000000003725","","","13","10574","4930","f","elianto","#3366ff99"," "," ","1","+10","[1623.5]","1","2","","","10574","65","1","1","win","go","0"
"pit-trial","184","1142210","0.0-70.0","battery-v0.2","","""event"",""trial"",""time""
""fullscreenenter"",""1"",""1697""
","
","
","""event"",""trial"",""time""
""fullscreenenter"",""1"",""1697""
","
","","","-1","","","13","10574","4930","t","elianto","#f73b6a7A","-1","-1","1","-10","[]","0","2","","","10574","66","2","4","lose","no-go","1"
"pit-trial","185","1147074","0.0-71.0","battery-v0.2","","""event"",""trial"",""time""
""fullscreenenter"",""1"",""1697""
","
","
","""event"",""trial"",""time""
""fullscreenenter"",""1"",""1697""
","
","","","-1","","","13","10574","4930","c","elianto","#3366ff99","-1","-1","1","+10","[]","0","2","","","10574","67","4","2","win","no-go","0"
"pit-trial","186","1151263","0.0-72.0","battery-v0.2","","""event"",""trial"",""time""
""fullscreenenter"",""1"",""1697""
","
","
","""event"",""trial"",""time""
""fullscreenenter"",""1"",""1697""
","
","","","1327.2000000011176","","","13","10574","4930","b","elianto","#f73b6a7A"," "," ","1","0","[2179]","1","2","","","10574","68","3","3","lose","go","0"
"pit-trial","187","1155305","0.0-73.0","battery-v0.2","","""event"",""trial"",""time""
""fullscreenenter"",""1"",""1697""
","
","
","""event"",""trial"",""time""
""fullscreenenter"",""1"",""1697""
","
","","","1181.5999999996275","","","13","10574","4930","b","elianto","#f73b6a7A"," "," ","1","-10","[2033.5999999996275]","1","2","","","10574","69","3","3","lose","go","1"
"pit-trial","188","1160164","0.0-74.0","battery-v0.2","","""event"",""trial"",""time""
""fullscreenenter"",""1"",""1697""
","
","
","""event"",""trial"",""time""
""fullscreenenter"",""1"",""1697""
","
","","","-1","","","13","10574","4930","c","elianto","#3366ff99","-1","-1","1","+10","[]","0","2","","","10574","70","4","2","win","no-go","0"
"pit-trial","189","1163917","0.0-75.0","battery-v0.2","","""event"",""trial"",""time""
""fullscreenenter"",""1"",""1697""
","
","
","""event"",""trial"",""time""
""fullscreenenter"",""1"",""1697""
","
","","","895.5","","","13","10574","4930","f","elianto","#3366ff99"," "," ","1","+10","[1748.0999999996275]","1","2","","","10574","71","1","1","win","go","0"
"pit-trial","190","1168060","0.0-76.0","battery-v0.2","","""event"",""trial"",""time""
""fullscreenenter"",""1"",""1697""
","
","
","""event"",""trial"",""time""
""fullscreenenter"",""1"",""1697""
","
","","","1285.199999999255","","","13","10574","4930","z","elianto","#3366ff99"," "," ","1","+10","[2135.7999999988824]","1","2","","","10574","72","5","1","win","go","0"
"pit-trial","191","1171977","0.0-77.0","battery-v0.2","","""event"",""trial"",""time""
""fullscreenenter"",""1"",""1697""
","
","
","""event"",""trial"",""time""
""fullscreenenter"",""1"",""1697""
","
","","","1054.5","","","13","10574","4930","z","elianto","#3366ff99"," "," ","1","+10","[1907.7000000011176]","1","2","","","10574","73","5","1","win","go","0"
"pit-trial","192","1176839","0.0-78.0","battery-v0.2","","""event"",""trial"",""time""
""fullscreenenter"",""1"",""1697""
","
","
","""event"",""trial"",""time""
""fullscreenenter"",""1"",""1697""
","
","","","-1","","","13","10574","4930","b","elianto","#f73b6a7A"," ","-1","0","-10","[]","0","2","","","10574","74","3","3","lose","go","0"
"pit-trial","193","1180453","0.0-79.0","battery-v0.2","","""event"",""trial"",""time""
""fullscreenenter"",""1"",""1697""
","
","
","""event"",""trial"",""time""
""fullscreenenter"",""1"",""1697""
","
","","","752.7000000011176","","","13","10574","4930","f","elianto","#3366ff99"," "," ","1","+10","[1604.2999999988824]","1","2","","","10574","75","1","1","win","go","0"
"pit-trial","194","1185312","0.0-80.0","battery-v0.2","","""event"",""trial"",""time""
""fullscreenenter"",""1"",""1697""
","
","
","""event"",""trial"",""time""
""fullscreenenter"",""1"",""1697""
","
","","","-1","","","13","10574","4930","c","elianto","#3366ff99","-1","-1","1","0","[]","0","2","","","10574","76","4","2","win","no-go","1"
"pit-trial","195","1190173","0.0-81.0","battery-v0.2","","""event"",""trial"",""time""
""fullscreenenter"",""1"",""1697""
","
","
","""event"",""trial"",""time""
""fullscreenenter"",""1"",""1697""
","
","","","-1","","","13","10574","4930","c","elianto","#3366ff99","-1","-1","1","+10","[]","0","2","","","10574","77","4","2","win","no-go","0"
"pit-trial","196","1194113","0.0-82.0","battery-v0.2","","""event"",""trial"",""time""
""fullscreenenter"",""1"",""1697""
","
","
","""event"",""trial"",""time""
""fullscreenenter"",""1"",""1697""
","
","","","1079.2000000011176","","","13","10574","4930","b","elianto","#f73b6a7A"," "," ","1","0","[1930.1000000014901]","1","2","","","10574","78","3","3","lose","go","0"
"pit-trial","197","1197701","0.0-83.0","battery-v0.2","","""event"",""trial"",""time""
""fullscreenenter"",""1"",""1697""
","
","
","""event"",""trial"",""time""
""fullscreenenter"",""1"",""1697""
","
","","","727.7000000011176","","","13","10574","4930","z","elianto","#3366ff99"," "," ","1","+10","[1580]","1","2","","","10574","79","5","1","win","go","0"
"pit-trial","198","1201380","0.0-84.0","battery-v0.2","","""event"",""trial"",""time""
""fullscreenenter"",""1"",""1697""
","
","
","""event"",""trial"",""time""
""fullscreenenter"",""1"",""1697""
","
","","","820.8000000007451","","","13","10574","4930","h","elianto","#f73b6a7A","-1"," ","0","-10","[1671.5999999996275]","1","2","","","10574","80","6","4","lose","no-go","0"
"pit-trial","199","1205010","0.0-85.0","battery-v0.2","","""event"",""trial"",""time""
""fullscreenenter"",""1"",""1697""
","
","
","""event"",""trial"",""time""
""fullscreenenter"",""1"",""1697""
","
","","","768.0999999996275","","","13","10574","4930","y","elianto","#f73b6a7A"," "," ","1","0","[1620.699999999255]","1","2","","","10574","81","7","3","lose","go","0"
"pit-trial","200","1208917","0.0-86.0","battery-v0.2","","""event"",""trial"",""time""
""fullscreenenter"",""1"",""1697""
","
","
","""event"",""trial"",""time""
""fullscreenenter"",""1"",""1697""
","
","","","1050.5","","","13","10574","4930","z","elianto","#3366ff99"," "," ","1","+10","[1903.300000000745]","1","2","","","10574","82","5","1","win","go","0"
"pit-trial","201","1212997","0.0-87.0","battery-v0.2","","""event"",""trial"",""time""
""fullscreenenter"",""1"",""1697""
","
","
","""event"",""trial"",""time""
""fullscreenenter"",""1"",""1697""
","
","","","1220.0999999996275","","","13","10574","4930","h","elianto","#f73b6a7A","-1"," ","0","-10","[2071.5]","1","2","","","10574","83","6","4","lose","no-go","0"
"pit-trial","202","1217862","0.0-88.0","battery-v0.2","","""event"",""trial"",""time""
""fullscreenenter"",""1"",""1697""
","
","
","""event"",""trial"",""time""
""fullscreenenter"",""1"",""1697""
","
","","","-1","","","13","10574","4930","c","elianto","#3366ff99","-1","-1","1","+10","[]","0","2","","","10574","84","4","2","win","no-go","0"
"pit-trial","203","1222144","0.0-89.0","battery-v0.2","","""event"",""trial"",""time""
""fullscreenenter"",""1"",""1697""
","
","
","""event"",""trial"",""time""
""fullscreenenter"",""1"",""1697""
","
","","","1422","","","13","10574","4930","y","elianto","#f73b6a7A"," "," ","1","0","[2274]","1","2","","","10574","85","7","3","lose","go","0"
"pit-trial","204","1225743","0.0-90.0","battery-v0.2","","""event"",""trial"",""time""
""fullscreenenter"",""1"",""1697""
","
","
","""event"",""trial"",""time""
""fullscreenenter"",""1"",""1697""
","
","","","738.4000000003725","","","13","10574","4930","c","elianto","#3366ff99","-1"," ","0","0","[1590.7000000011176]","1","2","","","10574","86","4","2","win","no-go","0"
"pit-trial","205","1229523","0.0-91.0","battery-v0.2","","""event"",""trial"",""time""
""fullscreenenter"",""1"",""1697""
","
","
","""event"",""trial"",""time""
""fullscreenenter"",""1"",""1697""
","
","","","918.6999999992549","","","13","10574","4930","h","elianto","#f73b6a7A","-1"," ","0","-10","[1770.699999999255]","1","2","","","10574","87","6","4","lose","no-go","0"
"pit-trial","206","1232988","0.0-92.0","battery-v0.2","","""event"",""trial"",""time""
""fullscreenenter"",""1"",""1697""
","
","
","""event"",""trial"",""time""
""fullscreenenter"",""1"",""1697""
","
","","","608.1999999992549","","","13","10574","4930","z","elianto","#3366ff99"," "," ","1","+10","[1459.300000000745]","1","2","","","10574","88","5","1","win","go","0"
"pit-trial","207","1236854","0.0-93.0","battery-v0.2","","""event"",""trial"",""time""
""fullscreenenter"",""1"",""1697""
","
","
","""event"",""trial"",""time""
""fullscreenenter"",""1"",""1697""
","
","","","1006.1000000014901","","","13","10574","4930","z","elianto","#3366ff99"," "," ","1","0","[1856.7999999988824]","1","2","","","10574","89","5","1","win","go","1"
"pit-trial","208","1240813","0.0-94.0","battery-v0.2","","""event"",""trial"",""time""
""fullscreenenter"",""1"",""1697""
","
","
","""event"",""trial"",""time""
""fullscreenenter"",""1"",""1697""
","
","","","1099","","","13","10574","4930","y","elianto","#f73b6a7A"," "," ","1","0","[1949.9000000003725]","1","2","","","10574","90","7","3","lose","go","0"
"pit-trial","209","1245677","0.0-95.0","battery-v0.2","","""event"",""trial"",""time""
""fullscreenenter"",""1"",""1697""
","
","
","""event"",""trial"",""time""
""fullscreenenter"",""1"",""1697""
","
","","","-1","","","13","10574","4930","h","elianto","#f73b6a7A","-1","-1","1","-10","[]","0","2","","","10574","91","6","4","lose","no-go","1"
"pit-trial","210","1249298","0.0-96.0","battery-v0.2","","""event"",""trial"",""time""
""fullscreenenter"",""1"",""1697""
","
","
","""event"",""trial"",""time""
""fullscreenenter"",""1"",""1697""
","
","","","761","","","13","10574","4930","c","elianto","#3366ff99","-1"," ","0","+10","[1612.2999999988824]","1","2","","","10574","92","4","2","win","no-go","1"
"pit-trial","211","1252816","0.0-97.0","battery-v0.2","","""event"",""trial"",""time""
""fullscreenenter"",""1"",""1697""
","
","
","""event"",""trial"",""time""
""fullscreenenter"",""1"",""1697""
","
","","","656.1999999992549","","","13","10574","4930","z","elianto","#3366ff99"," "," ","1","+10","[1509.5999999996275]","1","2","","","10574","93","5","1","win","go","0"
"pit-trial","212","1257681","0.0-98.0","battery-v0.2","","""event"",""trial"",""time""
""fullscreenenter"",""1"",""1697""
","
","
","""event"",""trial"",""time""
""fullscreenenter"",""1"",""1697""
","
","","","-1","","","13","10574","4930","y","elianto","#f73b6a7A"," ","-1","0","-10","[]","0","2","","","10574","94","7","3","lose","go","0"
"pit-trial","213","1261649","0.0-99.0","battery-v0.2","","""event"",""trial"",""time""
""fullscreenenter"",""1"",""1697""
","
","
","""event"",""trial"",""time""
""fullscreenenter"",""1"",""1697""
","
","","","1105.9000000003725","","","13","10574","4930","h","elianto","#f73b6a7A","-1"," ","0","-10","[1959.5999999996275]","1","2","","","10574","95","6","4","lose","no-go","0"
"pit-trial","214","1265175","0.0-100.0","battery-v0.2","","""event"",""trial"",""time""
""fullscreenenter"",""1"",""1697""
","
","
","""event"",""trial"",""time""
""fullscreenenter"",""1"",""1697""
","
","","","664.7000000011176","","","13","10574","4930","r","elianto","#3366ff99","-1"," ","0","0","[1517.2000000011176]","1","2","","","10574","96","8","2","win","no-go","0"
"pit-trial","215","1269029","0.0-101.0","battery-v0.2","","""event"",""trial"",""time""
""fullscreenenter"",""1"",""1697""
","
","
","""event"",""trial"",""time""
""fullscreenenter"",""1"",""1697""
","
","","","998.1000000014901","","","13","10574","4930","y","elianto","#f73b6a7A"," "," ","1","0","[1849.2999999988824]","1","2","","","10574","97","7","3","lose","go","0"
"pit-trial","216","1272539","0.0-102.0","battery-v0.2","","""event"",""trial"",""time""
""fullscreenenter"",""1"",""1697""
","
","
","""event"",""trial"",""time""
""fullscreenenter"",""1"",""1697""
","
","","","648.5","","","13","10574","4930","r","elianto","#3366ff99","-1"," ","0","0","[1501.0999999996275]","1","2","","","10574","98","8","2","win","no-go","0"
"pit-trial","217","1276085","0.0-103.0","battery-v0.2","","""event"",""trial"",""time""
""fullscreenenter"",""1"",""1697""
","
","
","""event"",""trial"",""time""
""fullscreenenter"",""1"",""1697""
","
","","","685.8999999985099","","","13","10574","4930","z","elianto","#3366ff99"," "," ","1","0","[1537.2999999988824]","1","2","","","10574","99","5","1","win","go","1"
"pit-trial","218","1279946","0.0-104.0","battery-v0.2","","""event"",""trial"",""time""
""fullscreenenter"",""1"",""1697""
","
","
","""event"",""trial"",""time""
""fullscreenenter"",""1"",""1697""
","
","","","1001.9000000003725","","","13","10574","4930","h","elianto","#f73b6a7A","-1"," ","0","-10","[1852.199999999255]","1","2","","","10574","100","6","4","lose","no-go","0"
"pit-trial","219","1284810","0.0-105.0","battery-v0.2","","""event"",""trial"",""time""
""fullscreenenter"",""1"",""1697""
","
","
","""event"",""trial"",""time""
""fullscreenenter"",""1"",""1697""
","
","","","-1","","","13","10574","4930","h","elianto","#f73b6a7A","-1","-1","1","0","[]","0","2","","","10574","101","6","4","lose","no-go","0"
"pit-trial","220","1288450","0.0-106.0","battery-v0.2","","""event"",""trial"",""time""
""fullscreenenter"",""1"",""1697""
","
","
","""event"",""trial"",""time""
""fullscreenenter"",""1"",""1697""
","
","","","783","","","13","10574","4930","m","elianto","#3366ff99","-1"," ","0","0","[1633.5999999996275]","1","2","","","10574","102","9","2","win","no-go","0"
"pit-trial","221","1291964","0.0-107.0","battery-v0.2","","""event"",""trial"",""time""
""fullscreenenter"",""1"",""1697""
","
","
","""event"",""trial"",""time""
""fullscreenenter"",""1"",""1697""
","
","","","653.5","","","13","10574","4930","z","elianto","#3366ff99"," "," ","1","+10","[1505]","1","2","","","10574","103","5","1","win","go","0"
"pit-trial","222","1295650","0.0-108.0","battery-v0.2","","""event"",""trial"",""time""
""fullscreenenter"",""1"",""1697""
","
","
","""event"",""trial"",""time""
""fullscreenenter"",""1"",""1697""
","
","","","828.4000000003725","","","13","10574","4930","r","elianto","#3366ff99","-1"," ","0","0","[1680.5999999996275]","1","2","","","10574","104","8","2","win","no-go","0"
"pit-trial","223","1300513","0.0-109.0","battery-v0.2","","""event"",""trial"",""time""
""fullscreenenter"",""1"",""1697""
","
","
","""event"",""trial"",""time""
""fullscreenenter"",""1"",""1697""
","
","","","-1","","","13","10574","4930","r","elianto","#3366ff99","-1","-1","1","+10","[]","0","2","","","10574","105","8","2","win","no-go","0"
"pit-trial","224","1304245","0.0-110.0","battery-v0.2","","""event"",""trial"",""time""
""fullscreenenter"",""1"",""1697""
","
","
","""event"",""trial"",""time""
""fullscreenenter"",""1"",""1697""
","
","","","870","","","13","10574","4930","m","elianto","#3366ff99","-1"," ","0","+10","[1723.0999999996275]","1","2","","","10574","106","9","2","win","no-go","1"
"pit-trial","225","1309105","0.0-111.0","battery-v0.2","","""event"",""trial"",""time""
""fullscreenenter"",""1"",""1697""
","
","
","""event"",""trial"",""time""
""fullscreenenter"",""1"",""1697""
","
","","","-1","","","13","10574","4930","z","elianto","#3366ff99"," ","-1","0","0","[]","0","2","","","10574","107","5","1","win","go","0"
"pit-trial","226","1313969","0.0-112.0","battery-v0.2","","""event"",""trial"",""time""
""fullscreenenter"",""1"",""1697""
","
","
","""event"",""trial"",""time""
""fullscreenenter"",""1"",""1697""
","
","","","-1","","","13","10574","4930","h","elianto","#f73b6a7A","-1","-1","1","-10","[]","0","2","","","10574","108","6","4","lose","no-go","1"
"pit-trial","227","1317471","0.0-113.0","battery-v0.2","","""event"",""trial"",""time""
""fullscreenenter"",""1"",""1697""
","
","
","""event"",""trial"",""time""
""fullscreenenter"",""1"",""1697""
","
","","","641.7999999988824","","","13","10574","4930","r","elianto","#3366ff99","-1"," ","0","0","[1492.2999999988824]","1","2","","","10574","109","8","2","win","no-go","0"
"pit-trial","228","1321379","0.0-114.0","battery-v0.2","","""event"",""trial"",""time""
""fullscreenenter"",""1"",""1697""
","
","
","""event"",""trial"",""time""
""fullscreenenter"",""1"",""1697""
","
","","","1047.2000000011176","","","13","10574","4930","h","elianto","#f73b6a7A","-1"," ","0","-10","[1899.0999999996275]","1","2","","","10574","110","6","4","lose","no-go","0"
"pit-trial","229","1326241","0.0-115.0","battery-v0.2","","""event"",""trial"",""time""
""fullscreenenter"",""1"",""1697""
","
","
","""event"",""trial"",""time""
""fullscreenenter"",""1"",""1697""
","
","","","-1","","","13","10574","4930","z","elianto","#3366ff99"," ","-1","0","+10","[]","0","2","","","10574","111","5","1","win","go","1"
"pit-trial","230","1329893","0.0-116.0","battery-v0.2","","""event"",""trial"",""time""
""fullscreenenter"",""1"",""1697""
","
","
","""event"",""trial"",""time""
""fullscreenenter"",""1"",""1697""
","
","","","792.0999999996275","","","13","10574","4930","m","elianto","#3366ff99","-1"," ","0","0","[1643]","1","2","","","10574","112","9","2","win","no-go","0"
"pit-trial","231","1334753","0.0-117.0","battery-v0.2","","""event"",""trial"",""time""
""fullscreenenter"",""1"",""1697""
","
","
","""event"",""trial"",""time""
""fullscreenenter"",""1"",""1697""
","
","","","-1","","","13","10574","4930","z","elianto","#3366ff99"," ","-1","0","0","[]","0","2","","","10574","113","5","1","win","go","0"
"pit-trial","232","1338384","0.0-118.0","battery-v0.2","","""event"",""trial"",""time""
""fullscreenenter"",""1"",""1697""
","
","
","""event"",""trial"",""time""
""fullscreenenter"",""1"",""1697""
","
","","","772.2000000011176","","","13","10574","4930","y","elianto","#f73b6a7A"," "," ","1","0","[1622.199999999255]","1","2","","","10574","114","7","3","lose","go","0"
"pit-trial","233","1341810","0.0-119.0","battery-v0.2","","""event"",""trial"",""time""
""fullscreenenter"",""1"",""1697""
","
","
","""event"",""trial"",""time""
""fullscreenenter"",""1"",""1697""
","
","","","563.3000000007451","","","13","10574","4930","r","elianto","#3366ff99","-1"," ","0","0","[1416.300000000745]","1","2","","","10574","115","8","2","win","no-go","0"
"pit-trial","234","1345511","0.0-120.0","battery-v0.2","","""event"",""trial"",""time""
""fullscreenenter"",""1"",""1697""
","
","
","""event"",""trial"",""time""
""fullscreenenter"",""1"",""1697""
","
","","","840.3000000007451","","","13","10574","4930","m","elianto","#3366ff99","-1"," ","0","0","[1692.2000000011176]","1","2","","","10574","116","9","2","win","no-go","0"
"pit-trial","235","1350374","0.0-121.0","battery-v0.2","","""event"",""trial"",""time""
""fullscreenenter"",""1"",""1697""
","
","
","""event"",""trial"",""time""
""fullscreenenter"",""1"",""1697""
","
","","","-1","","","13","10574","4930","z","elianto","#3366ff99"," ","-1","0","0","[]","0","2","","","10574","117","5","1","win","go","0"
"pit-trial","236","1353877","0.0-122.0","battery-v0.2","","""event"",""trial"",""time""
""fullscreenenter"",""1"",""1697""
","
","
","""event"",""trial"",""time""
""fullscreenenter"",""1"",""1697""
","
","","","645.1999999992549","","","13","10574","4930","m","elianto","#3366ff99","-1"," ","0","+10","[1497.5999999996275]","1","2","","","10574","118","9","2","win","no-go","1"
"pit-trial","237","1357833","0.0-123.0","battery-v0.2","","""event"",""trial"",""time""
""fullscreenenter"",""1"",""1697""
","
","
","""event"",""trial"",""time""
""fullscreenenter"",""1"",""1697""
","
","","","1094.800000000745","","","13","10574","4930","r","elianto","#3366ff99","-1"," ","0","0","[1947.2000000011176]","1","2","","","10574","119","8","2","win","no-go","0"
"pit-trial","238","1362698","0.0-124.0","battery-v0.2","","""event"",""trial"",""time""
""fullscreenenter"",""1"",""1697""
","
","
","""event"",""trial"",""time""
""fullscreenenter"",""1"",""1697""
","
","","","-1","","","13","10574","4930","h","elianto","#f73b6a7A","-1","-1","1","0","[]","0","2","","","10574","120","6","4","lose","no-go","0"
"pit-trial","239","1366434","0.0-125.0","battery-v0.2","","""event"",""trial"",""time""
""fullscreenenter"",""1"",""1697""
","
","
","""event"",""trial"",""time""
""fullscreenenter"",""1"",""1697""
","
","","","874.6999999992549","","","13","10574","4930","r","elianto","#3366ff99","-1"," ","0","0","[1726.5999999996275]","1","2","","","10574","121","8","2","win","no-go","0"
"pit-trial","240","1370053","0.0-126.0","battery-v0.2","","""event"",""trial"",""time""
""fullscreenenter"",""1"",""1697""
","
","
","""event"",""trial"",""time""
""fullscreenenter"",""1"",""1697""
","
","","","763","","","13","10574","4930","y","elianto","#f73b6a7A"," "," ","1","0","[1613.5]","1","2","","","10574","122","7","3","lose","go","0"
"pit-trial","241","1373299","0.0-127.0","battery-v0.2","","""event"",""trial"",""time""
""fullscreenenter"",""1"",""1697""
","
","
","""event"",""trial"",""time""
""fullscreenenter"",""1"",""1697""
","
","","","385.90000000037253","","","13","10574","4930","m","elianto","#3366ff99","-1"," ","0","0","[1236.9000000003725]","1","2","","","10574","123","9","2","win","no-go","0"
"pit-trial","242","1376819","0.0-128.0","battery-v0.2","","""event"",""trial"",""time""
""fullscreenenter"",""1"",""1697""
","
","
","""event"",""trial"",""time""
""fullscreenenter"",""1"",""1697""
","
","","","660.2999999988824","","","13","10574","4930","z","elianto","#3366ff99"," "," ","1","0","[1511.199999999255]","1","2","","","10574","124","5","1","win","go","1"
"pit-trial","243","1380452","0.0-129.0","battery-v0.2","","""event"",""trial"",""time""
""fullscreenenter"",""1"",""1697""
","
","
","""event"",""trial"",""time""
""fullscreenenter"",""1"",""1697""
","
","","","773.9000000003725","","","13","10574","4930","y","elianto","#f73b6a7A"," "," ","1","0","[1624.2000000011176]","1","2","","","10574","125","7","3","lose","go","0"
"pit-trial","244","1385215","0.0-130.0","battery-v0.2","","""event"",""trial"",""time""
""fullscreenenter"",""1"",""1697""
","
","
","""event"",""trial"",""time""
""fullscreenenter"",""1"",""1697""
","
","","","1908.7999999988824","","","13","10574","4930","h","elianto","#f73b6a7A","-1"," ","0","0","[2759]","1","2","","","10574","126","6","4","lose","no-go","1"
"pit-trial","245","1388795","0.0-131.0","battery-v0.2","","""event"",""trial"",""time""
""fullscreenenter"",""1"",""1697""
","
","
","""event"",""trial"",""time""
""fullscreenenter"",""1"",""1697""
","
","","","718","","","13","10574","4930","r","elianto","#3366ff99","-1"," ","0","0","[1570.5]","1","2","","","10574","127","8","2","win","no-go","0"
"pit-trial","246","1392343","0.0-132.0","battery-v0.2","","""event"",""trial"",""time""
""fullscreenenter"",""1"",""1697""
","
","
","""event"",""trial"",""time""
""fullscreenenter"",""1"",""1697""
","
","","","688.5","","","13","10574","4930","m","elianto","#3366ff99","-1"," ","0","0","[1539]","1","2","","","10574","128","9","2","win","no-go","0"
"pit-trial","247","1395828","0.0-133.0","battery-v0.2","","""event"",""trial"",""time""
""fullscreenenter"",""1"",""1697""
","
","
","""event"",""trial"",""time""
""fullscreenenter"",""1"",""1697""
","
","","","626.4000000003725","","","13","10574","4930","h","elianto","#f73b6a7A","-1"," ","0","-10","[1478.6000000014901]","1","2","","","10574","129","6","4","lose","no-go","0"
"pit-trial","248","1399490","0.0-134.0","battery-v0.2","","""event"",""trial"",""time""
""fullscreenenter"",""1"",""1697""
","
","
","""event"",""trial"",""time""
""fullscreenenter"",""1"",""1697""
","
","","","805.4000000003725","","","13","10574","4930","m","elianto","#3366ff99","-1"," ","0","+10","[1658.2000000011176]","1","2","","","10574","130","9","2","win","no-go","1"
"pit-trial","249","1404108","0.0-135.0","battery-v0.2","","""event"",""trial"",""time""
""fullscreenenter"",""1"",""1697""
","
","
","""event"",""trial"",""time""
""fullscreenenter"",""1"",""1697""
","
","","","1759.4000000003725","","","13","10574","4930","r","elianto","#3366ff99","-1"," ","0","0","[2610]","1","2","","","10574","131","8","2","win","no-go","0"
"pit-trial","250","1408966","0.0-136.0","battery-v0.2","","""event"",""trial"",""time""
""fullscreenenter"",""1"",""1697""
","
","
","""event"",""trial"",""time""
""fullscreenenter"",""1"",""1697""
","
","","","-1","","","13","10574","4930","y","elianto","#f73b6a7A"," ","-1","0","-10","[]","0","2","","","10574","132","7","3","lose","go","0"
"pit-trial","251","1412846","0.0-137.0","battery-v0.2","","""event"",""trial"",""time""
""fullscreenenter"",""1"",""1697""
","
","
","""event"",""trial"",""time""
""fullscreenenter"",""1"",""1697""
","
","","","1024.9000000003725","","","13","10574","4930","r","elianto","#3366ff99","-1"," ","0","0","[1875.9000000003725]","1","2","","","10574","133","8","2","win","no-go","0"
"pit-trial","252","1416986","0.0-138.0","battery-v0.2","","""event"",""trial"",""time""
""fullscreenenter"",""1"",""1697""
","
","
","""event"",""trial"",""time""
""fullscreenenter"",""1"",""1697""
","
","","","1278.6000000014901","","","13","10574","4930","h","elianto","#f73b6a7A","-1"," ","0","-10","[2132.2999999988824]","1","2","","","10574","134","6","4","lose","no-go","0"
"pit-trial","253","1420377","0.0-139.0","battery-v0.2","","""event"",""trial"",""time""
""fullscreenenter"",""1"",""1697""
","
","
","""event"",""trial"",""time""
""fullscreenenter"",""1"",""1697""
","
","","","531.5","","","13","10574","4930","m","elianto","#3366ff99","-1"," ","0","+10","[1382.7999999988824]","1","2","","","10574","135","9","2","win","no-go","1"
"pit-trial","254","1424008","0.0-140.0","battery-v0.2","","""event"",""trial"",""time""
""fullscreenenter"",""1"",""1697""
","
","
","""event"",""trial"",""time""
""fullscreenenter"",""1"",""1697""
","
","","","768.5999999996275","","","13","10574","4930","y","elianto","#f73b6a7A"," "," ","1","0","[1621.7999999988824]","1","2","","","10574","136","7","3","lose","go","0"
"pit-trial","255","1427316","0.0-141.0","battery-v0.2","","""event"",""trial"",""time""
""fullscreenenter"",""1"",""1697""
","
","
","""event"",""trial"",""time""
""fullscreenenter"",""1"",""1697""
","
","","","447.5","","","13","10574","4930","y","elianto","#f73b6a7A"," "," ","1","-10","[1299.199999999255]","1","2","","","10574","137","7","3","lose","go","1"
"pit-trial","256","1431077","0.0-142.0","battery-v0.2","","""event"",""trial"",""time""
""fullscreenenter"",""1"",""1697""
","
","
","""event"",""trial"",""time""
""fullscreenenter"",""1"",""1697""
","
","","","901.3999999985099","","","13","10574","4930","h","elianto","#f73b6a7A","-1"," ","0","-10","[1752]","1","2","","","10574","138","6","4","lose","no-go","0"
"pit-trial","257","1434504","0.0-143.0","battery-v0.2","","""event"",""trial"",""time""
""fullscreenenter"",""1"",""1697""
","
","
","""event"",""trial"",""time""
""fullscreenenter"",""1"",""1697""
","
","","","565.3999999985099","","","13","10574","4930","m","elianto","#3366ff99","-1"," ","0","0","[1418]","1","2","","","10574","139","9","2","win","no-go","0"
"pit-trial","258","1437970","0.0-144.0","battery-v0.2","","""event"",""trial"",""time""
""fullscreenenter"",""1"",""1697""
","
","
","""event"",""trial"",""time""
""fullscreenenter"",""1"",""1697""
","
","","","610.2999999988824","","","13","10574","4930","r","elianto","#3366ff99","-1"," ","0","+10","[1461.4000000003725]","1","2","","","10574","140","8","2","win","no-go","1"
"pit-instructions","259","1457457","0.0-145.0","battery-v0.2","","""event"",""trial"",""time""
""fullscreenenter"",""1"",""1697""
","
","
","""event"",""trial"",""time""
""fullscreenenter"",""1"",""1697""
","
","","[{""page_index"":0,""viewing_time"":10799.800000000745},{""page_index"":1,""viewing_time"":8683.699999999255}]","19484","","","","","","","","","","","","","","","","","","","","","","","",""
"pit-trial","260","1460763","0.0-146.0","battery-v0.2","","""event"",""trial"",""time""
""fullscreenenter"",""1"",""1697""
","
","
","""event"",""trial"",""time""
""fullscreenenter"",""1"",""1697""
","
","","","440.8999999985099","","","13","10574","4930","d","elianto","#3366ff99","-1"," ","0","0","[1294.0999999996275]","1","3","","","10574","141","1","2","win","no-go","0"
"pit-trial","261","1464406","0.0-147.0","battery-v0.2","","""event"",""trial"",""time""
""fullscreenenter"",""1"",""1697""
","
","
","""event"",""trial"",""time""
""fullscreenenter"",""1"",""1697""
","
","","","783.5999999996275","","","13","10574","4930","e","elianto","#f73b6a7A"," "," ","1","0","[1637.2000000011176]","1","3","","","10574","142","2","3","lose","go","0"
"pit-trial","262","1468150","0.0-148.0","battery-v0.2","","""event"",""trial"",""time""
""fullscreenenter"",""1"",""1697""
","
","
","""event"",""trial"",""time""
""fullscreenenter"",""1"",""1697""
","
","","","884.6000000014901","","","13","10574","4930","w","elianto","#f73b6a7A","-1"," ","0","-10","[1735.4000000003725]","1","3","","","10574","143","3","4","lose","no-go","0"
"pit-trial","263","1471759","0.0-149.0","battery-v0.2","","""event"",""trial"",""time""
""fullscreenenter"",""1"",""1697""
","
","
","""event"",""trial"",""time""
""fullscreenenter"",""1"",""1697""
","
","","","750.4000000003725","","","13","10574","4930","j","elianto","#f73b6a7A"," "," ","1","0","[1600.2999999988824]","1","3","","","10574","144","0","3","lose","go","0"
"pit-trial","264","1475182","0.0-150.0","battery-v0.2","","""event"",""trial"",""time""
""fullscreenenter"",""1"",""1697""
","
","
","""event"",""trial"",""time""
""fullscreenenter"",""1"",""1697""
","
","","","563.2999999988824","","","13","10574","4930","w","elianto","#f73b6a7A","-1"," ","0","-10","[1415]","1","3","","","10574","145","3","4","lose","no-go","0"
"pit-trial","265","1478914","0.0-151.0","battery-v0.2","","""event"",""trial"",""time""
""fullscreenenter"",""1"",""1697""
