"trial_type","trial_index","time_elapsed","internal_node_id","task_version","subject_id","interactions","blur_events","focus_events","fullscreenenter_events","fullscreenexit_events","success","view_history","rt","responses","num_errors","age","subject","participantId","rune","rune_set","hex","correct","choice","accuracy","outcome","keys","total_keys","block","practice","value","sub","trial","stimulus","robot","valence","action","sham"
"pavlovia","0","25","0.0-0.0","battery-v0.2","","""event"",""trial"",""time""
""fullscreenenter"",""1"",""4332""
","
","
","""event"",""trial"",""time""
""fullscreenenter"",""1"",""4332""
","
","","","","","","","","","","","","","","","","","","","","","","","","","","",""
"fullscreen","1","5295","0.0-1.0","battery-v0.2","","""event"",""trial"",""time""
""fullscreenenter"",""1"",""4332""
","
","
","""event"",""trial"",""time""
""fullscreenenter"",""1"",""4332""
","
","true","","","","","","","","","","","","","","","","","","","","","","","","","",""
"pit-instructions","2","9406","0.0-2.0-0.0","battery-v0.2","","""event"",""trial"",""time""
""fullscreenenter"",""1"",""4332""
","
","
","""event"",""trial"",""time""
""fullscreenenter"",""1"",""4332""
","
","","[{""page_index"":0,""viewing_time"":4108}]","4108.699999809265","","","","","","","","","","","","","","","","","","","","","","","",""
"pit-comprehension","3","15650","0.0-2.0-1.0-0.0","battery-v0.2","","""event"",""trial"",""time""
""fullscreenenter"",""1"",""4332""
","
","
","""event"",""trial"",""time""
""fullscreenenter"",""1"",""4332""
","
","","","6240.899999856949","[""shark""]","0","14","3179","2506","","","","","","","","","","","","","","","","","","",""
"pit-instructions","4","18403","0.0-2.0-1.0-1.0","battery-v0.2","","""event"",""trial"",""time""
""fullscreenenter"",""1"",""4332""
","
","
","""event"",""trial"",""time""
""fullscreenenter"",""1"",""4332""
","
","","[{""page_index"":0,""viewing_time"":2747.899999856949}]","2748.2999999523163","","","","","","","","","","","","","","","","","","","","","","","",""
"pit-comprehension","5","22806","0.0-2.0-2.0-0.0","battery-v0.2","","""event"",""trial"",""time""
""fullscreenenter"",""1"",""4332""
","
","
","""event"",""trial"",""time""
""fullscreenenter"",""1"",""4332""
","
","","","4399.100000143051","[""tiger""]","0","14","3179","2506","","","","","","","","","","","","","","","","","","",""
"pit-instructions","6","23823","0.0-2.0-2.0-1.0","battery-v0.2","","""event"",""trial"",""time""
""fullscreenenter"",""1"",""4332""
","
","
","""event"",""trial"",""time""
""fullscreenenter"",""1"",""4332""
","
","","[{""page_index"":0,""viewing_time"":1015}]","1015.2000000476837","","","","","","","","","","","","","","","","","","","","","","","",""
"pit-instructions","7","122155","0.0-2.0-3.0","battery-v0.2","","""event"",""trial"",""time""
""fullscreenenter"",""1"",""4332""
","
","
","""event"",""trial"",""time""
""fullscreenenter"",""1"",""4332""
","
","","[{""page_index"":0,""viewing_time"":9795.699999809265},{""page_index"":1,""viewing_time"":6229.900000095367},{""page_index"":2,""viewing_time"":6796},{""page_index"":3,""viewing_time"":5234.099999904633},{""page_index"":4,""viewing_time"":5764},{""page_index"":5,""viewing_time"":5522.200000047684},{""page_index"":6,""viewing_time"":6881.799999952316},{""page_index"":7,""viewing_time"":6509.800000190735},{""page_index"":8,""viewing_time"":6922},{""page_index"":9,""viewing_time"":9676.099999904633},{""page_index"":10,""viewing_time"":7714},{""page_index"":11,""viewing_time"":8904.099999904633},{""page_index"":12,""viewing_time"":6394.100000143051},{""page_index"":13,""viewing_time"":5985.799999952316}]","98330","","","","","","","","","","","","","","","","","","","","","","","",""
"pit-trial","8","126024","0.0-2.0-4.0-0.0","battery-v0.2","","""event"",""trial"",""time""
""fullscreenenter"",""1"",""4332""
","
","
","""event"",""trial"",""time""
""fullscreenenter"",""1"",""4332""
","
","","","1011.0999999046326","","","14","3179","2506","&#9784;","elianto","#FFFFF080"," "," ","1","&#10004","[1861.1000001430511]","1","0","0","","","","","","","",""
"pit-trial","9","129662","0.0-2.0-4.1-0.1","battery-v0.2","","""event"",""trial"",""time""
""fullscreenenter"",""1"",""4332""
","
","
","""event"",""trial"",""time""
""fullscreenenter"",""1"",""4332""
","
","","","785.5","","","14","3179","2506","&#9784;","elianto","#FFFFF080"," "," ","1","&#10004","[1635.9000000953674]","1","0","0","","","","","","","",""
"pit-trial","10","133145","0.0-2.0-4.2-0.2","battery-v0.2","","""event"",""trial"",""time""
""fullscreenenter"",""1"",""4332""
","
","
","""event"",""trial"",""time""
""fullscreenenter"",""1"",""4332""
","
","","","626.2000000476837","","","14","3179","2506","&#9784;","elianto","#FFFFF080"," "," ","1","&#10004","[1478.1000001430511]","1","0","0","","","","","","","",""
"pit-trial","11","136611","0.0-2.0-4.3-0.3","battery-v0.2","","""event"",""trial"",""time""
""fullscreenenter"",""1"",""4332""
","
","
","""event"",""trial"",""time""
""fullscreenenter"",""1"",""4332""
","
","","","610","","","14","3179","2506","&#9784;","elianto","#FFFFF080"," "," ","1","&#10004","[1460.5]","1","0","0","","","","","","","",""
"pit-trial","12","140163","0.0-2.0-4.4-0.4","battery-v0.2","","""event"",""trial"",""time""
""fullscreenenter"",""1"",""4332""
","
","
","""event"",""trial"",""time""
""fullscreenenter"",""1"",""4332""
","
","","","698.5999999046326","","","14","3179","2506","&#9784;","elianto","#FFFFF080"," "," ","1","&#10004","[1550.1000001430511]","1","0","0","","","","","","","",""
"pit-instructions","13","160163","0.0-2.0-5.0","battery-v0.2","","""event"",""trial"",""time""
""fullscreenenter"",""1"",""4332""
","
","
","""event"",""trial"",""time""
""fullscreenenter"",""1"",""4332""
","
","","[{""page_index"":0,""viewing_time"":4890.100000143051},{""page_index"":1,""viewing_time"":5093.799999952316},{""page_index"":2,""viewing_time"":4914.200000047684},{""page_index"":3,""viewing_time"":5099.799999952316}]","19998.200000047684","","","","","","","","","","","","","","","","","","","","","","","",""
"pit-trial","14","165020","0.0-2.0-6.0-0.0","battery-v0.2","","""event"",""trial"",""time""
""fullscreenenter"",""1"",""4332""
","
","
","""event"",""trial"",""time""
""fullscreenenter"",""1"",""4332""
","
","","","-1","","","14","3179","2506","&#9854;","elianto","#FFFFF080","-1","-1","1","&#10004","[]","0","0","1","","","","","","","",""
"pit-trial","15","169879","0.0-2.0-6.1-0.1","battery-v0.2","","""event"",""trial"",""time""
""fullscreenenter"",""1"",""4332""
","
","
","""event"",""trial"",""time""
""fullscreenenter"",""1"",""4332""
","
","","","-1","","","14","3179","2506","&#9854;","elianto","#FFFFF080","-1","-1","1","&#10004","[]","0","0","1","","","","","","","",""
"pit-trial","16","174732","0.0-2.0-6.2-0.2","battery-v0.2","","""event"",""trial"",""time""
""fullscreenenter"",""1"",""4332""
","
","
","""event"",""trial"",""time""
""fullscreenenter"",""1"",""4332""
","
","","","-1","","","14","3179","2506","&#9854;","elianto","#FFFFF080","-1","-1","1","&#10004","[]","0","0","1","","","","","","","",""
"pit-trial","17","179593","0.0-2.0-6.3-0.3","battery-v0.2","","""event"",""trial"",""time""
""fullscreenenter"",""1"",""4332""
","
","
","""event"",""trial"",""time""
""fullscreenenter"",""1"",""4332""
","
","","","-1","","","14","3179","2506","&#9854;","elianto","#FFFFF080","-1","-1","1","&#10004","[]","0","0","1","","","","","","","",""
"pit-trial","18","184450","0.0-2.0-6.4-0.4","battery-v0.2","","""event"",""trial"",""time""
""fullscreenenter"",""1"",""4332""
","
","
","""event"",""trial"",""time""
""fullscreenenter"",""1"",""4332""
","
","","","-1","","","14","3179","2506","&#9854;","elianto","#FFFFF080","-1","-1","1","&#10004","[]","0","0","1","","","","","","","",""
"pit-instructions","19","295107","0.0-2.0-7.0","battery-v0.2","","""event"",""trial"",""time""
""fullscreenenter"",""1"",""4332""
","
","
","""event"",""trial"",""time""
""fullscreenenter"",""1"",""4332""
","
","","[{""page_index"":0,""viewing_time"":5779.700000047684},{""page_index"":1,""viewing_time"":6884.400000095367},{""page_index"":2,""viewing_time"":5489.699999809265},{""page_index"":3,""viewing_time"":5909.800000190735},{""page_index"":4,""viewing_time"":5164.099999904633},{""page_index"":5,""viewing_time"":5056.200000047684},{""page_index"":6,""viewing_time"":4697.899999856949},{""page_index"":7,""viewing_time"":7309.900000095367},{""page_index"":8,""viewing_time"":6314.099999904633},{""page_index"":9,""viewing_time"":5669.900000095367},{""page_index"":10,""viewing_time"":8156},{""page_index"":11,""viewing_time"":4860},{""page_index"":12,""viewing_time"":6624.099999904633},{""page_index"":13,""viewing_time"":6790.100000143051},{""page_index"":14,""viewing_time"":6685.899999856949},{""page_index"":15,""viewing_time"":6018},{""page_index"":16,""viewing_time"":6463.900000095367},{""page_index"":17,""viewing_time"":6788}]","110662.10000014305","","","","","","","","","","","","","","","","","","","","","","","",""
"pit-trial","20","298622","0.0-2.0-8.0-0.0","battery-v0.2","","""event"",""trial"",""time""
""fullscreenenter"",""1"",""4332""
","
","
","""event"",""trial"",""time""
""fullscreenenter"",""1"",""4332""
","
","","","660.4000000953674","","","14","3179","2506","&#9776;","elianto","#3366ff99"," "," ","1","+10","[1510.7000000476837]","1","0","1","","","","","","","",""
"pit-trial","21","302041","0.0-2.0-8.0-1.0","battery-v0.2","","""event"",""trial"",""time""
""fullscreenenter"",""1"",""4332""
","
","
","""event"",""trial"",""time""
""fullscreenenter"",""1"",""4332""
","
","","","563.4000000953674","","","14","3179","2506","&#9776;","elianto","#3366ff99"," "," ","1","+10","[1416.5]","1","0","1","","","","","","","",""
"pit-trial","22","305373","0.0-2.0-8.0-2.0","battery-v0.2","","""event"",""trial"",""time""
""fullscreenenter"",""1"",""4332""
","
","
","""event"",""trial"",""time""
""fullscreenenter"",""1"",""4332""
","
","","","474.7999999523163","","","14","3179","2506","&#9776;","elianto","#3366ff99"," "," ","1","+10","[1327.5]","1","0","1","","","","","","","",""
"pit-trial","23","308734","0.0-2.0-8.0-3.0","battery-v0.2","","""event"",""trial"",""time""
""fullscreenenter"",""1"",""4332""
","
","
","""event"",""trial"",""time""
""fullscreenenter"",""1"",""4332""
","
","","","503","","","14","3179","2506","&#9776;","elianto","#3366ff99"," "," ","1","0","[1355.2999999523163]","1","0","1","","","","","","","",""
"pit-trial","24","312124","0.0-2.0-8.0-4.0","battery-v0.2","","""event"",""trial"",""time""
""fullscreenenter"",""1"",""4332""
","
","
","""event"",""trial"",""time""
""fullscreenenter"",""1"",""4332""
","
","","","529.5999999046326","","","14","3179","2506","&#9776;","elianto","#3366ff99"," "," ","1","+10","[364.2000000476837,1383.8999998569489]","2","0","1","","","","","","","",""
"call-function","25","312125","0.0-2.0-9.0","battery-v0.2","","""event"",""trial"",""time""
""fullscreenenter"",""1"",""4332""
","
","
","""event"",""trial"",""time""
""fullscreenenter"",""1"",""4332""
","
","","","","","","","","","","","","","","","","","","","","","","","","","","",""
"pit-instructions","26","351837","0.0-2.0-10.0","battery-v0.2","","""event"",""trial"",""time""
""fullscreenenter"",""1"",""4332""
","
","
","""event"",""trial"",""time""
""fullscreenenter"",""1"",""4332""
","
","","[{""page_index"":0,""viewing_time"":5487.599999904633},{""page_index"":1,""viewing_time"":6554.100000143051},{""page_index"":2,""viewing_time"":9555.799999952316},{""page_index"":3,""viewing_time"":10619.599999904633},{""page_index"":4,""viewing_time"":7494.200000047684}]","39711.5","","","","","","","","","","","","","","","","","","","","","","","",""
"pit-trial","27","356695","0.0-2.0-11.0-0.0","battery-v0.2","","""event"",""trial"",""time""
""fullscreenenter"",""1"",""4332""
","
","
","""event"",""trial"",""time""
""fullscreenenter"",""1"",""4332""
","
","","","-1","","","14","3179","2506","&#9761;","elianto","#3366ff99","-1","-1","1","+10","[]","0","0","2","","","","","","","",""
"pit-trial","28","361553","0.0-2.0-11.0-1.0","battery-v0.2","","""event"",""trial"",""time""
""fullscreenenter"",""1"",""4332""
","
","
","""event"",""trial"",""time""
""fullscreenenter"",""1"",""4332""
","
","","","-1","","","14","3179","2506","&#9761;","elianto","#3366ff99","-1","-1","1","+10","[]","0","0","2","","","","","","","",""
"pit-trial","29","366412","0.0-2.0-11.0-2.0","battery-v0.2","","""event"",""trial"",""time""
""fullscreenenter"",""1"",""4332""
","
","
","""event"",""trial"",""time""
""fullscreenenter"",""1"",""4332""
","
","","","-1","","","14","3179","2506","&#9761;","elianto","#3366ff99","-1","-1","1","+10","[]","0","0","2","","","","","","","",""
"pit-trial","30","371267","0.0-2.0-11.0-3.0","battery-v0.2","","""event"",""trial"",""time""
""fullscreenenter"",""1"",""4332""
","
","
","""event"",""trial"",""time""
""fullscreenenter"",""1"",""4332""
","
","","","-1","","","14","3179","2506","&#9761;","elianto","#3366ff99","-1","-1","1","0","[]","0","0","2","","","","","","","",""
"pit-trial","31","376124","0.0-2.0-11.0-4.0","battery-v0.2","","""event"",""trial"",""time""
""fullscreenenter"",""1"",""4332""
","
","
","""event"",""trial"",""time""
""fullscreenenter"",""1"",""4332""
","
","","","-1","","","14","3179","2506","&#9761;","elianto","#3366ff99","-1","-1","1","+10","[]","0","0","2","","","","","","","",""
"call-function","32","376125","0.0-2.0-12.0","battery-v0.2","","""event"",""trial"",""time""
""fullscreenenter"",""1"",""4332""
","
","
","""event"",""trial"",""time""
""fullscreenenter"",""1"",""4332""
","
","","","","","","","","","","","","","","","","","","","","","","","","","","",""
"pit-instructions","33","405817","0.0-2.0-13.0","battery-v0.2","","""event"",""trial"",""time""
""fullscreenenter"",""1"",""4332""
","
","
","""event"",""trial"",""time""
""fullscreenenter"",""1"",""4332""
","
","","[{""page_index"":0,""viewing_time"":5215.5},{""page_index"":1,""viewing_time"":6608.299999952316},{""page_index"":2,""viewing_time"":3063.7000000476837},{""page_index"":3,""viewing_time"":10140},{""page_index"":4,""viewing_time"":4664.099999904633}]","29692","","","","","","","","","","","","","","","","","","","","","","","",""
"pit-trial","34","409386","0.0-2.0-14.0-0.0","battery-v0.2","","""event"",""trial"",""time""
""fullscreenenter"",""1"",""4332""
","
","
","""event"",""trial"",""time""
""fullscreenenter"",""1"",""4332""
","
","","","711","","","14","3179","2506","&#9826;","elianto","#f73b6a7A","-1"," ","0","-10","[1562.4000000953674]","1","0","3","","","","","","","",""
"pit-trial","35","414245","0.0-2.0-14.0-1.0","battery-v0.2","","""event"",""trial"",""time""
""fullscreenenter"",""1"",""4332""
","
","
","""event"",""trial"",""time""
""fullscreenenter"",""1"",""4332""
","
","","","-1","","","14","3179","2506","&#9826;","elianto","#f73b6a7A","-1","-1","1","0","[]","0","0","3","","","","","","","",""
"pit-trial","36","419098","0.0-2.0-14.0-2.0","battery-v0.2","","""event"",""trial"",""time""
""fullscreenenter"",""1"",""4332""
","
","
","""event"",""trial"",""time""
""fullscreenenter"",""1"",""4332""
","
","","","-1","","","14","3179","2506","&#9826;","elianto","#f73b6a7A","-1","-1","1","0","[]","0","0","3","","","","","","","",""
"pit-trial","37","423951","0.0-2.0-14.0-3.0","battery-v0.2","","""event"",""trial"",""time""
""fullscreenenter"",""1"",""4332""
","
","
","""event"",""trial"",""time""
""fullscreenenter"",""1"",""4332""
","
","","","-1","","","14","3179","2506","&#9826;","elianto","#f73b6a7A","-1","-1","1","-10","[]","0","0","3","","","","","","","",""
"pit-trial","38","428812","0.0-2.0-14.0-4.0","battery-v0.2","","""event"",""trial"",""time""
""fullscreenenter"",""1"",""4332""
","
","
","""event"",""trial"",""time""
""fullscreenenter"",""1"",""4332""
","
","","","-1","","","14","3179","2506","&#9826;","elianto","#f73b6a7A","-1","-1","1","0","[]","0","0","3","","","","","","","",""
"call-function","39","428813","0.0-2.0-15.0","battery-v0.2","","""event"",""trial"",""time""
""fullscreenenter"",""1"",""4332""
","
","
","""event"",""trial"",""time""
""fullscreenenter"",""1"",""4332""
","
","","","","","","","","","","","","","","","","","","","","","","","","","","",""
"pit-instructions","40","455109","0.0-2.0-16.0","battery-v0.2","","""event"",""trial"",""time""
""fullscreenenter"",""1"",""4332""
","
","
","""event"",""trial"",""time""
""fullscreenenter"",""1"",""4332""
","
","","[{""page_index"":0,""viewing_time"":6948.900000095367},{""page_index"":1,""viewing_time"":8250},{""page_index"":2,""viewing_time"":6136.099999904633},{""page_index"":3,""viewing_time"":4960.100000143051}]","26295.400000095367","","","","","","","","","","","","","","","","","","","","","","","",""
"pit-trial","41","458630","0.0-2.0-17.0-0.0","battery-v0.2","","""event"",""trial"",""time""
""fullscreenenter"",""1"",""4332""
","
","
","""event"",""trial"",""time""
""fullscreenenter"",""1"",""4332""
","
","","","666.6000001430511","","","14","3179","2506","&#9789;","elianto","#f73b6a7A"," "," ","1","0","[1516.9000000953674]","1","0","4","","","","","","","",""
"pit-trial","42","461916","0.0-2.0-17.0-1.0","battery-v0.2","","""event"",""trial"",""time""
""fullscreenenter"",""1"",""4332""
","
","
","""event"",""trial"",""time""
""fullscreenenter"",""1"",""4332""
","
","","","426.40000009536743","","","14","3179","2506","&#9789;","elianto","#f73b6a7A"," "," ","1","0","[262.90000009536743,1280.3000001907349]","2","0","4","","","","","","","",""
"pit-trial","43","465247","0.0-2.0-17.0-2.0","battery-v0.2","","""event"",""trial"",""time""
""fullscreenenter"",""1"",""4332""
","
","
","""event"",""trial"",""time""
""fullscreenenter"",""1"",""4332""
","
","","","473.5","","","14","3179","2506","&#9789;","elianto","#f73b6a7A"," "," ","1","0","[1325.1000001430511]","1","0","4","","","","","","","",""
"pit-trial","44","468487","0.0-2.0-17.0-3.0","battery-v0.2","","""event"",""trial"",""time""
""fullscreenenter"",""1"",""4332""
","
","
","""event"",""trial"",""time""
""fullscreenenter"",""1"",""4332""
","
","","","381","","","14","3179","2506","&#9789;","elianto","#f73b6a7A"," "," ","1","-10","[1233.8999998569489]","1","0","4","","","","","","","",""
"pit-trial","45","471651","0.0-2.0-17.0-4.0","battery-v0.2","","""event"",""trial"",""time""
""fullscreenenter"",""1"",""4332""
","
","
","""event"",""trial"",""time""
""fullscreenenter"",""1"",""4332""
","
","","","307.60000014305115","","","14","3179","2506","&#9789;","elianto","#f73b6a7A"," "," ","1","0","[1159.3999998569489]","1","0","4","","","","","","","",""
"call-function","46","471652","0.0-2.0-18.0","battery-v0.2","","""event"",""trial"",""time""
""fullscreenenter"",""1"",""4332""
","
","
","""event"",""trial"",""time""
""fullscreenenter"",""1"",""4332""
","
","","","","","","","","","","","","","","","","","","","","","","","","","","",""
"pit-instructions","47","539743","0.0-2.0-19.0","battery-v0.2","","""event"",""trial"",""time""
""fullscreenenter"",""1"",""4332""
","
","
","""event"",""trial"",""time""
""fullscreenenter"",""1"",""4332""
","
","","[{""page_index"":0,""viewing_time"":6164.5},{""page_index"":1,""viewing_time"":5568.099999904633},{""page_index"":2,""viewing_time"":12986.100000143051},{""page_index"":3,""viewing_time"":7291.899999856949},{""page_index"":4,""viewing_time"":8676},{""page_index"":5,""viewing_time"":8277.900000095367},{""page_index"":6,""viewing_time"":8061.900000095367},{""page_index"":7,""viewing_time"":5854.199999809265},{""page_index"":8,""viewing_time"":5209.800000190735}]","68090.59999990463","","","","","","","","","","","","","","","","","","","","","","","",""
"pit-comprehension","48","544889","0.0-2.0-20.0-0.0","battery-v0.2","","""event"",""trial"",""time""
""fullscreenenter"",""1"",""4332""
","
","
","""event"",""trial"",""time""
""fullscreenenter"",""1"",""4332""
","
","","","5144.5","[""SPACE""]","0","14","3179","2506","","","","","","","","","","","","","","","","","","",""
"pit-instructions","49","549655","0.0-2.0-20.0-1.0","battery-v0.2","","""event"",""trial"",""time""
""fullscreenenter"",""1"",""4332""
","
","
","""event"",""trial"",""time""
""fullscreenenter"",""1"",""4332""
","
","","[{""page_index"":0,""viewing_time"":4751.400000095367}]","4751.700000047684","","","","","","","","","","","","","","","","","","","","","","","",""
"pit-comprehension","50","556761","0.0-2.0-21.0-0.0","battery-v0.2","","""event"",""trial"",""time""
""fullscreenenter"",""1"",""4332""
","
","
","""event"",""trial"",""time""
""fullscreenenter"",""1"",""4332""
","
","","","7103.699999809265","[""10""]","0","14","3179","2506","","","","","","","","","","","","","","","","","","",""
"pit-instructions","51","559583","0.0-2.0-21.0-1.0","battery-v0.2","","""event"",""trial"",""time""
""fullscreenenter"",""1"",""4332""
","
","
","""event"",""trial"",""time""
""fullscreenenter"",""1"",""4332""
","
","","[{""page_index"":0,""viewing_time"":2806.7999999523163}]","2807.2000000476837","","","","","","","","","","","","","","","","","","","","","","","",""
"pit-comprehension","52","566269","0.0-2.0-22.0-0.0","battery-v0.2","","""event"",""trial"",""time""
""fullscreenenter"",""1"",""4332""
","
","
","""event"",""trial"",""time""
""fullscreenenter"",""1"",""4332""
","
","","","6684","[""-10""]","1","14","3179","2506","","","","","","","","","","","","","","","","","","",""
"pit-instructions","53","573622","0.0-2.0-22.0-1.0","battery-v0.2","","""event"",""trial"",""time""
""fullscreenenter"",""1"",""4332""
","
","
","""event"",""trial"",""time""
""fullscreenenter"",""1"",""4332""
","
","","[{""page_index"":0,""viewing_time"":7337.799999952316}]","7338.099999904633","","","","","","","","","","","","","","","","","","","","","","","",""
"pit-instructions","54","574773","0.0-2.0-22.0-2.0-0.0","battery-v0.2","","""event"",""trial"",""time""
""fullscreenenter"",""1"",""4332""
","
","
","""event"",""trial"",""time""
""fullscreenenter"",""1"",""4332""
","
","","[{""page_index"":0,""viewing_time"":1148.7999999523163}]","1149","","","","","","","","","","","","","","","","","","","","","","","",""
"pit-comprehension","55","581725","0.0-2.0-22.1-0.1","battery-v0.2","","""event"",""trial"",""time""
""fullscreenenter"",""1"",""4332""
","
","
","""event"",""trial"",""time""
""fullscreenenter"",""1"",""4332""
","
","","","6950.700000047684","[""0""]","0","14","3179","2506","","","","","","","","","","","","","","","","","","",""
"pit-instructions","56","583939","0.0-2.0-22.1-1.1","battery-v0.2","","""event"",""trial"",""time""
""fullscreenenter"",""1"",""4332""
","
","
","""event"",""trial"",""time""
""fullscreenenter"",""1"",""4332""
","
","","[{""page_index"":0,""viewing_time"":2198.5999999046326}]","2198.7999999523163","","","","","","","","","","","","","","","","","","","","","","","",""
"pit-comprehension","57","602713","0.0-2.0-23.0-0.0","battery-v0.2","","""event"",""trial"",""time""
""fullscreenenter"",""1"",""4332""
","
","
","""event"",""trial"",""time""
""fullscreenenter"",""1"",""4332""
","
","","","18772.299999952316","[""True""]","0","14","3179","2506","","","","","","","","","","","","","","","","","","",""
"pit-instructions","58","604409","0.0-2.0-23.0-1.0","battery-v0.2","","""event"",""trial"",""time""
""fullscreenenter"",""1"",""4332""
","
","
","""event"",""trial"",""time""
""fullscreenenter"",""1"",""4332""
","
","","[{""page_index"":0,""viewing_time"":1679.5999999046326}]","1679.7999999523163","","","","","","","","","","","","","","","","","","","","","","","",""
"pit-comprehension","59","614209","0.0-2.0-24.0-0.0","battery-v0.2","","""event"",""trial"",""time""
""fullscreenenter"",""1"",""4332""
","
","
","""event"",""trial"",""time""
""fullscreenenter"",""1"",""4332""
","
","","","9798.200000047684","[""True""]","0","14","3179","2506","","","","","","","","","","","","","","","","","","",""
"pit-instructions","60","615802","0.0-2.0-24.0-1.0","battery-v0.2","","""event"",""trial"",""time""
""fullscreenenter"",""1"",""4332""
","
","
","""event"",""trial"",""time""
""fullscreenenter"",""1"",""4332""
","
","","[{""page_index"":0,""viewing_time"":1577}]","1577.1999998092651","","","","","","","","","","","","","","","","","","","","","","","",""
"pit-comprehension","61","623133","0.0-2.0-25.0-0.0","battery-v0.2","","""event"",""trial"",""time""
""fullscreenenter"",""1"",""4332""
","
","
","""event"",""trial"",""time""
""fullscreenenter"",""1"",""4332""
","
","","","7328.599999904633","[""True""]","0","14","3179","2506","","","","","","","","","","","","","","","","","","",""
"pit-instructions","62","624796","0.0-2.0-25.0-1.0","battery-v0.2","","""event"",""trial"",""time""
""fullscreenenter"",""1"",""4332""
","
","
","""event"",""trial"",""time""
""fullscreenenter"",""1"",""4332""
","
","","[{""page_index"":0,""viewing_time"":1647.2000000476837}]","1647.5999999046326","","","","","","","","","","","","","","","","","","","","","","","",""
"pit-comprehension","63","631989","0.0-2.0-26.0-0.0","battery-v0.2","","""event"",""trial"",""time""
""fullscreenenter"",""1"",""4332""
","
","
","""event"",""trial"",""time""
""fullscreenenter"",""1"",""4332""
","
","","","7190.200000047684","[""False""]","0","14","3179","2506","","","","","","","","","","","","","","","","","","",""
"pit-instructions","64","633814","0.0-2.0-26.0-1.0","battery-v0.2","","""event"",""trial"",""time""
""fullscreenenter"",""1"",""4332""
","
","
","""event"",""trial"",""time""
""fullscreenenter"",""1"",""4332""
","
","","[{""page_index"":0,""viewing_time"":1808.0999999046326}]","1808.2999999523163","","","","","","","","","","","","","","","","","","","","","","","",""
"pit-instructions","65","650399","0.0-3.0","battery-v0.2","","""event"",""trial"",""time""
""fullscreenenter"",""1"",""4332""
","
","
","""event"",""trial"",""time""
""fullscreenenter"",""1"",""4332""
","
","","[{""page_index"":0,""viewing_time"":3444.9000000953674},{""page_index"":1,""viewing_time"":5845.599999904633},{""page_index"":2,""viewing_time"":7292.299999952316}]","16583","","","","","","","","","","","","","","","","","","","","","","","",""
"pit-trial","66","654204","0.0-4.0","battery-v0.2","","""event"",""trial"",""time""
""fullscreenenter"",""1"",""4332""
","
","
","""event"",""trial"",""time""
""fullscreenenter"",""1"",""4332""
","
","","","949.9000000953674","","","14","3179","2506","&#9733;","elianto","#3366ff99","-1"," ","0","0","[1800.2000000476837]","1","1","","","3179","1","2","2","win","no-go","0"
"pit-trial","67","657805","0.0-5.0","battery-v0.2","","""event"",""trial"",""time""
""fullscreenenter"",""1"",""4332""
","
","
","""event"",""trial"",""time""
""fullscreenenter"",""1"",""4332""
","
","","","741.9000000953674","","","14","3179","2506","&#9730;","elianto","#3366ff99"," "," ","1","+10","[1596]","1","1","","","3179","2","1","1","win","go","0"
"pit-trial","68","662513","0.0-6.0","battery-v0.2","","""event"",""trial"",""time""
""fullscreenenter"",""1"",""4332""
","
","
","""event"",""trial"",""time""
""fullscreenenter"",""1"",""4332""
","
","","","1855.2000000476837","","","14","3179","2506","&#9728;","elianto","#f73b6a7A","-1"," ","0","-10","[2705.600000143051]","1","1","","","3179","3","0","4","lose","no-go","0"
"pit-trial","69","667371","0.0-7.0","battery-v0.2","","""event"",""trial"",""time""
""fullscreenenter"",""1"",""4332""
","
","
","""event"",""trial"",""time""
""fullscreenenter"",""1"",""4332""
","
","","","-1","","","14","3179","2506","&#9752;","elianto","#f73b6a7A"," ","-1","0","0","[]","0","1","","","3179","4","3","3","lose","go","1"
"pit-trial","70","671185","0.0-8.0","battery-v0.2","","""event"",""trial"",""time""
""fullscreenenter"",""1"",""4332""
","
","
","""event"",""trial"",""time""
""fullscreenenter"",""1"",""4332""
","
","","","954.2999999523163","","","14","3179","2506","&#9730;","elianto","#3366ff99"," "," ","1","+10","[1809.0999999046326]","1","1","","","3179","5","1","1","win","go","0"
"pit-trial","71","676044","0.0-9.0","battery-v0.2","","""event"",""trial"",""time""
""fullscreenenter"",""1"",""4332""
","
","
","""event"",""trial"",""time""
""fullscreenenter"",""1"",""4332""
","
","","","-1","","","14","3179","2506","&#9752;","elianto","#f73b6a7A"," ","-1","0","0","[]","0","1","","","3179","6","3","3","lose","go","1"
"pit-trial","72","680903","0.0-10.0","battery-v0.2","","""event"",""trial"",""time""
""fullscreenenter"",""1"",""4332""
","
","
","""event"",""trial"",""time""
""fullscreenenter"",""1"",""4332""
","
","","","-1","","","14","3179","2506","&#9733;","elianto","#3366ff99","-1","-1","1","+10","[]","0","1","","","3179","7","2","2","win","no-go","0"
"pit-trial","73","684459","0.0-11.0","battery-v0.2","","""event"",""trial"",""time""
""fullscreenenter"",""1"",""4332""
","
","
","""event"",""trial"",""time""
""fullscreenenter"",""1"",""4332""
","
","","","702.1000001430511","","","14","3179","2506","&#9728;","elianto","#f73b6a7A","-1"," ","0","-10","[1552.0999999046326]","1","1","","","3179","8","0","4","lose","no-go","0"
"pit-trial","74","689315","0.0-12.0","battery-v0.2","","""event"",""trial"",""time""
""fullscreenenter"",""1"",""4332""
","
","
","""event"",""trial"",""time""
""fullscreenenter"",""1"",""4332""
","
","","","-1","","","14","3179","2506","&#9733;","elianto","#3366ff99","-1","-1","1","+10","[]","0","1","","","3179","9","2","2","win","no-go","0"
"pit-trial","75","693593","0.0-13.0","battery-v0.2","","""event"",""trial"",""time""
""fullscreenenter"",""1"",""4332""
","
","
","""event"",""trial"",""time""
""fullscreenenter"",""1"",""4332""
","
","","","1424.0999999046326","","","14","3179","2506","&#9730;","elianto","#3366ff99"," "," ","1","0","[2275.7000000476837]","1","1","","","3179","10","1","1","win","go","1"
"pit-trial","76","698452","0.0-14.0","battery-v0.2","","""event"",""trial"",""time""
""fullscreenenter"",""1"",""4332""
","
","
","""event"",""trial"",""time""
""fullscreenenter"",""1"",""4332""
","
","","","-1","","","14","3179","2506","&#9752;","elianto","#f73b6a7A"," ","-1","0","-10","[]","0","1","","","3179","11","3","3","lose","go","0"
"pit-trial","77","702532","0.0-15.0","battery-v0.2","","""event"",""trial"",""time""
""fullscreenenter"",""1"",""4332""
","
","
","""event"",""trial"",""time""
""fullscreenenter"",""1"",""4332""
","
","","","1226.2000000476837","","","14","3179","2506","&#9728;","elianto","#f73b6a7A","-1"," ","0","-10","[2078.7000000476837]","1","1","","","3179","12","0","4","lose","no-go","0"
"pit-trial","78","707392","0.0-16.0","battery-v0.2","","""event"",""trial"",""time""
""fullscreenenter"",""1"",""4332""
","
","
","""event"",""trial"",""time""
""fullscreenenter"",""1"",""4332""
","
","","","-1","","","14","3179","2506","&#9733;","elianto","#3366ff99","-1","-1","1","+10","[]","0","1","","","3179","13","2","2","win","no-go","0"
"pit-trial","79","712251","0.0-17.0","battery-v0.2","","""event"",""trial"",""time""
""fullscreenenter"",""1"",""4332""
","
","
","""event"",""trial"",""time""
""fullscreenenter"",""1"",""4332""
","
","","","-1","","","14","3179","2506","&#9728;","elianto","#f73b6a7A","-1","-1","1","0","[]","0","1","","","3179","14","0","4","lose","no-go","0"
"pit-trial","80","717109","0.0-18.0","battery-v0.2","","""event"",""trial"",""time""
""fullscreenenter"",""1"",""4332""
","
","
","""event"",""trial"",""time""
""fullscreenenter"",""1"",""4332""
","
","","","-1","","","14","3179","2506","&#9752;","elianto","#f73b6a7A"," ","-1","0","-10","[]","0","1","","","3179","15","3","3","lose","go","0"
"pit-trial","81","720998","0.0-19.0","battery-v0.2","","""event"",""trial"",""time""
""fullscreenenter"",""1"",""4332""
","
","
","""event"",""trial"",""time""
""fullscreenenter"",""1"",""4332""
","
","","","1034.8999998569489","","","14","3179","2506","&#9730;","elianto","#3366ff99"," "," ","1","+10","[1887.2999999523163]","1","1","","","3179","16","1","1","win","go","0"
"pit-trial","82","725109","0.0-20.0","battery-v0.2","","""event"",""trial"",""time""
""fullscreenenter"",""1"",""4332""
","
","
","""event"",""trial"",""time""
""fullscreenenter"",""1"",""4332""
","
","","","1256.7000000476837","","","14","3179","2506","&#9728;","elianto","#f73b6a7A","-1"," ","0","-10","[2107.9000000953674]","1","1","","","3179","17","0","4","lose","no-go","0"
"pit-trial","83","729967","0.0-21.0","battery-v0.2","","""event"",""trial"",""time""
""fullscreenenter"",""1"",""4332""
","
","
","""event"",""trial"",""time""
""fullscreenenter"",""1"",""4332""
","
","","","-1","","","14","3179","2506","&#9733;","elianto","#3366ff99","-1","-1","1","+10","[]","0","1","","","3179","18","2","2","win","no-go","0"
"pit-trial","84","734153","0.0-22.0","battery-v0.2","","""event"",""trial"",""time""
""fullscreenenter"",""1"",""4332""
","
","
","""event"",""trial"",""time""
""fullscreenenter"",""1"",""4332""
","
","","","1332.5999999046326","","","14","3179","2506","&#9730;","elianto","#3366ff99"," "," ","1","+10","[2184.2000000476837]","1","1","","","3179","19","1","1","win","go","0"
"pit-trial","85","737769","0.0-23.0","battery-v0.2","","""event"",""trial"",""time""
""fullscreenenter"",""1"",""4332""
","
","
","""event"",""trial"",""time""
""fullscreenenter"",""1"",""4332""
","
","","","759.2000000476837","","","14","3179","2506","&#9752;","elianto","#f73b6a7A"," "," ","1","0","[1613.2000000476837]","1","1","","","3179","20","3","3","lose","go","0"
"pit-instructions","86","750390","0.0-24.0","battery-v0.2","","""event"",""trial"",""time""
""fullscreenenter"",""1"",""4332""
","
","
","""event"",""trial"",""time""
""fullscreenenter"",""1"",""4332""
","
","","[{""page_index"":0,""viewing_time"":5514.200000047684},{""page_index"":1,""viewing_time"":7105.799999952316}]","12620.299999952316","","","","","","","","","","","","","","","","","","","","","","","",""
"pit-trial","87","754528","0.0-25.0","battery-v0.2","","""event"",""trial"",""time""
""fullscreenenter"",""1"",""4332""
","
","
","""event"",""trial"",""time""
""fullscreenenter"",""1"",""4332""
","
","","","1280.2000000476837","","","14","3179","2506","e","elianto","#f73b6a7A","-1"," ","0","-10","[2130.600000143051]","1","2","","","3179","21","2","4","lose","no-go","0"
"pit-trial","88","758412","0.0-26.0","battery-v0.2","","""event"",""trial"",""time""
""fullscreenenter"",""1"",""4332""
","
","
","""event"",""trial"",""time""
""fullscreenenter"",""1"",""4332""
","
","","","1025.9000000953674","","","14","3179","2506","w","elianto","#f73b6a7A"," "," ","1","0","[1878.5]","1","2","","","3179","22","3","3","lose","go","0"
"pit-trial","89","762325","0.0-27.0","battery-v0.2","","""event"",""trial"",""time""
""fullscreenenter"",""1"",""4332""
","
","
","""event"",""trial"",""time""
""fullscreenenter"",""1"",""4332""
","
","","","1058","","","14","3179","2506","j","elianto","#f73b6a7A","-1"," ","0","-10","[1909.7000000476837]","1","2","","","3179","23","0","4","lose","no-go","0"
"pit-trial","90","766255","0.0-28.0","battery-v0.2","","""event"",""trial"",""time""
""fullscreenenter"",""1"",""4332""
","
","
","""event"",""trial"",""time""
""fullscreenenter"",""1"",""4332""
","
","","","1076.7999999523163","","","14","3179","2506","d","elianto","#3366ff99"," "," ","1","+10","[1927.3999998569489]","1","2","","","3179","24","1","1","win","go","0"
"pit-trial","91","769976","0.0-29.0","battery-v0.2","","""event"",""trial"",""time""
""fullscreenenter"",""1"",""4332""
","
","
","""event"",""trial"",""time""
""fullscreenenter"",""1"",""4332""
","
","","","865.7000000476837","","","14","3179","2506","d","elianto","#3366ff99"," "," ","1","+10","[1717.7000000476837]","1","2","","","3179","25","1","1","win","go","0"
"pit-trial","92","774834","0.0-30.0","battery-v0.2","","""event"",""trial"",""time""
""fullscreenenter"",""1"",""4332""
","
","
","""event"",""trial"",""time""
""fullscreenenter"",""1"",""4332""
","
","","","-1","","","14","3179","2506","w","elianto","#f73b6a7A"," ","-1","0","-10","[2916.2999999523163]","1","2","","","3179","26","3","3","lose","go","0"
"pit-trial","93","779693","0.0-31.0","battery-v0.2","","""event"",""trial"",""time""
""fullscreenenter"",""1"",""4332""
","
","
","""event"",""trial"",""time""
""fullscreenenter"",""1"",""4332""
","
","","","-1","","","14","3179","2506","j","elianto","#f73b6a7A","-1","-1","1","0","[]","0","2","","","3179","27","0","4","lose","no-go","0"
"pit-trial","94","784553","0.0-32.0","battery-v0.2","","""event"",""trial"",""time""
""fullscreenenter"",""1"",""4332""
","
","
","""event"",""trial"",""time""
""fullscreenenter"",""1"",""4332""
","
","","","-1","","","14","3179","2506","e","elianto","#f73b6a7A","-1","-1","1","-10","[]","0","2","","","3179","28","2","4","lose","no-go","1"
"pit-trial","95","788680","0.0-33.0","battery-v0.2","","""event"",""trial"",""time""
""fullscreenenter"",""1"",""4332""
","
","
","""event"",""trial"",""time""
""fullscreenenter"",""1"",""4332""
","
","","","1272.5","","","14","3179","2506","w","elianto","#f73b6a7A"," "," ","1","0","[2124.9000000953674]","1","2","","","3179","29","3","3","lose","go","0"
"pit-trial","96","792749","0.0-34.0","battery-v0.2","","""event"",""trial"",""time""
""fullscreenenter"",""1"",""4332""
","
","
","""event"",""trial"",""time""
""fullscreenenter"",""1"",""4332""
","
","","","1212","","","14","3179","2506","d","elianto","#3366ff99"," "," ","1","+10","[2063.100000143051]","1","2","","","3179","30","1","1","win","go","0"
"pit-trial","97","797260","0.0-35.0","battery-v0.2","","""event"",""trial"",""time""
""fullscreenenter"",""1"",""4332""
","
","
","""event"",""trial"",""time""
""fullscreenenter"",""1"",""4332""
","
","","","1657.7999999523163","","","14","3179","2506","e","elianto","#f73b6a7A","-1"," ","0","-10","[2508.7000000476837]","1","2","","","3179","31","2","4","lose","no-go","0"
"pit-trial","98","801765","0.0-36.0","battery-v0.2","","""event"",""trial"",""time""
""fullscreenenter"",""1"",""4332""
","
","
","""event"",""trial"",""time""
""fullscreenenter"",""1"",""4332""
","
","","","1646.5999999046326","","","14","3179","2506","j","elianto","#f73b6a7A","-1"," ","0","-10","[2498.2000000476837]","1","2","","","3179","32","0","4","lose","no-go","0"
"pit-trial","99","804853","0.0-37.0","battery-v0.2","","""event"",""trial"",""time""
""fullscreenenter"",""1"",""4332""
","
","
","""event"",""trial"",""time""
""fullscreenenter"",""1"",""4332""
","
","","","230.90000009536743","","","14","3179","2506","w","elianto","#f73b6a7A"," "," ","1","0","[1083.2999999523163]","1","2","","","3179","33","3","3","lose","go","0"
"pit-trial","100","809712","0.0-38.0","battery-v0.2","","""event"",""trial"",""time""
""fullscreenenter"",""1"",""4332""
","
","
","""event"",""trial"",""time""
""fullscreenenter"",""1"",""4332""
","
","","","-1","","","14","3179","2506","j","elianto","#f73b6a7A","-1","-1","1","0","[]","0","2","","","3179","34","0","4","lose","no-go","0"
"pit-trial","101","814570","0.0-39.0","battery-v0.2","","""event"",""trial"",""time""
""fullscreenenter"",""1"",""4332""
","
","
","""event"",""trial"",""time""
""fullscreenenter"",""1"",""4332""
","
","","","-1","","","14","3179","2506","e","elianto","#f73b6a7A","-1","-1","1","0","[]","0","2","","","3179","35","2","4","lose","no-go","0"
"pit-trial","102","818140","0.0-40.0","battery-v0.2","","""event"",""trial"",""time""
""fullscreenenter"",""1"",""4332""
","
","
","""event"",""trial"",""time""
""fullscreenenter"",""1"",""4332""
","
","","","716.0999999046326","","","14","3179","2506","d","elianto","#3366ff99"," "," ","1","+10","[1568]","1","2","","","3179","36","1","1","win","go","0"
"pit-trial","103","822999","0.0-41.0","battery-v0.2","","""event"",""trial"",""time""
""fullscreenenter"",""1"",""4332""
","
","
","""event"",""trial"",""time""
""fullscreenenter"",""1"",""4332""
","
","","","-1","","","14","3179","2506","w","elianto","#f73b6a7A"," ","-1","0","-10","[]","0","2","","","3179","37","3","3","lose","go","0"
"pit-trial","104","827858","0.0-42.0","battery-v0.2","","""event"",""trial"",""time""
""fullscreenenter"",""1"",""4332""
","
","
","""event"",""trial"",""time""
""fullscreenenter"",""1"",""4332""
","
","","","-1","","","14","3179","2506","e","elianto","#f73b6a7A","-1","-1","1","0","[]","0","2","","","3179","38","2","4","lose","no-go","0"
"pit-trial","105","832717","0.0-43.0","battery-v0.2","","""event"",""trial"",""time""
""fullscreenenter"",""1"",""4332""
","
","
","""event"",""trial"",""time""
""fullscreenenter"",""1"",""4332""
","
","","","-1","","","14","3179","2506","j","elianto","#f73b6a7A","-1","-1","1","0","[]","0","2","","","3179","39","0","4","lose","no-go","0"
"pit-trial","106","836380","0.0-44.0","battery-v0.2","","""event"",""trial"",""time""
""fullscreenenter"",""1"",""4332""
","
","
","""event"",""trial"",""time""
""fullscreenenter"",""1"",""4332""
","
","","","809.5999999046326","","","14","3179","2506","d","elianto","#3366ff99"," "," ","1","+10","[1661.7000000476837]","1","2","","","3179","40","1","1","win","go","0"
"pit-trial","107","839950","0.0-45.0","battery-v0.2","","""event"",""trial"",""time""
""fullscreenenter"",""1"",""4332""
","
","
","""event"",""trial"",""time""
""fullscreenenter"",""1"",""4332""
","
","","","716.9000000953674","","","14","3179","2506","d","elianto","#3366ff99"," "," ","1","+10","[1568.2000000476837]","1","2","","","3179","41","1","1","win","go","0"
"pit-trial","108","843688","0.0-46.0","battery-v0.2","","""event"",""trial"",""time""
""fullscreenenter"",""1"",""4332""
","
","
","""event"",""trial"",""time""
""fullscreenenter"",""1"",""4332""
","
","","","883.0999999046326","","","14","3179","2506","w","elianto","#f73b6a7A"," "," ","1","0","[1733.7000000476837]","1","2","","","3179","42","3","3","lose","go","0"
"pit-trial","109","848547","0.0-47.0","battery-v0.2","","""event"",""trial"",""time""
""fullscreenenter"",""1"",""4332""
","
","
","""event"",""trial"",""time""
""fullscreenenter"",""1"",""4332""
","
","","","-1","","","14","3179","2506","j","elianto","#f73b6a7A","-1","-1","1","0","[]","0","2","","","3179","43","0","4","lose","no-go","0"
"pit-trial","110","853400","0.0-48.0","battery-v0.2","","""event"",""trial"",""time""
""fullscreenenter"",""1"",""4332""
","
","
","""event"",""trial"",""time""
""fullscreenenter"",""1"",""4332""
","
","","","-1","","","14","3179","2506","e","elianto","#f73b6a7A","-1","-1","1","0","[]","0","2","","","3179","44","2","4","lose","no-go","0"
"pit-trial","111","858259","0.0-49.0","battery-v0.2","","""event"",""trial"",""time""
""fullscreenenter"",""1"",""4332""
","
","
","""event"",""trial"",""time""
""fullscreenenter"",""1"",""4332""
","
","","","-1","","","14","3179","2506","j","elianto","#f73b6a7A","-1","-1","1","-10","[]","0","2","","","3179","45","0","4","lose","no-go","1"
"pit-trial","112","863118","0.0-50.0","battery-v0.2","","""event"",""trial"",""time""
""fullscreenenter"",""1"",""4332""
","
","
","""event"",""trial"",""time""
""fullscreenenter"",""1"",""4332""
","
","","","-1","","","14","3179","2506","e","elianto","#f73b6a7A","-1","-1","1","0","[]","0","2","","","3179","46","2","4","lose","no-go","0"
"pit-trial","113","867281","0.0-51.0","battery-v0.2","","""event"",""trial"",""time""
""fullscreenenter"",""1"",""4332""
","
","
","""event"",""trial"",""time""
""fullscreenenter"",""1"",""4332""
","
","","","1309.9000000953674","","","14","3179","2506","w","elianto","#f73b6a7A"," "," ","1","0","[2161.5]","1","2","","","3179","47","3","3","lose","go","0"
"pit-trial","114","871796","0.0-52.0","battery-v0.2","","""event"",""trial"",""time""
""fullscreenenter"",""1"",""4332""
","
","
","""event"",""trial"",""time""
""fullscreenenter"",""1"",""4332""
","
","","","1662.6000001430511","","","14","3179","2506","s","elianto","#3366ff99","-1"," ","0","+10","[2513.7000000476837]","1","2","","","3179","48","4","2","win","no-go","1"
"pit-trial","115","876655","0.0-53.0","battery-v0.2","","""event"",""trial"",""time""
""fullscreenenter"",""1"",""4332""
","
","
","""event"",""trial"",""time""
""fullscreenenter"",""1"",""4332""
","
","","","-1","","","14","3179","2506","w","elianto","#f73b6a7A"," ","-1","0","-10","[2918.2999999523163]","1","2","","","3179","49","3","3","lose","go","0"
"pit-trial","116","880515","0.0-54.0","battery-v0.2","","""event"",""trial"",""time""
""fullscreenenter"",""1"",""4332""
","
","
","""event"",""trial"",""time""
""fullscreenenter"",""1"",""4332""
","
","","","1002.5","","","14","3179","2506","s","elianto","#3366ff99","-1"," ","0","+10","[1855.0999999046326]","1","2","","","3179","50","4","2","win","no-go","1"
"pit-trial","117","884341","0.0-55.0","battery-v0.2","","""event"",""trial"",""time""
""fullscreenenter"",""1"",""4332""
","
","
","""event"",""trial"",""time""
""fullscreenenter"",""1"",""4332""
","
","","","966.7999999523163","","","14","3179","2506","d","elianto","#3366ff99"," "," ","1","+10","[1819.1000001430511]","1","2","","","3179","51","1","1","win","go","0"
"pit-trial","118","889199","0.0-56.0","battery-v0.2","","""event"",""trial"",""time""
""fullscreenenter"",""1"",""4332""
","
","
","""event"",""trial"",""time""
""fullscreenenter"",""1"",""4332""
","
","","","-1","","","14","3179","2506","j","elianto","#f73b6a7A","-1","-1","1","-10","[]","0","2","","","3179","52","0","4","lose","no-go","1"
"pit-trial","119","892961","0.0-57.0","battery-v0.2","","""event"",""trial"",""time""
""fullscreenenter"",""1"",""4332""
","
","
","""event"",""trial"",""time""
""fullscreenenter"",""1"",""4332""
","
","","","906.2000000476837","","","14","3179","2506","s","elianto","#3366ff99","-1"," ","0","+10","[1760.4000000953674]","1","2","","","3179","53","4","2","win","no-go","1"
"pit-trial","120","896566","0.0-58.0","battery-v0.2","","""event"",""trial"",""time""
""fullscreenenter"",""1"",""4332""
","
","
","""event"",""trial"",""time""
""fullscreenenter"",""1"",""4332""
","
","","","746.3000001907349","","","14","3179","2506","d","elianto","#3366ff99"," "," ","1","+10","[1598.5]","1","2","","","3179","54","1","1","win","go","0"
"pit-trial","121","901425","0.0-59.0","battery-v0.2","","""event"",""trial"",""time""
""fullscreenenter"",""1"",""4332""
","
","
","""event"",""trial"",""time""
""fullscreenenter"",""1"",""4332""
","
","","","-1","","","14","3179","2506","j","elianto","#f73b6a7A","-1","-1","1","0","[]","0","2","","","3179","55","0","4","lose","no-go","0"
"pit-trial","122","906285","0.0-60.0","battery-v0.2","","""event"",""trial"",""time""
""fullscreenenter"",""1"",""4332""
","
","
","""event"",""trial"",""time""
""fullscreenenter"",""1"",""4332""
","
","","","-1","","","14","3179","2506","e","elianto","#f73b6a7A","-1","-1","1","-10","[]","0","2","","","3179","56","2","4","lose","no-go","1"
"pit-trial","123","910364","0.0-61.0","battery-v0.2","","""event"",""trial"",""time""
""fullscreenenter"",""1"",""4332""
","
","
","""event"",""trial"",""time""
""fullscreenenter"",""1"",""4332""
","
","","","1224.7000000476837","","","14","3179","2506","w","elianto","#f73b6a7A"," "," ","1","0","[2075.5]","1","2","","","3179","57","3","3","lose","go","0"
"pit-trial","124","913812","0.0-62.0","battery-v0.2","","""event"",""trial"",""time""
""fullscreenenter"",""1"",""4332""
","
","
","""event"",""trial"",""time""
""fullscreenenter"",""1"",""4332""
","
","","","595.2999999523163","","","14","3179","2506","s","elianto","#3366ff99","-1"," ","0","+10","[1446]","1","2","","","3179","58","4","2","win","no-go","1"
"pit-trial","125","918671","0.0-63.0","battery-v0.2","","""event"",""trial"",""time""
""fullscreenenter"",""1"",""4332""
","
","
","""event"",""trial"",""time""
""fullscreenenter"",""1"",""4332""
","
","","","-1","","","14","3179","2506","j","elianto","#f73b6a7A","-1","-1","1","0","[]","0","2","","","3179","59","0","4","lose","no-go","0"
"pit-trial","126","922873","0.0-64.0","battery-v0.2","","""event"",""trial"",""time""
""fullscreenenter"",""1"",""4332""
","
","
","""event"",""trial"",""time""
""fullscreenenter"",""1"",""4332""
","
","","","1345.1999998092651","","","14","3179","2506","d","elianto","#3366ff99"," "," ","1","+10","[2198.899999856949]","1","2","","","3179","60","1","1","win","go","0"
"pit-trial","127","926833","0.0-65.0","battery-v0.2","","""event"",""trial"",""time""
""fullscreenenter"",""1"",""4332""
","
","
","""event"",""trial"",""time""
""fullscreenenter"",""1"",""4332""
","
","","","1102.6000001430511","","","14","3179","2506","d","elianto","#3366ff99"," "," ","1","+10","[1956.7999999523163]","1","2","","","3179","61","1","1","win","go","0"
"pit-trial","128","930751","0.0-66.0","battery-v0.2","","""event"",""trial"",""time""
""fullscreenenter"",""1"",""4332""
","
","
","""event"",""trial"",""time""
""fullscreenenter"",""1"",""4332""
","
","","","1062.2000000476837","","","14","3179","2506","w","elianto","#f73b6a7A"," "," ","1","0","[1912.8999998569489]","1","2","","","3179","62","3","3","lose","go","0"
"pit-trial","129","934605","0.0-67.0","battery-v0.2","","""event"",""trial"",""time""
""fullscreenenter"",""1"",""4332""
","
","
","""event"",""trial"",""time""
""fullscreenenter"",""1"",""4332""
","
","","","999.1999998092651","","","14","3179","2506","s","elianto","#3366ff99","-1"," ","0","0","[1849.4000000953674]","1","2","","","3179","63","4","2","win","no-go","0"
"pit-trial","130","939464","0.0-68.0","battery-v0.2","","""event"",""trial"",""time""
""fullscreenenter"",""1"",""4332""
","
","
","""event"",""trial"",""time""
""fullscreenenter"",""1"",""4332""
","
","","","-1","","","14","3179","2506","e","elianto","#f73b6a7A","-1","-1","1","0","[3124.399999856949]","1","2","","","3179","64","2","4","lose","no-go","0"
"pit-trial","131","943487","0.0-69.0","battery-v0.2","","""event"",""trial"",""time""
""fullscreenenter"",""1"",""4332""
","
","
","""event"",""trial"",""time""
""fullscreenenter"",""1"",""4332""
","
","","","1162.9000000953674","","","14","3179","2506","w","elianto","#f73b6a7A"," "," ","1","0","[2016.2999999523163]","1","2","","","3179","65","3","3","lose","go","0"
"pit-trial","132","948346","0.0-70.0","battery-v0.2","","""event"",""trial"",""time""
""fullscreenenter"",""1"",""4332""
","
","
","""event"",""trial"",""time""
""fullscreenenter"",""1"",""4332""
","
","","","-1","","","14","3179","2506","e","elianto","#f73b6a7A","-1","-1","1","0","[]","0","2","","","3179","66","2","4","lose","no-go","0"
"pit-trial","133","951777","0.0-71.0","battery-v0.2","","""event"",""trial"",""time""
""fullscreenenter"",""1"",""4332""
","
","
","""event"",""trial"",""time""
""fullscreenenter"",""1"",""4332""
","
","","","578.3999998569489","","","14","3179","2506","d","elianto","#3366ff99"," "," ","1","+10","[1429.3999998569489]","1","2","","","3179","67","1","1","win","go","0"
"pit-trial","134","955260","0.0-72.0","battery-v0.2","","""event"",""trial"",""time""
""fullscreenenter"",""1"",""4332""
","
","
","""event"",""trial"",""time""
""fullscreenenter"",""1"",""4332""
","
","","","626.2999999523163","","","14","3179","2506","s","elianto","#3366ff99","-1"," ","0","0","[1478.6999998092651]","1","2","","","3179","68","4","2","win","no-go","0"
"pit-trial","135","958801","0.0-73.0","battery-v0.2","","""event"",""trial"",""time""
""fullscreenenter"",""1"",""4332""
","
","
","""event"",""trial"",""time""
""fullscreenenter"",""1"",""4332""
","
","","","684.0999999046326","","","14","3179","2506","s","elianto","#3366ff99","-1"," ","0","+10","[1536.2999999523163]","1","2","","","3179","69","4","2","win","no-go","1"
"pit-trial","136","962400","0.0-74.0","battery-v0.2","","""event"",""trial"",""time""
""fullscreenenter"",""1"",""4332""
","
","
","""event"",""trial"",""time""
""fullscreenenter"",""1"",""4332""
","
","","","744.1000001430511","","","14","3179","2506","d","elianto","#3366ff99"," "," ","1","+10","[1595.2999999523163]","1","2","","","3179","70","1","1","win","go","0"
"pit-trial","137","966855","0.0-75.0","battery-v0.2","","""event"",""trial"",""time""
""fullscreenenter"",""1"",""4332""
","
","
","""event"",""trial"",""time""
""fullscreenenter"",""1"",""4332""
","
","","","1599.2999999523163","","","14","3179","2506","w","elianto","#f73b6a7A"," "," ","1","0","[2451.5999999046326]","1","2","","","3179","71","3","3","lose","go","0"
"pit-trial","138","971415","0.0-76.0","battery-v0.2","","""event"",""trial"",""time""
""fullscreenenter"",""1"",""4332""
","
","
","""event"",""trial"",""time""
""fullscreenenter"",""1"",""4332""
","
","","","1705","","","14","3179","2506","p","elianto","#3366ff99"," "," ","1","+10","[2556.5999999046326]","1","2","","","3179","72","5","1","win","go","0"
"pit-trial","139","975450","0.0-77.0","battery-v0.2","","""event"",""trial"",""time""
""fullscreenenter"",""1"",""4332""
","
","
","""event"",""trial"",""time""
""fullscreenenter"",""1"",""4332""
","
","","","1178.5999999046326","","","14","3179","2506","w","elianto","#f73b6a7A"," "," ","1","0","[2030.7999999523163]","1","2","","","3179","73","3","3","lose","go","0"
"pit-trial","140","979722","0.0-78.0","battery-v0.2","","""event"",""trial"",""time""
""fullscreenenter"",""1"",""4332""
","
","
","""event"",""trial"",""time""
""fullscreenenter"",""1"",""4332""
","
","","","1419.1000001430511","","","14","3179","2506","p","elianto","#3366ff99"," "," ","1","0","[2270.4000000953674]","1","2","","","3179","74","5","1","win","go","1"
"pit-trial","141","983983","0.0-79.0","battery-v0.2","","""event"",""trial"",""time""
""fullscreenenter"",""1"",""4332""
","
","
","""event"",""trial"",""time""
""fullscreenenter"",""1"",""4332""
","
","","","1407.5","","","14","3179","2506","s","elianto","#3366ff99","-1"," ","0","0","[2259.5]","1","2","","","3179","75","4","2","win","no-go","0"
"pit-trial","142","987599","0.0-80.0","battery-v0.2","","""event"",""trial"",""time""
""fullscreenenter"",""1"",""4332""
","
","
","""event"",""trial"",""time""
""fullscreenenter"",""1"",""4332""
","
","","","761","","","14","3179","2506","d","elianto","#3366ff99"," "," ","1","0","[1612.2999999523163]","1","2","","","3179","76","1","1","win","go","1"
"pit-trial","143","991378","0.0-81.0","battery-v0.2","","""event"",""trial"",""time""
""fullscreenenter"",""1"",""4332""
","
","
","""event"",""trial"",""time""
""fullscreenenter"",""1"",""4332""
","
","","","924.5","","","14","3179","2506","s","elianto","#3366ff99","-1"," ","0","0","[1777.5]","1","2","","","3179","77","4","2","win","no-go","0"
"pit-trial","144","996091","0.0-82.0","battery-v0.2","","""event"",""trial"",""time""
""fullscreenenter"",""1"",""4332""
","
","
","""event"",""trial"",""time""
""fullscreenenter"",""1"",""4332""
","
","","","1858.3999998569489","","","14","3179","2506","g","elianto","#f73b6a7A","-1"," ","0","-10","[2709.2000000476837]","1","2","","","3179","78","6","4","lose","no-go","0"
"pit-trial","145","1000184","0.0-83.0","battery-v0.2","","""event"",""trial"",""time""
""fullscreenenter"",""1"",""4332""
","
","
","""event"",""trial"",""time""
""fullscreenenter"",""1"",""4332""
","
","","","1237.2999999523163","","","14","3179","2506","w","elianto","#f73b6a7A"," "," ","1","0","[2090.2000000476837]","1","2","","","3179","79","3","3","lose","go","0"
"pit-trial","146","1003859","0.0-84.0","battery-v0.2","","""event"",""trial"",""time""
""fullscreenenter"",""1"",""4332""
","
","
","""event"",""trial"",""time""
""fullscreenenter"",""1"",""4332""
","
","","","819.7999999523163","","","14","3179","2506","p","elianto","#3366ff99"," "," ","1","+10","[1671.8999998569489]","1","2","","","3179","80","5","1","win","go","0"
"pit-trial","147","1007853","0.0-85.0","battery-v0.2","","""event"",""trial"",""time""
""fullscreenenter"",""1"",""4332""
","
","
","""event"",""trial"",""time""
""fullscreenenter"",""1"",""4332""
","
","","","1135.6999998092651","","","14","3179","2506","a","elianto","#f73b6a7A"," "," ","1","0","[1987.7000000476837]","1","2","","","3179","81","7","3","lose","go","0"
"pit-trial","148","1012710","0.0-86.0","battery-v0.2","","""event"",""trial"",""time""
""fullscreenenter"",""1"",""4332""
","
","
","""event"",""trial"",""time""
""fullscreenenter"",""1"",""4332""
","
","","","-1","","","14","3179","2506","g","elianto","#f73b6a7A","-1","-1","1","0","[]","0","2","","","3179","82","6","4","lose","no-go","0"
"pit-trial","149","1016310","0.0-87.0","battery-v0.2","","""event"",""trial"",""time""
""fullscreenenter"",""1"",""4332""
","
","
","""event"",""trial"",""time""
""fullscreenenter"",""1"",""4332""
","
","","","746.7999999523163","","","14","3179","2506","s","elianto","#3366ff99","-1"," ","0","0","[1597.9000000953674]","1","2","","","3179","83","4","2","win","no-go","0"
"pit-trial","150","1020120","0.0-88.0","battery-v0.2","","""event"",""trial"",""time""
""fullscreenenter"",""1"",""4332""
","
","
","""event"",""trial"",""time""
""fullscreenenter"",""1"",""4332""
","
","","","955.6999998092651","","","14","3179","2506","p","elianto","#3366ff99"," "," ","1","0","[1807.1999998092651]","1","2","","","3179","84","5","1","win","go","1"
"pit-trial","151","1024832","0.0-89.0","battery-v0.2","","""event"",""trial"",""time""
""fullscreenenter"",""1"",""4332""
","
","
","""event"",""trial"",""time""
""fullscreenenter"",""1"",""4332""
","
","","","1855.8999998569489","","","14","3179","2506","p","elianto","#3366ff99"," "," ","1","+10","[2707.5999999046326]","1","2","","","3179","85","5","1","win","go","0"
"pit-trial","152","1028478","0.0-90.0","battery-v0.2","","""event"",""trial"",""time""
""fullscreenenter"",""1"",""4332""
","
","
","""event"",""trial"",""time""
""fullscreenenter"",""1"",""4332""
","
","","","786.5","","","14","3179","2506","s","elianto","#3366ff99","-1"," ","0","0","[1639.9000000953674]","1","2","","","3179","86","4","2","win","no-go","0"
"pit-trial","153","1033331","0.0-91.0","battery-v0.2","","""event"",""trial"",""time""
""fullscreenenter"",""1"",""4332""
","
","
","""event"",""trial"",""time""
""fullscreenenter"",""1"",""4332""
","
","","","-1","","","14","3179","2506","g","elianto","#f73b6a7A","-1","-1","1","0","[]","0","2","","","3179","87","6","4","lose","no-go","0"
"pit-trial","154","1037191","0.0-92.0","battery-v0.2","","""event"",""trial"",""time""
""fullscreenenter"",""1"",""4332""
","
","
","""event"",""trial"",""time""
""fullscreenenter"",""1"",""4332""
","
","","","1004.0999999046326","","","14","3179","2506","a","elianto","#f73b6a7A"," "," ","1","0","[1856.3999998569489]","1","2","","","3179","88","7","3","lose","go","0"
"pit-trial","155","1040790","0.0-93.0","battery-v0.2","","""event"",""trial"",""time""
""fullscreenenter"",""1"",""4332""
","
","
","""event"",""trial"",""time""
""fullscreenenter"",""1"",""4332""
","
","","","744.1999998092651","","","14","3179","2506","a","elianto","#f73b6a7A"," "," ","1","0","[1596.5999999046326]","1","2","","","3179","89","7","3","lose","go","0"
"pit-trial","156","1045643","0.0-94.0","battery-v0.2","","""event"",""trial"",""time""
""fullscreenenter"",""1"",""4332""
","
","
","""event"",""trial"",""time""
""fullscreenenter"",""1"",""4332""
","
","","","-1","","","14","3179","2506","g","elianto","#f73b6a7A","-1","-1","1","-10","[]","0","2","","","3179","90","6","4","lose","no-go","1"
"pit-trial","157","1049864","0.0-95.0","battery-v0.2","","""event"",""trial"",""time""
""fullscreenenter"",""1"",""4332""
","
","
","""event"",""trial"",""time""
""fullscreenenter"",""1"",""4332""
","
","","","1367.3999998569489","","","14","3179","2506","s","elianto","#3366ff99","-1"," ","0","0","[2218.7999999523163]","1","2","","","3179","91","4","2","win","no-go","0"
"pit-trial","158","1054368","0.0-96.0","battery-v0.2","","""event"",""trial"",""time""
""fullscreenenter"",""1"",""4332""
","
","
","""event"",""trial"",""time""
""fullscreenenter"",""1"",""4332""
","
","","","1646.8999998569489","","","14","3179","2506","p","elianto","#3366ff99"," "," ","1","+10","[2499.0999999046326]","1","2","","","3179","92","5","1","win","go","0"
"pit-trial","159","1058554","0.0-97.0","battery-v0.2","","""event"",""trial"",""time""
""fullscreenenter"",""1"",""4332""
","
","
","""event"",""trial"",""time""
""fullscreenenter"",""1"",""4332""
","
","","","1326.8999998569489","","","14","3179","2506","l","elianto","#3366ff99","-1"," ","0","0","[2179.0999999046326,3874.5999999046326]","2","2","","","3179","93","8","2","win","no-go","0"
"pit-trial","160","1063413","0.0-98.0","battery-v0.2","","""event"",""trial"",""time""
""fullscreenenter"",""1"",""4332""
","
","
","""event"",""trial"",""time""
""fullscreenenter"",""1"",""4332""
","
","","","-1","","","14","3179","2506","g","elianto","#f73b6a7A","-1","-1","1","0","[]","0","2","","","3179","94","6","4","lose","no-go","0"
"pit-trial","161","1066965","0.0-99.0","battery-v0.2","","""event"",""trial"",""time""
""fullscreenenter"",""1"",""4332""
","
","
","""event"",""trial"",""time""
""fullscreenenter"",""1"",""4332""
","
","","","699.2000000476837","","","14","3179","2506","a","elianto","#f73b6a7A"," "," ","1","0","[1550.6000001430511]","1","2","","","3179","95","7","3","lose","go","0"
"pit-trial","162","1071002","0.0-100.0","battery-v0.2","","""event"",""trial"",""time""
""fullscreenenter"",""1"",""4332""
","
","
","""event"",""trial"",""time""
""fullscreenenter"",""1"",""4332""
","
","","","1181.2000000476837","","","14","3179","2506","p","elianto","#3366ff99"," "," ","1","+10","[2033.3000001907349]","1","2","","","3179","96","5","1","win","go","0"
"pit-trial","163","1074541","0.0-101.0","battery-v0.2","","""event"",""trial"",""time""
""fullscreenenter"",""1"",""4332""
","
","
","""event"",""trial"",""time""
""fullscreenenter"",""1"",""4332""
","
","","","685","","","14","3179","2506","p","elianto","#3366ff99"," "," ","1","0","[1536.2000000476837]","1","2","","","3179","97","5","1","win","go","1"
"pit-trial","164","1078140","0.0-102.0","battery-v0.2","","""event"",""trial"",""time""
""fullscreenenter"",""1"",""4332""
","
","
","""event"",""trial"",""time""
""fullscreenenter"",""1"",""4332""
","
","","","747.5999999046326","","","14","3179","2506","a","elianto","#f73b6a7A"," "," ","1","0","[1597.6999998092651]","1","2","","","3179","98","7","3","lose","go","0"
"pit-trial","165","1082999","0.0-103.0","battery-v0.2","","""event"",""trial"",""time""
""fullscreenenter"",""1"",""4332""
","
","
","""event"",""trial"",""time""
""fullscreenenter"",""1"",""4332""
","
","","","-1","","","14","3179","2506","g","elianto","#f73b6a7A","-1","-1","1","0","[]","0","2","","","3179","99","6","4","lose","no-go","0"
"pit-trial","166","1087857","0.0-104.0","battery-v0.2","","""event"",""trial"",""time""
""fullscreenenter"",""1"",""4332""
","
","
","""event"",""trial"",""time""
""fullscreenenter"",""1"",""4332""
","
","","","-1","","","14","3179","2506","l","elianto","#3366ff99","-1","-1","1","+10","[]","0","2","","","3179","100","8","2","win","no-go","0"
"pit-trial","167","1091642","0.0-105.0","battery-v0.2","","""event"",""trial"",""time""
""fullscreenenter"",""1"",""4332""
","
","
","""event"",""trial"",""time""
""fullscreenenter"",""1"",""4332""
","
","","","929.0999999046326","","","14","3179","2506","p","elianto","#3366ff99"," "," ","1","0","[1781.3999998569489]","1","2","","","3179","101","5","1","win","go","1"
"pit-trial","168","1095706","0.0-106.0","battery-v0.2","","""event"",""trial"",""time""
""fullscreenenter"",""1"",""4332""
","
","
","""event"",""trial"",""time""
""fullscreenenter"",""1"",""4332""
","
","","","1208.8999998569489","","","14","3179","2506","u","elianto","#3366ff99","-1"," ","0","0","[2061.5]","1","2","","","3179","102","9","2","win","no-go","0"
"pit-trial","169","1100564","0.0-107.0","battery-v0.2","","""event"",""trial"",""time""
""fullscreenenter"",""1"",""4332""
","
","
","""event"",""trial"",""time""
""fullscreenenter"",""1"",""4332""
","
","","","-1","","","14","3179","2506","g","elianto","#f73b6a7A","-1","-1","1","0","[]","0","2","","","3179","103","6","4","lose","no-go","0"
"pit-trial","170","1105417","0.0-108.0","battery-v0.2","","""event"",""trial"",""time""
""fullscreenenter"",""1"",""4332""
","
","
","""event"",""trial"",""time""
""fullscreenenter"",""1"",""4332""
","
","","","-1","","","14","3179","2506","l","elianto","#3366ff99","-1","-1","1","+10","[]","0","2","","","3179","104","8","2","win","no-go","0"
"pit-trial","171","1109057","0.0-109.0","battery-v0.2","","""event"",""trial"",""time""
""fullscreenenter"",""1"",""4332""
","
","
","""event"",""trial"",""time""
""fullscreenenter"",""1"",""4332""
","
","","","786.1000001430511","","","14","3179","2506","p","elianto","#3366ff99"," "," ","1","0","[1637.1000001430511]","1","2","","","3179","105","5","1","win","go","1"
"pit-trial","172","1113915","0.0-110.0","battery-v0.2","","""event"",""trial"",""time""
""fullscreenenter"",""1"",""4332""
","
","
","""event"",""trial"",""time""
""fullscreenenter"",""1"",""4332""
","
","","","-1","","","14","3179","2506","g","elianto","#f73b6a7A","-1","-1","1","0","[]","0","2","","","3179","106","6","4","lose","no-go","0"
"pit-trial","173","1118769","0.0-111.0","battery-v0.2","","""event"",""trial"",""time""
""fullscreenenter"",""1"",""4332""
","
","
","""event"",""trial"",""time""
""fullscreenenter"",""1"",""4332""
","
","","","-1","","","14","3179","2506","u","elianto","#3366ff99","-1","-1","1","+10","[]","0","2","","","3179","107","9","2","win","no-go","0"
"pit-trial","174","1123627","0.0-112.0","battery-v0.2","","""event"",""trial"",""time""
""fullscreenenter"",""1"",""4332""
","
","
","""event"",""trial"",""time""
""fullscreenenter"",""1"",""4332""
","
","","","-1","","","14","3179","2506","l","elianto","#3366ff99","-1","-1","1","0","[]","0","2","","","3179","108","8","2","win","no-go","1"
"pit-trial","175","1128481","0.0-113.0","battery-v0.2","","""event"",""trial"",""time""
""fullscreenenter"",""1"",""4332""
","
","
","""event"",""trial"",""time""
""fullscreenenter"",""1"",""4332""
","
","","","-1","","","14","3179","2506","g","elianto","#f73b6a7A","-1","-1","1","0","[]","0","2","","","3179","109","6","4","lose","no-go","0"
"pit-trial","176","1133339","0.0-114.0","battery-v0.2","","""event"",""trial"",""time""
""fullscreenenter"",""1"",""4332""
","
","
","""event"",""trial"",""time""
""fullscreenenter"",""1"",""4332""
","
","","","-1","","","14","3179","2506","u","elianto","#3366ff99","-1","-1","1","+10","[]","0","2","","","3179","110","9","2","win","no-go","0"
"pit-trial","177","1137124","0.0-115.0","battery-v0.2","","""event"",""trial"",""time""
""fullscreenenter"",""1"",""4332""
","
","
","""event"",""trial"",""time""
""fullscreenenter"",""1"",""4332""
","
","","","928.5","","","14","3179","2506","p","elianto","#3366ff99"," "," ","1","+10","[1779.8999998569489]","1","2","","","3179","111","5","1","win","go","0"
"pit-trial","178","1141984","0.0-116.0","battery-v0.2","","""event"",""trial"",""time""
""fullscreenenter"",""1"",""4332""
","
","
","""event"",""trial"",""time""
""fullscreenenter"",""1"",""4332""
","
","","","-1","","","14","3179","2506","l","elianto","#3366ff99","-1","-1","1","+10","[]","0","2","","","3179","112","8","2","win","no-go","0"
"pit-trial","179","1146842","0.0-117.0","battery-v0.2","","""event"",""trial"",""time""
""fullscreenenter"",""1"",""4332""
","
","
","""event"",""trial"",""time""
""fullscreenenter"",""1"",""4332""
","
","","","-1","","","14","3179","2506","l","elianto","#3366ff99","-1","-1","1","0","[]","0","2","","","3179","113","8","2","win","no-go","1"
"pit-trial","180","1151700","0.0-118.0","battery-v0.2","","""event"",""trial"",""time""
""fullscreenenter"",""1"",""4332""
","
","
","""event"",""trial"",""time""
""fullscreenenter"",""1"",""4332""
","
","","","-1","","","14","3179","2506","u","elianto","#3366ff99","-1","-1","1","0","[]","0","2","","","3179","114","9","2","win","no-go","1"
"pit-trial","181","1156082","0.0-119.0","battery-v0.2","","""event"",""trial"",""time""
""fullscreenenter"",""1"",""4332""
","
","
","""event"",""trial"",""time""
""fullscreenenter"",""1"",""4332""
","
","","","1527.7000000476837","","","14","3179","2506","a","elianto","#f73b6a7A"," "," ","1","0","[2379.899999856949]","1","2","","","3179","115","7","3","lose","go","0"
"pit-trial","182","1160541","0.0-120.0","battery-v0.2","","""event"",""trial"",""time""
""fullscreenenter"",""1"",""4332""
","
","
","""event"",""trial"",""time""
""fullscreenenter"",""1"",""4332""
","
","","","1600.2999999523163","","","14","3179","2506","p","elianto","#3366ff99"," "," ","1","+10","[2452.9000000953674]","1","2","","","3179","116","5","1","win","go","0"
"pit-trial","183","1165400","0.0-121.0","battery-v0.2","","""event"",""trial"",""time""
""fullscreenenter"",""1"",""4332""
","
","
","""event"",""trial"",""time""
""fullscreenenter"",""1"",""4332""
","
","","","-1","","","14","3179","2506","g","elianto","#f73b6a7A","-1","-1","1","0","[]","0","2","","","3179","117","6","4","lose","no-go","0"
"pit-trial","184","1170253","0.0-122.0","battery-v0.2","","""event"",""trial"",""time""
""fullscreenenter"",""1"",""4332""
","
","
","""event"",""trial"",""time""
""fullscreenenter"",""1"",""4332""
","
","","","-1","","","14","3179","2506","u","elianto","#3366ff99","-1","-1","1","0","[]","0","2","","","3179","118","9","2","win","no-go","1"
"pit-trial","185","1175112","0.0-123.0","battery-v0.2","","""event"",""trial"",""time""
""fullscreenenter"",""1"",""4332""
","
","
","""event"",""trial"",""time""
""fullscreenenter"",""1"",""4332""
","
","","","-1","","","14","3179","2506","l","elianto","#3366ff99","-1","-1","1","+10","[]","0","2","","","3179","119","8","2","win","no-go","0"
"pit-trial","186","1179722","0.0-124.0","battery-v0.2","","""event"",""trial"",""time""
""fullscreenenter"",""1"",""4332""
","
","
","""event"",""trial"",""time""
""fullscreenenter"",""1"",""4332""
","
","","","1758.3999998569489","","","14","3179","2506","p","elianto","#3366ff99"," "," ","1","+10","[2608.7000000476837]","1","2","","","3179","120","5","1","win","go","0"
"pit-trial","187","1184580","0.0-125.0","battery-v0.2","","""event"",""trial"",""time""
""fullscreenenter"",""1"",""4332""
","
","
","""event"",""trial"",""time""
""fullscreenenter"",""1"",""4332""
","
","","","-1","","","14","3179","2506","l","elianto","#3366ff99","-1","-1","1","+10","[]","0","2","","","3179","121","8","2","win","no-go","0"
"pit-trial","188","1189439","0.0-126.0","battery-v0.2","","""event"",""trial"",""time""
""fullscreenenter"",""1"",""4332""
","
","
","""event"",""trial"",""time""
""fullscreenenter"",""1"",""4332""
","
","","","-1","","","14","3179","2506","u","elianto","#3366ff99","-1","-1","1","+10","[]","0","2","","","3179","122","9","2","win","no-go","0"
"pit-trial","189","1193810","0.0-127.0","battery-v0.2","","""event"",""trial"",""time""
""fullscreenenter"",""1"",""4332""
","
","
","""event"",""trial"",""time""
""fullscreenenter"",""1"",""4332""
","
","","","1515.5","","","14","3179","2506","p","elianto","#3366ff99"," "," ","1","+10","[2367.4000000953674]","1","2","","","3179","123","5","1","win","go","0"
"pit-trial","190","1197949","0.0-128.0","battery-v0.2","","""event"",""trial"",""time""
""fullscreenenter"",""1"",""4332""
","
","
","""event"",""trial"",""time""
""fullscreenenter"",""1"",""4332""
","
","","","1283.2000000476837","","","14","3179","2506","a","elianto","#f73b6a7A"," "," ","1","-10","[2135.7000000476837]","1","2","","","3179","124","7","3","lose","go","1"
"pit-trial","191","1202807","0.0-129.0","battery-v0.2","","""event"",""trial"",""time""
""fullscreenenter"",""1"",""4332""
","
","
","""event"",""trial"",""time""
""fullscreenenter"",""1"",""4332""
","
","","","-1","","","14","3179","2506","u","elianto","#3366ff99","-1","-1","1","+10","[]","0","2","","","3179","125","9","2","win","no-go","0"
"pit-trial","192","1207666","0.0-130.0","battery-v0.2","","""event"",""trial"",""time""
""fullscreenenter"",""1"",""4332""
","
","
","""event"",""trial"",""time""
""fullscreenenter"",""1"",""4332""
","
","","","-1","","","14","3179","2506","g","elianto","#f73b6a7A","-1","-1","1","0","[]","0","2","","","3179","126","6","4","lose","no-go","0"
"pit-trial","193","1211736","0.0-131.0","battery-v0.2","","""event"",""trial"",""time""
""fullscreenenter"",""1"",""4332""
","
","
","""event"",""trial"",""time""
""fullscreenenter"",""1"",""4332""
","
","","","1212.8999998569489","","","14","3179","2506","a","elianto","#f73b6a7A"," "," ","1","0","[2065]","1","2","","","3179","127","7","3","lose","go","0"
"pit-trial","194","1216594","0.0-132.0","battery-v0.2","","""event"",""trial"",""time""
""fullscreenenter"",""1"",""4332""
","
","
","""event"",""trial"",""time""
""fullscreenenter"",""1"",""4332""
","
","","","-1","","","14","3179","2506","l","elianto","#3366ff99","-1","-1","1","0","[]","0","2","","","3179","128","8","2","win","no-go","1"
"pit-trial","195","1221453","0.0-133.0","battery-v0.2","","""event"",""trial"",""time""
""fullscreenenter"",""1"",""4332""
","
","
","""event"",""trial"",""time""
""fullscreenenter"",""1"",""4332""
","
","","","-1","","","14","3179","2506","l","elianto","#3366ff99","-1","-1","1","+10","[]","0","2","","","3179","129","8","2","win","no-go","0"
"pit-trial","196","1226312","0.0-134.0","battery-v0.2","","""event"",""trial"",""time""
""fullscreenenter"",""1"",""4332""
","
","
","""event"",""trial"",""time""
""fullscreenenter"",""1"",""4332""
","
","","","-1","","","14","3179","2506","u","elianto","#3366ff99","-1","-1","1","+10","[]","0","2","","","3179","130","9","2","win","no-go","0"
"pit-trial","197","1231171","0.0-135.0","battery-v0.2","","""event"",""trial"",""time""
""fullscreenenter"",""1"",""4332""
","
","
","""event"",""trial"",""time""
""fullscreenenter"",""1"",""4332""
","
","","","-1","","","14","3179","2506","g","elianto","#f73b6a7A","-1","-1","1","0","[]","0","2","","","3179","131","6","4","lose","no-go","0"
"pit-trial","198","1235808","0.0-136.0","battery-v0.2","","""event"",""trial"",""time""
""fullscreenenter"",""1"",""4332""
","
","
","""event"",""trial"",""time""
""fullscreenenter"",""1"",""4332""
","
","","","1785","","","14","3179","2506","a","elianto","#f73b6a7A"," "," ","1","0","[2635.5]","1","2","","","3179","132","7","3","lose","go","0"
"pit-trial","199","1240662","0.0-137.0","battery-v0.2","","""event"",""trial"",""time""
""fullscreenenter"",""1"",""4332""
","
","
","""event"",""trial"",""time""
""fullscreenenter"",""1"",""4332""
","
","","","-1","","","14","3179","2506","g","elianto","#f73b6a7A","-1","-1","1","-10","[]","0","2","","","3179","133","6","4","lose","no-go","1"
"pit-trial","200","1245521","0.0-138.0","battery-v0.2","","""event"",""trial"",""time""
""fullscreenenter"",""1"",""4332""
","
","
","""event"",""trial"",""time""
""fullscreenenter"",""1"",""4332""
","
","","","-1","","","14","3179","2506","l","elianto","#3366ff99","-1","-1","1","+10","[]","0","2","","","3179","134","8","2","win","no-go","0"
"pit-trial","201","1249613","0.0-139.0","battery-v0.2","","""event"",""trial"",""time""
""fullscreenenter"",""1"",""4332""
","
","
","""event"",""trial"",""time""
""fullscreenenter"",""1"",""4332""
","
","","","1234.0999999046326","","","14","3179","2506","a","elianto","#f73b6a7A"," "," ","1","-10","[2086.5999999046326]","1","2","","","3179","135","7","3","lose","go","1"
"pit-trial","202","1254472","0.0-140.0","battery-v0.2","","""event"",""trial"",""time""
""fullscreenenter"",""1"",""4332""
","
","
","""event"",""trial"",""time""
""fullscreenenter"",""1"",""4332""
","
","","","-1","","","14","3179","2506","u","elianto","#3366ff99","-1","-1","1","+10","[]","0","2","","","3179","136","9","2","win","no-go","0"
"pit-trial","203","1259331","0.0-141.0","battery-v0.2","","""event"",""trial"",""time""
""fullscreenenter"",""1"",""4332""
","
","
","""event"",""trial"",""time""
""fullscreenenter"",""1"",""4332""
","
","","","-1","","","14","3179","2506","g","elianto","#f73b6a7A","-1","-1","1","0","[]","0","2","","","3179","137","6","4","lose","no-go","0"
"pit-trial","204","1264189","0.0-142.0","battery-v0.2","","""event"",""trial"",""time""
""fullscreenenter"",""1"",""4332""
","
","
","""event"",""trial"",""time""
""fullscreenenter"",""1"",""4332""
","
","","","-1","","","14","3179","2506","l","elianto","#3366ff99","-1","-1","1","+10","[]","0","2","","","3179","138","8","2","win","no-go","0"
"pit-trial","205","1269048","0.0-143.0","battery-v0.2","","""event"",""trial"",""time""
""fullscreenenter"",""1"",""4332""
","
","
","""event"",""trial"",""time""
""fullscreenenter"",""1"",""4332""
","
","","","-1","","","14","3179","2506","u","elianto","#3366ff99","-1","-1","1","+10","[]","0","2","","","3179","139","9","2","win","no-go","0"
"pit-trial","206","1272937","0.0-144.0","battery-v0.2","","""event"",""trial"",""time""
""fullscreenenter"",""1"",""4332""
","
","
","""event"",""trial"",""time""
""fullscreenenter"",""1"",""4332""
","
","","","1032.6000001430511","","","14","3179","2506","a","elianto","#f73b6a7A"," "," ","1","0","[1884.2999999523163]","1","2","","","3179","140","7","3","lose","go","0"
"pit-instructions","207","1287390","0.0-145.0","battery-v0.2","","""event"",""trial"",""time""
""fullscreenenter"",""1"",""4332""
","
","
","""event"",""trial"",""time""
""fullscreenenter"",""1"",""4332""
","
","","[{""page_index"":0,""viewing_time"":6365.299999952316},{""page_index"":1,""viewing_time"":8085.899999856949}]","14451.599999904633","","","","","","","","","","","","","","","","","","","","","","","",""
"pit-trial","208","1291444","0.0-146.0","battery-v0.2","","""event"",""trial"",""time""
""fullscreenenter"",""1"",""4332""
","
","
","""event"",""trial"",""time""
""fullscreenenter"",""1"",""4332""
","
","","","1182.6000001430511","","","14","3179","2506","y","elianto","#f73b6a7A"," "," ","1","0","[2034]","1","3","","","3179","141","2","3","lose","go","0"
"pit-trial","209","1294956","0.0-147.0","battery-v0.2","","""event"",""trial"",""time""
""fullscreenenter"",""1"",""4332""
","
","
","""event"",""trial"",""time""
""fullscreenenter"",""1"",""4332""
","
","","","656.3999998569489","","","14","3179","2506","m","elianto","#f73b6a7A"," "," ","1","0","[1508.7000000476837]","1","3","","","3179","142","0","3","lose","go","0"
"pit-trial","210","1298735","0.0-148.0","battery-v0.2","","""event"",""trial"",""time""
""fullscreenenter"",""1"",""4332""
","
","
","""event"",""trial"",""time""
""fullscreenenter"",""1"",""4332""
","
","","","923.9000000953674","","","14","3179","2506","r","elianto","#3366ff99","-1"," ","0","+10","[1776]","1","3","","","3179","143","1","2","win","no-go","1"
"pit-trial","211","1302486","0.0-149.0","battery-v0.2","","""event"",""trial"",""time""
""fullscreenenter"",""1"",""4332""
","
","
","""event"",""trial"",""time""
""fullscreenenter"",""1"",""4332""
","
","","","896.2000000476837","","","14","3179","2506","h","elianto","#f73b6a7A","-1"," ","0","-10","[1747.1000001430511]","1","3","","","3179","144","3","4","lose","no-go","0"
"pit-trial","212","1306073","0.0-150.0","battery-v0.2","","""event"",""trial"",""time""
""fullscreenenter"",""1"",""4332""
","
","
","""event"",""trial"",""time""
""fullscreenenter"",""1"",""4332""
","
","","","731.5999999046326","","","14","3179","2506","r","elianto","#3366ff99","-1"," ","0","0","[1582.5]","1","3","","","3179","145","1","2","win","no-go","0"
"pit-trial","213","1310078","0.0-151.0","battery-v0.2","","""event"",""trial"",""time""
""fullscreenenter"",""1"",""4332""
","
","
","""event"",""trial"",""time""
""fullscreenenter"",""1"",""4332""
","
","","","1148.6000001430511","","","14","3179","2506","h","elianto","#f73b6a7A","-1"," ","0","-10","[1999.7000000476837]","1","3","","","3179","146","3","4","lose","no-go","0"
"pit-trial","214","1313857","0.0-152.0","battery-v0.2","","""event"",""trial"",""time""
""fullscreenenter"",""1"",""4332""
","
","
","""event"",""trial"",""time""
""fullscreenenter"",""1"",""4332""
","
","","","922.6000001430511","","","14","3179","2506","m","elianto","#f73b6a7A"," "," ","1","0","[1774.7000000476837]","1","3","","","3179","147","0","3","lose","go","0"
"pit-trial","215","1317620","0.0-153.0","battery-v0.2","","""event"",""trial"",""time""
""fullscreenenter"",""1"",""4332""
","
","
","""event"",""trial"",""time""
""fullscreenenter"",""1"",""4332""
","
","","","908.7000000476837","","","14","3179","2506","y","elianto","#f73b6a7A"," "," ","1","0","[1761.0999999046326]","1","3","","","3179","148","2","3","lose","go","0"
"pit-trial","216","1322478","0.0-154.0","battery-v0.2","","""event"",""trial"",""time""
""fullscreenenter"",""1"",""4332""
","
","
","""event"",""trial"",""time""
""fullscreenenter"",""1"",""4332""
","
","","","-1","","","14","3179","2506","h","elianto","#f73b6a7A","-1","-1","1","0","[]","0","3","","","3179","149","3","4","lose","no-go","0"
"pit-trial","217","1326112","0.0-155.0","battery-v0.2","","""event"",""trial"",""time""
""fullscreenenter"",""1"",""4332""
","
","
","""event"",""trial"",""time""
""fullscreenenter"",""1"",""4332""
","
","","","777.2000000476837","","","14","3179","2506","r","elianto","#3366ff99","-1"," ","0","0","[1629.6000001430511]","1","3","","","3179","150","1","2","win","no-go","0"
"pit-trial","218","1330205","0.0-156.0","battery-v0.2","","""event"",""trial"",""time""
""fullscreenenter"",""1"",""4332""
","
","
","""event"",""trial"",""time""
""fullscreenenter"",""1"",""4332""
","
","","","1238.5","","","14","3179","2506","m","elianto","#f73b6a7A"," "," ","1","-10","[2091]","1","3","","","3179","151","0","3","lose","go","1"
"pit-trial","219","1333942","0.0-157.0","battery-v0.2","","""event"",""trial"",""time""
""fullscreenenter"",""1"",""4332""
","
","
","""event"",""trial"",""time""
""fullscreenenter"",""1"",""4332""
","
","","","882.8999998569489","","","14","3179","2506","y","elianto","#f73b6a7A"," "," ","1","-10","[1733.2999999523163]","1","3","","","3179","152","2","3","lose","go","1"
"pit-trial","220","1337798","0.0-158.0","battery-v0.2","","""event"",""trial"",""time""
""fullscreenenter"",""1"",""4332""
","
","
","""event"",""trial"",""time""
""fullscreenenter"",""1"",""4332""
","
","","","998.1000001430511","","","14","3179","2506","m","elianto","#f73b6a7A"," "," ","1","0","[1851.2999999523163]","1","3","","","3179","153","0","3","lose","go","0"
"pit-trial","221","1342656","0.0-159.0","battery-v0.2","","""event"",""trial"",""time""
""fullscreenenter"",""1"",""4332""
","
","
","""event"",""trial"",""time""
""fullscreenenter"",""1"",""4332""
","
","","","-1","","","14","3179","2506","h","elianto","#f73b6a7A","-1","-1","1","-10","[]","0","3","","","3179","154","3","4","lose","no-go","1"
"pit-trial","222","1346256","0.0-160.0","battery-v0.2","","""event"",""trial"",""time""
""fullscreenenter"",""1"",""4332""
","
","
","""event"",""trial"",""time""
""fullscreenenter"",""1"",""4332""
","
","","","744.7000000476837","","","14","3179","2506","r","elianto","#3366ff99","-1"," ","0","0","[1597.2000000476837]","1","3","","","3179","155","1","2","win","no-go","0"
"pit-trial","223","1350081","0.0-161.0","battery-v0.2","","""event"",""trial"",""time""
""fullscreenenter"",""1"",""4332""
","
","
","""event"",""trial"",""time""
""fullscreenenter"",""1"",""4332""
","
","","","970.7000000476837","","","14","3179","2506","y","elianto","#f73b6a7A"," "," ","1","-10","[1823.0999999046326]","1","3","","","3179","156","2","3","lose","go","1"
"pit-trial","224","1354940","0.0-162.0","battery-v0.2","","""event"",""trial"",""time""
""fullscreenenter"",""1"",""4332""
","
","
","""event"",""trial"",""time""
""fullscreenenter"",""1"",""4332""
","
","","","-1","","","14","3179","2506","h","elianto","#f73b6a7A","-1","-1","1","-10","[]","0","3","","","3179","157","3","4","lose","no-go","1"
"pit-trial","225","1359799","0.0-163.0","battery-v0.2","","""event"",""trial"",""time""
""fullscreenenter"",""1"",""4332""
","
","
","""event"",""trial"",""time""
""fullscreenenter"",""1"",""4332""
","
","","","-1","","","14","3179","2506","r","elianto","#3366ff99","-1","-1","1","0","[3083.7999999523163]","1","3","","","3179","158","1","2","win","no-go","1"
"pit-trial","226","1363659","0.0-164.0","battery-v0.2","","""event"",""trial"",""time""
""fullscreenenter"",""1"",""4332""
","
","
","""event"",""trial"",""time""
""fullscreenenter"",""1"",""4332""
","
","","","1001.6000001430511","","","14","3179","2506","y","elianto","#f73b6a7A"," "," ","1","0","[1855.2000000476837]","1","3","","","3179","159","2","3","lose","go","0"
"pit-trial","227","1367363","0.0-165.0","battery-v0.2","","""event"",""trial"",""time""
""fullscreenenter"",""1"",""4332""
","
","
","""event"",""trial"",""time""
""fullscreenenter"",""1"",""4332""
","
","","","847.7000000476837","","","14","3179","2506","m","elianto","#f73b6a7A"," "," ","1","0","[1700]","1","3","","","3179","160","0","3","lose","go","0"
"pit-trial","228","1371130","0.0-166.0","battery-v0.2","","""event"",""trial"",""time""
""fullscreenenter"",""1"",""4332""
","
","
","""event"",""trial"",""time""
""fullscreenenter"",""1"",""4332""
","
","","","909.4000000953674","","","14","3179","2506","m","elianto","#f73b6a7A"," "," ","1","0","[1761.6000001430511]","1","3","","","3179","161","0","3","lose","go","0"
"pit-trial","229","1374876","0.0-167.0","battery-v0.2","","""event"",""trial"",""time""
""fullscreenenter"",""1"",""4332""
","
","
","""event"",""trial"",""time""
""fullscreenenter"",""1"",""4332""
","
","","","892","","","14","3179","2506","y","elianto","#f73b6a7A"," "," ","1","0","[1743.5999999046326]","1","3","","","3179","162","2","3","lose","go","0"
"pit-trial","230","1379733","0.0-168.0","battery-v0.2","","""event"",""trial"",""time""
""fullscreenenter"",""1"",""4332""
","
","
","""event"",""trial"",""time""
""fullscreenenter"",""1"",""4332""
","
","","","-1","","","14","3179","2506","h","elianto","#f73b6a7A","-1","-1","1","0","[]","0","3","","","3179","163","3","4","lose","no-go","0"
"pit-trial","231","1384592","0.0-169.0","battery-v0.2","","""event"",""trial"",""time""
""fullscreenenter"",""1"",""4332""
","
","
","""event"",""trial"",""time""
""fullscreenenter"",""1"",""4332""
","
","","","-1","","","14","3179","2506","r","elianto","#3366ff99","-1","-1","1","+10","[]","0","3","","","3179","164","1","2","win","no-go","0"
"pit-trial","232","1389451","0.0-170.0","battery-v0.2","","""event"",""trial"",""time""
""fullscreenenter"",""1"",""4332""
","
","
","""event"",""trial"",""time""
""fullscreenenter"",""1"",""4332""
","
","","","-1","","","14","3179","2506","r","elianto","#3366ff99","-1","-1","1","+10","[]","0","3","","","3179","165","1","2","win","no-go","0"
"pit-trial","233","1394309","0.0-171.0","battery-v0.2","","""event"",""trial"",""time""
""fullscreenenter"",""1"",""4332""
","
","
","""event"",""trial"",""time""
""fullscreenenter"",""1"",""4332""
","
","","","-1","","","14","3179","2506","h","elianto","#f73b6a7A","-1","-1","1","0","[]","0","3","","","3179","166","3","4","lose","no-go","0"
"pit-trial","234","1398024","0.0-172.0","battery-v0.2","","""event"",""trial"",""time""
""fullscreenenter"",""1"",""4332""
","
","
","""event"",""trial"",""time""
""fullscreenenter"",""1"",""4332""
","
","","","858.2000000476837","","","14","3179","2506","y","elianto","#f73b6a7A"," "," ","1","0","[1709.9000000953674]","1","3","","","3179","167","2","3","lose","go","0"
"pit-trial","235","1402750","0.0-173.0","battery-v0.2","","""event"",""trial"",""time""
""fullscreenenter"",""1"",""4332""
","
","
","""event"",""trial"",""time""
""fullscreenenter"",""1"",""4332""
","
","","","1867.7999999523163","","","14","3179","2506","m","elianto","#f73b6a7A"," "," ","1","0","[2720.7999999523163]","1","3","","","3179","168","0","3","lose","go","0"
"pit-trial","236","1406349","0.0-174.0","battery-v0.2","","""event"",""trial"",""time""
""fullscreenenter"",""1"",""4332""
","
","
","""event"",""trial"",""time""
""fullscreenenter"",""1"",""4332""
","
","","","742.4000000953674","","","14","3179","2506","y","elianto","#f73b6a7A"," "," ","1","-10","[1594.7000000476837]","1","3","","","3179","169","2","3","lose","go","1"
"pit-trial","237","1409588","0.0-175.0","battery-v0.2","","""event"",""trial"",""time""
""fullscreenenter"",""1"",""4332""
","
","
","""event"",""trial"",""time""
""fullscreenenter"",""1"",""4332""
","
","","","383.39999985694885","","","14","3179","2506","h","elianto","#f73b6a7A","-1"," ","0","-10","[1235.7999999523163]","1","3","","","3179","170","3","4","lose","no-go","0"
"pit-trial","238","1414447","0.0-176.0","battery-v0.2","","""event"",""trial"",""time""
""fullscreenenter"",""1"",""4332""
","
","
","""event"",""trial"",""time""
""fullscreenenter"",""1"",""4332""
","
","","","-1","","","14","3179","2506","r","elianto","#3366ff99","-1","-1","1","+10","[]","0","3","","","3179","171","1","2","win","no-go","0"
"pit-trial","239","1418441","0.0-177.0","battery-v0.2","","""event"",""trial"",""time""
""fullscreenenter"",""1"",""4332""
","
","
","""event"",""trial"",""time""
""fullscreenenter"",""1"",""4332""
","
","","","1133.3999998569489","","","14","3179","2506","m","elianto","#f73b6a7A"," "," ","1","0","[1988]","1","3","","","3179","172","0","3","lose","go","0"
"pit-trial","240","1423299","0.0-178.0","battery-v0.2","","""event"",""trial"",""time""
""fullscreenenter"",""1"",""4332""
","
","
","""event"",""trial"",""time""
""fullscreenenter"",""1"",""4332""
","
","","","-1","","","14","3179","2506","r","elianto","#3366ff99","-1","-1","1","+10","[]","0","3","","","3179","173","1","2","win","no-go","0"
"pit-trial","241","1427589","0.0-179.0","battery-v0.2","","""event"",""trial"",""time""
""fullscreenenter"",""1"",""4332""
","
","
","""event"",""trial"",""time""
""fullscreenenter"",""1"",""4332""
","
","","","1433.5","","","14","3179","2506","m","elianto","#f73b6a7A"," "," ","1","0","[2285.7999999523163]","1","3","","","3179","174","0","3","lose","go","0"
"pit-trial","242","1432059","0.0-180.0","battery-v0.2","","""event"",""trial"",""time""
""fullscreenenter"",""1"",""4332""
","
","
","""event"",""trial"",""time""
""fullscreenenter"",""1"",""4332""
","
","","","1613.8000001907349","","","14","3179","2506","y","elianto","#f73b6a7A"," "," ","1","0","[2466.600000143051]","1","3","","","3179","175","2","3","lose","go","0"
"pit-trial","243","1436918","0.0-181.0","battery-v0.2","","""event"",""trial"",""time""
""fullscreenenter"",""1"",""4332""
","
","
","""event"",""trial"",""time""
""fullscreenenter"",""1"",""4332""
","
","","","-1","","","14","3179","2506","h","elianto","#f73b6a7A","-1","-1","1","-10","[]","0","3","","","3179","176","3","4","lose","no-go","1"
"pit-trial","244","1440581","0.0-182.0","battery-v0.2","","""event"",""trial"",""time""
""fullscreenenter"",""1"",""4332""
","
","
","""event"",""trial"",""time""
""fullscreenenter"",""1"",""4332""
","
","","","806.5999999046326","","","14","3179","2506","y","elianto","#f73b6a7A"," "," ","1","0","[1657.7999999523163]","1","3","","","3179","177","2","3","lose","go","0"
"pit-trial","245","1445442","0.0-183.0","battery-v0.2","","""event"",""trial"",""time""
""fullscreenenter"",""1"",""4332""
","
","
","""event"",""trial"",""time""
""fullscreenenter"",""1"",""4332""
","
","","","-1","","","14","3179","2506","h","elianto","#f73b6a7A","-1","-1","1","-10","[]","0","3","","","3179","178","3","4","lose","no-go","1"
"pit-trial","246","1449563","0.0-184.0","battery-v0.2","","""event"",""trial"",""time""
""fullscreenenter"",""1"",""4332""
","
","
","""event"",""trial"",""time""
""fullscreenenter"",""1"",""4332""
","
","","","1268","","","14","3179","2506","z","elianto","#3366ff99"," "," ","1","+10","[2118.4000000953674]","1","3","","","3179","179","4","1","win","go","0"
"pit-trial","247","1453224","0.0-185.0","battery-v0.2","","""event"",""trial"",""time""
""fullscreenenter"",""1"",""4332""
","
","
","""event"",""trial"",""time""
""fullscreenenter"",""1"",""4332""
","
","","","807.3000001907349","","","14","3179","2506","m","elianto","#f73b6a7A"," "," ","1","0","[1657.5]","1","3","","","3179","180","0","3","lose","go","0"
"pit-trial","248","1458083","0.0-186.0","battery-v0.2","","""event"",""trial"",""time""
""fullscreenenter"",""1"",""4332""
","
","
","""event"",""trial"",""time""
""fullscreenenter"",""1"",""4332""
","
","","","-1","","","14","3179","2506","h","elianto","#f73b6a7A","-1","-1","1","0","[]","0","3","","","3179","181","3","4","lose","no-go","0"
"pit-trial","249","1462942","0.0-187.0","battery-v0.2","","""event"",""trial"",""time""
""fullscreenenter"",""1"",""4332""
","
","
","""event"",""trial"",""time""
""fullscreenenter"",""1"",""4332""
","
","","","-1","","","14","3179","2506","r","elianto","#3366ff99","-1","-1","1","0","[]","0","3","","","3179","182","1","2","win","no-go","1"
"pit-trial","250","1467458","0.0-188.0","battery-v0.2","","""event"",""trial"",""time""
""fullscreenenter"",""1"",""4332""
","
","
","""event"",""trial"",""time""
""fullscreenenter"",""1"",""4332""
","
","","","1661.9000000953674","","","14","3179","2506","z","elianto","#3366ff99"," "," ","1","+10","[2514.100000143051]","1","3","","","3179","183","4","1","win","go","0"
"pit-trial","251","1471330","0.0-189.0","battery-v0.2","","""event"",""trial"",""time""
""fullscreenenter"",""1"",""4332""
","
","
","""event"",""trial"",""time""
""fullscreenenter"",""1"",""4332""
","
","","","1015.6999998092651","","","14","3179","2506","y","elianto","#f73b6a7A"," "," ","1","0","[1868.0999999046326]","1","3","","","3179","184","2","3","lose","go","0"
"pit-trial","252","1476190","0.0-190.0","battery-v0.2","","""event"",""trial"",""time""
""fullscreenenter"",""1"",""4332""
","
","
","""event"",""trial"",""time""
""fullscreenenter"",""1"",""4332""
","
","","","-1","","","14","3179","2506","r","elianto","#3366ff99","-1","-1","1","0","[]","0","3","","","3179","185","1","2","win","no-go","1"
"pit-trial","253","1480287","0.0-191.0","battery-v0.2","","""event"",""trial"",""time""
""fullscreenenter"",""1"",""4332""
","
","
","""event"",""trial"",""time""
""fullscreenenter"",""1"",""4332""
","
","","","1240","","","14","3179","2506","z","elianto","#3366ff99"," "," ","1","0","[2090.7000000476837]","1","3","","","3179","186","4","1","win","go","1"
"pit-trial","254","1485145","0.0-192.0","battery-v0.2","","""event"",""trial"",""time""
""fullscreenenter"",""1"",""4332""
","
","
","""event"",""trial"",""time""
""fullscreenenter"",""1"",""4332""
","
","","","-1","","","14","3179","2506","h","elianto","#f73b6a7A","-1","-1","1","0","[]","0","3","","","3179","187","3","4","lose","no-go","0"
"pit-trial","255","1489389","0.0-193.0","battery-v0.2","","""event"",""trial"",""time""
""fullscreenenter"",""1"",""4332""
","
","
","""event"",""trial"",""time""
""fullscreenenter"",""1"",""4332""
","
","","","1388.7000000476837","","","14","3179","2506","c","elianto","#3366ff99","-1"," ","0","0","[2240.7000000476837]","1","3","","","3179","188","5","2","win","no-go","0"
"pit-trial","256","1494248","0.0-194.0","battery-v0.2","","""event"",""trial"",""time""
""fullscreenenter"",""1"",""4332""
","
","
","""event"",""trial"",""time""
""fullscreenenter"",""1"",""4332""
","
","","","-1","","","14","3179","2506","r","elianto","#3366ff99","-1","-1","1","+10","[]","0","3","","","3179","189","1","2","win","no-go","0"
"pit-trial","257","1499107","0.0-195.0","battery-v0.2","","""event"",""trial"",""time""
""fullscreenenter"",""1"",""4332""
","
","
","""event"",""trial"",""time""
""fullscreenenter"",""1"",""4332""
","
","","","-1","","","14","3179","2506","c","elianto","#3366ff99","-1","-1","1","+10","[]","0","3","","","3179","190","5","2","win","no-go","0"
"pit-trial","258","1503147","0.0-196.0","battery-v0.2","","""event"",""trial"",""time""
""fullscreenenter"",""1"",""4332""
","
","
","""event"",""trial"",""time""
""fullscreenenter"",""1"",""4332""
","
","","","1182","","","14","3179","2506","y","elianto","#f73b6a7A"," "," ","1","-10","[2034.4000000953674]","1","3","","","3179","191","2","3","lose","go","1"
"pit-trial","259","1508006","0.0-197.0","battery-v0.2","","""event"",""trial"",""time""
""fullscreenenter"",""1"",""4332""
","
","
","""event"",""trial"",""time""
""fullscreenenter"",""1"",""4332""
","
","","","-1","","","14","3179","2506","z","elianto","#3366ff99"," ","-1","0","0","[3094.800000190735]","1","3","","","3179","192","4","1","win","go","0"
"pit-trial","260","1512713","0.0-198.0","battery-v0.2","","""event"",""trial"",""time""
""fullscreenenter"",""1"",""4332""
","
","
","""event"",""trial"",""time""
""fullscreenenter"",""1"",""4332""
","
","","","1853.6000001430511","","","14","3179","2506","z","elianto","#3366ff99"," "," ","1","+10","[2706.100000143051]","1","3","","","3179","193","4","1","win","go","0"
"pit-trial","261","1517572","0.0-199.0","battery-v0.2","","""event"",""trial"",""time""
""fullscreenenter"",""1"",""4332""
","
","
","""event"",""trial"",""time""
""fullscreenenter"",""1"",""4332""
","
","","","-1","","","14","3179","2506","h","elianto","#f73b6a7A","-1","-1","1","-10","[]","0","3","","","3179","194","3","4","lose","no-go","1"
"pit-trial","262","1522431","0.0-200.0","battery-v0.2","","""event"",""trial"",""time""
""fullscreenenter"",""1"",""4332""
","
","
","""event"",""trial"",""time""
""fullscreenenter"",""1"",""4332""
","
","","","-1","","","14","3179","2506","c","elianto","#3366ff99","-1","-1","1","+10","[]","0","3","","","3179","195","5","2","win","no-go","0"
"pit-trial","263","1527290","0.0-201.0","battery-v0.2","","""event"",""trial"",""time""
""fullscreenenter"",""1"",""4332""
","
","
","""event"",""trial"",""time""
""fullscreenenter"",""1"",""4332""
","
","","","-1","","","14","3179","2506","r","elianto","#3366ff99","-1","-1","1","+10","[]","0","3","","","3179","196","1","2","win","no-go","0"
"pit-trial","264","1531179","0.0-202.0","battery-v0.2","","""event"",""trial"",""time""
""fullscreenenter"",""1"",""4332""
","
","
","""event"",""trial"",""time""
""fullscreenenter"",""1"",""4332""
","
","","","1035.4000000953674","","","14","3179","2506","z","elianto","#3366ff99"," "," ","1","0","[1887.7000000476837]","1","3","","","3179","197","4","1","win","go","1"
"pit-trial","265","1536038","0.0-203.0","battery-v0.2","","""event"",""trial"",""time""
""fullscreenenter"",""1"",""4332""
","
","
","""event"",""trial"",""time""
""fullscreenenter"",""1"",""4332""
","
","","","-1","","","14","3179","2506","c","elianto","#3366ff99","-1","-1","1","+10","[]","0","3","","","3179","198","5","2","win","no-go","0"
"pit-trial","266","1540031","0.0-204.0","battery-v0.2","","""event"",""trial"",""time""
""fullscreenenter"",""1"",""4332""
","
","
","""event"",""trial"",""time""
