"trial_type","trial_index","time_elapsed","internal_node_id","task_version","subject_id","interactions","blur_events","focus_events","fullscreenenter_events","fullscreenexit_events","success","view_history","rt","responses","num_errors","age","subject","participantId","rune","rune_set","hex","correct","choice","accuracy","outcome","keys","total_keys","block","practice","value","sub","trial","stimulus","robot","valence","action","sham"
"pavlovia","0","20","0.0-0.0","battery-v0.2","","""event"",""trial"",""time""
""fullscreenenter"",""1"",""8335""
","
","
","""event"",""trial"",""time""
""fullscreenenter"",""1"",""8335""
","
","","","","","","","","","","","","","","","","","","","","","","","","","","",""
"fullscreen","1","9286","0.0-1.0","battery-v0.2","","""event"",""trial"",""time""
""fullscreenenter"",""1"",""8335""
","
","
","""event"",""trial"",""time""
""fullscreenenter"",""1"",""8335""
","
","true","","","","","","","","","","","","","","","","","","","","","","","","","",""
"pit-instructions","2","22484","0.0-2.0-0.0","battery-v0.2","","""event"",""trial"",""time""
""fullscreenenter"",""1"",""8335""
","
","
","""event"",""trial"",""time""
""fullscreenenter"",""1"",""8335""
","
","","[{""page_index"":0,""viewing_time"":13190.600000023842}]","13191.900000095367","","","","","","","","","","","","","","","","","","","","","","","",""
"pit-comprehension","3","29553","0.0-2.0-1.0-0.0","battery-v0.2","","""event"",""trial"",""time""
""fullscreenenter"",""1"",""8335""
","
","
","""event"",""trial"",""time""
""fullscreenenter"",""1"",""8335""
","
","","","7061.100000023842","[""shark""]","0","16","6358","3585","","","","","","","","","","","","","","","","","","",""
"pit-instructions","4","34100","0.0-2.0-1.0-1.0","battery-v0.2","","""event"",""trial"",""time""
""fullscreenenter"",""1"",""8335""
","
","
","""event"",""trial"",""time""
""fullscreenenter"",""1"",""8335""
","
","","[{""page_index"":0,""viewing_time"":4528}]","4528.399999976158","","","","","","","","","","","","","","","","","","","","","","","",""
"pit-comprehension","5","39697","0.0-2.0-2.0-0.0","battery-v0.2","","""event"",""trial"",""time""
""fullscreenenter"",""1"",""8335""
","
","
","""event"",""trial"",""time""
""fullscreenenter"",""1"",""8335""
","
","","","5593.100000023842","[""tiger""]","0","16","6358","3585","","","","","","","","","","","","","","","","","","",""
"pit-instructions","6","42201","0.0-2.0-2.0-1.0","battery-v0.2","","""event"",""trial"",""time""
""fullscreenenter"",""1"",""8335""
""blur"",""7"",""151909""
""focus"",""7"",""154946""
","""event"",""trial"",""time""
""blur"",""7"",""151909""
","""event"",""trial"",""time""
""focus"",""7"",""154946""
","""event"",""trial"",""time""
""fullscreenenter"",""1"",""8335""
","
","","[{""page_index"":0,""viewing_time"":2498.100000023842}]","2498.5","","","","","","","","","","","","","","","","","","","","","","","",""
"pit-instructions","7","169240","0.0-2.0-3.0","battery-v0.2","","""event"",""trial"",""time""
""fullscreenenter"",""1"",""8335""
""blur"",""7"",""151909""
""focus"",""7"",""154946""
","""event"",""trial"",""time""
""blur"",""7"",""151909""
","""event"",""trial"",""time""
""focus"",""7"",""154946""
","""event"",""trial"",""time""
""fullscreenenter"",""1"",""8335""
","
","","[{""page_index"":0,""viewing_time"":10390.900000095367},{""page_index"":1,""viewing_time"":8134.199999928474},{""page_index"":2,""viewing_time"":11345},{""page_index"":3,""viewing_time"":9683.300000071526},{""page_index"":4,""viewing_time"":7393.099999904633},{""page_index"":5,""viewing_time"":8688.400000095367},{""page_index"":6,""viewing_time"":8626.599999904633},{""page_index"":7,""viewing_time"":7905.300000071526},{""page_index"":8,""viewing_time"":8796.199999928474},{""page_index"":9,""viewing_time"":15002.800000071526},{""page_index"":10,""viewing_time"":7884.399999976158},{""page_index"":11,""viewing_time"":9001.200000047684},{""page_index"":12,""viewing_time"":7069.799999952316},{""page_index"":13,""viewing_time"":7113.200000047684}]","127035.10000002384","","","","","","","","","","","","","","","","","","","","","","","",""
"pit-trial","8","172702","0.0-2.0-4.0-0.0","battery-v0.2","","""event"",""trial"",""time""
""fullscreenenter"",""1"",""8335""
""blur"",""7"",""151909""
""focus"",""7"",""154946""
","""event"",""trial"",""time""
""blur"",""7"",""151909""
","""event"",""trial"",""time""
""focus"",""7"",""154946""
","""event"",""trial"",""time""
""fullscreenenter"",""1"",""8335""
","
","","","580.8999999761581","","","16","6358","3585","&#9784;","elianto","#FFFFF080"," "," ","1","&#10004","[1436.2999999523163,2997.100000023842]","2","0","0","","","","","","","",""
"pit-trial","9","176291","0.0-2.0-4.1-0.1","battery-v0.2","","""event"",""trial"",""time""
""fullscreenenter"",""1"",""8335""
""blur"",""7"",""151909""
""focus"",""7"",""154946""
","""event"",""trial"",""time""
""blur"",""7"",""151909""
","""event"",""trial"",""time""
""focus"",""7"",""154946""
","""event"",""trial"",""time""
""fullscreenenter"",""1"",""8335""
","
","","","697.1000000238419","","","16","6358","3585","&#9784;","elianto","#FFFFF080"," "," ","1","&#10004","[1561,2856.600000023842]","2","0","0","","","","","","","",""
"pit-trial","10","179514","0.0-2.0-4.2-0.2","battery-v0.2","","""event"",""trial"",""time""
""fullscreenenter"",""1"",""8335""
""blur"",""7"",""151909""
""focus"",""7"",""154946""
","""event"",""trial"",""time""
""blur"",""7"",""151909""
","""event"",""trial"",""time""
""focus"",""7"",""154946""
","""event"",""trial"",""time""
""fullscreenenter"",""1"",""8335""
","
","","","346.7999999523163","","","16","6358","3585","&#9784;","elianto","#FFFFF080"," "," ","1","&#10004","[1202.3999999761581]","1","0","0","","","","","","","",""
"pit-trial","11","182798","0.0-2.0-4.3-0.3","battery-v0.2","","""event"",""trial"",""time""
""fullscreenenter"",""1"",""8335""
""blur"",""7"",""151909""
""focus"",""7"",""154946""
","""event"",""trial"",""time""
""blur"",""7"",""151909""
","""event"",""trial"",""time""
""focus"",""7"",""154946""
","""event"",""trial"",""time""
""fullscreenenter"",""1"",""8335""
","
","","","402.89999997615814","","","16","6358","3585","&#9784;","elianto","#FFFFF080"," "," ","1","&#10004","[116.89999997615814,1264.2000000476837]","2","0","0","","","","","","","",""
"pit-trial","12","186239","0.0-2.0-4.4-0.4","battery-v0.2","","""event"",""trial"",""time""
""fullscreenenter"",""1"",""8335""
""blur"",""7"",""151909""
""focus"",""7"",""154946""
","""event"",""trial"",""time""
""blur"",""7"",""151909""
","""event"",""trial"",""time""
""focus"",""7"",""154946""
","""event"",""trial"",""time""
""fullscreenenter"",""1"",""8335""
","
","","","581.8999999761581","","","16","6358","3585","&#9784;","elianto","#FFFFF080"," "," ","1","&#10004","[1432]","1","0","0","","","","","","","",""
"pit-instructions","13","219757","0.0-2.0-5.0","battery-v0.2","","""event"",""trial"",""time""
""fullscreenenter"",""1"",""8335""
""blur"",""7"",""151909""
""focus"",""7"",""154946""
","""event"",""trial"",""time""
""blur"",""7"",""151909""
","""event"",""trial"",""time""
""focus"",""7"",""154946""
","""event"",""trial"",""time""
""fullscreenenter"",""1"",""8335""
","
","","[{""page_index"":0,""viewing_time"":7054.699999928474},{""page_index"":1,""viewing_time"":8181.200000047684},{""page_index"":2,""viewing_time"":10018.699999928474},{""page_index"":3,""viewing_time"":8254.200000047684}]","33509.39999997616","","","","","","","","","","","","","","","","","","","","","","","",""
"pit-trial","14","224626","0.0-2.0-6.0-0.0","battery-v0.2","","""event"",""trial"",""time""
""fullscreenenter"",""1"",""8335""
""blur"",""7"",""151909""
""focus"",""7"",""154946""
","""event"",""trial"",""time""
""blur"",""7"",""151909""
","""event"",""trial"",""time""
""focus"",""7"",""154946""
","""event"",""trial"",""time""
""fullscreenenter"",""1"",""8335""
","
","","","-1","","","16","6358","3585","&#9854;","elianto","#FFFFF080","-1","-1","1","&#10004","[]","0","0","1","","","","","","","",""
"pit-trial","15","229504","0.0-2.0-6.1-0.1","battery-v0.2","","""event"",""trial"",""time""
""fullscreenenter"",""1"",""8335""
""blur"",""7"",""151909""
""focus"",""7"",""154946""
","""event"",""trial"",""time""
""blur"",""7"",""151909""
","""event"",""trial"",""time""
""focus"",""7"",""154946""
","""event"",""trial"",""time""
""fullscreenenter"",""1"",""8335""
","
","","","-1","","","16","6358","3585","&#9854;","elianto","#FFFFF080","-1","-1","1","&#10004","[]","0","0","1","","","","","","","",""
"pit-trial","16","234385","0.0-2.0-6.2-0.2","battery-v0.2","","""event"",""trial"",""time""
""fullscreenenter"",""1"",""8335""
""blur"",""7"",""151909""
""focus"",""7"",""154946""
","""event"",""trial"",""time""
""blur"",""7"",""151909""
","""event"",""trial"",""time""
""focus"",""7"",""154946""
","""event"",""trial"",""time""
""fullscreenenter"",""1"",""8335""
","
","","","-1","","","16","6358","3585","&#9854;","elianto","#FFFFF080","-1","-1","1","&#10004","[]","0","0","1","","","","","","","",""
"pit-trial","17","239274","0.0-2.0-6.3-0.3","battery-v0.2","","""event"",""trial"",""time""
""fullscreenenter"",""1"",""8335""
""blur"",""7"",""151909""
""focus"",""7"",""154946""
","""event"",""trial"",""time""
""blur"",""7"",""151909""
","""event"",""trial"",""time""
""focus"",""7"",""154946""
","""event"",""trial"",""time""
""fullscreenenter"",""1"",""8335""
","
","","","-1","","","16","6358","3585","&#9854;","elianto","#FFFFF080","-1","-1","1","&#10004","[]","0","0","1","","","","","","","",""
"pit-trial","18","244148","0.0-2.0-6.4-0.4","battery-v0.2","","""event"",""trial"",""time""
""fullscreenenter"",""1"",""8335""
""blur"",""7"",""151909""
""focus"",""7"",""154946""
","""event"",""trial"",""time""
""blur"",""7"",""151909""
","""event"",""trial"",""time""
""focus"",""7"",""154946""
","""event"",""trial"",""time""
""fullscreenenter"",""1"",""8335""
","
","","","-1","","","16","6358","3585","&#9854;","elianto","#FFFFF080","-1","-1","1","&#10004","[]","0","0","1","","","","","","","",""
"pit-instructions","19","395686","0.0-2.0-7.0","battery-v0.2","","""event"",""trial"",""time""
""fullscreenenter"",""1"",""8335""
""blur"",""7"",""151909""
""focus"",""7"",""154946""
","""event"",""trial"",""time""
""blur"",""7"",""151909""
","""event"",""trial"",""time""
""focus"",""7"",""154946""
","""event"",""trial"",""time""
""fullscreenenter"",""1"",""8335""
","
","","[{""page_index"":0,""viewing_time"":7913},{""page_index"":1,""viewing_time"":11288.799999952316},{""page_index"":2,""viewing_time"":8380.300000071526},{""page_index"":3,""viewing_time"":6297.699999928474},{""page_index"":4,""viewing_time"":7858},{""page_index"":5,""viewing_time"":8224},{""page_index"":6,""viewing_time"":7971.800000071526},{""page_index"":7,""viewing_time"":10057.899999976158},{""page_index"":8,""viewing_time"":8421},{""page_index"":9,""viewing_time"":8904.299999952316},{""page_index"":10,""viewing_time"":7241.399999976158},{""page_index"":11,""viewing_time"":4846.600000023842},{""page_index"":12,""viewing_time"":8763.600000023842},{""page_index"":13,""viewing_time"":8679.100000023842},{""page_index"":14,""viewing_time"":9137.399999976158},{""page_index"":15,""viewing_time"":10418.100000023842},{""page_index"":16,""viewing_time"":10565.199999928474},{""page_index"":17,""viewing_time"":6562.5}]","151531.60000002384","","","","","","","","","","","","","","","","","","","","","","","",""
"pit-trial","20","398886","0.0-2.0-8.0-0.0","battery-v0.2","","""event"",""trial"",""time""
""fullscreenenter"",""1"",""8335""
""blur"",""7"",""151909""
""focus"",""7"",""154946""
","""event"",""trial"",""time""
""blur"",""7"",""151909""
","""event"",""trial"",""time""
""focus"",""7"",""154946""
","""event"",""trial"",""time""
""fullscreenenter"",""1"",""8335""
","
","","","323.40000009536743","","","16","6358","3585","&#9776;","elianto","#3366ff99"," "," ","1","+10","[1185.1999999284744]","1","0","1","","","","","","","",""
"pit-trial","21","402255","0.0-2.0-8.0-1.0","battery-v0.2","","""event"",""trial"",""time""
""fullscreenenter"",""1"",""8335""
""blur"",""7"",""151909""
""focus"",""7"",""154946""
","""event"",""trial"",""time""
""blur"",""7"",""151909""
","""event"",""trial"",""time""
""focus"",""7"",""154946""
","""event"",""trial"",""time""
""fullscreenenter"",""1"",""8335""
","
","","","505.7999999523163","","","16","6358","3585","&#9776;","elianto","#3366ff99"," "," ","1","+10","[1358.3999999761581]","1","0","1","","","","","","","",""
"pit-trial","22","405664","0.0-2.0-8.0-2.0","battery-v0.2","","""event"",""trial"",""time""
""fullscreenenter"",""1"",""8335""
""blur"",""7"",""151909""
""focus"",""7"",""154946""
","""event"",""trial"",""time""
""blur"",""7"",""151909""
","""event"",""trial"",""time""
""focus"",""7"",""154946""
","""event"",""trial"",""time""
""fullscreenenter"",""1"",""8335""
","
","","","534.1000000238419","","","16","6358","3585","&#9776;","elianto","#3366ff99"," "," ","1","+10","[1392.3999999761581]","1","0","1","","","","","","","",""
"pit-trial","23","409053","0.0-2.0-8.0-3.0","battery-v0.2","","""event"",""trial"",""time""
""fullscreenenter"",""1"",""8335""
""blur"",""7"",""151909""
""focus"",""7"",""154946""
","""event"",""trial"",""time""
""blur"",""7"",""151909""
","""event"",""trial"",""time""
""focus"",""7"",""154946""
","""event"",""trial"",""time""
""fullscreenenter"",""1"",""8335""
","
","","","523.2999999523163","","","16","6358","3585","&#9776;","elianto","#3366ff99"," "," ","1","0","[1373.2999999523163]","1","0","1","","","","","","","",""
"pit-trial","24","412534","0.0-2.0-8.0-4.0","battery-v0.2","","""event"",""trial"",""time""
""fullscreenenter"",""1"",""8335""
""blur"",""7"",""151909""
""focus"",""7"",""154946""
","""event"",""trial"",""time""
""blur"",""7"",""151909""
","""event"",""trial"",""time""
""focus"",""7"",""154946""
","""event"",""trial"",""time""
""fullscreenenter"",""1"",""8335""
","
","","","608.3999999761581","","","16","6358","3585","&#9776;","elianto","#3366ff99"," "," ","1","+10","[1466.0999999046326]","1","0","1","","","","","","","",""
"pit-trial","25","416061","0.0-2.0-8.1-0.1","battery-v0.2","","""event"",""trial"",""time""
""fullscreenenter"",""1"",""8335""
""blur"",""7"",""151909""
""focus"",""7"",""154946""
","""event"",""trial"",""time""
""blur"",""7"",""151909""
","""event"",""trial"",""time""
""focus"",""7"",""154946""
","""event"",""trial"",""time""
""fullscreenenter"",""1"",""8335""
","
","","","656","","","16","6358","3585","&#9776;","elianto","#3366ff99"," "," ","1","+10","[1513.2000000476837]","1","0","1","","","","","","","",""
"pit-trial","26","419426","0.0-2.0-8.1-1.1","battery-v0.2","","""event"",""trial"",""time""
""fullscreenenter"",""1"",""8335""
""blur"",""7"",""151909""
""focus"",""7"",""154946""
","""event"",""trial"",""time""
""blur"",""7"",""151909""
","""event"",""trial"",""time""
""focus"",""7"",""154946""
","""event"",""trial"",""time""
""fullscreenenter"",""1"",""8335""
","
","","","498.59999990463257","","","16","6358","3585","&#9776;","elianto","#3366ff99"," "," ","1","+10","[1353.2000000476837]","1","0","1","","","","","","","",""
"pit-trial","27","422856","0.0-2.0-8.1-2.1","battery-v0.2","","""event"",""trial"",""time""
""fullscreenenter"",""1"",""8335""
""blur"",""7"",""151909""
""focus"",""7"",""154946""
","""event"",""trial"",""time""
""blur"",""7"",""151909""
","""event"",""trial"",""time""
""focus"",""7"",""154946""
","""event"",""trial"",""time""
""fullscreenenter"",""1"",""8335""
","
","","","552","","","16","6358","3585","&#9776;","elianto","#3366ff99"," "," ","1","+10","[1409.8000000715256]","1","0","1","","","","","","","",""
"pit-trial","28","426125","0.0-2.0-8.1-3.1","battery-v0.2","","""event"",""trial"",""time""
""fullscreenenter"",""1"",""8335""
""blur"",""7"",""151909""
""focus"",""7"",""154946""
","""event"",""trial"",""time""
""blur"",""7"",""151909""
","""event"",""trial"",""time""
""focus"",""7"",""154946""
","""event"",""trial"",""time""
""fullscreenenter"",""1"",""8335""
","
","","","395.1999999284744","","","16","6358","3585","&#9776;","elianto","#3366ff99"," "," ","1","0","[1254.1999999284744]","1","0","1","","","","","","","",""
"pit-trial","29","429734","0.0-2.0-8.1-4.1","battery-v0.2","","""event"",""trial"",""time""
""fullscreenenter"",""1"",""8335""
""blur"",""7"",""151909""
""focus"",""7"",""154946""
","""event"",""trial"",""time""
""blur"",""7"",""151909""
","""event"",""trial"",""time""
""focus"",""7"",""154946""
","""event"",""trial"",""time""
""fullscreenenter"",""1"",""8335""
","
","","","743.0999999046326","","","16","6358","3585","&#9776;","elianto","#3366ff99"," "," ","1","+10","[1601.8000000715256]","1","0","1","","","","","","","",""
"pit-trial","30","433085","0.0-2.0-8.2-0.2","battery-v0.2","","""event"",""trial"",""time""
""fullscreenenter"",""1"",""8335""
""blur"",""7"",""151909""
""focus"",""7"",""154946""
","""event"",""trial"",""time""
""blur"",""7"",""151909""
","""event"",""trial"",""time""
""focus"",""7"",""154946""
","""event"",""trial"",""time""
""fullscreenenter"",""1"",""8335""
","
","","","486.60000002384186","","","16","6358","3585","&#9776;","elianto","#3366ff99"," "," ","1","+10","[1337]","1","0","1","","","","","","","",""
"pit-trial","31","436438","0.0-2.0-8.2-1.2","battery-v0.2","","""event"",""trial"",""time""
""fullscreenenter"",""1"",""8335""
""blur"",""7"",""151909""
""focus"",""7"",""154946""
","""event"",""trial"",""time""
""blur"",""7"",""151909""
","""event"",""trial"",""time""
""focus"",""7"",""154946""
","""event"",""trial"",""time""
""fullscreenenter"",""1"",""8335""
","
","","","490.10000002384186","","","16","6358","3585","&#9776;","elianto","#3366ff99"," "," ","1","+10","[1341.2000000476837]","1","0","1","","","","","","","",""
"pit-trial","32","439775","0.0-2.0-8.2-2.2","battery-v0.2","","""event"",""trial"",""time""
""fullscreenenter"",""1"",""8335""
""blur"",""7"",""151909""
""focus"",""7"",""154946""
","""event"",""trial"",""time""
""blur"",""7"",""151909""
","""event"",""trial"",""time""
""focus"",""7"",""154946""
","""event"",""trial"",""time""
""fullscreenenter"",""1"",""8335""
","
","","","479.2999999523163","","","16","6358","3585","&#9776;","elianto","#3366ff99"," "," ","1","+10","[1329.6000000238419]","1","0","1","","","","","","","",""
"pit-trial","33","443181","0.0-2.0-8.2-3.2","battery-v0.2","","""event"",""trial"",""time""
""fullscreenenter"",""1"",""8335""
""blur"",""7"",""151909""
""focus"",""7"",""154946""
","""event"",""trial"",""time""
""blur"",""7"",""151909""
","""event"",""trial"",""time""
""focus"",""7"",""154946""
","""event"",""trial"",""time""
""fullscreenenter"",""1"",""8335""
","
","","","549.6000000238419","","","16","6358","3585","&#9776;","elianto","#3366ff99"," "," ","1","0","[1401.7999999523163]","1","0","1","","","","","","","",""
"pit-trial","34","446501","0.0-2.0-8.2-4.2","battery-v0.2","","""event"",""trial"",""time""
""fullscreenenter"",""1"",""8335""
""blur"",""7"",""151909""
""focus"",""7"",""154946""
","""event"",""trial"",""time""
""blur"",""7"",""151909""
","""event"",""trial"",""time""
""focus"",""7"",""154946""
","""event"",""trial"",""time""
""fullscreenenter"",""1"",""8335""
","
","","","458.2999999523163","","","16","6358","3585","&#9776;","elianto","#3366ff99"," "," ","1","+10","[1314.6999999284744]","1","0","1","","","","","","","",""
"call-function","35","446504","0.0-2.0-9.0","battery-v0.2","","""event"",""trial"",""time""
""fullscreenenter"",""1"",""8335""
""blur"",""7"",""151909""
""focus"",""7"",""154946""
","""event"",""trial"",""time""
""blur"",""7"",""151909""
","""event"",""trial"",""time""
""focus"",""7"",""154946""
","""event"",""trial"",""time""
""fullscreenenter"",""1"",""8335""
","
","","","","","","","","","","","","","","","","","","","","","","","","","","",""
"pit-instructions","36","540969","0.0-2.0-10.0","battery-v0.2","","""event"",""trial"",""time""
""fullscreenenter"",""1"",""8335""
""blur"",""7"",""151909""
""focus"",""7"",""154946""
","""event"",""trial"",""time""
""blur"",""7"",""151909""
","""event"",""trial"",""time""
""focus"",""7"",""154946""
","""event"",""trial"",""time""
""fullscreenenter"",""1"",""8335""
","
","","[{""page_index"":0,""viewing_time"":8264.900000095367},{""page_index"":1,""viewing_time"":9596.399999976158},{""page_index"":2,""viewing_time"":11403.5},{""page_index"":3,""viewing_time"":52692.299999952316},{""page_index"":4,""viewing_time"":12504.100000023842}]","94461.90000009537","","","","","","","","","","","","","","","","","","","","","","","",""
"pit-trial","37","544627","0.0-2.0-11.0-0.0","battery-v0.2","","""event"",""trial"",""time""
""fullscreenenter"",""1"",""8335""
""blur"",""7"",""151909""
""focus"",""7"",""154946""
","""event"",""trial"",""time""
""blur"",""7"",""151909""
","""event"",""trial"",""time""
""focus"",""7"",""154946""
","""event"",""trial"",""time""
""fullscreenenter"",""1"",""8335""
","
","","","779.3999999761581","","","16","6358","3585","&#9761;","elianto","#3366ff99","-1"," ","0","0","[1640.2999999523163]","1","0","2","","","","","","","",""
"pit-trial","38","549500","0.0-2.0-11.0-1.0","battery-v0.2","","""event"",""trial"",""time""
""fullscreenenter"",""1"",""8335""
""blur"",""7"",""151909""
""focus"",""7"",""154946""
","""event"",""trial"",""time""
""blur"",""7"",""151909""
","""event"",""trial"",""time""
""focus"",""7"",""154946""
","""event"",""trial"",""time""
""fullscreenenter"",""1"",""8335""
","
","","","-1","","","16","6358","3585","&#9761;","elianto","#3366ff99","-1","-1","1","+10","[]","0","0","2","","","","","","","",""
"pit-trial","39","552761","0.0-2.0-11.0-2.0","battery-v0.2","","""event"",""trial"",""time""
""fullscreenenter"",""1"",""8335""
""blur"",""7"",""151909""
""focus"",""7"",""154946""
","""event"",""trial"",""time""
""blur"",""7"",""151909""
","""event"",""trial"",""time""
""focus"",""7"",""154946""
","""event"",""trial"",""time""
""fullscreenenter"",""1"",""8335""
","
","","","380.1999999284744","","","16","6358","3585","&#9761;","elianto","#3366ff99","-1"," ","0","0","[1242]","1","0","2","","","","","","","",""
"pit-trial","40","556081","0.0-2.0-11.0-3.0","battery-v0.2","","""event"",""trial"",""time""
""fullscreenenter"",""1"",""8335""
""blur"",""7"",""151909""
""focus"",""7"",""154946""
","""event"",""trial"",""time""
""blur"",""7"",""151909""
","""event"",""trial"",""time""
""focus"",""7"",""154946""
","""event"",""trial"",""time""
""fullscreenenter"",""1"",""8335""
","
","","","454.7999999523163","","","16","6358","3585","&#9761;","elianto","#3366ff99","-1"," ","0","+10","[1310.5]","1","0","2","","","","","","","",""
"pit-trial","41","560961","0.0-2.0-11.0-4.0","battery-v0.2","","""event"",""trial"",""time""
""fullscreenenter"",""1"",""8335""
""blur"",""7"",""151909""
""focus"",""7"",""154946""
","""event"",""trial"",""time""
""blur"",""7"",""151909""
","""event"",""trial"",""time""
""focus"",""7"",""154946""
","""event"",""trial"",""time""
""fullscreenenter"",""1"",""8335""
","
","","","-1","","","16","6358","3585","&#9761;","elianto","#3366ff99","-1","-1","1","+10","[]","0","0","2","","","","","","","",""
"pit-trial","42","565839","0.0-2.0-11.1-0.1","battery-v0.2","","""event"",""trial"",""time""
""fullscreenenter"",""1"",""8335""
""blur"",""7"",""151909""
""focus"",""7"",""154946""
","""event"",""trial"",""time""
""blur"",""7"",""151909""
","""event"",""trial"",""time""
""focus"",""7"",""154946""
","""event"",""trial"",""time""
""fullscreenenter"",""1"",""8335""
","
","","","-1","","","16","6358","3585","&#9761;","elianto","#3366ff99","-1","-1","1","+10","[]","0","0","2","","","","","","","",""
"pit-trial","43","569134","0.0-2.0-11.1-1.1","battery-v0.2","","""event"",""trial"",""time""
""fullscreenenter"",""1"",""8335""
""blur"",""7"",""151909""
""focus"",""7"",""154946""
","""event"",""trial"",""time""
""blur"",""7"",""151909""
","""event"",""trial"",""time""
""focus"",""7"",""154946""
","""event"",""trial"",""time""
""fullscreenenter"",""1"",""8335""
","
","","","432.7000000476837","","","16","6358","3585","&#9761;","elianto","#3366ff99","-1"," ","0","0","[246.79999995231628,1286.6000000238419]","2","0","2","","","","","","","",""
"pit-trial","44","574000","0.0-2.0-11.1-2.1","battery-v0.2","","""event"",""trial"",""time""
""fullscreenenter"",""1"",""8335""
""blur"",""7"",""151909""
""focus"",""7"",""154946""
","""event"",""trial"",""time""
""blur"",""7"",""151909""
","""event"",""trial"",""time""
""focus"",""7"",""154946""
","""event"",""trial"",""time""
""fullscreenenter"",""1"",""8335""
","
","","","-1","","","16","6358","3585","&#9761;","elianto","#3366ff99","-1","-1","1","+10","[3911.5999999046326]","1","0","2","","","","","","","",""
"pit-trial","45","578862","0.0-2.0-11.1-3.1","battery-v0.2","","""event"",""trial"",""time""
""fullscreenenter"",""1"",""8335""
""blur"",""7"",""151909""
""focus"",""7"",""154946""
","""event"",""trial"",""time""
""blur"",""7"",""151909""
","""event"",""trial"",""time""
""focus"",""7"",""154946""
","""event"",""trial"",""time""
""fullscreenenter"",""1"",""8335""
","
","","","-1","","","16","6358","3585","&#9761;","elianto","#3366ff99","-1","-1","1","0","[]","0","0","2","","","","","","","",""
"pit-trial","46","583726","0.0-2.0-11.1-4.1","battery-v0.2","","""event"",""trial"",""time""
""fullscreenenter"",""1"",""8335""
""blur"",""7"",""151909""
""focus"",""7"",""154946""
","""event"",""trial"",""time""
""blur"",""7"",""151909""
","""event"",""trial"",""time""
""focus"",""7"",""154946""
","""event"",""trial"",""time""
""fullscreenenter"",""1"",""8335""
","
","","","-1","","","16","6358","3585","&#9761;","elianto","#3366ff99","-1","-1","1","+10","[3611.5]","1","0","2","","","","","","","",""
"pit-trial","47","588590","0.0-2.0-11.2-0.2","battery-v0.2","","""event"",""trial"",""time""
""fullscreenenter"",""1"",""8335""
""blur"",""7"",""151909""
""focus"",""7"",""154946""
","""event"",""trial"",""time""
""blur"",""7"",""151909""
","""event"",""trial"",""time""
""focus"",""7"",""154946""
","""event"",""trial"",""time""
""fullscreenenter"",""1"",""8335""
","
","","","-1","","","16","6358","3585","&#9761;","elianto","#3366ff99","-1","-1","1","+10","[]","0","0","2","","","","","","","",""
"pit-trial","48","592087","0.0-2.0-11.2-1.2","battery-v0.2","","""event"",""trial"",""time""
""fullscreenenter"",""1"",""8335""
""blur"",""7"",""151909""
""focus"",""7"",""154946""
","""event"",""trial"",""time""
""blur"",""7"",""151909""
","""event"",""trial"",""time""
""focus"",""7"",""154946""
","""event"",""trial"",""time""
""fullscreenenter"",""1"",""8335""
","
","","","637.5","","","16","6358","3585","&#9761;","elianto","#3366ff99","-1"," ","0","0","[1490.3999999761581]","1","0","2","","","","","","","",""
"pit-trial","49","595987","0.0-2.0-11.2-2.2","battery-v0.2","","""event"",""trial"",""time""
""fullscreenenter"",""1"",""8335""
""blur"",""7"",""151909""
""focus"",""7"",""154946""
","""event"",""trial"",""time""
""blur"",""7"",""151909""
","""event"",""trial"",""time""
""focus"",""7"",""154946""
","""event"",""trial"",""time""
""fullscreenenter"",""1"",""8335""
","
","","","1037","","","16","6358","3585","&#9761;","elianto","#3366ff99","-1"," ","0","0","[1888.9000000953674]","1","0","2","","","","","","","",""
"pit-trial","50","600854","0.0-2.0-11.2-3.2","battery-v0.2","","""event"",""trial"",""time""
""fullscreenenter"",""1"",""8335""
""blur"",""7"",""151909""
""focus"",""7"",""154946""
","""event"",""trial"",""time""
""blur"",""7"",""151909""
","""event"",""trial"",""time""
""focus"",""7"",""154946""
","""event"",""trial"",""time""
""fullscreenenter"",""1"",""8335""
","
","","","-1","","","16","6358","3585","&#9761;","elianto","#3366ff99","-1","-1","1","0","[3150.399999976158]","1","0","2","","","","","","","",""
"pit-trial","51","605721","0.0-2.0-11.2-4.2","battery-v0.2","","""event"",""trial"",""time""
""fullscreenenter"",""1"",""8335""
""blur"",""7"",""151909""
""focus"",""7"",""154946""
","""event"",""trial"",""time""
""blur"",""7"",""151909""
","""event"",""trial"",""time""
""focus"",""7"",""154946""
","""event"",""trial"",""time""
""fullscreenenter"",""1"",""8335""
","
","","","-1","","","16","6358","3585","&#9761;","elianto","#3366ff99","-1","-1","1","+10","[]","0","0","2","","","","","","","",""
"pit-trial","52","610589","0.0-2.0-11.3-0.3","battery-v0.2","","""event"",""trial"",""time""
""fullscreenenter"",""1"",""8335""
""blur"",""7"",""151909""
""focus"",""7"",""154946""
","""event"",""trial"",""time""
""blur"",""7"",""151909""
","""event"",""trial"",""time""
""focus"",""7"",""154946""
","""event"",""trial"",""time""
""fullscreenenter"",""1"",""8335""
","
","","","-1","","","16","6358","3585","&#9761;","elianto","#3366ff99","-1","-1","1","+10","[]","0","0","2","","","","","","","",""
"pit-trial","53","615453","0.0-2.0-11.3-1.3","battery-v0.2","","""event"",""trial"",""time""
""fullscreenenter"",""1"",""8335""
""blur"",""7"",""151909""
""focus"",""7"",""154946""
","""event"",""trial"",""time""
""blur"",""7"",""151909""
","""event"",""trial"",""time""
""focus"",""7"",""154946""
","""event"",""trial"",""time""
""fullscreenenter"",""1"",""8335""
","
","","","-1","","","16","6358","3585","&#9761;","elianto","#3366ff99","-1","-1","1","+10","[]","0","0","2","","","","","","","",""
"pit-trial","54","620318","0.0-2.0-11.3-2.3","battery-v0.2","","""event"",""trial"",""time""
""fullscreenenter"",""1"",""8335""
""blur"",""7"",""151909""
""focus"",""7"",""154946""
","""event"",""trial"",""time""
""blur"",""7"",""151909""
","""event"",""trial"",""time""
""focus"",""7"",""154946""
","""event"",""trial"",""time""
""fullscreenenter"",""1"",""8335""
","
","","","-1","","","16","6358","3585","&#9761;","elianto","#3366ff99","-1","-1","1","+10","[]","0","0","2","","","","","","","",""
"pit-trial","55","625182","0.0-2.0-11.3-3.3","battery-v0.2","","""event"",""trial"",""time""
""fullscreenenter"",""1"",""8335""
""blur"",""7"",""151909""
""focus"",""7"",""154946""
","""event"",""trial"",""time""
""blur"",""7"",""151909""
","""event"",""trial"",""time""
""focus"",""7"",""154946""
","""event"",""trial"",""time""
""fullscreenenter"",""1"",""8335""
","
","","","-1","","","16","6358","3585","&#9761;","elianto","#3366ff99","-1","-1","1","0","[]","0","0","2","","","","","","","",""
"pit-trial","56","628630","0.0-2.0-11.3-4.3","battery-v0.2","","""event"",""trial"",""time""
""fullscreenenter"",""1"",""8335""
""blur"",""7"",""151909""
""focus"",""7"",""154946""
","""event"",""trial"",""time""
""blur"",""7"",""151909""
","""event"",""trial"",""time""
""focus"",""7"",""154946""
","""event"",""trial"",""time""
""fullscreenenter"",""1"",""8335""
","
","","","587.4000000953674","","","16","6358","3585","&#9761;","elianto","#3366ff99","-1"," ","0","0","[1443.6000000238419]","1","0","2","","","","","","","",""
"call-function","57","628632","0.0-2.0-12.0","battery-v0.2","","""event"",""trial"",""time""
""fullscreenenter"",""1"",""8335""
""blur"",""7"",""151909""
""focus"",""7"",""154946""
","""event"",""trial"",""time""
""blur"",""7"",""151909""
","""event"",""trial"",""time""
""focus"",""7"",""154946""
","""event"",""trial"",""time""
""fullscreenenter"",""1"",""8335""
","
","","","","","","","","","","","","","","","","","","","","","","","","","","",""
"pit-instructions","58","677405","0.0-2.0-13.0","battery-v0.2","","""event"",""trial"",""time""
""fullscreenenter"",""1"",""8335""
""blur"",""7"",""151909""
""focus"",""7"",""154946""
","""event"",""trial"",""time""
""blur"",""7"",""151909""
","""event"",""trial"",""time""
""focus"",""7"",""154946""
","""event"",""trial"",""time""
""fullscreenenter"",""1"",""8335""
","
","","[{""page_index"":0,""viewing_time"":7959.5},{""page_index"":1,""viewing_time"":9378.899999976158},{""page_index"":2,""viewing_time"":7653.899999976158},{""page_index"":3,""viewing_time"":13119.899999976158},{""page_index"":4,""viewing_time"":10659.800000071526}]","48772.60000002384","","","","","","","","","","","","","","","","","","","","","","","",""
"pit-trial","59","680692","0.0-2.0-14.0-0.0","battery-v0.2","","""event"",""trial"",""time""
""fullscreenenter"",""1"",""8335""
""blur"",""7"",""151909""
""focus"",""7"",""154946""
","""event"",""trial"",""time""
""blur"",""7"",""151909""
","""event"",""trial"",""time""
""focus"",""7"",""154946""
","""event"",""trial"",""time""
""fullscreenenter"",""1"",""8335""
","
","","","405","","","16","6358","3585","&#9826;","elianto","#f73b6a7A","-1"," ","0","-10","[1259.1000000238419]","1","0","3","","","","","","","",""
"pit-trial","60","685574","0.0-2.0-14.0-1.0","battery-v0.2","","""event"",""trial"",""time""
""fullscreenenter"",""1"",""8335""
""blur"",""7"",""151909""
""focus"",""7"",""154946""
","""event"",""trial"",""time""
""blur"",""7"",""151909""
","""event"",""trial"",""time""
""focus"",""7"",""154946""
","""event"",""trial"",""time""
""fullscreenenter"",""1"",""8335""
","
","","","-1","","","16","6358","3585","&#9826;","elianto","#f73b6a7A","-1","-1","1","0","[]","0","0","3","","","","","","","",""
"pit-trial","61","690043","0.0-2.0-14.0-2.0","battery-v0.2","","""event"",""trial"",""time""
""fullscreenenter"",""1"",""8335""
""blur"",""7"",""151909""
""focus"",""7"",""154946""
","""event"",""trial"",""time""
""blur"",""7"",""151909""
","""event"",""trial"",""time""
""focus"",""7"",""154946""
","""event"",""trial"",""time""
""fullscreenenter"",""1"",""8335""
","
","","","1605.3999999761581","","","16","6358","3585","&#9826;","elianto","#f73b6a7A","-1"," ","0","-10","[2458.399999976158]","1","0","3","","","","","","","",""
"pit-trial","62","694929","0.0-2.0-14.0-3.0","battery-v0.2","","""event"",""trial"",""time""
""fullscreenenter"",""1"",""8335""
""blur"",""7"",""151909""
""focus"",""7"",""154946""
","""event"",""trial"",""time""
""blur"",""7"",""151909""
","""event"",""trial"",""time""
""focus"",""7"",""154946""
","""event"",""trial"",""time""
""fullscreenenter"",""1"",""8335""
","
","","","-1","","","16","6358","3585","&#9826;","elianto","#f73b6a7A","-1","-1","1","-10","[]","0","0","3","","","","","","","",""
"pit-trial","63","699809","0.0-2.0-14.0-4.0","battery-v0.2","","""event"",""trial"",""time""
""fullscreenenter"",""1"",""8335""
""blur"",""7"",""151909""
""focus"",""7"",""154946""
","""event"",""trial"",""time""
""blur"",""7"",""151909""
","""event"",""trial"",""time""
""focus"",""7"",""154946""
","""event"",""trial"",""time""
""fullscreenenter"",""1"",""8335""
","
","","","-1","","","16","6358","3585","&#9826;","elianto","#f73b6a7A","-1","-1","1","0","[]","0","0","3","","","","","","","",""
"pit-trial","64","704685","0.0-2.0-14.1-0.1","battery-v0.2","","""event"",""trial"",""time""
""fullscreenenter"",""1"",""8335""
""blur"",""7"",""151909""
""focus"",""7"",""154946""
","""event"",""trial"",""time""
""blur"",""7"",""151909""
","""event"",""trial"",""time""
""focus"",""7"",""154946""
","""event"",""trial"",""time""
""fullscreenenter"",""1"",""8335""
","
","","","-1","","","16","6358","3585","&#9826;","elianto","#f73b6a7A","-1","-1","1","0","[]","0","0","3","","","","","","","",""
"pit-trial","65","709550","0.0-2.0-14.1-1.1","battery-v0.2","","""event"",""trial"",""time""
""fullscreenenter"",""1"",""8335""
""blur"",""7"",""151909""
""focus"",""7"",""154946""
","""event"",""trial"",""time""
""blur"",""7"",""151909""
","""event"",""trial"",""time""
""focus"",""7"",""154946""
","""event"",""trial"",""time""
""fullscreenenter"",""1"",""8335""
","
","","","-1","","","16","6358","3585","&#9826;","elianto","#f73b6a7A","-1","-1","1","0","[]","0","0","3","","","","","","","",""
"pit-trial","66","714413","0.0-2.0-14.1-2.1","battery-v0.2","","""event"",""trial"",""time""
""fullscreenenter"",""1"",""8335""
""blur"",""7"",""151909""
""focus"",""7"",""154946""
","""event"",""trial"",""time""
""blur"",""7"",""151909""
","""event"",""trial"",""time""
""focus"",""7"",""154946""
","""event"",""trial"",""time""
""fullscreenenter"",""1"",""8335""
","
","","","-1","","","16","6358","3585","&#9826;","elianto","#f73b6a7A","-1","-1","1","0","[]","0","0","3","","","","","","","",""
"pit-trial","67","719277","0.0-2.0-14.1-3.1","battery-v0.2","","""event"",""trial"",""time""
""fullscreenenter"",""1"",""8335""
""blur"",""7"",""151909""
""focus"",""7"",""154946""
","""event"",""trial"",""time""
""blur"",""7"",""151909""
","""event"",""trial"",""time""
""focus"",""7"",""154946""
","""event"",""trial"",""time""
""fullscreenenter"",""1"",""8335""
","
","","","-1","","","16","6358","3585","&#9826;","elianto","#f73b6a7A","-1","-1","1","-10","[]","0","0","3","","","","","","","",""
"pit-trial","68","724141","0.0-2.0-14.1-4.1","battery-v0.2","","""event"",""trial"",""time""
""fullscreenenter"",""1"",""8335""
""blur"",""7"",""151909""
""focus"",""7"",""154946""
","""event"",""trial"",""time""
""blur"",""7"",""151909""
","""event"",""trial"",""time""
""focus"",""7"",""154946""
","""event"",""trial"",""time""
""fullscreenenter"",""1"",""8335""
","
","","","-1","","","16","6358","3585","&#9826;","elianto","#f73b6a7A","-1","-1","1","0","[]","0","0","3","","","","","","","",""
"pit-trial","69","729006","0.0-2.0-14.2-0.2","battery-v0.2","","""event"",""trial"",""time""
""fullscreenenter"",""1"",""8335""
""blur"",""7"",""151909""
""focus"",""7"",""154946""
","""event"",""trial"",""time""
""blur"",""7"",""151909""
","""event"",""trial"",""time""
""focus"",""7"",""154946""
","""event"",""trial"",""time""
""fullscreenenter"",""1"",""8335""
","
","","","-1","","","16","6358","3585","&#9826;","elianto","#f73b6a7A","-1","-1","1","0","[]","0","0","3","","","","","","","",""
"pit-trial","70","733869","0.0-2.0-14.2-1.2","battery-v0.2","","""event"",""trial"",""time""
""fullscreenenter"",""1"",""8335""
""blur"",""7"",""151909""
""focus"",""7"",""154946""
","""event"",""trial"",""time""
""blur"",""7"",""151909""
","""event"",""trial"",""time""
""focus"",""7"",""154946""
","""event"",""trial"",""time""
""fullscreenenter"",""1"",""8335""
","
","","","-1","","","16","6358","3585","&#9826;","elianto","#f73b6a7A","-1","-1","1","0","[]","0","0","3","","","","","","","",""
"pit-trial","71","738734","0.0-2.0-14.2-2.2","battery-v0.2","","""event"",""trial"",""time""
""fullscreenenter"",""1"",""8335""
""blur"",""7"",""151909""
""focus"",""7"",""154946""
","""event"",""trial"",""time""
""blur"",""7"",""151909""
","""event"",""trial"",""time""
""focus"",""7"",""154946""
","""event"",""trial"",""time""
""fullscreenenter"",""1"",""8335""
","
","","","-1","","","16","6358","3585","&#9826;","elianto","#f73b6a7A","-1","-1","1","0","[]","0","0","3","","","","","","","",""
"pit-trial","72","743597","0.0-2.0-14.2-3.2","battery-v0.2","","""event"",""trial"",""time""
""fullscreenenter"",""1"",""8335""
""blur"",""7"",""151909""
""focus"",""7"",""154946""
","""event"",""trial"",""time""
""blur"",""7"",""151909""
","""event"",""trial"",""time""
""focus"",""7"",""154946""
","""event"",""trial"",""time""
""fullscreenenter"",""1"",""8335""
","
","","","-1","","","16","6358","3585","&#9826;","elianto","#f73b6a7A","-1","-1","1","-10","[]","0","0","3","","","","","","","",""
"pit-trial","73","748461","0.0-2.0-14.2-4.2","battery-v0.2","","""event"",""trial"",""time""
""fullscreenenter"",""1"",""8335""
""blur"",""7"",""151909""
""focus"",""7"",""154946""
","""event"",""trial"",""time""
""blur"",""7"",""151909""
","""event"",""trial"",""time""
""focus"",""7"",""154946""
","""event"",""trial"",""time""
""fullscreenenter"",""1"",""8335""
","
","","","-1","","","16","6358","3585","&#9826;","elianto","#f73b6a7A","-1","-1","1","0","[]","0","0","3","","","","","","","",""
"pit-trial","74","753325","0.0-2.0-14.3-0.3","battery-v0.2","","""event"",""trial"",""time""
""fullscreenenter"",""1"",""8335""
""blur"",""7"",""151909""
""focus"",""7"",""154946""
","""event"",""trial"",""time""
""blur"",""7"",""151909""
","""event"",""trial"",""time""
""focus"",""7"",""154946""
","""event"",""trial"",""time""
""fullscreenenter"",""1"",""8335""
","
","","","-1","","","16","6358","3585","&#9826;","elianto","#f73b6a7A","-1","-1","1","0","[]","0","0","3","","","","","","","",""
"pit-trial","75","758189","0.0-2.0-14.3-1.3","battery-v0.2","","""event"",""trial"",""time""
""fullscreenenter"",""1"",""8335""
""blur"",""7"",""151909""
""focus"",""7"",""154946""
","""event"",""trial"",""time""
""blur"",""7"",""151909""
","""event"",""trial"",""time""
""focus"",""7"",""154946""
","""event"",""trial"",""time""
""fullscreenenter"",""1"",""8335""
","
","","","-1","","","16","6358","3585","&#9826;","elianto","#f73b6a7A","-1","-1","1","0","[]","0","0","3","","","","","","","",""
"pit-trial","76","763053","0.0-2.0-14.3-2.3","battery-v0.2","","""event"",""trial"",""time""
""fullscreenenter"",""1"",""8335""
""blur"",""7"",""151909""
""focus"",""7"",""154946""
","""event"",""trial"",""time""
""blur"",""7"",""151909""
","""event"",""trial"",""time""
""focus"",""7"",""154946""
","""event"",""trial"",""time""
""fullscreenenter"",""1"",""8335""
","
","","","-1","","","16","6358","3585","&#9826;","elianto","#f73b6a7A","-1","-1","1","0","[]","0","0","3","","","","","","","",""
"pit-trial","77","767917","0.0-2.0-14.3-3.3","battery-v0.2","","""event"",""trial"",""time""
""fullscreenenter"",""1"",""8335""
""blur"",""7"",""151909""
""focus"",""7"",""154946""
","""event"",""trial"",""time""
""blur"",""7"",""151909""
","""event"",""trial"",""time""
""focus"",""7"",""154946""
","""event"",""trial"",""time""
""fullscreenenter"",""1"",""8335""
","
","","","-1","","","16","6358","3585","&#9826;","elianto","#f73b6a7A","-1","-1","1","-10","[]","0","0","3","","","","","","","",""
"pit-trial","78","772782","0.0-2.0-14.3-4.3","battery-v0.2","","""event"",""trial"",""time""
""fullscreenenter"",""1"",""8335""
""blur"",""7"",""151909""
""focus"",""7"",""154946""
","""event"",""trial"",""time""
""blur"",""7"",""151909""
","""event"",""trial"",""time""
""focus"",""7"",""154946""
","""event"",""trial"",""time""
""fullscreenenter"",""1"",""8335""
","
","","","-1","","","16","6358","3585","&#9826;","elianto","#f73b6a7A","-1","-1","1","0","[]","0","0","3","","","","","","","",""
"call-function","79","772785","0.0-2.0-15.0","battery-v0.2","","""event"",""trial"",""time""
""fullscreenenter"",""1"",""8335""
""blur"",""7"",""151909""
""focus"",""7"",""154946""
","""event"",""trial"",""time""
""blur"",""7"",""151909""
","""event"",""trial"",""time""
""focus"",""7"",""154946""
","""event"",""trial"",""time""
""fullscreenenter"",""1"",""8335""
","
","","","","","","","","","","","","","","","","","","","","","","","","","","",""
"pit-instructions","80","811947","0.0-2.0-16.0","battery-v0.2","","""event"",""trial"",""time""
""fullscreenenter"",""1"",""8335""
""blur"",""7"",""151909""
""focus"",""7"",""154946""
","""event"",""trial"",""time""
""blur"",""7"",""151909""
","""event"",""trial"",""time""
""focus"",""7"",""154946""
","""event"",""trial"",""time""
""fullscreenenter"",""1"",""8335""
","
","","[{""page_index"":0,""viewing_time"":14518.799999952316},{""page_index"":1,""viewing_time"":11033.100000023842},{""page_index"":2,""viewing_time"":6810.600000023842},{""page_index"":3,""viewing_time"":6798.199999928474}]","39161.299999952316","","","","","","","","","","","","","","","","","","","","","","","",""
"pit-trial","81","815813","0.0-2.0-17.0-0.0","battery-v0.2","","""event"",""trial"",""time""
""fullscreenenter"",""1"",""8335""
""blur"",""7"",""151909""
""focus"",""7"",""154946""
","""event"",""trial"",""time""
""blur"",""7"",""151909""
","""event"",""trial"",""time""
""focus"",""7"",""154946""
","""event"",""trial"",""time""
""fullscreenenter"",""1"",""8335""
","
","","","985.9000000953674","","","16","6358","3585","&#9789;","elianto","#f73b6a7A"," "," ","1","0","[1843.5]","1","0","4","","","","","","","",""
"pit-trial","82","819319","0.0-2.0-17.0-1.0","battery-v0.2","","""event"",""trial"",""time""
""fullscreenenter"",""1"",""8335""
""blur"",""7"",""151909""
""focus"",""7"",""154946""
","""event"",""trial"",""time""
""blur"",""7"",""151909""
","""event"",""trial"",""time""
""focus"",""7"",""154946""
","""event"",""trial"",""time""
""fullscreenenter"",""1"",""8335""
","
","","","637.2999999523163","","","16","6358","3585","&#9789;","elianto","#f73b6a7A"," "," ","1","0","[1498.3999999761581]","1","0","4","","","","","","","",""
"pit-trial","83","824193","0.0-2.0-17.0-2.0","battery-v0.2","","""event"",""trial"",""time""
""fullscreenenter"",""1"",""8335""
""blur"",""7"",""151909""
""focus"",""7"",""154946""
","""event"",""trial"",""time""
""blur"",""7"",""151909""
","""event"",""trial"",""time""
""focus"",""7"",""154946""
","""event"",""trial"",""time""
""fullscreenenter"",""1"",""8335""
","
","","","-1","","","16","6358","3585","&#9789;","elianto","#f73b6a7A"," ","-1","0","-10","[]","0","0","4","","","","","","","",""
"pit-trial","84","828196","0.0-2.0-17.0-3.0","battery-v0.2","","""event"",""trial"",""time""
""fullscreenenter"",""1"",""8335""
""blur"",""7"",""151909""
""focus"",""7"",""154946""
","""event"",""trial"",""time""
""blur"",""7"",""151909""
","""event"",""trial"",""time""
""focus"",""7"",""154946""
","""event"",""trial"",""time""
""fullscreenenter"",""1"",""8335""
","
","","","1141.3999999761581","","","16","6358","3585","&#9789;","elianto","#f73b6a7A"," "," ","1","-10","[1991.7000000476837]","1","0","4","","","","","","","",""
"pit-trial","85","833072","0.0-2.0-17.0-4.0","battery-v0.2","","""event"",""trial"",""time""
""fullscreenenter"",""1"",""8335""
""blur"",""7"",""151909""
""focus"",""7"",""154946""
","""event"",""trial"",""time""
""blur"",""7"",""151909""
","""event"",""trial"",""time""
""focus"",""7"",""154946""
","""event"",""trial"",""time""
""fullscreenenter"",""1"",""8335""
","
","","","-1","","","16","6358","3585","&#9789;","elianto","#f73b6a7A"," ","-1","0","-10","[]","0","0","4","","","","","","","",""
"pit-trial","86","837947","0.0-2.0-17.1-0.1","battery-v0.2","","""event"",""trial"",""time""
""fullscreenenter"",""1"",""8335""
""blur"",""7"",""151909""
""focus"",""7"",""154946""
","""event"",""trial"",""time""
""blur"",""7"",""151909""
","""event"",""trial"",""time""
""focus"",""7"",""154946""
","""event"",""trial"",""time""
""fullscreenenter"",""1"",""8335""
","
","","","-1","","","16","6358","3585","&#9789;","elianto","#f73b6a7A"," ","-1","0","-10","[]","0","0","4","","","","","","","",""
"pit-trial","87","842814","0.0-2.0-17.1-1.1","battery-v0.2","","""event"",""trial"",""time""
""fullscreenenter"",""1"",""8335""
""blur"",""7"",""151909""
""focus"",""7"",""154946""
","""event"",""trial"",""time""
""blur"",""7"",""151909""
","""event"",""trial"",""time""
""focus"",""7"",""154946""
","""event"",""trial"",""time""
""fullscreenenter"",""1"",""8335""
","
","","","-1","","","16","6358","3585","&#9789;","elianto","#f73b6a7A"," ","-1","0","-10","[]","0","0","4","","","","","","","",""
"pit-trial","88","847678","0.0-2.0-17.1-2.1","battery-v0.2","","""event"",""trial"",""time""
""fullscreenenter"",""1"",""8335""
""blur"",""7"",""151909""
""focus"",""7"",""154946""
","""event"",""trial"",""time""
""blur"",""7"",""151909""
","""event"",""trial"",""time""
""focus"",""7"",""154946""
","""event"",""trial"",""time""
""fullscreenenter"",""1"",""8335""
","
","","","-1","","","16","6358","3585","&#9789;","elianto","#f73b6a7A"," ","-1","0","-10","[]","0","0","4","","","","","","","",""
"pit-trial","89","852542","0.0-2.0-17.1-3.1","battery-v0.2","","""event"",""trial"",""time""
""fullscreenenter"",""1"",""8335""
""blur"",""7"",""151909""
""focus"",""7"",""154946""
","""event"",""trial"",""time""
""blur"",""7"",""151909""
","""event"",""trial"",""time""
""focus"",""7"",""154946""
","""event"",""trial"",""time""
""fullscreenenter"",""1"",""8335""
","
","","","-1","","","16","6358","3585","&#9789;","elianto","#f73b6a7A"," ","-1","0","0","[]","0","0","4","","","","","","","",""
"pit-trial","90","857406","0.0-2.0-17.1-4.1","battery-v0.2","","""event"",""trial"",""time""
""fullscreenenter"",""1"",""8335""
""blur"",""7"",""151909""
""focus"",""7"",""154946""
","""event"",""trial"",""time""
""blur"",""7"",""151909""
","""event"",""trial"",""time""
""focus"",""7"",""154946""
","""event"",""trial"",""time""
""fullscreenenter"",""1"",""8335""
","
","","","-1","","","16","6358","3585","&#9789;","elianto","#f73b6a7A"," ","-1","0","-10","[]","0","0","4","","","","","","","",""
"pit-trial","91","862271","0.0-2.0-17.2-0.2","battery-v0.2","","""event"",""trial"",""time""
""fullscreenenter"",""1"",""8335""
""blur"",""7"",""151909""
""focus"",""7"",""154946""
","""event"",""trial"",""time""
""blur"",""7"",""151909""
","""event"",""trial"",""time""
""focus"",""7"",""154946""
","""event"",""trial"",""time""
""fullscreenenter"",""1"",""8335""
","
","","","-1","","","16","6358","3585","&#9789;","elianto","#f73b6a7A"," ","-1","0","-10","[]","0","0","4","","","","","","","",""
"pit-trial","92","867134","0.0-2.0-17.2-1.2","battery-v0.2","","""event"",""trial"",""time""
""fullscreenenter"",""1"",""8335""
""blur"",""7"",""151909""
""focus"",""7"",""154946""
","""event"",""trial"",""time""
""blur"",""7"",""151909""
","""event"",""trial"",""time""
""focus"",""7"",""154946""
","""event"",""trial"",""time""
""fullscreenenter"",""1"",""8335""
","
","","","-1","","","16","6358","3585","&#9789;","elianto","#f73b6a7A"," ","-1","0","-10","[]","0","0","4","","","","","","","",""
"pit-trial","93","871998","0.0-2.0-17.2-2.2","battery-v0.2","","""event"",""trial"",""time""
""fullscreenenter"",""1"",""8335""
""blur"",""7"",""151909""
""focus"",""7"",""154946""
","""event"",""trial"",""time""
""blur"",""7"",""151909""
","""event"",""trial"",""time""
""focus"",""7"",""154946""
","""event"",""trial"",""time""
""fullscreenenter"",""1"",""8335""
","
","","","-1","","","16","6358","3585","&#9789;","elianto","#f73b6a7A"," ","-1","0","-10","[]","0","0","4","","","","","","","",""
"pit-trial","94","876862","0.0-2.0-17.2-3.2","battery-v0.2","","""event"",""trial"",""time""
""fullscreenenter"",""1"",""8335""
""blur"",""7"",""151909""
""focus"",""7"",""154946""
","""event"",""trial"",""time""
""blur"",""7"",""151909""
","""event"",""trial"",""time""
""focus"",""7"",""154946""
","""event"",""trial"",""time""
""fullscreenenter"",""1"",""8335""
","
","","","-1","","","16","6358","3585","&#9789;","elianto","#f73b6a7A"," ","-1","0","0","[]","0","0","4","","","","","","","",""
"pit-trial","95","880117","0.0-2.0-17.2-4.2","battery-v0.2","","""event"",""trial"",""time""
""fullscreenenter"",""1"",""8335""
""blur"",""7"",""151909""
""focus"",""7"",""154946""
","""event"",""trial"",""time""
""blur"",""7"",""151909""
","""event"",""trial"",""time""
""focus"",""7"",""154946""
","""event"",""trial"",""time""
""fullscreenenter"",""1"",""8335""
","
","","","398.60000002384186","","","16","6358","3585","&#9789;","elianto","#f73b6a7A"," "," ","1","0","[1249.7999999523163]","1","0","4","","","","","","","",""
"pit-trial","96","883142","0.0-2.0-17.3-0.3","battery-v0.2","","""event"",""trial"",""time""
""fullscreenenter"",""1"",""8335""
""blur"",""7"",""151909""
""focus"",""7"",""154946""
","""event"",""trial"",""time""
""blur"",""7"",""151909""
","""event"",""trial"",""time""
""focus"",""7"",""154946""
","""event"",""trial"",""time""
""fullscreenenter"",""1"",""8335""
","
","","","157.5","","","16","6358","3585","&#9789;","elianto","#f73b6a7A"," "," ","1","0","[1011.7999999523163]","1","0","4","","","","","","","",""
"pit-trial","97","886110","0.0-2.0-17.3-1.3","battery-v0.2","","""event"",""trial"",""time""
""fullscreenenter"",""1"",""8335""
""blur"",""7"",""151909""
""focus"",""7"",""154946""
","""event"",""trial"",""time""
""blur"",""7"",""151909""
","""event"",""trial"",""time""
""focus"",""7"",""154946""
","""event"",""trial"",""time""
""fullscreenenter"",""1"",""8335""
","
","","","97.20000004768372","","","16","6358","3585","&#9789;","elianto","#f73b6a7A"," "," ","1","0","[956]","1","0","4","","","","","","","",""
"pit-trial","98","890974","0.0-2.0-17.3-2.3","battery-v0.2","","""event"",""trial"",""time""
""fullscreenenter"",""1"",""8335""
""blur"",""7"",""151909""
""focus"",""7"",""154946""
","""event"",""trial"",""time""
""blur"",""7"",""151909""
","""event"",""trial"",""time""
""focus"",""7"",""154946""
","""event"",""trial"",""time""
""fullscreenenter"",""1"",""8335""
","
","","","-1","","","16","6358","3585","&#9789;","elianto","#f73b6a7A"," ","-1","0","-10","[]","0","0","4","","","","","","","",""
"pit-trial","99","895838","0.0-2.0-17.3-3.3","battery-v0.2","","""event"",""trial"",""time""
""fullscreenenter"",""1"",""8335""
""blur"",""7"",""151909""
""focus"",""7"",""154946""
","""event"",""trial"",""time""
""blur"",""7"",""151909""
","""event"",""trial"",""time""
""focus"",""7"",""154946""
","""event"",""trial"",""time""
""fullscreenenter"",""1"",""8335""
","
","","","-1","","","16","6358","3585","&#9789;","elianto","#f73b6a7A"," ","-1","0","0","[]","0","0","4","","","","","","","",""
"pit-trial","100","900702","0.0-2.0-17.3-4.3","battery-v0.2","","""event"",""trial"",""time""
""fullscreenenter"",""1"",""8335""
""blur"",""7"",""151909""
""focus"",""7"",""154946""
","""event"",""trial"",""time""
""blur"",""7"",""151909""
","""event"",""trial"",""time""
""focus"",""7"",""154946""
","""event"",""trial"",""time""
""fullscreenenter"",""1"",""8335""
","
","","","-1","","","16","6358","3585","&#9789;","elianto","#f73b6a7A"," ","-1","0","-10","[]","0","0","4","","","","","","","",""
"call-function","101","900707","0.0-2.0-18.0","battery-v0.2","","""event"",""trial"",""time""
""fullscreenenter"",""1"",""8335""
""blur"",""7"",""151909""
""focus"",""7"",""154946""
","""event"",""trial"",""time""
""blur"",""7"",""151909""
","""event"",""trial"",""time""
""focus"",""7"",""154946""
","""event"",""trial"",""time""
""fullscreenenter"",""1"",""8335""
","
","","","","","","","","","","","","","","","","","","","","","","","","","","",""
"pit-instructions","102","1009499","0.0-2.0-19.0","battery-v0.2","","""event"",""trial"",""time""
""fullscreenenter"",""1"",""8335""
""blur"",""7"",""151909""
""focus"",""7"",""154946""
","""event"",""trial"",""time""
""blur"",""7"",""151909""
","""event"",""trial"",""time""
""focus"",""7"",""154946""
","""event"",""trial"",""time""
""fullscreenenter"",""1"",""8335""
","
","","[{""page_index"":0,""viewing_time"":12882.799999952316},{""page_index"":1,""viewing_time"":8596.600000023842},{""page_index"":2,""viewing_time"":15583},{""page_index"":3,""viewing_time"":9740.899999976158},{""page_index"":4,""viewing_time"":9849.899999976158},{""page_index"":5,""viewing_time"":8531.899999976158},{""page_index"":6,""viewing_time"":16675.400000095367},{""page_index"":7,""viewing_time"":20800.699999928474},{""page_index"":8,""viewing_time"":6129.100000023842}]","108791.19999992847","","","","","","","","","","","","","","","","","","","","","","","",""
"pit-comprehension","103","1018925","0.0-2.0-20.0-0.0","battery-v0.2","","""event"",""trial"",""time""
""fullscreenenter"",""1"",""8335""
""blur"",""7"",""151909""
""focus"",""7"",""154946""
","""event"",""trial"",""time""
""blur"",""7"",""151909""
","""event"",""trial"",""time""
""focus"",""7"",""154946""
","""event"",""trial"",""time""
""fullscreenenter"",""1"",""8335""
","
","","","9386.5","[""SPACE""]","0","16","6358","3585","","","","","","","","","","","","","","","","","","",""
"pit-instructions","104","1022880","0.0-2.0-20.0-1.0","battery-v0.2","","""event"",""trial"",""time""
""fullscreenenter"",""1"",""8335""
""blur"",""7"",""151909""
""focus"",""7"",""154946""
","""event"",""trial"",""time""
""blur"",""7"",""151909""
","""event"",""trial"",""time""
""focus"",""7"",""154946""
","""event"",""trial"",""time""
""fullscreenenter"",""1"",""8335""
","
","","[{""page_index"":0,""viewing_time"":3840.5}]","3841.1999999284744","","","","","","","","","","","","","","","","","","","","","","","",""
"pit-comprehension","105","1031098","0.0-2.0-21.0-0.0","battery-v0.2","","""event"",""trial"",""time""
""fullscreenenter"",""1"",""8335""
""blur"",""7"",""151909""
""focus"",""7"",""154946""
","""event"",""trial"",""time""
""blur"",""7"",""151909""
","""event"",""trial"",""time""
""focus"",""7"",""154946""
","""event"",""trial"",""time""
""fullscreenenter"",""1"",""8335""
","
","","","8212.100000023842","[""10""]","0","16","6358","3585","","","","","","","","","","","","","","","","","","",""
"pit-instructions","106","1035147","0.0-2.0-21.0-1.0","battery-v0.2","","""event"",""trial"",""time""
""fullscreenenter"",""1"",""8335""
""blur"",""7"",""151909""
""focus"",""7"",""154946""
","""event"",""trial"",""time""
""blur"",""7"",""151909""
","""event"",""trial"",""time""
""focus"",""7"",""154946""
","""event"",""trial"",""time""
""fullscreenenter"",""1"",""8335""
","
","","[{""page_index"":0,""viewing_time"":3922.100000023842}]","3922.600000023842","","","","","","","","","","","","","","","","","","","","","","","",""
"pit-comprehension","107","1042144","0.0-2.0-22.0-0.0","battery-v0.2","","""event"",""trial"",""time""
""fullscreenenter"",""1"",""8335""
""blur"",""7"",""151909""
""focus"",""7"",""154946""
","""event"",""trial"",""time""
""blur"",""7"",""151909""
","""event"",""trial"",""time""
""focus"",""7"",""154946""
","""event"",""trial"",""time""
""fullscreenenter"",""1"",""8335""
","
","","","6990","[""0""]","0","16","6358","3585","","","","","","","","","","","","","","","","","","",""
"pit-instructions","108","1048966","0.0-2.0-22.0-1.0","battery-v0.2","","""event"",""trial"",""time""
""fullscreenenter"",""1"",""8335""
""blur"",""7"",""151909""
""focus"",""7"",""154946""
","""event"",""trial"",""time""
""blur"",""7"",""151909""
","""event"",""trial"",""time""
""focus"",""7"",""154946""
","""event"",""trial"",""time""
""fullscreenenter"",""1"",""8335""
","
","","[{""page_index"":0,""viewing_time"":6682.099999904633}]","6682.599999904633","","","","","","","","","","","","","","","","","","","","","","","",""
"pit-comprehension","109","1060121","0.0-2.0-23.0-0.0","battery-v0.2","","""event"",""trial"",""time""
""fullscreenenter"",""1"",""8335""
""blur"",""7"",""151909""
""focus"",""7"",""154946""
","""event"",""trial"",""time""
""blur"",""7"",""151909""
","""event"",""trial"",""time""
""focus"",""7"",""154946""
","""event"",""trial"",""time""
""fullscreenenter"",""1"",""8335""
","
","","","11146.399999976158","[""False""]","1","16","6358","3585","","","","","","","","","","","","","","","","","","",""
"pit-instructions","110","1063137","0.0-2.0-23.0-1.0","battery-v0.2","","""event"",""trial"",""time""
""fullscreenenter"",""1"",""8335""
""blur"",""7"",""151909""
""focus"",""7"",""154946""
","""event"",""trial"",""time""
""blur"",""7"",""151909""
","""event"",""trial"",""time""
""focus"",""7"",""154946""
","""event"",""trial"",""time""
""fullscreenenter"",""1"",""8335""
","
","","[{""page_index"":0,""viewing_time"":2892.1999999284744}]","2892.6999999284744","","","","","","","","","","","","","","","","","","","","","","","",""
"pit-instructions","111","1064092","0.0-2.0-23.0-2.0-0.0","battery-v0.2","","""event"",""trial"",""time""
""fullscreenenter"",""1"",""8335""
""blur"",""7"",""151909""
""focus"",""7"",""154946""
","""event"",""trial"",""time""
""blur"",""7"",""151909""
","""event"",""trial"",""time""
""focus"",""7"",""154946""
","""event"",""trial"",""time""
""fullscreenenter"",""1"",""8335""
","
","","[{""page_index"":0,""viewing_time"":951.1000000238419}]","951.6000000238419","","","","","","","","","","","","","","","","","","","","","","","",""
"pit-comprehension","112","1074004","0.0-2.0-23.1-0.1","battery-v0.2","","""event"",""trial"",""time""
""fullscreenenter"",""1"",""8335""
""blur"",""7"",""151909""
""focus"",""7"",""154946""
","""event"",""trial"",""time""
""blur"",""7"",""151909""
","""event"",""trial"",""time""
""focus"",""7"",""154946""
","""event"",""trial"",""time""
""fullscreenenter"",""1"",""8335""
","
","","","9904.800000071526","[""True""]","0","16","6358","3585","","","","","","","","","","","","","","","","","","",""
"pit-instructions","113","1077118","0.0-2.0-23.1-1.1","battery-v0.2","","""event"",""trial"",""time""
""fullscreenenter"",""1"",""8335""
""blur"",""7"",""151909""
""focus"",""7"",""154946""
","""event"",""trial"",""time""
""blur"",""7"",""151909""
","""event"",""trial"",""time""
""focus"",""7"",""154946""
","""event"",""trial"",""time""
""fullscreenenter"",""1"",""8335""
","
","","[{""page_index"":0,""viewing_time"":3033.6999999284744}]","3034.2999999523163","","","","","","","","","","","","","","","","","","","","","","","",""
"pit-comprehension","114","1087626","0.0-2.0-24.0-0.0","battery-v0.2","","""event"",""trial"",""time""
""fullscreenenter"",""1"",""8335""
""blur"",""7"",""151909""
""focus"",""7"",""154946""
","""event"",""trial"",""time""
""blur"",""7"",""151909""
","""event"",""trial"",""time""
""focus"",""7"",""154946""
","""event"",""trial"",""time""
""fullscreenenter"",""1"",""8335""
","
","","","10501.700000047684","[""True""]","0","16","6358","3585","","","","","","","","","","","","","","","","","","",""
"pit-instructions","115","1095506","0.0-2.0-24.0-1.0","battery-v0.2","","""event"",""trial"",""time""
""fullscreenenter"",""1"",""8335""
""blur"",""7"",""151909""
""focus"",""7"",""154946""
","""event"",""trial"",""time""
""blur"",""7"",""151909""
","""event"",""trial"",""time""
""focus"",""7"",""154946""
","""event"",""trial"",""time""
""fullscreenenter"",""1"",""8335""
","
","","[{""page_index"":0,""viewing_time"":7736.900000095367}]","7737.400000095367","","","","","","","","","","","","","","","","","","","","","","","",""
"pit-comprehension","116","1104745","0.0-2.0-25.0-0.0","battery-v0.2","","""event"",""trial"",""time""
""fullscreenenter"",""1"",""8335""
""blur"",""7"",""151909""
""focus"",""7"",""154946""
","""event"",""trial"",""time""
""blur"",""7"",""151909""
","""event"",""trial"",""time""
""focus"",""7"",""154946""
","""event"",""trial"",""time""
""fullscreenenter"",""1"",""8335""
","
","","","9232","[""True""]","0","16","6358","3585","","","","","","","","","","","","","","","","","","",""
"pit-instructions","117","1108275","0.0-2.0-25.0-1.0","battery-v0.2","","""event"",""trial"",""time""
""fullscreenenter"",""1"",""8335""
""blur"",""7"",""151909""
""focus"",""7"",""154946""
","""event"",""trial"",""time""
""blur"",""7"",""151909""
","""event"",""trial"",""time""
""focus"",""7"",""154946""
","""event"",""trial"",""time""
""fullscreenenter"",""1"",""8335""
","
","","[{""page_index"":0,""viewing_time"":3429.600000023842}]","3430.100000023842","","","","","","","","","","","","","","","","","","","","","","","",""
"pit-comprehension","118","1115917","0.0-2.0-26.0-0.0","battery-v0.2","","""event"",""trial"",""time""
""fullscreenenter"",""1"",""8335""
""blur"",""7"",""151909""
""focus"",""7"",""154946""
","""event"",""trial"",""time""
""blur"",""7"",""151909""
","""event"",""trial"",""time""
""focus"",""7"",""154946""
","""event"",""trial"",""time""
""fullscreenenter"",""1"",""8335""
","
","","","7634.200000047684","[""False""]","0","16","6358","3585","","","","","","","","","","","","","","","","","","",""
"pit-instructions","119","1125405","0.0-2.0-26.0-1.0","battery-v0.2","","""event"",""trial"",""time""
""fullscreenenter"",""1"",""8335""
""blur"",""7"",""151909""
""focus"",""7"",""154946""
","""event"",""trial"",""time""
""blur"",""7"",""151909""
","""event"",""trial"",""time""
""focus"",""7"",""154946""
","""event"",""trial"",""time""
""fullscreenenter"",""1"",""8335""
","
","","[{""page_index"":0,""viewing_time"":9357.399999976158}]","9357.899999976158","","","","","","","","","","","","","","","","","","","","","","","",""
"pit-instructions","120","1151464","0.0-3.0","battery-v0.2","","""event"",""trial"",""time""
""fullscreenenter"",""1"",""8335""
""blur"",""7"",""151909""
""focus"",""7"",""154946""
","""event"",""trial"",""time""
""blur"",""7"",""151909""
","""event"",""trial"",""time""
""focus"",""7"",""154946""
","""event"",""trial"",""time""
""fullscreenenter"",""1"",""8335""
","
","","[{""page_index"":0,""viewing_time"":6580.399999976158},{""page_index"":1,""viewing_time"":5921.799999952316},{""page_index"":2,""viewing_time"":13548.600000023842}]","26051.399999976158","","","","","","","","","","","","","","","","","","","","","","","",""
"pit-trial","121","1155213","0.0-4.0","battery-v0.2","","""event"",""trial"",""time""
""fullscreenenter"",""1"",""8335""
""blur"",""7"",""151909""
""focus"",""7"",""154946""
","""event"",""trial"",""time""
""blur"",""7"",""151909""
","""event"",""trial"",""time""
""focus"",""7"",""154946""
","""event"",""trial"",""time""
""fullscreenenter"",""1"",""8335""
","
","","","852.8000000715256","","","16","6358","3585","&#9752;","elianto","#f73b6a7A"," "," ","1","0","[1710.5]","1","1","","","6358","1","3","3","lose","go","0"
"pit-trial","122","1160061","0.0-5.0","battery-v0.2","","""event"",""trial"",""time""
""fullscreenenter"",""1"",""8335""
""blur"",""7"",""151909""
""focus"",""7"",""154946""
","""event"",""trial"",""time""
""blur"",""7"",""151909""
","""event"",""trial"",""time""
""focus"",""7"",""154946""
","""event"",""trial"",""time""
""fullscreenenter"",""1"",""8335""
","
","","","1962.2000000476837","","","16","6358","3585","&#9728;","elianto","#f73b6a7A","-1"," ","0","-10","[2824.100000023842]","1","1","","","6358","2","0","4","lose","no-go","0"
"pit-trial","123","1163821","0.0-6.0","battery-v0.2","","""event"",""trial"",""time""
""fullscreenenter"",""1"",""8335""
""blur"",""7"",""151909""
""focus"",""7"",""154946""
","""event"",""trial"",""time""
""blur"",""7"",""151909""
","""event"",""trial"",""time""
""focus"",""7"",""154946""
","""event"",""trial"",""time""
""fullscreenenter"",""1"",""8335""
","
","","","881.8999999761581","","","16","6358","3585","&#9733;","elianto","#3366ff99","-1"," ","0","0","[1737.2999999523163]","1","1","","","6358","3","2","2","win","no-go","0"
"pit-trial","124","1167488","0.0-7.0","battery-v0.2","","""event"",""trial"",""time""
""fullscreenenter"",""1"",""8335""
""blur"",""7"",""151909""
""focus"",""7"",""154946""
","""event"",""trial"",""time""
""blur"",""7"",""151909""
","""event"",""trial"",""time""
""focus"",""7"",""154946""
","""event"",""trial"",""time""
""fullscreenenter"",""1"",""8335""
","
","","","800.6000000238419","","","16","6358","3585","&#9730;","elianto","#3366ff99"," "," ","1","+10","[1652.1000000238419]","1","1","","","6358","4","1","1","win","go","0"
"pit-trial","125","1172367","0.0-8.0","battery-v0.2","","""event"",""trial"",""time""
""fullscreenenter"",""1"",""8335""
""blur"",""7"",""151909""
""focus"",""7"",""154946""
","""event"",""trial"",""time""
""blur"",""7"",""151909""
","""event"",""trial"",""time""
""focus"",""7"",""154946""
","""event"",""trial"",""time""
""fullscreenenter"",""1"",""8335""
","
","","","-1","","","16","6358","3585","&#9752;","elianto","#f73b6a7A"," ","-1","0","-10","[]","0","1","","","6358","5","3","3","lose","go","0"
"pit-trial","126","1176124","0.0-9.0","battery-v0.2","","""event"",""trial"",""time""
""fullscreenenter"",""1"",""8335""
""blur"",""7"",""151909""
""focus"",""7"",""154946""
","""event"",""trial"",""time""
""blur"",""7"",""151909""
","""event"",""trial"",""time""
""focus"",""7"",""154946""
","""event"",""trial"",""time""
""fullscreenenter"",""1"",""8335""
","
","","","877.1999999284744","","","16","6358","3585","&#9730;","elianto","#3366ff99"," "," ","1","+10","[1730.8999999761581]","1","1","","","6358","6","1","1","win","go","0"
"pit-trial","127","1179955","0.0-10.0","battery-v0.2","","""event"",""trial"",""time""
""fullscreenenter"",""1"",""8335""
""blur"",""7"",""151909""
""focus"",""7"",""154946""
","""event"",""trial"",""time""
""blur"",""7"",""151909""
","""event"",""trial"",""time""
""focus"",""7"",""154946""
","""event"",""trial"",""time""
""fullscreenenter"",""1"",""8335""
","
","","","968.9000000953674","","","16","6358","3585","&#9733;","elianto","#3366ff99","-1"," ","0","0","[1819.1000000238419]","1","1","","","6358","7","2","2","win","no-go","0"
"pit-trial","128","1184822","0.0-11.0","battery-v0.2","","""event"",""trial"",""time""
""fullscreenenter"",""1"",""8335""
""blur"",""7"",""151909""
""focus"",""7"",""154946""
","""event"",""trial"",""time""
""blur"",""7"",""151909""
","""event"",""trial"",""time""
""focus"",""7"",""154946""
","""event"",""trial"",""time""
""fullscreenenter"",""1"",""8335""
","
","","","-1","","","16","6358","3585","&#9728;","elianto","#f73b6a7A","-1","-1","1","0","[2923.5]","1","1","","","6358","8","0","4","lose","no-go","0"
"pit-trial","129","1189686","0.0-12.0","battery-v0.2","","""event"",""trial"",""time""
""fullscreenenter"",""1"",""8335""
""blur"",""7"",""151909""
""focus"",""7"",""154946""
","""event"",""trial"",""time""
""blur"",""7"",""151909""
","""event"",""trial"",""time""
""focus"",""7"",""154946""
","""event"",""trial"",""time""
""fullscreenenter"",""1"",""8335""
","
","","","-1","","","16","6358","3585","&#9730;","elianto","#3366ff99"," ","-1","0","0","[3159.0999999046326]","1","1","","","6358","9","1","1","win","go","0"
"pit-trial","130","1194550","0.0-13.0","battery-v0.2","","""event"",""trial"",""time""
""fullscreenenter"",""1"",""8335""
""blur"",""7"",""151909""
""focus"",""7"",""154946""
","""event"",""trial"",""time""
""blur"",""7"",""151909""
","""event"",""trial"",""time""
""focus"",""7"",""154946""
","""event"",""trial"",""time""
""fullscreenenter"",""1"",""8335""
","
","","","-1","","","16","6358","3585","&#9752;","elianto","#f73b6a7A"," ","-1","0","-10","[]","0","1","","","6358","10","3","3","lose","go","0"
"pit-trial","131","1199413","0.0-14.0","battery-v0.2","","""event"",""trial"",""time""
""fullscreenenter"",""1"",""8335""
""blur"",""7"",""151909""
""focus"",""7"",""154946""
","""event"",""trial"",""time""
""blur"",""7"",""151909""
","""event"",""trial"",""time""
""focus"",""7"",""154946""
","""event"",""trial"",""time""
""fullscreenenter"",""1"",""8335""
","
","","","-1","","","16","6358","3585","&#9728;","elianto","#f73b6a7A","-1","-1","1","0","[]","0","1","","","6358","11","0","4","lose","no-go","0"
"pit-trial","132","1202749","0.0-15.0","battery-v0.2","","""event"",""trial"",""time""
""fullscreenenter"",""1"",""8335""
""blur"",""7"",""151909""
""focus"",""7"",""154946""
","""event"",""trial"",""time""
""blur"",""7"",""151909""
","""event"",""trial"",""time""
""focus"",""7"",""154946""
","""event"",""trial"",""time""
""fullscreenenter"",""1"",""8335""
","
","","","473.10000002384186","","","16","6358","3585","&#9733;","elianto","#3366ff99","-1"," ","0","0","[1327]","1","1","","","6358","12","2","2","win","no-go","0"
"pit-trial","133","1206086","0.0-16.0","battery-v0.2","","""event"",""trial"",""time""
""fullscreenenter"",""1"",""8335""
""blur"",""7"",""151909""
""focus"",""7"",""154946""
","""event"",""trial"",""time""
""blur"",""7"",""151909""
","""event"",""trial"",""time""
""focus"",""7"",""154946""
","""event"",""trial"",""time""
""fullscreenenter"",""1"",""8335""
","
","","","478.60000002384186","","","16","6358","3585","&#9733;","elianto","#3366ff99","-1"," ","0","0","[1331.8999999761581]","1","1","","","6358","13","2","2","win","no-go","0"
"pit-trial","134","1210949","0.0-17.0","battery-v0.2","","""event"",""trial"",""time""
""fullscreenenter"",""1"",""8335""
""blur"",""7"",""151909""
""focus"",""7"",""154946""
","""event"",""trial"",""time""
""blur"",""7"",""151909""
","""event"",""trial"",""time""
""focus"",""7"",""154946""
","""event"",""trial"",""time""
""fullscreenenter"",""1"",""8335""
","
","","","-1","","","16","6358","3585","&#9752;","elianto","#f73b6a7A"," ","-1","0","-10","[]","0","1","","","6358","14","3","3","lose","go","0"
"pit-trial","135","1214756","0.0-18.0","battery-v0.2","","""event"",""trial"",""time""
""fullscreenenter"",""1"",""8335""
""blur"",""7"",""151909""
""focus"",""7"",""154946""
","""event"",""trial"",""time""
""blur"",""7"",""151909""
","""event"",""trial"",""time""
""focus"",""7"",""154946""
","""event"",""trial"",""time""
""fullscreenenter"",""1"",""8335""
","
","","","944.7000000476837","","","16","6358","3585","&#9730;","elianto","#3366ff99"," "," ","1","0","[1798]","1","1","","","6358","15","1","1","win","go","1"
"pit-trial","136","1219621","0.0-19.0","battery-v0.2","","""event"",""trial"",""time""
""fullscreenenter"",""1"",""8335""
""blur"",""7"",""151909""
""focus"",""7"",""154946""
","""event"",""trial"",""time""
""blur"",""7"",""151909""
","""event"",""trial"",""time""
""focus"",""7"",""154946""
","""event"",""trial"",""time""
""fullscreenenter"",""1"",""8335""
","
","","","-1","","","16","6358","3585","&#9728;","elianto","#f73b6a7A","-1","-1","1","0","[]","0","1","","","6358","16","0","4","lose","no-go","0"
"pit-trial","137","1223373","0.0-20.0","battery-v0.2","","""event"",""trial"",""time""
""fullscreenenter"",""1"",""8335""
""blur"",""7"",""151909""
""focus"",""7"",""154946""
","""event"",""trial"",""time""
""blur"",""7"",""151909""
","""event"",""trial"",""time""
""focus"",""7"",""154946""
","""event"",""trial"",""time""
""fullscreenenter"",""1"",""8335""
","
","","","891.5","","","16","6358","3585","&#9752;","elianto","#f73b6a7A"," "," ","1","0","[1742.7000000476837]","1","1","","","6358","17","3","3","lose","go","0"
"pit-trial","138","1227389","0.0-21.0","battery-v0.2","","""event"",""trial"",""time""
""fullscreenenter"",""1"",""8335""
""blur"",""7"",""151909""
""focus"",""7"",""154946""
","""event"",""trial"",""time""
""blur"",""7"",""151909""
","""event"",""trial"",""time""
""focus"",""7"",""154946""
","""event"",""trial"",""time""
""fullscreenenter"",""1"",""8335""
","
","","","1157.8999999761581","","","16","6358","3585","&#9733;","elianto","#3366ff99","-1"," ","0","0","[2010.1000000238419]","1","1","","","6358","18","2","2","win","no-go","0"
"pit-trial","139","1232253","0.0-22.0","battery-v0.2","","""event"",""trial"",""time""
""fullscreenenter"",""1"",""8335""
""blur"",""7"",""151909""
""focus"",""7"",""154946""
","""event"",""trial"",""time""
""blur"",""7"",""151909""
","""event"",""trial"",""time""
""focus"",""7"",""154946""
","""event"",""trial"",""time""
""fullscreenenter"",""1"",""8335""
","
","","","-1","","","16","6358","3585","&#9728;","elianto","#f73b6a7A","-1","-1","1","0","[]","0","1","","","6358","19","0","4","lose","no-go","0"
"pit-trial","140","1237117","0.0-23.0","battery-v0.2","","""event"",""trial"",""time""
""fullscreenenter"",""1"",""8335""
""blur"",""7"",""151909""
""focus"",""7"",""154946""
","""event"",""trial"",""time""
""blur"",""7"",""151909""
","""event"",""trial"",""time""
""focus"",""7"",""154946""
","""event"",""trial"",""time""
""fullscreenenter"",""1"",""8335""
","
","","","-1","","","16","6358","3585","&#9730;","elianto","#3366ff99"," ","-1","0","0","[]","0","1","","","6358","20","1","1","win","go","0"
"pit-instructions","141","1262281","0.0-24.0","battery-v0.2","","""event"",""trial"",""time""
""fullscreenenter"",""1"",""8335""
""blur"",""7"",""151909""
""focus"",""7"",""154946""
","""event"",""trial"",""time""
""blur"",""7"",""151909""
","""event"",""trial"",""time""
""focus"",""7"",""154946""
","""event"",""trial"",""time""
""fullscreenenter"",""1"",""8335""
","
","","[{""page_index"":0,""viewing_time"":9370.099999904633},{""page_index"":1,""viewing_time"":15791.200000047684}]","25162.099999904633","","","","","","","","","","","","","","","","","","","","","","","",""
"pit-trial","142","1266985","0.0-25.0","battery-v0.2","","""event"",""trial"",""time""
""fullscreenenter"",""1"",""8335""
""blur"",""7"",""151909""
""focus"",""7"",""154946""
","""event"",""trial"",""time""
""blur"",""7"",""151909""
","""event"",""trial"",""time""
""focus"",""7"",""154946""
","""event"",""trial"",""time""
""fullscreenenter"",""1"",""8335""
","
","","","1818.3999999761581","","","16","6358","3585","a","elianto","#f73b6a7A","-1"," ","0","-10","[2680.2999999523163]","1","2","","","6358","21","2","4","lose","no-go","0"
"pit-trial","143","1270478","0.0-26.0","battery-v0.2","","""event"",""trial"",""time""
""fullscreenenter"",""1"",""8335""
""blur"",""7"",""151909""
""focus"",""7"",""154946""
","""event"",""trial"",""time""
""blur"",""7"",""151909""
","""event"",""trial"",""time""
""focus"",""7"",""154946""
","""event"",""trial"",""time""
""fullscreenenter"",""1"",""8335""
","
","","","609.2000000476837","","","16","6358","3585","l","elianto","#3366ff99"," "," ","1","+10","[1471.1000000238419]","1","2","","","6358","22","1","1","win","go","0"
"pit-trial","144","1275360","0.0-27.0","battery-v0.2","","""event"",""trial"",""time""
""fullscreenenter"",""1"",""8335""
""blur"",""7"",""151909""
""focus"",""7"",""154946""
","""event"",""trial"",""time""
""blur"",""7"",""151909""
","""event"",""trial"",""time""
""focus"",""7"",""154946""
","""event"",""trial"",""time""
""fullscreenenter"",""1"",""8335""
","
","","","-1","","","16","6358","3585","u","elianto","#f73b6a7A","-1","-1","1","0","[]","0","2","","","6358","23","0","4","lose","no-go","0"
"pit-trial","145","1279471","0.0-28.0","battery-v0.2","","""event"",""trial"",""time""
""fullscreenenter"",""1"",""8335""
""blur"",""7"",""151909""
""focus"",""7"",""154946""
","""event"",""trial"",""time""
""blur"",""7"",""151909""
","""event"",""trial"",""time""
""focus"",""7"",""154946""
","""event"",""trial"",""time""
""fullscreenenter"",""1"",""8335""
","
","","","1236.0999999046326","","","16","6358","3585","g","elianto","#f73b6a7A"," "," ","1","-10","[2091.4000000953674]","1","2","","","6358","24","3","3","lose","go","1"
"pit-trial","146","1283953","0.0-29.0","battery-v0.2","","""event"",""trial"",""time""
""fullscreenenter"",""1"",""8335""
""blur"",""7"",""151909""
""focus"",""7"",""154946""
","""event"",""trial"",""time""
""blur"",""7"",""151909""
","""event"",""trial"",""time""
""focus"",""7"",""154946""
","""event"",""trial"",""time""
""fullscreenenter"",""1"",""8335""
","
","","","1607.6999999284744","","","16","6358","3585","a","elianto","#f73b6a7A","-1"," ","0","0","[2466.0999999046326]","1","2","","","6358","25","2","4","lose","no-go","1"
"pit-trial","147","1287462","0.0-30.0","battery-v0.2","","""event"",""trial"",""time""
""fullscreenenter"",""1"",""8335""
""blur"",""7"",""151909""
""focus"",""7"",""154946""
","""event"",""trial"",""time""
""blur"",""7"",""151909""
","""event"",""trial"",""time""
""focus"",""7"",""154946""
","""event"",""trial"",""time""
""fullscreenenter"",""1"",""8335""
","
","","","641.5","","","16","6358","3585","l","elianto","#3366ff99"," "," ","1","+10","[1498.7999999523163]","1","2","","","6358","26","1","1","win","go","0"
"pit-trial","148","1292325","0.0-31.0","battery-v0.2","","""event"",""trial"",""time""
""fullscreenenter"",""1"",""8335""
""blur"",""7"",""151909""
""focus"",""7"",""154946""
","""event"",""trial"",""time""
""blur"",""7"",""151909""
","""event"",""trial"",""time""
""focus"",""7"",""154946""
","""event"",""trial"",""time""
""fullscreenenter"",""1"",""8335""
","
","","","-1","","","16","6358","3585","g","elianto","#f73b6a7A"," ","-1","0","-10","[]","0","2","","","6358","27","3","3","lose","go","0"
"pit-trial","149","1296182","0.0-32.0","battery-v0.2","","""event"",""trial"",""time""
""fullscreenenter"",""1"",""8335""
""blur"",""7"",""151909""
""focus"",""7"",""154946""
","""event"",""trial"",""time""
""blur"",""7"",""151909""
","""event"",""trial"",""time""
""focus"",""7"",""154946""
","""event"",""trial"",""time""
""fullscreenenter"",""1"",""8335""
","
","","","993.7000000476837","","","16","6358","3585","u","elianto","#f73b6a7A","-1"," ","0","0","[1846.6000000238419]","1","2","","","6358","28","0","4","lose","no-go","1"
"pit-trial","150","1301047","0.0-33.0","battery-v0.2","","""event"",""trial"",""time""
""fullscreenenter"",""1"",""8335""
""blur"",""7"",""151909""
""focus"",""7"",""154946""
","""event"",""trial"",""time""
""blur"",""7"",""151909""
","""event"",""trial"",""time""
""focus"",""7"",""154946""
","""event"",""trial"",""time""
""fullscreenenter"",""1"",""8335""
","
","","","-1","","","16","6358","3585","g","elianto","#f73b6a7A"," ","-1","0","-10","[]","0","2","","","6358","29","3","3","lose","go","0"
"pit-trial","151","1305911","0.0-34.0","battery-v0.2","","""event"",""trial"",""time""
""fullscreenenter"",""1"",""8335""
""blur"",""7"",""151909""
""focus"",""7"",""154946""
","""event"",""trial"",""time""
""blur"",""7"",""151909""
","""event"",""trial"",""time""
""focus"",""7"",""154946""
","""event"",""trial"",""time""
""fullscreenenter"",""1"",""8335""
","
","","","-1","","","16","6358","3585","a","elianto","#f73b6a7A","-1","-1","1","0","[]","0","2","","","6358","30","2","4","lose","no-go","0"
"pit-trial","152","1309477","0.0-35.0","battery-v0.2","","""event"",""trial"",""time""
""fullscreenenter"",""1"",""8335""
""blur"",""7"",""151909""
""focus"",""7"",""154946""
","""event"",""trial"",""time""
""blur"",""7"",""151909""
","""event"",""trial"",""time""
""focus"",""7"",""154946""
","""event"",""trial"",""time""
""fullscreenenter"",""1"",""8335""
","
","","","697.2999999523163","","","16","6358","3585","l","elianto","#3366ff99"," "," ","1","+10","[1555.9000000953674]","1","2","","","6358","31","1","1","win","go","0"
"pit-trial","153","1314341","0.0-36.0","battery-v0.2","","""event"",""trial"",""time""
""fullscreenenter"",""1"",""8335""
""blur"",""7"",""151909""
""focus"",""7"",""154946""
","""event"",""trial"",""time""
""blur"",""7"",""151909""
","""event"",""trial"",""time""
""focus"",""7"",""154946""
","""event"",""trial"",""time""
""fullscreenenter"",""1"",""8335""
","
","","","-1","","","16","6358","3585","u","elianto","#f73b6a7A","-1","-1","1","-10","[]","0","2","","","6358","32","0","4","lose","no-go","1"
"pit-trial","154","1318247","0.0-37.0","battery-v0.2","","""event"",""trial"",""time""
""fullscreenenter"",""1"",""8335""
""blur"",""7"",""151909""
""focus"",""7"",""154946""
","""event"",""trial"",""time""
""blur"",""7"",""151909""
","""event"",""trial"",""time""
""focus"",""7"",""154946""
","""event"",""trial"",""time""
""fullscreenenter"",""1"",""8335""
","
","","","1045.1999999284744","","","16","6358","3585","a","elianto","#f73b6a7A","-1"," ","0","-10","[1899.3000000715256]","1","2","","","6358","33","2","4","lose","no-go","0"
"pit-trial","155","1322149","0.0-38.0","battery-v0.2","","""event"",""trial"",""time""
""fullscreenenter"",""1"",""8335""
""blur"",""7"",""151909""
""focus"",""7"",""154946""
","""event"",""trial"",""time""
""blur"",""7"",""151909""
","""event"",""trial"",""time""
""focus"",""7"",""154946""
","""event"",""trial"",""time""
""fullscreenenter"",""1"",""8335""
","
","","","1042.5","","","16","6358","3585","l","elianto","#3366ff99"," "," ","1","0","[1893.3999999761581]","1","2","","","6358","34","1","1","win","go","1"
"pit-trial","156","1327013","0.0-39.0","battery-v0.2","","""event"",""trial"",""time""
""fullscreenenter"",""1"",""8335""
""blur"",""7"",""151909""
""focus"",""7"",""154946""
","""event"",""trial"",""time""
""blur"",""7"",""151909""
","""event"",""trial"",""time""
""focus"",""7"",""154946""
","""event"",""trial"",""time""
""fullscreenenter"",""1"",""8335""
","
","","","-1","","","16","6358","3585","u","elianto","#f73b6a7A","-1","-1","1","0","[]","0","2","","","6358","35","0","4","lose","no-go","0"
"pit-trial","157","1331877","0.0-40.0","battery-v0.2","","""event"",""trial"",""time""
""fullscreenenter"",""1"",""8335""
""blur"",""7"",""151909""
""focus"",""7"",""154946""
","""event"",""trial"",""time""
""blur"",""7"",""151909""
","""event"",""trial"",""time""
""focus"",""7"",""154946""
","""event"",""trial"",""time""
""fullscreenenter"",""1"",""8335""
","
","","","-1","","","16","6358","3585","g","elianto","#f73b6a7A"," ","-1","0","-10","[]","0","2","","","6358","36","3","3","lose","go","0"
"pit-trial","158","1336293","0.0-41.0","battery-v0.2","","""event"",""trial"",""time""
""fullscreenenter"",""1"",""8335""
""blur"",""7"",""151909""
""focus"",""7"",""154946""
","""event"",""trial"",""time""
""blur"",""7"",""151909""
","""event"",""trial"",""time""
""focus"",""7"",""154946""
","""event"",""trial"",""time""
""fullscreenenter"",""1"",""8335""
","
","","","1552.1999999284744","","","16","6358","3585","g","elianto","#f73b6a7A"," "," ","1","0","[2405]","1","2","","","6358","37","3","3","lose","go","0"
"pit-trial","159","1339958","0.0-42.0","battery-v0.2","","""event"",""trial"",""time""
""fullscreenenter"",""1"",""8335""
""blur"",""7"",""151909""
""focus"",""7"",""154946""
","""event"",""trial"",""time""
""blur"",""7"",""151909""
","""event"",""trial"",""time""
""focus"",""7"",""154946""
","""event"",""trial"",""time""
""fullscreenenter"",""1"",""8335""
","
","","","800.3999999761581","","","16","6358","3585","l","elianto","#3366ff99"," "," ","1","+10","[1652.8999999761581]","1","2","","","6358","38","1","1","win","go","0"
"pit-trial","160","1344822","0.0-43.0","battery-v0.2","","""event"",""trial"",""time""
""fullscreenenter"",""1"",""8335""
""blur"",""7"",""151909""
""focus"",""7"",""154946""
","""event"",""trial"",""time""
""blur"",""7"",""151909""
","""event"",""trial"",""time""
""focus"",""7"",""154946""
","""event"",""trial"",""time""
""fullscreenenter"",""1"",""8335""
","
","","","-1","","","16","6358","3585","a","elianto","#f73b6a7A","-1","-1","1","0","[]","0","2","","","6358","39","2","4","lose","no-go","0"
"pit-trial","161","1349686","0.0-44.0","battery-v0.2","","""event"",""trial"",""time""
""fullscreenenter"",""1"",""8335""
""blur"",""7"",""151909""
""focus"",""7"",""154946""
","""event"",""trial"",""time""
""blur"",""7"",""151909""
","""event"",""trial"",""time""
""focus"",""7"",""154946""
","""event"",""trial"",""time""
""fullscreenenter"",""1"",""8335""
","
","","","-1","","","16","6358","3585","u","elianto","#f73b6a7A","-1","-1","1","0","[2947.2000000476837]","1","2","","","6358","40","0","4","lose","no-go","0"
"pit-trial","162","1353133","0.0-45.0","battery-v0.2","","""event"",""trial"",""time""
""fullscreenenter"",""1"",""8335""
""blur"",""7"",""151909""
""focus"",""7"",""154946""
","""event"",""trial"",""time""
""blur"",""7"",""151909""
","""event"",""trial"",""time""
""focus"",""7"",""154946""
","""event"",""trial"",""time""
""fullscreenenter"",""1"",""8335""
","
","","","584.5","","","16","6358","3585","l","elianto","#3366ff99"," "," ","1","+10","[1435.1000000238419]","1","2","","","6358","41","1","1","win","go","0"
"pit-trial","163","1357998","0.0-46.0","battery-v0.2","","""event"",""trial"",""time""
""fullscreenenter"",""1"",""8335""
""blur"",""7"",""151909""
""focus"",""7"",""154946""
","""event"",""trial"",""time""
""blur"",""7"",""151909""
","""event"",""trial"",""time""
""focus"",""7"",""154946""
","""event"",""trial"",""time""
""fullscreenenter"",""1"",""8335""
","
","","","-1","","","16","6358","3585","a","elianto","#f73b6a7A","-1","-1","1","0","[2989.5]","1","2","","","6358","42","2","4","lose","no-go","0"
"pit-trial","164","1362861","0.0-47.0","battery-v0.2","","""event"",""trial"",""time""
""fullscreenenter"",""1"",""8335""
""blur"",""7"",""151909""
""focus"",""7"",""154946""
","""event"",""trial"",""time""
""blur"",""7"",""151909""
","""event"",""trial"",""time""
""focus"",""7"",""154946""
","""event"",""trial"",""time""
""fullscreenenter"",""1"",""8335""
","
","","","-1","","","16","6358","3585","u","elianto","#f73b6a7A","-1","-1","1","0","[]","0","2","","","6358","43","0","4","lose","no-go","0"
"pit-trial","165","1367725","0.0-48.0","battery-v0.2","","""event"",""trial"",""time""
""fullscreenenter"",""1"",""8335""
""blur"",""7"",""151909""
""focus"",""7"",""154946""
","""event"",""trial"",""time""
""blur"",""7"",""151909""
","""event"",""trial"",""time""
""focus"",""7"",""154946""
","""event"",""trial"",""time""
""fullscreenenter"",""1"",""8335""
","
","","","-1","","","16","6358","3585","g","elianto","#f73b6a7A"," ","-1","0","-10","[]","0","2","","","6358","44","3","3","lose","go","0"
"pit-trial","166","1371301","0.0-49.0","battery-v0.2","","""event"",""trial"",""time""
""fullscreenenter"",""1"",""8335""
""blur"",""7"",""151909""
""focus"",""7"",""154946""
","""event"",""trial"",""time""
""blur"",""7"",""151909""
","""event"",""trial"",""time""
""focus"",""7"",""154946""
","""event"",""trial"",""time""
""fullscreenenter"",""1"",""8335""
","
","","","717.6999999284744","","","16","6358","3585","p","elianto","#3366ff99","-1"," ","0","+10","[1571]","1","2","","","6358","45","4","2","win","no-go","1"
"pit-trial","167","1375277","0.0-50.0","battery-v0.2","","""event"",""trial"",""time""
""fullscreenenter"",""1"",""8335""
""blur"",""7"",""151909""
""focus"",""7"",""154946""
","""event"",""trial"",""time""
""blur"",""7"",""151909""
","""event"",""trial"",""time""
""focus"",""7"",""154946""
","""event"",""trial"",""time""
""fullscreenenter"",""1"",""8335""
","
","","","1111.7999999523163","","","16","6358","3585","g","elianto","#f73b6a7A"," "," ","1","-10","[1964.2999999523163]","1","2","","","6358","46","3","3","lose","go","1"
"pit-trial","168","1380142","0.0-51.0","battery-v0.2","","""event"",""trial"",""time""
""fullscreenenter"",""1"",""8335""
""blur"",""7"",""151909""
""focus"",""7"",""154946""
","""event"",""trial"",""time""
""blur"",""7"",""151909""
","""event"",""trial"",""time""
""focus"",""7"",""154946""
","""event"",""trial"",""time""
""fullscreenenter"",""1"",""8335""
","
","","","-1","","","16","6358","3585","u","elianto","#f73b6a7A","-1","-1","1","-10","[]","0","2","","","6358","47","0","4","lose","no-go","1"
"pit-trial","169","1385008","0.0-52.0","battery-v0.2","","""event"",""trial"",""time""
""fullscreenenter"",""1"",""8335""
""blur"",""7"",""151909""
""focus"",""7"",""154946""
","""event"",""trial"",""time""
""blur"",""7"",""151909""
","""event"",""trial"",""time""
""focus"",""7"",""154946""
","""event"",""trial"",""time""
""fullscreenenter"",""1"",""8335""
","
","","","-1","","","16","6358","3585","a","elianto","#f73b6a7A","-1","-1","1","-10","[]","0","2","","","6358","48","2","4","lose","no-go","1"
"pit-trial","170","1388839","0.0-53.0","battery-v0.2","","""event"",""trial"",""time""
""fullscreenenter"",""1"",""8335""
""blur"",""7"",""151909""
""focus"",""7"",""154946""
","""event"",""trial"",""time""
""blur"",""7"",""151909""
","""event"",""trial"",""time""
""focus"",""7"",""154946""
","""event"",""trial"",""time""
""fullscreenenter"",""1"",""8335""
","
","","","970","","","16","6358","3585","l","elianto","#3366ff99"," "," ","1","+10","[1821.1999999284744]","1","2","","","6358","49","1","1","win","go","0"
"pit-trial","171","1393702","0.0-54.0","battery-v0.2","","""event"",""trial"",""time""
""fullscreenenter"",""1"",""8335""
""blur"",""7"",""151909""
""focus"",""7"",""154946""
","""event"",""trial"",""time""
""blur"",""7"",""151909""
","""event"",""trial"",""time""
""focus"",""7"",""154946""
","""event"",""trial"",""time""
""fullscreenenter"",""1"",""8335""
","
","","","-1","","","16","6358","3585","g","elianto","#f73b6a7A"," ","-1","0","-10","[]","0","2","","","6358","50","3","3","lose","go","0"
"pit-trial","172","1397174","0.0-55.0","battery-v0.2","","""event"",""trial"",""time""
""fullscreenenter"",""1"",""8335""
""blur"",""7"",""151909""
""focus"",""7"",""154946""
","""event"",""trial"",""time""
""blur"",""7"",""151909""
","""event"",""trial"",""time""
""focus"",""7"",""154946""
","""event"",""trial"",""time""
""fullscreenenter"",""1"",""8335""
","
","","","611.1000000238419","","","16","6358","3585","p","elianto","#3366ff99","-1"," ","0","0","[1463.6000000238419]","1","2","","","6358","51","4","2","win","no-go","0"
"pit-trial","173","1400910","0.0-56.0","battery-v0.2","","""event"",""trial"",""time""
""fullscreenenter"",""1"",""8335""
""blur"",""7"",""151909""
""focus"",""7"",""154946""
","""event"",""trial"",""time""
""blur"",""7"",""151909""
","""event"",""trial"",""time""
""focus"",""7"",""154946""
","""event"",""trial"",""time""
""fullscreenenter"",""1"",""8335""
","
","","","876.7999999523163","","","16","6358","3585","u","elianto","#f73b6a7A","-1"," ","0","-10","[1730.1999999284744]","1","2","","","6358","52","0","4","lose","no-go","0"
"pit-trial","174","1404326","0.0-57.0","battery-v0.2","","""event"",""trial"",""time""
""fullscreenenter"",""1"",""8335""
""blur"",""7"",""151909""
""focus"",""7"",""154946""
","""event"",""trial"",""time""
""blur"",""7"",""151909""
","""event"",""trial"",""time""
""focus"",""7"",""154946""
","""event"",""trial"",""time""
""fullscreenenter"",""1"",""8335""
","
","","","551.5","","","16","6358","3585","l","elianto","#3366ff99"," "," ","1","+10","[1404.7999999523163]","1","2","","","6358","53","1","1","win","go","0"
"pit-trial","175","1409189","0.0-58.0","battery-v0.2","","""event"",""trial"",""time""
""fullscreenenter"",""1"",""8335""
""blur"",""7"",""151909""
""focus"",""7"",""154946""
","""event"",""trial"",""time""
""blur"",""7"",""151909""
","""event"",""trial"",""time""
""focus"",""7"",""154946""
","""event"",""trial"",""time""
""fullscreenenter"",""1"",""8335""
","
","","","-1","","","16","6358","3585","a","elianto","#f73b6a7A","-1","-1","1","0","[]","0","2","","","6358","54","2","4","lose","no-go","0"
"pit-trial","176","1412703","0.0-59.0","battery-v0.2","","""event"",""trial"",""time""
""fullscreenenter"",""1"",""8335""
""blur"",""7"",""151909""
""focus"",""7"",""154946""
","""event"",""trial"",""time""
""blur"",""7"",""151909""
","""event"",""trial"",""time""
""focus"",""7"",""154946""
","""event"",""trial"",""time""
""fullscreenenter"",""1"",""8335""
","
","","","652.1999999284744","","","16","6358","3585","p","elianto","#3366ff99","-1"," ","0","0","[1504.2000000476837]","1","2","","","6358","55","4","2","win","no-go","0"
"pit-trial","177","1416318","0.0-60.0","battery-v0.2","","""event"",""trial"",""time""
""fullscreenenter"",""1"",""8335""
""blur"",""7"",""151909""
""focus"",""7"",""154946""
","""event"",""trial"",""time""
""blur"",""7"",""151909""
","""event"",""trial"",""time""
""focus"",""7"",""154946""
","""event"",""trial"",""time""
""fullscreenenter"",""1"",""8335""
","
","","","756.3000000715256","","","16","6358","3585","u","elianto","#f73b6a7A","-1"," ","0","0","[1609]","1","2","","","6358","56","0","4","lose","no-go","1"
"pit-trial","178","1419805","0.0-61.0","battery-v0.2","","""event"",""trial"",""time""
""fullscreenenter"",""1"",""8335""
""blur"",""7"",""151909""
""focus"",""7"",""154946""
","""event"",""trial"",""time""
""blur"",""7"",""151909""
","""event"",""trial"",""time""
""focus"",""7"",""154946""
","""event"",""trial"",""time""
""fullscreenenter"",""1"",""8335""
","
","","","626.7999999523163","","","16","6358","3585","p","elianto","#3366ff99","-1"," ","0","+10","[1477.3999999761581]","1","2","","","6358","57","4","2","win","no-go","1"
"pit-trial","179","1424439","0.0-62.0","battery-v0.2","","""event"",""trial"",""time""
""fullscreenenter"",""1"",""8335""
""blur"",""7"",""151909""
""focus"",""7"",""154946""
","""event"",""trial"",""time""
""blur"",""7"",""151909""
","""event"",""trial"",""time""
""focus"",""7"",""154946""
","""event"",""trial"",""time""
""fullscreenenter"",""1"",""8335""
","
","","","1770.5","","","16","6358","3585","l","elianto","#3366ff99"," "," ","1","+10","[2628.2000000476837]","1","2","","","6358","58","1","1","win","go","0"
"pit-trial","180","1429301","0.0-63.0","battery-v0.2","","""event"",""trial"",""time""
""fullscreenenter"",""1"",""8335""
""blur"",""7"",""151909""
""focus"",""7"",""154946""
","""event"",""trial"",""time""
""blur"",""7"",""151909""
","""event"",""trial"",""time""
""focus"",""7"",""154946""
","""event"",""trial"",""time""
""fullscreenenter"",""1"",""8335""
","
","","","-1","","","16","6358","3585","g","elianto","#f73b6a7A"," ","-1","0","-10","[]","0","2","","","6358","59","3","3","lose","go","0"
"pit-trial","181","1432855","0.0-64.0","battery-v0.2","","""event"",""trial"",""time""
""fullscreenenter"",""1"",""8335""
""blur"",""7"",""151909""
""focus"",""7"",""154946""
","""event"",""trial"",""time""
""blur"",""7"",""151909""
","""event"",""trial"",""time""
""focus"",""7"",""154946""
","""event"",""trial"",""time""
""fullscreenenter"",""1"",""8335""
","
","","","694.5","","","16","6358","3585","u","elianto","#f73b6a7A","-1"," ","0","-10","[1547.1000000238419]","1","2","","","6358","60","0","4","lose","no-go","0"
"pit-trial","182","1436262","0.0-65.0","battery-v0.2","","""event"",""trial"",""time""
""fullscreenenter"",""1"",""8335""
""blur"",""7"",""151909""
""focus"",""7"",""154946""
","""event"",""trial"",""time""
""blur"",""7"",""151909""
","""event"",""trial"",""time""
""focus"",""7"",""154946""
","""event"",""trial"",""time""
""fullscreenenter"",""1"",""8335""
","
","","","543.1000000238419","","","16","6358","3585","p","elianto","#3366ff99","-1"," ","0","0","[1395.3999999761581]","1","2","","","6358","61","4","2","win","no-go","0"
"pit-trial","183","1439774","0.0-66.0","battery-v0.2","","""event"",""trial"",""time""
""fullscreenenter"",""1"",""8335""
""blur"",""7"",""151909""
""focus"",""7"",""154946""
","""event"",""trial"",""time""
""blur"",""7"",""151909""
","""event"",""trial"",""time""
""focus"",""7"",""154946""
","""event"",""trial"",""time""
""fullscreenenter"",""1"",""8335""
","
","","","649.5","","","16","6358","3585","l","elianto","#3366ff99"," "," ","1","+10","[1501.3999999761581]","1","2","","","6358","62","1","1","win","go","0"
"pit-trial","184","1444019","0.0-67.0","battery-v0.2","","""event"",""trial"",""time""
""fullscreenenter"",""1"",""8335""
""blur"",""7"",""151909""
""focus"",""7"",""154946""
","""event"",""trial"",""time""
""blur"",""7"",""151909""
","""event"",""trial"",""time""
""focus"",""7"",""154946""
","""event"",""trial"",""time""
""fullscreenenter"",""1"",""8335""
","
","","","1374.5999999046326","","","16","6358","3585","a","elianto","#f73b6a7A","-1"," ","0","0","[2231.899999976158]","1","2","","","6358","63","2","4","lose","no-go","1"
"pit-trial","185","1448885","0.0-68.0","battery-v0.2","","""event"",""trial"",""time""
""fullscreenenter"",""1"",""8335""
""blur"",""7"",""151909""
""focus"",""7"",""154946""
","""event"",""trial"",""time""
""blur"",""7"",""151909""
","""event"",""trial"",""time""
""focus"",""7"",""154946""
","""event"",""trial"",""time""
""fullscreenenter"",""1"",""8335""
","
