"trial_type","trial_index","time_elapsed","internal_node_id","task_version","subject_id","interactions","blur_events","focus_events","fullscreenenter_events","fullscreenexit_events","success","view_history","rt","responses","num_errors","age","subject","participantId","rune","rune_set","hex","correct","choice","accuracy","outcome","keys","total_keys","block","practice","value","sub","trial","stimulus","robot","valence","action","sham"
"pavlovia","0","7","0.0-0.0","battery-v0.2","","""event"",""trial"",""time""
""fullscreenenter"",""1"",""1374""
","
","
","""event"",""trial"",""time""
""fullscreenenter"",""1"",""1374""
","
","","","","","","","","","","","","","","","","","","","","","","","","","","",""
"fullscreen","1","2356","0.0-1.0","battery-v0.2","","""event"",""trial"",""time""
""fullscreenenter"",""1"",""1374""
","
","
","""event"",""trial"",""time""
""fullscreenenter"",""1"",""1374""
","
","true","","","","","","","","","","","","","","","","","","","","","","","","","",""
"pit-instructions","2","6667","0.0-2.0-0.0","battery-v0.2","","""event"",""trial"",""time""
""fullscreenenter"",""1"",""1374""
","
","
","""event"",""trial"",""time""
""fullscreenenter"",""1"",""1374""
","
","","[{""page_index"":0,""viewing_time"":4307.700000017881}]","4308.4000000059605","","","","","","","","","","","","","","","","","","","","","","","",""
"pit-comprehension","3","9182","0.0-2.0-1.0-0.0","battery-v0.2","","""event"",""trial"",""time""
""fullscreenenter"",""1"",""1374""
","
","
","""event"",""trial"",""time""
""fullscreenenter"",""1"",""1374""
","
","","","2509","[""shark""]","0","19","4445","3158","","","","","","","","","","","","","","","","","","",""
"pit-instructions","4","10482","0.0-2.0-1.0-1.0","battery-v0.2","","""event"",""trial"",""time""
""fullscreenenter"",""1"",""1374""
","
","
","""event"",""trial"",""time""
""fullscreenenter"",""1"",""1374""
","
","","[{""page_index"":0,""viewing_time"":1292.7000000178814}]","1292.9000000059605","","","","","","","","","","","","","","","","","","","","","","","",""
"pit-comprehension","5","13148","0.0-2.0-2.0-0.0","battery-v0.2","","""event"",""trial"",""time""
""fullscreenenter"",""1"",""1374""
","
","
","""event"",""trial"",""time""
""fullscreenenter"",""1"",""1374""
","
","","","2662.800000011921","[""tiger""]","0","19","4445","3158","","","","","","","","","","","","","","","","","","",""
"pit-instructions","6","13767","0.0-2.0-2.0-1.0","battery-v0.2","","""event"",""trial"",""time""
""fullscreenenter"",""1"",""1374""
","
","
","""event"",""trial"",""time""
""fullscreenenter"",""1"",""1374""
","
","","[{""page_index"":0,""viewing_time"":613.5999999940395}]","614.7999999821186","","","","","","","","","","","","","","","","","","","","","","","",""
"pit-instructions","7","101879","0.0-2.0-3.0","battery-v0.2","","""event"",""trial"",""time""
""fullscreenenter"",""1"",""1374""
","
","
","""event"",""trial"",""time""
""fullscreenenter"",""1"",""1374""
","
","","[{""page_index"":0,""viewing_time"":7462.800000011921},{""page_index"":1,""viewing_time"":5432.5999999940395},{""page_index"":2,""viewing_time"":6401.199999988079},{""page_index"":3,""viewing_time"":5466.800000011921},{""page_index"":4,""viewing_time"":5165.5999999940395},{""page_index"":5,""viewing_time"":5015.9000000059605},{""page_index"":6,""viewing_time"":6405.300000011921},{""page_index"":7,""viewing_time"":6229.5999999940395},{""page_index"":8,""viewing_time"":6962.299999982119},{""page_index"":9,""viewing_time"":8051.100000023842},{""page_index"":10,""viewing_time"":7669.5},{""page_index"":11,""viewing_time"":6981.5999999940395},{""page_index"":12,""viewing_time"":6198.799999982119},{""page_index"":13,""viewing_time"":4666.4000000059605}]","88110","","","","","","","","","","","","","","","","","","","","","","","",""
"pit-trial","8","105298","0.0-2.0-4.0-0.0","battery-v0.2","","""event"",""trial"",""time""
""fullscreenenter"",""1"",""1374""
","
","
","""event"",""trial"",""time""
""fullscreenenter"",""1"",""1374""
","
","","","552.9000000059605","","","19","4445","3158","&#9784;","elianto","#FFFFF080"," "," ","1","&#10004","[1405]","1","0","0","","","","","","","",""
"pit-trial","9","108662","0.0-2.0-4.1-0.1","battery-v0.2","","""event"",""trial"",""time""
""fullscreenenter"",""1"",""1374""
","
","
","""event"",""trial"",""time""
""fullscreenenter"",""1"",""1374""
","
","","","497.30000001192093","","","19","4445","3158","&#9784;","elianto","#FFFFF080"," "," ","1","&#10004","[1350.2000000178814]","1","0","0","","","","","","","",""
"pit-trial","10","112088","0.0-2.0-4.2-0.2","battery-v0.2","","""event"",""trial"",""time""
""fullscreenenter"",""1"",""1374""
","
","
","""event"",""trial"",""time""
""fullscreenenter"",""1"",""1374""
","
","","","558.8000000119209","","","19","4445","3158","&#9784;","elianto","#FFFFF080"," "," ","1","&#10004","[1414.2000000178814]","1","0","0","","","","","","","",""
"pit-trial","11","115456","0.0-2.0-4.3-0.3","battery-v0.2","","""event"",""trial"",""time""
""fullscreenenter"",""1"",""1374""
","
","
","""event"",""trial"",""time""
""fullscreenenter"",""1"",""1374""
","
","","","500.59999999403954","","","19","4445","3158","&#9784;","elianto","#FFFFF080"," "," ","1","&#10004","[1355.7000000178814]","1","0","0","","","","","","","",""
"pit-trial","12","118768","0.0-2.0-4.4-0.4","battery-v0.2","","""event"",""trial"",""time""
""fullscreenenter"",""1"",""1374""
","
","
","""event"",""trial"",""time""
""fullscreenenter"",""1"",""1374""
","
","","","440.90000000596046","","","19","4445","3158","&#9784;","elianto","#FFFFF080"," "," ","1","&#10004","[1295.4000000059605]","1","0","0","","","","","","","",""
"pit-instructions","13","137983","0.0-2.0-5.0","battery-v0.2","","""event"",""trial"",""time""
""fullscreenenter"",""1"",""1374""
","
","
","""event"",""trial"",""time""
""fullscreenenter"",""1"",""1374""
","
","","[{""page_index"":0,""viewing_time"":4456.300000011921},{""page_index"":1,""viewing_time"":5366.9000000059605},{""page_index"":2,""viewing_time"":4168.399999976158},{""page_index"":3,""viewing_time"":5215.700000017881}]","19207.59999999404","","","","","","","","","","","","","","","","","","","","","","","",""
"pit-trial","14","142854","0.0-2.0-6.0-0.0","battery-v0.2","","""event"",""trial"",""time""
""fullscreenenter"",""1"",""1374""
","
","
","""event"",""trial"",""time""
""fullscreenenter"",""1"",""1374""
","
","","","-1","","","19","4445","3158","&#9854;","elianto","#FFFFF080","-1","-1","1","&#10004","[]","0","0","1","","","","","","","",""
"pit-trial","15","147724","0.0-2.0-6.1-0.1","battery-v0.2","","""event"",""trial"",""time""
""fullscreenenter"",""1"",""1374""
","
","
","""event"",""trial"",""time""
""fullscreenenter"",""1"",""1374""
","
","","","-1","","","19","4445","3158","&#9854;","elianto","#FFFFF080","-1","-1","1","&#10004","[]","0","0","1","","","","","","","",""
"pit-trial","16","152598","0.0-2.0-6.2-0.2","battery-v0.2","","""event"",""trial"",""time""
""fullscreenenter"",""1"",""1374""
","
","
","""event"",""trial"",""time""
""fullscreenenter"",""1"",""1374""
","
","","","-1","","","19","4445","3158","&#9854;","elianto","#FFFFF080","-1","-1","1","&#10004","[]","0","0","1","","","","","","","",""
"pit-trial","17","157473","0.0-2.0-6.3-0.3","battery-v0.2","","""event"",""trial"",""time""
""fullscreenenter"",""1"",""1374""
","
","
","""event"",""trial"",""time""
""fullscreenenter"",""1"",""1374""
","
","","","-1","","","19","4445","3158","&#9854;","elianto","#FFFFF080","-1","-1","1","&#10004","[]","0","0","1","","","","","","","",""
"pit-trial","18","162342","0.0-2.0-6.4-0.4","battery-v0.2","","""event"",""trial"",""time""
""fullscreenenter"",""1"",""1374""
","
","
","""event"",""trial"",""time""
""fullscreenenter"",""1"",""1374""
","
","","","-1","","","19","4445","3158","&#9854;","elianto","#FFFFF080","-1","-1","1","&#10004","[]","0","0","1","","","","","","","",""
"pit-instructions","19","269998","0.0-2.0-7.0","battery-v0.2","","""event"",""trial"",""time""
""fullscreenenter"",""1"",""1374""
","
","
","""event"",""trial"",""time""
""fullscreenenter"",""1"",""1374""
","
","","[{""page_index"":0,""viewing_time"":5967.200000017881},{""page_index"":1,""viewing_time"":6682.699999988079},{""page_index"":2,""viewing_time"":5667.9000000059605},{""page_index"":3,""viewing_time"":6195.4000000059605},{""page_index"":4,""viewing_time"":5319.5},{""page_index"":5,""viewing_time"":5134.299999982119},{""page_index"":6,""viewing_time"":4534.300000011921},{""page_index"":7,""viewing_time"":7264},{""page_index"":8,""viewing_time"":6035.299999982119},{""page_index"":9,""viewing_time"":6066.4000000059605},{""page_index"":10,""viewing_time"":6067.4000000059605},{""page_index"":11,""viewing_time"":4128.5999999940395},{""page_index"":12,""viewing_time"":6423.700000017881},{""page_index"":13,""viewing_time"":6361.899999976158},{""page_index"":14,""viewing_time"":6918.100000023842},{""page_index"":15,""viewing_time"":6369.0999999940395},{""page_index"":16,""viewing_time"":6430.299999982119},{""page_index"":17,""viewing_time"":6084.600000023842}]","107651.30000001192","","","","","","","","","","","","","","","","","","","","","","","",""
"pit-trial","20","273770","0.0-2.0-8.0-0.0","battery-v0.2","","""event"",""trial"",""time""
""fullscreenenter"",""1"",""1374""
","
","
","""event"",""trial"",""time""
""fullscreenenter"",""1"",""1374""
","
","","","909","","","19","4445","3158","&#9776;","elianto","#3366ff99"," "," ","1","+10","[1764]","1","0","1","","","","","","","",""
"pit-trial","21","277123","0.0-2.0-8.0-1.0","battery-v0.2","","""event"",""trial"",""time""
""fullscreenenter"",""1"",""1374""
","
","
","""event"",""trial"",""time""
""fullscreenenter"",""1"",""1374""
","
","","","482","","","19","4445","3158","&#9776;","elianto","#3366ff99"," "," ","1","+10","[1342.5999999940395]","1","0","1","","","","","","","",""
"pit-trial","22","280425","0.0-2.0-8.0-2.0","battery-v0.2","","""event"",""trial"",""time""
""fullscreenenter"",""1"",""1374""
","
","
","""event"",""trial"",""time""
""fullscreenenter"",""1"",""1374""
","
","","","432.69999998807907","","","19","4445","3158","&#9776;","elianto","#3366ff99"," "," ","1","+10","[1292]","1","0","1","","","","","","","",""
"pit-trial","23","283689","0.0-2.0-8.0-3.0","battery-v0.2","","""event"",""trial"",""time""
""fullscreenenter"",""1"",""1374""
","
","
","""event"",""trial"",""time""
""fullscreenenter"",""1"",""1374""
","
","","","395.80000001192093","","","19","4445","3158","&#9776;","elianto","#3366ff99"," "," ","1","0","[1254.4000000059605]","1","0","1","","","","","","","",""
"pit-trial","24","286970","0.0-2.0-8.0-4.0","battery-v0.2","","""event"",""trial"",""time""
""fullscreenenter"",""1"",""1374""
","
","
","""event"",""trial"",""time""
""fullscreenenter"",""1"",""1374""
","
","","","406.09999999403954","","","19","4445","3158","&#9776;","elianto","#3366ff99"," "," ","1","+10","[1267.0999999940395]","1","0","1","","","","","","","",""
"pit-trial","25","290336","0.0-2.0-8.1-0.1","battery-v0.2","","""event"",""trial"",""time""
""fullscreenenter"",""1"",""1374""
","
","
","""event"",""trial"",""time""
""fullscreenenter"",""1"",""1374""
","
","","","498.59999999403954","","","19","4445","3158","&#9776;","elianto","#3366ff99"," "," ","1","+10","[822.8000000119209,1355.300000011921]","2","0","1","","","","","","","",""
"pit-trial","26","294259","0.0-2.0-8.1-1.1","battery-v0.2","","""event"",""trial"",""time""
""fullscreenenter"",""1"",""1374""
","
","
","""event"",""trial"",""time""
""fullscreenenter"",""1"",""1374""
","
","","","1045.9000000059605","","","19","4445","3158","&#9776;","elianto","#3366ff99"," "," ","1","+10","[1904.5]","1","0","1","","","","","","","",""
"pit-trial","27","297681","0.0-2.0-8.1-2.1","battery-v0.2","","""event"",""trial"",""time""
""fullscreenenter"",""1"",""1374""
","
","
","""event"",""trial"",""time""
""fullscreenenter"",""1"",""1374""
","
","","","552.8999999761581","","","19","4445","3158","&#9776;","elianto","#3366ff99"," "," ","1","+10","[1409.7999999821186]","1","0","1","","","","","","","",""
"pit-trial","28","301104","0.0-2.0-8.1-3.1","battery-v0.2","","""event"",""trial"",""time""
""fullscreenenter"",""1"",""1374""
","
","
","""event"",""trial"",""time""
""fullscreenenter"",""1"",""1374""
","
","","","556.5999999940395","","","19","4445","3158","&#9776;","elianto","#3366ff99"," "," ","1","0","[1408.2999999821186]","1","0","1","","","","","","","",""
"pit-trial","29","304392","0.0-2.0-8.1-4.1","battery-v0.2","","""event"",""trial"",""time""
""fullscreenenter"",""1"",""1374""
","
","
","""event"",""trial"",""time""
""fullscreenenter"",""1"",""1374""
","
","","","413.89999997615814","","","19","4445","3158","&#9776;","elianto","#3366ff99"," "," ","1","+10","[1273.5999999940395]","1","0","1","","","","","","","",""
"pit-trial","30","307656","0.0-2.0-8.2-0.2","battery-v0.2","","""event"",""trial"",""time""
""fullscreenenter"",""1"",""1374""
","
","
","""event"",""trial"",""time""
""fullscreenenter"",""1"",""1374""
","
","","","393.40000000596046","","","19","4445","3158","&#9776;","elianto","#3366ff99"," "," ","1","+10","[1249]","1","0","1","","","","","","","",""
"pit-trial","31","310952","0.0-2.0-8.2-1.2","battery-v0.2","","""event"",""trial"",""time""
""fullscreenenter"",""1"",""1374""
","
","
","""event"",""trial"",""time""
""fullscreenenter"",""1"",""1374""
","
","","","426.90000000596046","","","19","4445","3158","&#9776;","elianto","#3366ff99"," "," ","1","+10","[1285.5999999940395]","1","0","1","","","","","","","",""
"pit-trial","32","314304","0.0-2.0-8.2-2.2","battery-v0.2","","""event"",""trial"",""time""
""fullscreenenter"",""1"",""1374""
","
","
","""event"",""trial"",""time""
""fullscreenenter"",""1"",""1374""
","
","","","482.09999999403954","","","19","4445","3158","&#9776;","elianto","#3366ff99"," "," ","1","+10","[1342.5999999940395]","1","0","1","","","","","","","",""
"pit-trial","33","317592","0.0-2.0-8.2-3.2","battery-v0.2","","""event"",""trial"",""time""
""fullscreenenter"",""1"",""1374""
","
","
","""event"",""trial"",""time""
""fullscreenenter"",""1"",""1374""
","
","","","416.59999999403954","","","19","4445","3158","&#9776;","elianto","#3366ff99"," "," ","1","0","[1274.199999988079]","1","0","1","","","","","","","",""
"pit-trial","34","320920","0.0-2.0-8.2-4.2","battery-v0.2","","""event"",""trial"",""time""
""fullscreenenter"",""1"",""1374""
","
","
","""event"",""trial"",""time""
""fullscreenenter"",""1"",""1374""
","
","","","457","","","19","4445","3158","&#9776;","elianto","#3366ff99"," "," ","1","+10","[1314.5999999940395]","1","0","1","","","","","","","",""
"call-function","35","320927","0.0-2.0-9.0","battery-v0.2","","""event"",""trial"",""time""
""fullscreenenter"",""1"",""1374""
","
","
","""event"",""trial"",""time""
""fullscreenenter"",""1"",""1374""
","
","","","","","","","","","","","","","","","","","","","","","","","","","","",""
"pit-instructions","36","357833","0.0-2.0-10.0","battery-v0.2","","""event"",""trial"",""time""
""fullscreenenter"",""1"",""1374""
","
","
","""event"",""trial"",""time""
""fullscreenenter"",""1"",""1374""
","
","","[{""page_index"":0,""viewing_time"":5387.199999988079},{""page_index"":1,""viewing_time"":6465.0999999940395},{""page_index"":2,""viewing_time"":9101.600000023842},{""page_index"":3,""viewing_time"":8783.699999988079},{""page_index"":4,""viewing_time"":7166.800000011921}]","36905.29999998212","","","","","","","","","","","","","","","","","","","","","","","",""
"pit-trial","37","362707","0.0-2.0-11.0-0.0","battery-v0.2","","""event"",""trial"",""time""
""fullscreenenter"",""1"",""1374""
","
","
","""event"",""trial"",""time""
""fullscreenenter"",""1"",""1374""
","
","","","-1","","","19","4445","3158","&#9761;","elianto","#3366ff99","-1","-1","1","+10","[]","0","0","2","","","","","","","",""
"pit-trial","38","367578","0.0-2.0-11.0-1.0","battery-v0.2","","""event"",""trial"",""time""
""fullscreenenter"",""1"",""1374""
","
","
","""event"",""trial"",""time""
""fullscreenenter"",""1"",""1374""
","
","","","-1","","","19","4445","3158","&#9761;","elianto","#3366ff99","-1","-1","1","+10","[]","0","0","2","","","","","","","",""
"pit-trial","39","372448","0.0-2.0-11.0-2.0","battery-v0.2","","""event"",""trial"",""time""
""fullscreenenter"",""1"",""1374""
","
","
","""event"",""trial"",""time""
""fullscreenenter"",""1"",""1374""
","
","","","-1","","","19","4445","3158","&#9761;","elianto","#3366ff99","-1","-1","1","+10","[]","0","0","2","","","","","","","",""
"pit-trial","40","377318","0.0-2.0-11.0-3.0","battery-v0.2","","""event"",""trial"",""time""
""fullscreenenter"",""1"",""1374""
","
","
","""event"",""trial"",""time""
""fullscreenenter"",""1"",""1374""
","
","","","-1","","","19","4445","3158","&#9761;","elianto","#3366ff99","-1","-1","1","0","[]","0","0","2","","","","","","","",""
"pit-trial","41","382191","0.0-2.0-11.0-4.0","battery-v0.2","","""event"",""trial"",""time""
""fullscreenenter"",""1"",""1374""
","
","
","""event"",""trial"",""time""
""fullscreenenter"",""1"",""1374""
","
","","","-1","","","19","4445","3158","&#9761;","elianto","#3366ff99","-1","-1","1","+10","[]","0","0","2","","","","","","","",""
"pit-trial","42","387061","0.0-2.0-11.1-0.1","battery-v0.2","","""event"",""trial"",""time""
""fullscreenenter"",""1"",""1374""
","
","
","""event"",""trial"",""time""
""fullscreenenter"",""1"",""1374""
","
","","","-1","","","19","4445","3158","&#9761;","elianto","#3366ff99","-1","-1","1","+10","[]","0","0","2","","","","","","","",""
"pit-trial","43","391934","0.0-2.0-11.1-1.1","battery-v0.2","","""event"",""trial"",""time""
""fullscreenenter"",""1"",""1374""
","
","
","""event"",""trial"",""time""
""fullscreenenter"",""1"",""1374""
","
","","","-1","","","19","4445","3158","&#9761;","elianto","#3366ff99","-1","-1","1","+10","[]","0","0","2","","","","","","","",""
"pit-trial","44","396805","0.0-2.0-11.1-2.1","battery-v0.2","","""event"",""trial"",""time""
""fullscreenenter"",""1"",""1374""
","
","
","""event"",""trial"",""time""
""fullscreenenter"",""1"",""1374""
","
","","","-1","","","19","4445","3158","&#9761;","elianto","#3366ff99","-1","-1","1","+10","[]","0","0","2","","","","","","","",""
"pit-trial","45","401677","0.0-2.0-11.1-3.1","battery-v0.2","","""event"",""trial"",""time""
""fullscreenenter"",""1"",""1374""
","
","
","""event"",""trial"",""time""
""fullscreenenter"",""1"",""1374""
","
","","","-1","","","19","4445","3158","&#9761;","elianto","#3366ff99","-1","-1","1","0","[]","0","0","2","","","","","","","",""
"pit-trial","46","406549","0.0-2.0-11.1-4.1","battery-v0.2","","""event"",""trial"",""time""
""fullscreenenter"",""1"",""1374""
","
","
","""event"",""trial"",""time""
""fullscreenenter"",""1"",""1374""
","
","","","-1","","","19","4445","3158","&#9761;","elianto","#3366ff99","-1","-1","1","+10","[]","0","0","2","","","","","","","",""
"pit-trial","47","411421","0.0-2.0-11.2-0.2","battery-v0.2","","""event"",""trial"",""time""
""fullscreenenter"",""1"",""1374""
","
","
","""event"",""trial"",""time""
""fullscreenenter"",""1"",""1374""
","
","","","-1","","","19","4445","3158","&#9761;","elianto","#3366ff99","-1","-1","1","+10","[]","0","0","2","","","","","","","",""
"pit-trial","48","416293","0.0-2.0-11.2-1.2","battery-v0.2","","""event"",""trial"",""time""
""fullscreenenter"",""1"",""1374""
","
","
","""event"",""trial"",""time""
""fullscreenenter"",""1"",""1374""
","
","","","-1","","","19","4445","3158","&#9761;","elianto","#3366ff99","-1","-1","1","+10","[]","0","0","2","","","","","","","",""
"pit-trial","49","421166","0.0-2.0-11.2-2.2","battery-v0.2","","""event"",""trial"",""time""
""fullscreenenter"",""1"",""1374""
","
","
","""event"",""trial"",""time""
""fullscreenenter"",""1"",""1374""
","
","","","-1","","","19","4445","3158","&#9761;","elianto","#3366ff99","-1","-1","1","+10","[]","0","0","2","","","","","","","",""
"pit-trial","50","426037","0.0-2.0-11.2-3.2","battery-v0.2","","""event"",""trial"",""time""
""fullscreenenter"",""1"",""1374""
","
","
","""event"",""trial"",""time""
""fullscreenenter"",""1"",""1374""
","
","","","-1","","","19","4445","3158","&#9761;","elianto","#3366ff99","-1","-1","1","0","[]","0","0","2","","","","","","","",""
"pit-trial","51","430909","0.0-2.0-11.2-4.2","battery-v0.2","","""event"",""trial"",""time""
""fullscreenenter"",""1"",""1374""
","
","
","""event"",""trial"",""time""
""fullscreenenter"",""1"",""1374""
","
","","","-1","","","19","4445","3158","&#9761;","elianto","#3366ff99","-1","-1","1","+10","[]","0","0","2","","","","","","","",""
"pit-trial","52","435781","0.0-2.0-11.3-0.3","battery-v0.2","","""event"",""trial"",""time""
""fullscreenenter"",""1"",""1374""
","
","
","""event"",""trial"",""time""
""fullscreenenter"",""1"",""1374""
","
","","","-1","","","19","4445","3158","&#9761;","elianto","#3366ff99","-1","-1","1","+10","[]","0","0","2","","","","","","","",""
"pit-trial","53","440652","0.0-2.0-11.3-1.3","battery-v0.2","","""event"",""trial"",""time""
""fullscreenenter"",""1"",""1374""
","
","
","""event"",""trial"",""time""
""fullscreenenter"",""1"",""1374""
","
","","","-1","","","19","4445","3158","&#9761;","elianto","#3366ff99","-1","-1","1","+10","[]","0","0","2","","","","","","","",""
"pit-trial","54","445524","0.0-2.0-11.3-2.3","battery-v0.2","","""event"",""trial"",""time""
""fullscreenenter"",""1"",""1374""
","
","
","""event"",""trial"",""time""
""fullscreenenter"",""1"",""1374""
","
","","","-1","","","19","4445","3158","&#9761;","elianto","#3366ff99","-1","-1","1","+10","[]","0","0","2","","","","","","","",""
"pit-trial","55","450396","0.0-2.0-11.3-3.3","battery-v0.2","","""event"",""trial"",""time""
""fullscreenenter"",""1"",""1374""
","
","
","""event"",""trial"",""time""
""fullscreenenter"",""1"",""1374""
","
","","","-1","","","19","4445","3158","&#9761;","elianto","#3366ff99","-1","-1","1","0","[]","0","0","2","","","","","","","",""
"pit-trial","56","455268","0.0-2.0-11.3-4.3","battery-v0.2","","""event"",""trial"",""time""
""fullscreenenter"",""1"",""1374""
","
","
","""event"",""trial"",""time""
""fullscreenenter"",""1"",""1374""
","
","","","-1","","","19","4445","3158","&#9761;","elianto","#3366ff99","-1","-1","1","+10","[]","0","0","2","","","","","","","",""
"call-function","57","455275","0.0-2.0-12.0","battery-v0.2","","""event"",""trial"",""time""
""fullscreenenter"",""1"",""1374""
","
","
","""event"",""trial"",""time""
""fullscreenenter"",""1"",""1374""
","
","","","","","","","","","","","","","","","","","","","","","","","","","","",""
"pit-instructions","58","483945","0.0-2.0-13.0","battery-v0.2","","""event"",""trial"",""time""
""fullscreenenter"",""1"",""1374""
","
","
","""event"",""trial"",""time""
""fullscreenenter"",""1"",""1374""
","
","","[{""page_index"":0,""viewing_time"":4422.199999988079},{""page_index"":1,""viewing_time"":6767.200000017881},{""page_index"":2,""viewing_time"":3214.399999976158},{""page_index"":3,""viewing_time"":10085.300000011921},{""page_index"":4,""viewing_time"":4180.0999999940395}]","28670.29999998212","","","","","","","","","","","","","","","","","","","","","","","",""
"pit-trial","59","488813","0.0-2.0-14.0-0.0","battery-v0.2","","""event"",""trial"",""time""
""fullscreenenter"",""1"",""1374""
","
","
","""event"",""trial"",""time""
""fullscreenenter"",""1"",""1374""
","
","","","-1","","","19","4445","3158","&#9826;","elianto","#f73b6a7A","-1","-1","1","0","[]","0","0","3","","","","","","","",""
"pit-trial","60","493681","0.0-2.0-14.0-1.0","battery-v0.2","","""event"",""trial"",""time""
""fullscreenenter"",""1"",""1374""
","
","
","""event"",""trial"",""time""
""fullscreenenter"",""1"",""1374""
","
","","","-1","","","19","4445","3158","&#9826;","elianto","#f73b6a7A","-1","-1","1","0","[]","0","0","3","","","","","","","",""
"pit-trial","61","498547","0.0-2.0-14.0-2.0","battery-v0.2","","""event"",""trial"",""time""
""fullscreenenter"",""1"",""1374""
","
","
","""event"",""trial"",""time""
""fullscreenenter"",""1"",""1374""
","
","","","-1","","","19","4445","3158","&#9826;","elianto","#f73b6a7A","-1","-1","1","0","[]","0","0","3","","","","","","","",""
"pit-trial","62","503419","0.0-2.0-14.0-3.0","battery-v0.2","","""event"",""trial"",""time""
""fullscreenenter"",""1"",""1374""
","
","
","""event"",""trial"",""time""
""fullscreenenter"",""1"",""1374""
","
","","","-1","","","19","4445","3158","&#9826;","elianto","#f73b6a7A","-1","-1","1","-10","[]","0","0","3","","","","","","","",""
"pit-trial","63","508295","0.0-2.0-14.0-4.0","battery-v0.2","","""event"",""trial"",""time""
""fullscreenenter"",""1"",""1374""
","
","
","""event"",""trial"",""time""
""fullscreenenter"",""1"",""1374""
","
","","","-1","","","19","4445","3158","&#9826;","elianto","#f73b6a7A","-1","-1","1","0","[]","0","0","3","","","","","","","",""
"pit-trial","64","513163","0.0-2.0-14.1-0.1","battery-v0.2","","""event"",""trial"",""time""
""fullscreenenter"",""1"",""1374""
","
","
","""event"",""trial"",""time""
""fullscreenenter"",""1"",""1374""
","
","","","-1","","","19","4445","3158","&#9826;","elianto","#f73b6a7A","-1","-1","1","0","[]","0","0","3","","","","","","","",""
"pit-trial","65","518034","0.0-2.0-14.1-1.1","battery-v0.2","","""event"",""trial"",""time""
""fullscreenenter"",""1"",""1374""
","
","
","""event"",""trial"",""time""
""fullscreenenter"",""1"",""1374""
","
","","","-1","","","19","4445","3158","&#9826;","elianto","#f73b6a7A","-1","-1","1","0","[]","0","0","3","","","","","","","",""
"pit-trial","66","522906","0.0-2.0-14.1-2.1","battery-v0.2","","""event"",""trial"",""time""
""fullscreenenter"",""1"",""1374""
","
","
","""event"",""trial"",""time""
""fullscreenenter"",""1"",""1374""
","
","","","-1","","","19","4445","3158","&#9826;","elianto","#f73b6a7A","-1","-1","1","0","[]","0","0","3","","","","","","","",""
"pit-trial","67","527779","0.0-2.0-14.1-3.1","battery-v0.2","","""event"",""trial"",""time""
""fullscreenenter"",""1"",""1374""
","
","
","""event"",""trial"",""time""
""fullscreenenter"",""1"",""1374""
","
","","","-1","","","19","4445","3158","&#9826;","elianto","#f73b6a7A","-1","-1","1","-10","[]","0","0","3","","","","","","","",""
"pit-trial","68","532649","0.0-2.0-14.1-4.1","battery-v0.2","","""event"",""trial"",""time""
""fullscreenenter"",""1"",""1374""
","
","
","""event"",""trial"",""time""
""fullscreenenter"",""1"",""1374""
","
","","","-1","","","19","4445","3158","&#9826;","elianto","#f73b6a7A","-1","-1","1","0","[]","0","0","3","","","","","","","",""
"pit-trial","69","537521","0.0-2.0-14.2-0.2","battery-v0.2","","""event"",""trial"",""time""
""fullscreenenter"",""1"",""1374""
","
","
","""event"",""trial"",""time""
""fullscreenenter"",""1"",""1374""
","
","","","-1","","","19","4445","3158","&#9826;","elianto","#f73b6a7A","-1","-1","1","0","[]","0","0","3","","","","","","","",""
"pit-trial","70","542393","0.0-2.0-14.2-1.2","battery-v0.2","","""event"",""trial"",""time""
""fullscreenenter"",""1"",""1374""
","
","
","""event"",""trial"",""time""
""fullscreenenter"",""1"",""1374""
","
","","","-1","","","19","4445","3158","&#9826;","elianto","#f73b6a7A","-1","-1","1","0","[]","0","0","3","","","","","","","",""
"pit-trial","71","547265","0.0-2.0-14.2-2.2","battery-v0.2","","""event"",""trial"",""time""
""fullscreenenter"",""1"",""1374""
","
","
","""event"",""trial"",""time""
""fullscreenenter"",""1"",""1374""
","
","","","-1","","","19","4445","3158","&#9826;","elianto","#f73b6a7A","-1","-1","1","0","[]","0","0","3","","","","","","","",""
"pit-trial","72","552136","0.0-2.0-14.2-3.2","battery-v0.2","","""event"",""trial"",""time""
""fullscreenenter"",""1"",""1374""
","
","
","""event"",""trial"",""time""
""fullscreenenter"",""1"",""1374""
","
","","","-1","","","19","4445","3158","&#9826;","elianto","#f73b6a7A","-1","-1","1","-10","[]","0","0","3","","","","","","","",""
"pit-trial","73","557012","0.0-2.0-14.2-4.2","battery-v0.2","","""event"",""trial"",""time""
""fullscreenenter"",""1"",""1374""
","
","
","""event"",""trial"",""time""
""fullscreenenter"",""1"",""1374""
","
","","","-1","","","19","4445","3158","&#9826;","elianto","#f73b6a7A","-1","-1","1","0","[]","0","0","3","","","","","","","",""
"pit-trial","74","561881","0.0-2.0-14.3-0.3","battery-v0.2","","""event"",""trial"",""time""
""fullscreenenter"",""1"",""1374""
","
","
","""event"",""trial"",""time""
""fullscreenenter"",""1"",""1374""
","
","","","-1","","","19","4445","3158","&#9826;","elianto","#f73b6a7A","-1","-1","1","0","[]","0","0","3","","","","","","","",""
"pit-trial","75","566753","0.0-2.0-14.3-1.3","battery-v0.2","","""event"",""trial"",""time""
""fullscreenenter"",""1"",""1374""
","
","
","""event"",""trial"",""time""
""fullscreenenter"",""1"",""1374""
","
","","","-1","","","19","4445","3158","&#9826;","elianto","#f73b6a7A","-1","-1","1","0","[]","0","0","3","","","","","","","",""
"pit-trial","76","571625","0.0-2.0-14.3-2.3","battery-v0.2","","""event"",""trial"",""time""
""fullscreenenter"",""1"",""1374""
","
","
","""event"",""trial"",""time""
""fullscreenenter"",""1"",""1374""
","
","","","-1","","","19","4445","3158","&#9826;","elianto","#f73b6a7A","-1","-1","1","0","[]","0","0","3","","","","","","","",""
"pit-trial","77","576496","0.0-2.0-14.3-3.3","battery-v0.2","","""event"",""trial"",""time""
""fullscreenenter"",""1"",""1374""
","
","
","""event"",""trial"",""time""
""fullscreenenter"",""1"",""1374""
","
","","","-1","","","19","4445","3158","&#9826;","elianto","#f73b6a7A","-1","-1","1","-10","[]","0","0","3","","","","","","","",""
"pit-trial","78","581368","0.0-2.0-14.3-4.3","battery-v0.2","","""event"",""trial"",""time""
""fullscreenenter"",""1"",""1374""
","
","
","""event"",""trial"",""time""
""fullscreenenter"",""1"",""1374""
","
","","","-1","","","19","4445","3158","&#9826;","elianto","#f73b6a7A","-1","-1","1","0","[]","0","0","3","","","","","","","",""
"call-function","79","581374","0.0-2.0-15.0","battery-v0.2","","""event"",""trial"",""time""
""fullscreenenter"",""1"",""1374""
","
","
","""event"",""trial"",""time""
""fullscreenenter"",""1"",""1374""
","
","","","","","","","","","","","","","","","","","","","","","","","","","","",""
"pit-instructions","80","607929","0.0-2.0-16.0","battery-v0.2","","""event"",""trial"",""time""
""fullscreenenter"",""1"",""1374""
","
","
","""event"",""trial"",""time""
""fullscreenenter"",""1"",""1374""
","
","","[{""page_index"":0,""viewing_time"":8022.399999976158},{""page_index"":1,""viewing_time"":9012.5},{""page_index"":2,""viewing_time"":4255.4000000059605},{""page_index"":3,""viewing_time"":5264}]","26554.5","","","","","","","","","","","","","","","","","","","","","","","",""
"pit-trial","81","612345","0.0-2.0-17.0-0.0","battery-v0.2","","""event"",""trial"",""time""
""fullscreenenter"",""1"",""1374""
","
","
","""event"",""trial"",""time""
""fullscreenenter"",""1"",""1374""
","
","","","1551.2999999821186","","","19","4445","3158","&#9789;","elianto","#f73b6a7A"," "," ","1","0","[2405.699999988079]","1","0","4","","","","","","","",""
"pit-trial","82","615768","0.0-2.0-17.0-1.0","battery-v0.2","","""event"",""trial"",""time""
""fullscreenenter"",""1"",""1374""
","
","
","""event"",""trial"",""time""
""fullscreenenter"",""1"",""1374""
","
","","","559.9000000059605","","","19","4445","3158","&#9789;","elianto","#f73b6a7A"," "," ","1","0","[1413.2000000178814]","1","0","4","","","","","","","",""
"pit-trial","83","620639","0.0-2.0-17.0-2.0","battery-v0.2","","""event"",""trial"",""time""
""fullscreenenter"",""1"",""1374""
","
","
","""event"",""trial"",""time""
""fullscreenenter"",""1"",""1374""
","
","","","-1","","","19","4445","3158","&#9789;","elianto","#f73b6a7A"," ","-1","0","-10","[]","0","0","4","","","","","","","",""
"pit-trial","84","624250","0.0-2.0-17.0-3.0","battery-v0.2","","""event"",""trial"",""time""
""fullscreenenter"",""1"",""1374""
","
","
","""event"",""trial"",""time""
""fullscreenenter"",""1"",""1374""
","
","","","739.5999999940395","","","19","4445","3158","&#9789;","elianto","#f73b6a7A"," "," ","1","-10","[1598.5]","1","0","4","","","","","","","",""
"pit-trial","85","627687","0.0-2.0-17.0-4.0","battery-v0.2","","""event"",""trial"",""time""
""fullscreenenter"",""1"",""1374""
","
","
","""event"",""trial"",""time""
""fullscreenenter"",""1"",""1374""
","
","","","573","","","19","4445","3158","&#9789;","elianto","#f73b6a7A"," "," ","1","0","[1429]","1","0","4","","","","","","","",""
"pit-trial","86","631259","0.0-2.0-17.1-0.1","battery-v0.2","","""event"",""trial"",""time""
""fullscreenenter"",""1"",""1374""
","
","
","""event"",""trial"",""time""
""fullscreenenter"",""1"",""1374""
","
","","","696.4000000059605","","","19","4445","3158","&#9789;","elianto","#f73b6a7A"," "," ","1","0","[1556.3999999761581]","1","0","4","","","","","","","",""
"pit-trial","87","634810","0.0-2.0-17.1-1.1","battery-v0.2","","""event"",""trial"",""time""
""fullscreenenter"",""1"",""1374""
","
","
","""event"",""trial"",""time""
""fullscreenenter"",""1"",""1374""
","
","","","680.7999999821186","","","19","4445","3158","&#9789;","elianto","#f73b6a7A"," "," ","1","0","[1535.7999999821186]","1","0","4","","","","","","","",""
"pit-trial","88","638310","0.0-2.0-17.1-2.1","battery-v0.2","","""event"",""trial"",""time""
""fullscreenenter"",""1"",""1374""
","
","
","""event"",""trial"",""time""
""fullscreenenter"",""1"",""1374""
","
","","","633.1999999880791","","","19","4445","3158","&#9789;","elianto","#f73b6a7A"," "," ","1","0","[1487.5]","1","0","4","","","","","","","",""
"pit-trial","89","642159","0.0-2.0-17.1-3.1","battery-v0.2","","""event"",""trial"",""time""
""fullscreenenter"",""1"",""1374""
","
","
","""event"",""trial"",""time""
""fullscreenenter"",""1"",""1374""
","
","","","982","","","19","4445","3158","&#9789;","elianto","#f73b6a7A"," "," ","1","-10","[1836.0999999940395]","1","0","4","","","","","","","",""
"pit-trial","90","645902","0.0-2.0-17.1-4.1","battery-v0.2","","""event"",""trial"",""time""
""fullscreenenter"",""1"",""1374""
","
","
","""event"",""trial"",""time""
""fullscreenenter"",""1"",""1374""
","
","","","875","","","19","4445","3158","&#9789;","elianto","#f73b6a7A"," "," ","1","0","[1729.5999999940395]","1","0","4","","","","","","","",""
"pit-trial","91","649518","0.0-2.0-17.2-0.2","battery-v0.2","","""event"",""trial"",""time""
""fullscreenenter"",""1"",""1374""
","
","
","""event"",""trial"",""time""
""fullscreenenter"",""1"",""1374""
","
","","","744.9000000059605","","","19","4445","3158","&#9789;","elianto","#f73b6a7A"," "," ","1","0","[1601.2000000178814]","1","0","4","","","","","","","",""
"pit-trial","92","653462","0.0-2.0-17.2-1.2","battery-v0.2","","""event"",""trial"",""time""
""fullscreenenter"",""1"",""1374""
","
","
","""event"",""trial"",""time""
""fullscreenenter"",""1"",""1374""
","
","","","1078.5","","","19","4445","3158","&#9789;","elianto","#f73b6a7A"," "," ","1","0","[1935.2000000178814]","1","0","4","","","","","","","",""
"pit-trial","93","657398","0.0-2.0-17.2-2.2","battery-v0.2","","""event"",""trial"",""time""
""fullscreenenter"",""1"",""1374""
","
","
","""event"",""trial"",""time""
""fullscreenenter"",""1"",""1374""
","
","","","1071.300000011921","","","19","4445","3158","&#9789;","elianto","#f73b6a7A"," "," ","1","0","[1924.300000011921]","1","0","4","","","","","","","",""
"pit-trial","94","660702","0.0-2.0-17.2-3.2","battery-v0.2","","""event"",""trial"",""time""
""fullscreenenter"",""1"",""1374""
","
","
","""event"",""trial"",""time""
""fullscreenenter"",""1"",""1374""
","
","","","445.30000001192093","","","19","4445","3158","&#9789;","elianto","#f73b6a7A"," "," ","1","-10","[1295.3999999761581]","1","0","4","","","","","","","",""
"pit-trial","95","664333","0.0-2.0-17.2-4.2","battery-v0.2","","""event"",""trial"",""time""
""fullscreenenter"",""1"",""1374""
","
","
","""event"",""trial"",""time""
""fullscreenenter"",""1"",""1374""
","
","","","762","","","19","4445","3158","&#9789;","elianto","#f73b6a7A"," "," ","1","0","[1618.4000000059605]","1","0","4","","","","","","","",""
"pit-trial","96","667790","0.0-2.0-17.3-0.3","battery-v0.2","","""event"",""trial"",""time""
""fullscreenenter"",""1"",""1374""
","
","
","""event"",""trial"",""time""
""fullscreenenter"",""1"",""1374""
","
","","","591.2999999821186","","","19","4445","3158","&#9789;","elianto","#f73b6a7A"," "," ","1","0","[1441.7999999821186]","1","0","4","","","","","","","",""
"pit-trial","97","671142","0.0-2.0-17.3-1.3","battery-v0.2","","""event"",""trial"",""time""
""fullscreenenter"",""1"",""1374""
","
","
","""event"",""trial"",""time""
""fullscreenenter"",""1"",""1374""
","
","","","479.10000002384186","","","19","4445","3158","&#9789;","elianto","#f73b6a7A"," "," ","1","0","[1336]","1","0","4","","","","","","","",""
"pit-trial","98","674566","0.0-2.0-17.3-2.3","battery-v0.2","","""event"",""trial"",""time""
""fullscreenenter"",""1"",""1374""
","
","
","""event"",""trial"",""time""
""fullscreenenter"",""1"",""1374""
","
","","","553","","","19","4445","3158","&#9789;","elianto","#f73b6a7A"," "," ","1","0","[1410.5999999940395]","1","0","4","","","","","","","",""
"pit-trial","99","678037","0.0-2.0-17.3-3.3","battery-v0.2","","""event"",""trial"",""time""
""fullscreenenter"",""1"",""1374""
","
","
","""event"",""trial"",""time""
""fullscreenenter"",""1"",""1374""
","
","","","601.8000000119209","","","19","4445","3158","&#9789;","elianto","#f73b6a7A"," "," ","1","-10","[1457.5999999940395]","1","0","4","","","","","","","",""
"pit-trial","100","681485","0.0-2.0-17.3-4.3","battery-v0.2","","""event"",""trial"",""time""
""fullscreenenter"",""1"",""1374""
","
","
","""event"",""trial"",""time""
""fullscreenenter"",""1"",""1374""
","
","","","573.0999999940395","","","19","4445","3158","&#9789;","elianto","#f73b6a7A"," "," ","1","0","[1432.699999988079]","1","0","4","","","","","","","",""
"call-function","101","681492","0.0-2.0-18.0","battery-v0.2","","""event"",""trial"",""time""
""fullscreenenter"",""1"",""1374""
","
","
","""event"",""trial"",""time""
""fullscreenenter"",""1"",""1374""
","
","","","","","","","","","","","","","","","","","","","","","","","","","","",""
"pit-instructions","102","742310","0.0-2.0-19.0","battery-v0.2","","""event"",""trial"",""time""
""fullscreenenter"",""1"",""1374""
","
","
","""event"",""trial"",""time""
""fullscreenenter"",""1"",""1374""
","
","","[{""page_index"":0,""viewing_time"":7486},{""page_index"":1,""viewing_time"":5486.4000000059605},{""page_index"":2,""viewing_time"":8180.5999999940395},{""page_index"":3,""viewing_time"":6131.5},{""page_index"":4,""viewing_time"":6067.799999982119},{""page_index"":5,""viewing_time"":9282.700000017881},{""page_index"":6,""viewing_time"":8283.5},{""page_index"":7,""viewing_time"":6083.4000000059605},{""page_index"":8,""viewing_time"":3816.399999976158}]","60819.5","","","","","","","","","","","","","","","","","","","","","","","",""
"pit-comprehension","103","746727","0.0-2.0-20.0-0.0","battery-v0.2","","""event"",""trial"",""time""
""fullscreenenter"",""1"",""1374""
","
","
","""event"",""trial"",""time""
""fullscreenenter"",""1"",""1374""
","
","","","4412.199999988079","[""SPACE""]","0","19","4445","3158","","","","","","","","","","","","","","","","","","",""
"pit-instructions","104","749510","0.0-2.0-20.0-1.0","battery-v0.2","","""event"",""trial"",""time""
""fullscreenenter"",""1"",""1374""
","
","
","""event"",""trial"",""time""
""fullscreenenter"",""1"",""1374""
","
","","[{""page_index"":0,""viewing_time"":2750}]","2750.5999999940395","","","","","","","","","","","","","","","","","","","","","","","",""
"pit-comprehension","105","756044","0.0-2.0-21.0-0.0","battery-v0.2","","""event"",""trial"",""time""
""fullscreenenter"",""1"",""1374""
","
","
","""event"",""trial"",""time""
""fullscreenenter"",""1"",""1374""
","
","","","6527.9000000059605","[""10""]","0","19","4445","3158","","","","","","","","","","","","","","","","","","",""
"pit-instructions","106","757627","0.0-2.0-21.0-1.0","battery-v0.2","","""event"",""trial"",""time""
""fullscreenenter"",""1"",""1374""
","
","
","""event"",""trial"",""time""
""fullscreenenter"",""1"",""1374""
","
","","[{""page_index"":0,""viewing_time"":1549.199999988079}]","1550.199999988079","","","","","","","","","","","","","","","","","","","","","","","",""
"pit-comprehension","107","764064","0.0-2.0-22.0-0.0","battery-v0.2","","""event"",""trial"",""time""
""fullscreenenter"",""1"",""1374""
","
","
","""event"",""trial"",""time""
""fullscreenenter"",""1"",""1374""
","
","","","6429.5999999940395","[""0""]","0","19","4445","3158","","","","","","","","","","","","","","","","","","",""
"pit-instructions","108","766259","0.0-2.0-22.0-1.0","battery-v0.2","","""event"",""trial"",""time""
""fullscreenenter"",""1"",""1374""
","
","
","""event"",""trial"",""time""
""fullscreenenter"",""1"",""1374""
","
","","[{""page_index"":0,""viewing_time"":2160.199999988079}]","2160.4000000059605","","","","","","","","","","","","","","","","","","","","","","","",""
"pit-comprehension","109","775709","0.0-2.0-23.0-0.0","battery-v0.2","","""event"",""trial"",""time""
""fullscreenenter"",""1"",""1374""
","
","
","""event"",""trial"",""time""
""fullscreenenter"",""1"",""1374""
","
","","","9446.700000017881","[""True""]","0","19","4445","3158","","","","","","","","","","","","","","","","","","",""
"pit-instructions","110","777644","0.0-2.0-23.0-1.0","battery-v0.2","","""event"",""trial"",""time""
""fullscreenenter"",""1"",""1374""
","
","
","""event"",""trial"",""time""
""fullscreenenter"",""1"",""1374""
","
","","[{""page_index"":0,""viewing_time"":1898.3999999761581}]","1899.0999999940395","","","","","","","","","","","","","","","","","","","","","","","",""
"pit-comprehension","111","785028","0.0-2.0-24.0-0.0","battery-v0.2","","""event"",""trial"",""time""
""fullscreenenter"",""1"",""1374""
","
","
","""event"",""trial"",""time""
""fullscreenenter"",""1"",""1374""
","
","","","7379.300000011921","[""True""]","0","19","4445","3158","","","","","","","","","","","","","","","","","","",""
"pit-instructions","112","787226","0.0-2.0-24.0-1.0","battery-v0.2","","""event"",""trial"",""time""
""fullscreenenter"",""1"",""1374""
","
","
","""event"",""trial"",""time""
""fullscreenenter"",""1"",""1374""
","
","","[{""page_index"":0,""viewing_time"":2162.600000023842}]","2163","","","","","","","","","","","","","","","","","","","","","","","",""
"pit-comprehension","113","793592","0.0-2.0-25.0-0.0","battery-v0.2","","""event"",""trial"",""time""
""fullscreenenter"",""1"",""1374""
","
","
","""event"",""trial"",""time""
""fullscreenenter"",""1"",""1374""
","
","","","6361.5999999940395","[""True""]","0","19","4445","3158","","","","","","","","","","","","","","","","","","",""
"pit-instructions","114","795609","0.0-2.0-25.0-1.0","battery-v0.2","","""event"",""trial"",""time""
""fullscreenenter"",""1"",""1374""
","
","
","""event"",""trial"",""time""
""fullscreenenter"",""1"",""1374""
","
","","[{""page_index"":0,""viewing_time"":1982.199999988079}]","1982.4000000059605","","","","","","","","","","","","","","","","","","","","","","","",""
"pit-comprehension","115","802794","0.0-2.0-26.0-0.0","battery-v0.2","","""event"",""trial"",""time""
""fullscreenenter"",""1"",""1374""
","
","
","""event"",""trial"",""time""
""fullscreenenter"",""1"",""1374""
","
","","","7180.5","[""False""]","0","19","4445","3158","","","","","","","","","","","","","","","","","","",""
"pit-instructions","116","804560","0.0-2.0-26.0-1.0","battery-v0.2","","""event"",""trial"",""time""
""fullscreenenter"",""1"",""1374""
","
","
","""event"",""trial"",""time""
""fullscreenenter"",""1"",""1374""
","
","","[{""page_index"":0,""viewing_time"":1734.9000000059605}]","1735.5999999940395","","","","","","","","","","","","","","","","","","","","","","","",""
"pit-instructions","117","821077","0.0-3.0","battery-v0.2","","""event"",""trial"",""time""
""fullscreenenter"",""1"",""1374""
","
","
","""event"",""trial"",""time""
""fullscreenenter"",""1"",""1374""
","
","","[{""page_index"":0,""viewing_time"":3728.9000000059605},{""page_index"":1,""viewing_time"":5265.800000011921},{""page_index"":2,""viewing_time"":7516.899999976158}]","16512","","","","","","","","","","","","","","","","","","","","","","","",""
"pit-trial","118","824683","0.0-4.0","battery-v0.2","","""event"",""trial"",""time""
""fullscreenenter"",""1"",""1374""
","
","
","""event"",""trial"",""time""
""fullscreenenter"",""1"",""1374""
","
","","","740.5","","","19","4445","3158","&#9730;","elianto","#3366ff99"," "," ","1","+10","[1593.7999999821186]","1","1","","","4445","1","1","1","win","go","0"
"pit-trial","119","828513","0.0-5.0","battery-v0.2","","""event"",""trial"",""time""
""fullscreenenter"",""1"",""1374""
","
","
","""event"",""trial"",""time""
""fullscreenenter"",""1"",""1374""
","
","","","971.2000000178814","","","19","4445","3158","&#9728;","elianto","#f73b6a7A","-1"," ","0","0","[1821.5]","1","1","","","4445","2","0","4","lose","no-go","1"
"pit-trial","120","833336","0.0-6.0","battery-v0.2","","""event"",""trial"",""time""
""fullscreenenter"",""1"",""1374""
","
","
","""event"",""trial"",""time""
""fullscreenenter"",""1"",""1374""
","
","","","1959.0999999940395","","","19","4445","3158","&#9733;","elianto","#3366ff99","-1"," ","0","0","[2809.4000000059605]","1","1","","","4445","3","2","2","win","no-go","0"
"pit-trial","121","838211","0.0-7.0","battery-v0.2","","""event"",""trial"",""time""
""fullscreenenter"",""1"",""1374""
","
","
","""event"",""trial"",""time""
""fullscreenenter"",""1"",""1374""
","
","","","-1","","","19","4445","3158","&#9752;","elianto","#f73b6a7A"," ","-1","0","-10","[]","0","1","","","4445","4","3","3","lose","go","0"
"pit-trial","122","842209","0.0-8.0","battery-v0.2","","""event"",""trial"",""time""
""fullscreenenter"",""1"",""1374""
","
","
","""event"",""trial"",""time""
""fullscreenenter"",""1"",""1374""
","
","","","1133.4000000059605","","","19","4445","3158","&#9728;","elianto","#f73b6a7A","-1"," ","0","-10","[1986.300000011921]","1","1","","","4445","5","0","4","lose","no-go","0"
"pit-trial","123","846177","0.0-9.0","battery-v0.2","","""event"",""trial"",""time""
""fullscreenenter"",""1"",""1374""
","
","
","""event"",""trial"",""time""
""fullscreenenter"",""1"",""1374""
","
","","","1103.7000000178814","","","19","4445","3158","&#9730;","elianto","#3366ff99"," "," ","1","+10","[1958.4000000059605]","1","1","","","4445","6","1","1","win","go","0"
"pit-trial","124","851049","0.0-10.0","battery-v0.2","","""event"",""trial"",""time""
""fullscreenenter"",""1"",""1374""
","
","
","""event"",""trial"",""time""
""fullscreenenter"",""1"",""1374""
","
","","","-1","","","19","4445","3158","&#9733;","elianto","#3366ff99","-1","-1","1","+10","[]","0","1","","","4445","7","2","2","win","no-go","0"
"pit-trial","125","855033","0.0-11.0","battery-v0.2","","""event"",""trial"",""time""
""fullscreenenter"",""1"",""1374""
","
","
","""event"",""trial"",""time""
""fullscreenenter"",""1"",""1374""
","
","","","1118.300000011921","","","19","4445","3158","&#9752;","elianto","#f73b6a7A"," "," ","1","-10","[1975.300000011921]","1","1","","","4445","8","3","3","lose","go","1"
"pit-trial","126","858953","0.0-12.0","battery-v0.2","","""event"",""trial"",""time""
""fullscreenenter"",""1"",""1374""
","
","
","""event"",""trial"",""time""
""fullscreenenter"",""1"",""1374""
","
","","","1048.300000011921","","","19","4445","3158","&#9728;","elianto","#f73b6a7A","-1"," ","0","-10","[1905.4000000059605]","1","1","","","4445","9","0","4","lose","no-go","0"
"pit-trial","127","863088","0.0-13.0","battery-v0.2","","""event"",""trial"",""time""
""fullscreenenter"",""1"",""1374""
","
","
","""event"",""trial"",""time""
""fullscreenenter"",""1"",""1374""
","
","","","1263.199999988079","","","19","4445","3158","&#9752;","elianto","#f73b6a7A"," "," ","1","0","[2122.5]","1","1","","","4445","10","3","3","lose","go","0"
"pit-trial","128","867960","0.0-14.0","battery-v0.2","","""event"",""trial"",""time""
""fullscreenenter"",""1"",""1374""
","
","
","""event"",""trial"",""time""
""fullscreenenter"",""1"",""1374""
","
","","","-1","","","19","4445","3158","&#9733;","elianto","#3366ff99","-1","-1","1","+10","[]","0","1","","","4445","11","2","2","win","no-go","0"
"pit-trial","129","871456","0.0-15.0","battery-v0.2","","""event"",""trial"",""time""
""fullscreenenter"",""1"",""1374""
","
","
","""event"",""trial"",""time""
""fullscreenenter"",""1"",""1374""
","
","","","628.3000000119209","","","19","4445","3158","&#9730;","elianto","#3366ff99"," "," ","1","+10","[1481.5]","1","1","","","4445","12","1","1","win","go","0"
"pit-trial","130","876327","0.0-16.0","battery-v0.2","","""event"",""trial"",""time""
""fullscreenenter"",""1"",""1374""
","
","
","""event"",""trial"",""time""
""fullscreenenter"",""1"",""1374""
","
","","","-1","","","19","4445","3158","&#9728;","elianto","#f73b6a7A","-1","-1","1","0","[]","0","1","","","4445","13","0","4","lose","no-go","0"
"pit-trial","131","881202","0.0-17.0","battery-v0.2","","""event"",""trial"",""time""
""fullscreenenter"",""1"",""1374""
","
","
","""event"",""trial"",""time""
""fullscreenenter"",""1"",""1374""
","
","","","-1","","","19","4445","3158","&#9733;","elianto","#3366ff99","-1","-1","1","+10","[]","0","1","","","4445","14","2","2","win","no-go","0"
"pit-trial","132","884671","0.0-18.0","battery-v0.2","","""event"",""trial"",""time""
""fullscreenenter"",""1"",""1374""
","
","
","""event"",""trial"",""time""
""fullscreenenter"",""1"",""1374""
","
","","","606.2999999821186","","","19","4445","3158","&#9752;","elianto","#f73b6a7A"," "," ","1","-10","[1459.4000000059605]","1","1","","","4445","15","3","3","lose","go","1"
"pit-trial","133","888126","0.0-19.0","battery-v0.2","","""event"",""trial"",""time""
""fullscreenenter"",""1"",""1374""
","
","
","""event"",""trial"",""time""
""fullscreenenter"",""1"",""1374""
","
","","","582.2999999821186","","","19","4445","3158","&#9730;","elianto","#3366ff99"," "," ","1","+10","[1440]","1","1","","","4445","16","1","1","win","go","0"
"pit-trial","134","893002","0.0-20.0","battery-v0.2","","""event"",""trial"",""time""
""fullscreenenter"",""1"",""1374""
","
","
","""event"",""trial"",""time""
""fullscreenenter"",""1"",""1374""
","
","","","-1","","","19","4445","3158","&#9728;","elianto","#f73b6a7A","-1","-1","1","0","[]","0","1","","","4445","17","0","4","lose","no-go","0"
"pit-trial","135","897871","0.0-21.0","battery-v0.2","","""event"",""trial"",""time""
""fullscreenenter"",""1"",""1374""
","
","
","""event"",""trial"",""time""
""fullscreenenter"",""1"",""1374""
","
","","","-1","","","19","4445","3158","&#9733;","elianto","#3366ff99","-1","-1","1","+10","[]","0","1","","","4445","18","2","2","win","no-go","0"
"pit-trial","136","902743","0.0-22.0","battery-v0.2","","""event"",""trial"",""time""
""fullscreenenter"",""1"",""1374""
","
","
","""event"",""trial"",""time""
""fullscreenenter"",""1"",""1374""
","
","","","-1","","","19","4445","3158","&#9752;","elianto","#f73b6a7A"," ","-1","0","-10","[]","0","1","","","4445","19","3","3","lose","go","0"
"pit-trial","137","906352","0.0-23.0","battery-v0.2","","""event"",""trial"",""time""
""fullscreenenter"",""1"",""1374""
","
","
","""event"",""trial"",""time""
""fullscreenenter"",""1"",""1374""
","
","","","745.1999999880791","","","19","4445","3158","&#9730;","elianto","#3366ff99"," "," ","1","+10","[1597.4000000059605]","1","1","","","4445","20","1","1","win","go","0"
"pit-instructions","138","919949","0.0-24.0","battery-v0.2","","""event"",""trial"",""time""
""fullscreenenter"",""1"",""1374""
","
","
","""event"",""trial"",""time""
""fullscreenenter"",""1"",""1374""
","
","","[{""page_index"":0,""viewing_time"":5552.199999988079},{""page_index"":1,""viewing_time"":8037.800000011921}]","13590.40000000596","","","","","","","","","","","","","","","","","","","","","","","",""
"pit-trial","139","923687","0.0-25.0","battery-v0.2","","""event"",""trial"",""time""
""fullscreenenter"",""1"",""1374""
","
","
","""event"",""trial"",""time""
""fullscreenenter"",""1"",""1374""
","
","","","873.5","","","19","4445","3158","l","elianto","#3366ff99","-1"," ","0","0","[1724.0999999940395]","1","2","","","4445","21","1","2","win","no-go","0"
"pit-trial","140","927601","0.0-26.0","battery-v0.2","","""event"",""trial"",""time""
""fullscreenenter"",""1"",""1374""
","
","
","""event"",""trial"",""time""
""fullscreenenter"",""1"",""1374""
","
","","","1036.199999988079","","","19","4445","3158","g","elianto","#f73b6a7A","-1"," ","0","-10","[1896.0999999940395]","1","2","","","4445","22","3","4","lose","no-go","0"
"pit-trial","141","931241","0.0-27.0","battery-v0.2","","""event"",""trial"",""time""
""fullscreenenter"",""1"",""1374""
","
","
","""event"",""trial"",""time""
""fullscreenenter"",""1"",""1374""
","
","","","768.5999999940395","","","19","4445","3158","a","elianto","#f73b6a7A"," "," ","1","-10","[1623.9000000059605]","1","2","","","4445","23","2","3","lose","go","1"
"pit-trial","142","934927","0.0-28.0","battery-v0.2","","""event"",""trial"",""time""
""fullscreenenter"",""1"",""1374""
","
","
","""event"",""trial"",""time""
""fullscreenenter"",""1"",""1374""
","
","","","820.9000000059605","","","19","4445","3158","u","elianto","#f73b6a7A"," "," ","1","0","[1676.4000000059605]","1","2","","","4445","24","0","3","lose","go","0"
"pit-trial","143","939801","0.0-29.0","battery-v0.2","","""event"",""trial"",""time""
""fullscreenenter"",""1"",""1374""
","
","
","""event"",""trial"",""time""
""fullscreenenter"",""1"",""1374""
","
","","","-1","","","19","4445","3158","g","elianto","#f73b6a7A","-1","-1","1","0","[]","0","2","","","4445","25","3","4","lose","no-go","0"
"pit-trial","144","944670","0.0-30.0","battery-v0.2","","""event"",""trial"",""time""
""fullscreenenter"",""1"",""1374""
","
","
","""event"",""trial"",""time""
""fullscreenenter"",""1"",""1374""
","
","","","-1","","","19","4445","3158","l","elianto","#3366ff99","-1","-1","1","+10","[]","0","2","","","4445","26","1","2","win","no-go","0"
"pit-trial","145","948130","0.0-31.0","battery-v0.2","","""event"",""trial"",""time""
""fullscreenenter"",""1"",""1374""
","
","
","""event"",""trial"",""time""
""fullscreenenter"",""1"",""1374""
","
","","","585.2000000178814","","","19","4445","3158","u","elianto","#f73b6a7A"," "," ","1","-10","[1444.5999999940395]","1","2","","","4445","27","0","3","lose","go","1"
"pit-trial","146","953001","0.0-32.0","battery-v0.2","","""event"",""trial"",""time""
""fullscreenenter"",""1"",""1374""
","
","
","""event"",""trial"",""time""
""fullscreenenter"",""1"",""1374""
","
","","","-1","","","19","4445","3158","a","elianto","#f73b6a7A"," ","-1","0","-10","[]","0","2","","","4445","28","2","3","lose","go","0"
"pit-trial","147","957870","0.0-33.0","battery-v0.2","","""event"",""trial"",""time""
""fullscreenenter"",""1"",""1374""
","
","
","""event"",""trial"",""time""
""fullscreenenter"",""1"",""1374""
","
","","","-1","","","19","4445","3158","g","elianto","#f73b6a7A","-1","-1","1","0","[]","0","2","","","4445","29","3","4","lose","no-go","0"
"pit-trial","148","962742","0.0-34.0","battery-v0.2","","""event"",""trial"",""time""
""fullscreenenter"",""1"",""1374""
","
","
","""event"",""trial"",""time""
""fullscreenenter"",""1"",""1374""
","
","","","-1","","","19","4445","3158","l","elianto","#3366ff99","-1","-1","1","+10","[]","0","2","","","4445","30","1","2","win","no-go","0"
"pit-trial","149","966437","0.0-35.0","battery-v0.2","","""event"",""trial"",""time""
""fullscreenenter"",""1"",""1374""
","
","
","""event"",""trial"",""time""
""fullscreenenter"",""1"",""1374""
","
","","","827","","","19","4445","3158","a","elianto","#f73b6a7A"," "," ","1","0","[1680.4000000059605]","1","2","","","4445","31","2","3","lose","go","0"
"pit-trial","150","970181","0.0-36.0","battery-v0.2","","""event"",""trial"",""time""
""fullscreenenter"",""1"",""1374""
","
","
","""event"",""trial"",""time""
""fullscreenenter"",""1"",""1374""
","
","","","870.0999999940395","","","19","4445","3158","u","elianto","#f73b6a7A"," "," ","1","-10","[1729.7000000178814]","1","2","","","4445","32","0","3","lose","go","1"
"pit-trial","151","973741","0.0-37.0","battery-v0.2","","""event"",""trial"",""time""
""fullscreenenter"",""1"",""1374""
","
","
","""event"",""trial"",""time""
""fullscreenenter"",""1"",""1374""
","
","","","692.4000000059605","","","19","4445","3158","a","elianto","#f73b6a7A"," "," ","1","-10","[1550]","1","2","","","4445","33","2","3","lose","go","1"
"pit-trial","152","978613","0.0-38.0","battery-v0.2","","""event"",""trial"",""time""
""fullscreenenter"",""1"",""1374""
","
","
","""event"",""trial"",""time""
""fullscreenenter"",""1"",""1374""
","
","","","-1","","","19","4445","3158","l","elianto","#3366ff99","-1","-1","1","+10","[]","0","2","","","4445","34","1","2","win","no-go","0"
"pit-trial","153","983484","0.0-39.0","battery-v0.2","","""event"",""trial"",""time""
""fullscreenenter"",""1"",""1374""
","
","
","""event"",""trial"",""time""
""fullscreenenter"",""1"",""1374""
","
","","","-1","","","19","4445","3158","g","elianto","#f73b6a7A","-1","-1","1","0","[]","0","2","","","4445","35","3","4","lose","no-go","0"
"pit-trial","154","987524","0.0-40.0","battery-v0.2","","""event"",""trial"",""time""
""fullscreenenter"",""1"",""1374""
","
","
","""event"",""trial"",""time""
""fullscreenenter"",""1"",""1374""
","
","","","1168.5","","","19","4445","3158","u","elianto","#f73b6a7A"," "," ","1","0","[2029.7999999821186]","1","2","","","4445","36","0","3","lose","go","0"
"pit-trial","155","992399","0.0-41.0","battery-v0.2","","""event"",""trial"",""time""
""fullscreenenter"",""1"",""1374""
","
","
","""event"",""trial"",""time""
""fullscreenenter"",""1"",""1374""
","
","","","-1","","","19","4445","3158","l","elianto","#3366ff99","-1","-1","1","+10","[]","0","2","","","4445","37","1","2","win","no-go","0"
"pit-trial","156","997268","0.0-42.0","battery-v0.2","","""event"",""trial"",""time""
""fullscreenenter"",""1"",""1374""
","
","
","""event"",""trial"",""time""
""fullscreenenter"",""1"",""1374""
","
","","","-1","","","19","4445","3158","g","elianto","#f73b6a7A","-1","-1","1","-10","[]","0","2","","","4445","38","3","4","lose","no-go","1"
"pit-trial","157","1000828","0.0-43.0","battery-v0.2","","""event"",""trial"",""time""
""fullscreenenter"",""1"",""1374""
","
","
","""event"",""trial"",""time""
""fullscreenenter"",""1"",""1374""
","
","","","685.4000000059605","","","19","4445","3158","u","elianto","#f73b6a7A"," "," ","1","-10","[1545.6000000238419]","1","2","","","4445","39","0","3","lose","go","1"
"pit-trial","158","1005700","0.0-44.0","battery-v0.2","","""event"",""trial"",""time""
""fullscreenenter"",""1"",""1374""
","
","
","""event"",""trial"",""time""
""fullscreenenter"",""1"",""1374""
","
","","","-1","","","19","4445","3158","a","elianto","#f73b6a7A"," ","-1","0","-10","[]","0","2","","","4445","40","2","3","lose","go","0"
"pit-trial","159","1010572","0.0-45.0","battery-v0.2","","""event"",""trial"",""time""
""fullscreenenter"",""1"",""1374""
","
","
","""event"",""trial"",""time""
""fullscreenenter"",""1"",""1374""
","
","","","-1","","","19","4445","3158","l","elianto","#3366ff99","-1","-1","1","+10","[]","0","2","","","4445","41","1","2","win","no-go","0"
"pit-trial","160","1015444","0.0-46.0","battery-v0.2","","""event"",""trial"",""time""
""fullscreenenter"",""1"",""1374""
","
","
","""event"",""trial"",""time""
""fullscreenenter"",""1"",""1374""
","
","","","-1","","","19","4445","3158","u","elianto","#f73b6a7A"," ","-1","0","-10","[]","0","2","","","4445","42","0","3","lose","go","0"
"pit-trial","161","1018924","0.0-47.0","battery-v0.2","","""event"",""trial"",""time""
""fullscreenenter"",""1"",""1374""
","
","
","""event"",""trial"",""time""
""fullscreenenter"",""1"",""1374""
","
","","","613.2000000178814","","","19","4445","3158","a","elianto","#f73b6a7A"," "," ","1","0","[1466.800000011921]","1","2","","","4445","43","2","3","lose","go","0"
"pit-trial","162","1023798","0.0-48.0","battery-v0.2","","""event"",""trial"",""time""
""fullscreenenter"",""1"",""1374""
","
","
","""event"",""trial"",""time""
""fullscreenenter"",""1"",""1374""
","
","","","-1","","","19","4445","3158","g","elianto","#f73b6a7A","-1","-1","1","0","[]","0","2","","","4445","44","3","4","lose","no-go","0"
"pit-trial","163","1028668","0.0-49.0","battery-v0.2","","""event"",""trial"",""time""
""fullscreenenter"",""1"",""1374""
","
","
","""event"",""trial"",""time""
""fullscreenenter"",""1"",""1374""
","
","","","-1","","","19","4445","3158","l","elianto","#3366ff99","-1","-1","1","+10","[]","0","2","","","4445","45","1","2","win","no-go","0"
"pit-trial","164","1033539","0.0-50.0","battery-v0.2","","""event"",""trial"",""time""
""fullscreenenter"",""1"",""1374""
","
","
","""event"",""trial"",""time""
""fullscreenenter"",""1"",""1374""
","
","","","-1","","","19","4445","3158","g","elianto","#f73b6a7A","-1","-1","1","-10","[]","0","2","","","4445","46","3","4","lose","no-go","1"
"pit-trial","165","1037198","0.0-51.0","battery-v0.2","","""event"",""trial"",""time""
""fullscreenenter"",""1"",""1374""
","
","
","""event"",""trial"",""time""
""fullscreenenter"",""1"",""1374""
","
","","","788.3000000119209","","","19","4445","3158","a","elianto","#f73b6a7A"," "," ","1","0","[1643.800000011921]","1","2","","","4445","47","2","3","lose","go","0"
"pit-trial","166","1042067","0.0-52.0","battery-v0.2","","""event"",""trial"",""time""
""fullscreenenter"",""1"",""1374""
","
","
","""event"",""trial"",""time""
""fullscreenenter"",""1"",""1374""
","
","","","-1","","","19","4445","3158","u","elianto","#f73b6a7A"," ","-1","0","0","[]","0","2","","","4445","48","0","3","lose","go","1"
"pit-trial","167","1045875","0.0-53.0","battery-v0.2","","""event"",""trial"",""time""
""fullscreenenter"",""1"",""1374""
","
","
","""event"",""trial"",""time""
""fullscreenenter"",""1"",""1374""
","
","","","935.2000000178814","","","19","4445","3158","a","elianto","#f73b6a7A"," "," ","1","0","[1792.7999999821186]","1","2","","","4445","49","2","3","lose","go","0"
"pit-trial","168","1050748","0.0-54.0","battery-v0.2","","""event"",""trial"",""time""
""fullscreenenter"",""1"",""1374""
","
","
","""event"",""trial"",""time""
""fullscreenenter"",""1"",""1374""
","
","","","-1","","","19","4445","3158","l","elianto","#3366ff99","-1","-1","1","+10","[]","0","2","","","4445","50","1","2","win","no-go","0"
"pit-trial","169","1055619","0.0-55.0","battery-v0.2","","""event"",""trial"",""time""
""fullscreenenter"",""1"",""1374""
","
","
","""event"",""trial"",""time""
""fullscreenenter"",""1"",""1374""
","
","","","-1","","","19","4445","3158","u","elianto","#f73b6a7A"," ","-1","0","0","[]","0","2","","","4445","51","0","3","lose","go","1"
"pit-trial","170","1060491","0.0-56.0","battery-v0.2","","""event"",""trial"",""time""
""fullscreenenter"",""1"",""1374""
","
","
","""event"",""trial"",""time""
""fullscreenenter"",""1"",""1374""
","
","","","-1","","","19","4445","3158","g","elianto","#f73b6a7A","-1","-1","1","0","[]","0","2","","","4445","52","3","4","lose","no-go","0"
"pit-trial","171","1065362","0.0-57.0","battery-v0.2","","""event"",""trial"",""time""
""fullscreenenter"",""1"",""1374""
","
","
","""event"",""trial"",""time""
""fullscreenenter"",""1"",""1374""
","
","","","-1","","","19","4445","3158","l","elianto","#3366ff99","-1","-1","1","+10","[]","0","2","","","4445","53","1","2","win","no-go","0"
"pit-trial","172","1070233","0.0-58.0","battery-v0.2","","""event"",""trial"",""time""
""fullscreenenter"",""1"",""1374""
","
","
","""event"",""trial"",""time""
""fullscreenenter"",""1"",""1374""
","
","","","-1","","","19","4445","3158","g","elianto","#f73b6a7A","-1","-1","1","0","[]","0","2","","","4445","54","3","4","lose","no-go","0"
"pit-trial","173","1075106","0.0-59.0","battery-v0.2","","""event"",""trial"",""time""
""fullscreenenter"",""1"",""1374""
","
","
","""event"",""trial"",""time""
""fullscreenenter"",""1"",""1374""
","
","","","-1","","","19","4445","3158","u","elianto","#f73b6a7A"," ","-1","0","-10","[]","0","2","","","4445","55","0","3","lose","go","0"
"pit-trial","174","1078547","0.0-60.0","battery-v0.2","","""event"",""trial"",""time""
""fullscreenenter"",""1"",""1374""
","
","
","""event"",""trial"",""time""
""fullscreenenter"",""1"",""1374""
","
","","","568.2999999821186","","","19","4445","3158","a","elianto","#f73b6a7A"," "," ","1","0","[1424.800000011921]","1","2","","","4445","56","2","3","lose","go","0"
"pit-trial","175","1083417","0.0-61.0","battery-v0.2","","""event"",""trial"",""time""
""fullscreenenter"",""1"",""1374""
","
","
","""event"",""trial"",""time""
""fullscreenenter"",""1"",""1374""
","
","","","-1","","","19","4445","3158","g","elianto","#f73b6a7A","-1","-1","1","0","[]","0","2","","","4445","57","3","4","lose","no-go","0"
"pit-trial","176","1087305","0.0-62.0","battery-v0.2","","""event"",""trial"",""time""
""fullscreenenter"",""1"",""1374""
","
","
","""event"",""trial"",""time""
""fullscreenenter"",""1"",""1374""
","
","","","1014.5","","","19","4445","3158","a","elianto","#f73b6a7A"," "," ","1","0","[1875.0999999940395]","1","2","","","4445","58","2","3","lose","go","0"
"pit-trial","177","1092177","0.0-63.0","battery-v0.2","","""event"",""trial"",""time""
""fullscreenenter"",""1"",""1374""
","
","
","""event"",""trial"",""time""
""fullscreenenter"",""1"",""1374""
","
","","","-1","","","19","4445","3158","p","elianto","#3366ff99"," ","-1","0","0","[]","0","2","","","4445","59","4","1","win","go","0"
"pit-trial","178","1097049","0.0-64.0","battery-v0.2","","""event"",""trial"",""time""
""fullscreenenter"",""1"",""1374""
","
","
","""event"",""trial"",""time""
""fullscreenenter"",""1"",""1374""
","
","","","-1","","","19","4445","3158","u","elianto","#f73b6a7A"," ","-1","0","-10","[]","0","2","","","4445","60","0","3","lose","go","0"
"pit-trial","179","1101921","0.0-65.0","battery-v0.2","","""event"",""trial"",""time""
""fullscreenenter"",""1"",""1374""
","
","
","""event"",""trial"",""time""
""fullscreenenter"",""1"",""1374""
","
","","","-1","","","19","4445","3158","l","elianto","#3366ff99","-1","-1","1","+10","[]","0","2","","","4445","61","1","2","win","no-go","0"
"pit-trial","180","1105345","0.0-66.0","battery-v0.2","","""event"",""trial"",""time""
""fullscreenenter"",""1"",""1374""
","
","
","""event"",""trial"",""time""
""fullscreenenter"",""1"",""1374""
","
","","","550.4000000059605","","","19","4445","3158","p","elianto","#3366ff99"," "," ","1","+10","[1407.300000011921]","1","2","","","4445","62","4","1","win","go","0"
"pit-trial","181","1110217","0.0-67.0","battery-v0.2","","""event"",""trial"",""time""
""fullscreenenter"",""1"",""1374""
","
","
","""event"",""trial"",""time""
""fullscreenenter"",""1"",""1374""
","
","","","-1","","","19","4445","3158","g","elianto","#f73b6a7A","-1","-1","1","0","[]","0","2","","","4445","63","3","4","lose","no-go","0"
"pit-trial","182","1114025","0.0-68.0","battery-v0.2","","""event"",""trial"",""time""
""fullscreenenter"",""1"",""1374""
","
","
","""event"",""trial"",""time""
""fullscreenenter"",""1"",""1374""
","
","","","937","","","19","4445","3158","a","elianto","#f73b6a7A"," "," ","1","0","[1793.5]","1","2","","","4445","64","2","3","lose","go","0"
"pit-trial","183","1118897","0.0-69.0","battery-v0.2","","""event"",""trial"",""time""
""fullscreenenter"",""1"",""1374""
","
","
","""event"",""trial"",""time""
""fullscreenenter"",""1"",""1374""
","
","","","-1","","","19","4445","3158","l","elianto","#3366ff99","-1","-1","1","0","[]","0","2","","","4445","65","1","2","win","no-go","1"
"pit-trial","184","1123769","0.0-70.0","battery-v0.2","","""event"",""trial"",""time""
""fullscreenenter"",""1"",""1374""
","
","
","""event"",""trial"",""time""
""fullscreenenter"",""1"",""1374""
","
","","","-1","","","19","4445","3158","s","elianto","#3366ff99","-1","-1","1","0","[]","0","2","","","4445","66","5","2","win","no-go","1"
"pit-trial","185","1128641","0.0-71.0","battery-v0.2","","""event"",""trial"",""time""
""fullscreenenter"",""1"",""1374""
","
","
","""event"",""trial"",""time""
""fullscreenenter"",""1"",""1374""
","
","","","-1","","","19","4445","3158","g","elianto","#f73b6a7A","-1","-1","1","0","[]","0","2","","","4445","67","3","4","lose","no-go","0"
"pit-trial","186","1132328","0.0-72.0","battery-v0.2","","""event"",""trial"",""time""
""fullscreenenter"",""1"",""1374""
","
","
","""event"",""trial"",""time""
""fullscreenenter"",""1"",""1374""
","
","","","816.5","","","19","4445","3158","p","elianto","#3366ff99"," "," ","1","+10","[1670.5]","1","2","","","4445","68","4","1","win","go","0"
"pit-trial","187","1137200","0.0-73.0","battery-v0.2","","""event"",""trial"",""time""
""fullscreenenter"",""1"",""1374""
","
","
","""event"",""trial"",""time""
""fullscreenenter"",""1"",""1374""
","
","","","-1","","","19","4445","3158","l","elianto","#3366ff99","-1","-1","1","+10","[]","0","2","","","4445","69","1","2","win","no-go","0"
"pit-trial","188","1140872","0.0-74.0","battery-v0.2","","""event"",""trial"",""time""
""fullscreenenter"",""1"",""1374""
","
","
","""event"",""trial"",""time""
""fullscreenenter"",""1"",""1374""
","
","","","806.4000000059605","","","19","4445","3158","a","elianto","#f73b6a7A"," "," ","1","-10","[1662.9000000059605]","1","2","","","4445","70","2","3","lose","go","1"
"pit-trial","189","1144360","0.0-75.0","battery-v0.2","","""event"",""trial"",""time""
""fullscreenenter"",""1"",""1374""
","
","
","""event"",""trial"",""time""
""fullscreenenter"",""1"",""1374""
","
","","","619.3000000119209","","","19","4445","3158","p","elianto","#3366ff99"," "," ","1","+10","[1476]","1","2","","","4445","71","4","1","win","go","0"
"pit-trial","190","1148119","0.0-76.0","battery-v0.2","","""event"",""trial"",""time""
""fullscreenenter"",""1"",""1374""
","
","
","""event"",""trial"",""time""
""fullscreenenter"",""1"",""1374""
","
","","","892.1999999880791","","","19","4445","3158","s","elianto","#3366ff99","-1"," ","0","+10","[1744.9000000059605]","1","2","","","4445","72","5","2","win","no-go","1"
"pit-trial","191","1151560","0.0-77.0","battery-v0.2","","""event"",""trial"",""time""
""fullscreenenter"",""1"",""1374""
","
","
","""event"",""trial"",""time""
""fullscreenenter"",""1"",""1374""
","
","","","572.8999999761581","","","19","4445","3158","s","elianto","#3366ff99","-1"," ","0","0","[1431.699999988079]","1","2","","","4445","73","5","2","win","no-go","0"
"pit-trial","192","1154952","0.0-78.0","battery-v0.2","","""event"",""trial"",""time""
""fullscreenenter"",""1"",""1374""
","
","
","""event"",""trial"",""time""
""fullscreenenter"",""1"",""1374""
","
","","","528.0999999940395","","","19","4445","3158","p","elianto","#3366ff99"," "," ","1","+10","[1379.699999988079]","1","2","","","4445","74","4","1","win","go","0"
"pit-trial","193","1159824","0.0-79.0","battery-v0.2","","""event"",""trial"",""time""
""fullscreenenter"",""1"",""1374""
","
","
","""event"",""trial"",""time""
""fullscreenenter"",""1"",""1374""
","
","","","-1","","","19","4445","3158","l","elianto","#3366ff99","-1","-1","1","+10","[]","0","2","","","4445","75","1","2","win","no-go","0"
"pit-trial","194","1164695","0.0-80.0","battery-v0.2","","""event"",""trial"",""time""
""fullscreenenter"",""1"",""1374""
","
","
","""event"",""trial"",""time""
""fullscreenenter"",""1"",""1374""
","
","","","-1","","","19","4445","3158","g","elianto","#f73b6a7A","-1","-1","1","0","[]","0","2","","","4445","76","3","4","lose","no-go","0"
"pit-trial","195","1168198","0.0-81.0","battery-v0.2","","""event"",""trial"",""time""
""fullscreenenter"",""1"",""1374""
","
","
","""event"",""trial"",""time""
""fullscreenenter"",""1"",""1374""
","
","","","639.2999999821186","","","19","4445","3158","s","elianto","#3366ff99","-1"," ","0","0","[1490]","1","2","","","4445","77","5","2","win","no-go","0"
"pit-trial","196","1171671","0.0-82.0","battery-v0.2","","""event"",""trial"",""time""
""fullscreenenter"",""1"",""1374""
","
","
","""event"",""trial"",""time""
""fullscreenenter"",""1"",""1374""
","
","","","602","","","19","4445","3158","p","elianto","#3366ff99"," "," ","1","+10","[1460.7000000178814]","1","2","","","4445","78","4","1","win","go","0"
"pit-trial","197","1176455","0.0-83.0","battery-v0.2","","""event"",""trial"",""time""
""fullscreenenter"",""1"",""1374""
","
","
","""event"",""trial"",""time""
""fullscreenenter"",""1"",""1374""
","
","","","1913.2999999821186","","","19","4445","3158","g","elianto","#f73b6a7A","-1"," ","0","-10","[2770]","1","2","","","4445","79","3","4","lose","no-go","0"
"pit-trial","198","1180039","0.0-84.0","battery-v0.2","","""event"",""trial"",""time""
""fullscreenenter"",""1"",""1374""
","
","
","""event"",""trial"",""time""
""fullscreenenter"",""1"",""1374""
","
","","","717.9000000059605","","","19","4445","3158","p","elianto","#3366ff99"," "," ","1","0","[1576.4000000059605]","1","2","","","4445","80","4","1","win","go","1"
"pit-trial","199","1183831","0.0-85.0","battery-v0.2","","""event"",""trial"",""time""
""fullscreenenter"",""1"",""1374""
","
","
","""event"",""trial"",""time""
""fullscreenenter"",""1"",""1374""
","
","","","923.5","","","19","4445","3158","s","elianto","#3366ff99","-1"," ","0","0","[1779.199999988079]","1","2","","","4445","81","5","2","win","no-go","0"
"pit-trial","200","1187455","0.0-86.0","battery-v0.2","","""event"",""trial"",""time""
""fullscreenenter"",""1"",""1374""
","
","
","""event"",""trial"",""time""
""fullscreenenter"",""1"",""1374""
","
","","","755.9000000059605","","","19","4445","3158","p","elianto","#3366ff99"," "," ","1","+10","[1613.5999999940395]","1","2","","","4445","82","4","1","win","go","0"
"pit-trial","201","1192326","0.0-87.0","battery-v0.2","","""event"",""trial"",""time""
""fullscreenenter"",""1"",""1374""
","
","
","""event"",""trial"",""time""
""fullscreenenter"",""1"",""1374""
","
","","","-1","","","19","4445","3158","g","elianto","#f73b6a7A","-1","-1","1","0","[]","0","2","","","4445","83","3","4","lose","no-go","0"
"pit-trial","202","1197198","0.0-88.0","battery-v0.2","","""event"",""trial"",""time""
""fullscreenenter"",""1"",""1374""
","
","
","""event"",""trial"",""time""
""fullscreenenter"",""1"",""1374""
","
","","","-1","","","19","4445","3158","e","elianto","#f73b6a7A","-1","-1","1","0","[]","0","2","","","4445","84","7","4","lose","no-go","0"
"pit-trial","203","1200950","0.0-89.0","battery-v0.2","","""event"",""trial"",""time""
""fullscreenenter"",""1"",""1374""
","
","
","""event"",""trial"",""time""
""fullscreenenter"",""1"",""1374""
","
","","","878.8000000119209","","","19","4445","3158","p","elianto","#3366ff99"," "," ","1","+10","[1735.800000011921]","1","2","","","4445","85","4","1","win","go","0"
"pit-trial","204","1205822","0.0-90.0","battery-v0.2","","""event"",""trial"",""time""
""fullscreenenter"",""1"",""1374""
","
","
","""event"",""trial"",""time""
""fullscreenenter"",""1"",""1374""
","
","","","-1","","","19","4445","3158","w","elianto","#f73b6a7A"," ","-1","0","-10","[]","0","2","","","4445","86","6","3","lose","go","0"
"pit-trial","205","1209470","0.0-91.0","battery-v0.2","","""event"",""trial"",""time""
""fullscreenenter"",""1"",""1374""
","
","
","""event"",""trial"",""time""
""fullscreenenter"",""1"",""1374""
","
","","","781.9000000059605","","","19","4445","3158","s","elianto","#3366ff99","-1"," ","0","0","[1638.1000000238419]","1","2","","","4445","87","5","2","win","no-go","0"
"pit-trial","206","1214343","0.0-92.0","battery-v0.2","","""event"",""trial"",""time""
""fullscreenenter"",""1"",""1374""
","
","
","""event"",""trial"",""time""
""fullscreenenter"",""1"",""1374""
","
","","","-1","","","19","4445","3158","e","elianto","#f73b6a7A","-1","-1","1","-10","[]","0","2","","","4445","88","7","4","lose","no-go","1"
"pit-trial","207","1217830","0.0-93.0","battery-v0.2","","""event"",""trial"",""time""
""fullscreenenter"",""1"",""1374""
","
","
","""event"",""trial"",""time""
""fullscreenenter"",""1"",""1374""
","
","","","625.6000000238419","","","19","4445","3158","s","elianto","#3366ff99","-1"," ","0","0","[1476.7999999821186]","1","2","","","4445","89","5","2","win","no-go","0"
"pit-trial","208","1222006","0.0-94.0","battery-v0.2","","""event"",""trial"",""time""
""fullscreenenter"",""1"",""1374""
","
","
","""event"",""trial"",""time""
""fullscreenenter"",""1"",""1374""
","
","","","1311.0999999940395","","","19","4445","3158","w","elianto","#f73b6a7A"," "," ","1","0","[2161.800000011921]","1","2","","","4445","90","6","3","lose","go","0"
"pit-trial","209","1225614","0.0-95.0","battery-v0.2","","""event"",""trial"",""time""
""fullscreenenter"",""1"",""1374""
","
","
","""event"",""trial"",""time""
""fullscreenenter"",""1"",""1374""
","
","","","741.7999999821186","","","19","4445","3158","p","elianto","#3366ff99"," "," ","1","+10","[1597.0999999940395]","1","2","","","4445","91","4","1","win","go","0"
"pit-trial","210","1230487","0.0-96.0","battery-v0.2","","""event"",""trial"",""time""
""fullscreenenter"",""1"",""1374""
","
","
","""event"",""trial"",""time""
""fullscreenenter"",""1"",""1374""
","
","","","-1","","","19","4445","3158","e","elianto","#f73b6a7A","-1","-1","1","0","[]","0","2","","","4445","92","7","4","lose","no-go","0"
"pit-trial","211","1234006","0.0-97.0","battery-v0.2","","""event"",""trial"",""time""
""fullscreenenter"",""1"",""1374""
","
","
","""event"",""trial"",""time""
""fullscreenenter"",""1"",""1374""
","
","","","649.6999999880791","","","19","4445","3158","s","elianto","#3366ff99","-1"," ","0","+10","[1506.199999988079]","1","2","","","4445","93","5","2","win","no-go","1"
"pit-trial","212","1238877","0.0-98.0","battery-v0.2","","""event"",""trial"",""time""
""fullscreenenter"",""1"",""1374""
","
","
","""event"",""trial"",""time""
""fullscreenenter"",""1"",""1374""
","
","","","-1","","","19","4445","3158","d","elianto","#3366ff99"," ","-1","0","+10","[]","0","2","","","4445","94","8","1","win","go","1"
"pit-trial","213","1242717","0.0-99.0","battery-v0.2","","""event"",""trial"",""time""
""fullscreenenter"",""1"",""1374""
","
","
","""event"",""trial"",""time""
""fullscreenenter"",""1"",""1374""
","
","","","975.9000000059605","","","19","4445","3158","w","elianto","#f73b6a7A"," "," ","1","0","[1825.8999999761581]","1","2","","","4445","95","6","3","lose","go","0"
"pit-trial","214","1247593","0.0-100.0","battery-v0.2","","""event"",""trial"",""time""
""fullscreenenter"",""1"",""1374""
","
","
","""event"",""trial"",""time""
""fullscreenenter"",""1"",""1374""
","
","","","-1","","","19","4445","3158","e","elianto","#f73b6a7A","-1","-1","1","-10","[]","0","2","","","4445","96","7","4","lose","no-go","1"
"pit-trial","215","1252461","0.0-101.0","battery-v0.2","","""event"",""trial"",""time""
""fullscreenenter"",""1"",""1374""
","
","
","""event"",""trial"",""time""
""fullscreenenter"",""1"",""1374""
","
","","","-1","","","19","4445","3158","d","elianto","#3366ff99"," ","-1","0","+10","[]","0","2","","","4445","97","8","1","win","go","1"
"pit-trial","216","1256133","0.0-102.0","battery-v0.2","","""event"",""trial"",""time""
""fullscreenenter"",""1"",""1374""
","
","
","""event"",""trial"",""time""
""fullscreenenter"",""1"",""1374""
","
","","","807","","","19","4445","3158","s","elianto","#3366ff99","-1"," ","0","+10","[1657.699999988079]","1","2","","","4445","98","5","2","win","no-go","1"
"pit-trial","217","1261005","0.0-103.0","battery-v0.2","","""event"",""trial"",""time""
""fullscreenenter"",""1"",""1374""
","
","
","""event"",""trial"",""time""
""fullscreenenter"",""1"",""1374""
","
","","","-1","","","19","4445","3158","e","elianto","#f73b6a7A","-1","-1","1","0","[4055.7999999821186]","1","2","","","4445","99","7","4","lose","no-go","0"
"pit-trial","218","1264760","0.0-104.0","battery-v0.2","","""event"",""trial"",""time""
""fullscreenenter"",""1"",""1374""
","
","
","""event"",""trial"",""time""
""fullscreenenter"",""1"",""1374""
","
","","","885","","","19","4445","3158","w","elianto","#f73b6a7A"," "," ","1","0","[1741.300000011921]","1","2","","","4445","100","6","3","lose","go","0"
"pit-trial","219","1269628","0.0-105.0","battery-v0.2","","""event"",""trial"",""time""
""fullscreenenter"",""1"",""1374""
","
","
","""event"",""trial"",""time""
""fullscreenenter"",""1"",""1374""
","
","","","-1","","","19","4445","3158","d","elianto","#3366ff99"," ","-1","0","0","[]","0","2","","","4445","101","8","1","win","go","0"
"pit-trial","220","1274500","0.0-106.0","battery-v0.2","","""event"",""trial"",""time""
""fullscreenenter"",""1"",""1374""
","
","
","""event"",""trial"",""time""
""fullscreenenter"",""1"",""1374""
","
","","","-1","","","19","4445","3158","j","elianto","#3366ff99"," ","-1","0","0","[]","0","2","","","4445","102","9","1","win","go","0"
"pit-trial","221","1278220","0.0-107.0","battery-v0.2","","""event"",""trial"",""time""
""fullscreenenter"",""1"",""1374""
","
","
","""event"",""trial"",""time""
""fullscreenenter"",""1"",""1374""
","
","","","844.9000000059605","","","19","4445","3158","s","elianto","#3366ff99","-1"," ","0","0","[1705.5999999940395]","1","2","","","4445","103","5","2","win","no-go","0"
"pit-trial","222","1283092","0.0-108.0","battery-v0.2","","""event"",""trial"",""time""
""fullscreenenter"",""1"",""1374""
","
","
","""event"",""trial"",""time""
""fullscreenenter"",""1"",""1374""
","
","","","-1","","","19","4445","3158","e","elianto","#f73b6a7A","-1","-1","1","0","[]","0","2","","","4445","104","7","4","lose","no-go","0"
"pit-trial","223","1286804","0.0-109.0","battery-v0.2","","""event"",""trial"",""time""
""fullscreenenter"",""1"",""1374""
","
","
","""event"",""trial"",""time""
""fullscreenenter"",""1"",""1374""
","
","","","843.7000000178814","","","19","4445","3158","p","elianto","#3366ff99"," "," ","1","+10","[1696.4000000059605]","1","2","","","4445","105","4","1","win","go","0"
"pit-trial","224","1290860","0.0-110.0","battery-v0.2","","""event"",""trial"",""time""
""fullscreenenter"",""1"",""1374""
","
","
","""event"",""trial"",""time""
""fullscreenenter"",""1"",""1374""
","
","","","1185.9000000059605","","","19","4445","3158","w","elianto","#f73b6a7A"," "," ","1","0","[2044.800000011921]","1","2","","","4445","106","6","3","lose","go","0"
"pit-trial","225","1295732","0.0-111.0","battery-v0.2","","""event"",""trial"",""time""
""fullscreenenter"",""1"",""1374""
","
","
","""event"",""trial"",""time""
""fullscreenenter"",""1"",""1374""
","
","","","-1","","","19","4445","3158","d","elianto","#3366ff99"," ","-1","0","0","[]","0","2","","","4445","107","8","1","win","go","0"
"pit-trial","226","1299915","0.0-112.0","battery-v0.2","","""event"",""trial"",""time""
""fullscreenenter"",""1"",""1374""
","
","
","""event"",""trial"",""time""
""fullscreenenter"",""1"",""1374""
","
","","","1310.9000000059605","","","19","4445","3158","j","elianto","#3366ff99"," "," ","1","+10","[2168.300000011921]","1","2","","","4445","108","9","1","win","go","0"
"pit-trial","227","1303403","0.0-113.0","battery-v0.2","","""event"",""trial"",""time""
""fullscreenenter"",""1"",""1374""
","
","
","""event"",""trial"",""time""
""fullscreenenter"",""1"",""1374""
","
","","","617.1999999880791","","","19","4445","3158","s","elianto","#3366ff99","-1"," ","0","0","[1474.5]","1","2","","","4445","109","5","2","win","no-go","0"
"pit-trial","228","1308275","0.0-114.0","battery-v0.2","","""event"",""trial"",""time""
""fullscreenenter"",""1"",""1374""
","
","
","""event"",""trial"",""time""
""fullscreenenter"",""1"",""1374""
","
","","","-1","","","19","4445","3158","d","elianto","#3366ff99"," ","-1","0","0","[]","0","2","","","4445","110","8","1","win","go","0"
"pit-trial","229","1311875","0.0-115.0","battery-v0.2","","""event"",""trial"",""time""
""fullscreenenter"",""1"",""1374""
","
","
","""event"",""trial"",""time""
""fullscreenenter"",""1"",""1374""
","
","","","732","","","19","4445","3158","w","elianto","#f73b6a7A"," "," ","1","0","[1584]","1","2","","","4445","111","6","3","lose","go","0"
"pit-trial","230","1315323","0.0-116.0","battery-v0.2","","""event"",""trial"",""time""
""fullscreenenter"",""1"",""1374""
","
","
","""event"",""trial"",""time""
""fullscreenenter"",""1"",""1374""
","
","","","583.3999999761581","","","19","4445","3158","j","elianto","#3366ff99"," "," ","1","+10","[1437.0999999940395]","1","2","","","4445","112","9","1","win","go","0"
"pit-trial","231","1318859","0.0-117.0","battery-v0.2","","""event"",""trial"",""time""
""fullscreenenter"",""1"",""1374""
","
","
","""event"",""trial"",""time""
""fullscreenenter"",""1"",""1374""
","
","","","669.2000000178814","","","19","4445","3158","s","elianto","#3366ff99","-1"," ","0","0","[1523.4000000059605]","1","2","","","4445","113","5","2","win","no-go","0"
"pit-trial","232","1322411","0.0-118.0","battery-v0.2","","""event"",""trial"",""time""
""fullscreenenter"",""1"",""1374""
","
","
","""event"",""trial"",""time""
""fullscreenenter"",""1"",""1374""
","
","","","690","","","19","4445","3158","w","elianto","#f73b6a7A"," "," ","1","-10","[1542.6000000238419]","1","2","","","4445","114","6","3","lose","go","1"
"pit-trial","233","1327283","0.0-119.0","battery-v0.2","","""event"",""trial"",""time""
""fullscreenenter"",""1"",""1374""
","
","
","""event"",""trial"",""time""
""fullscreenenter"",""1"",""1374""
","
","","","-1","","","19","4445","3158","d","elianto","#3366ff99"," ","-1","0","0","[]","0","2","","","4445","115","8","1","win","go","0"
"pit-trial","234","1331771","0.0-120.0","battery-v0.2","","""event"",""trial"",""time""
""fullscreenenter"",""1"",""1374""
","
","
","""event"",""trial"",""time""
""fullscreenenter"",""1"",""1374""
","
","","","1617","","","19","4445","3158","j","elianto","#3366ff99"," "," ","1","+10","[2478.0999999940395]","1","2","","","4445","116","9","1","win","go","0"
"pit-trial","235","1335499","0.0-121.0","battery-v0.2","","""event"",""trial"",""time""
""fullscreenenter"",""1"",""1374""
","
","
","""event"",""trial"",""time""
""fullscreenenter"",""1"",""1374""
","
","","","856.3000000119209","","","19","4445","3158","w","elianto","#f73b6a7A"," "," ","1","0","[1712.800000011921]","1","2","","","4445","117","6","3","lose","go","0"
"pit-trial","236","1338963","0.0-122.0","battery-v0.2","","""event"",""trial"",""time""
""fullscreenenter"",""1"",""1374""
","
","
","""event"",""trial"",""time""
""fullscreenenter"",""1"",""1374""
","
","","","594.4000000059605","","","19","4445","3158","s","elianto","#3366ff99","-1"," ","0","+10","[1451.2000000178814]","1","2","","","4445","118","5","2","win","no-go","1"
"pit-trial","237","1343835","0.0-123.0","battery-v0.2","","""event"",""trial"",""time""
""fullscreenenter"",""1"",""1374""
","
","
","""event"",""trial"",""time""
""fullscreenenter"",""1"",""1374""
","
","","","-1","","","19","4445","3158","d","elianto","#3366ff99"," ","-1","0","0","[]","0","2","","","4445","119","8","1","win","go","0"
"pit-trial","238","1347540","0.0-124.0","battery-v0.2","","""event"",""trial"",""time""
""fullscreenenter"",""1"",""1374""
","
","
","""event"",""trial"",""time""
""fullscreenenter"",""1"",""1374""
","
","","","829.7000000178814","","","19","4445","3158","j","elianto","#3366ff99"," "," ","1","+10","[1689.5]","1","2","","","4445","120","9","1","win","go","0"
"pit-trial","239","1351490","0.0-125.0","battery-v0.2","","""event"",""trial"",""time""
""fullscreenenter"",""1"",""1374""
","
","
","""event"",""trial"",""time""
""fullscreenenter"",""1"",""1374""
","
","","","1081.199999988079","","","19","4445","3158","j","elianto","#3366ff99"," "," ","1","+10","[1934.7000000178814]","1","2","","","4445","121","9","1","win","go","0"
"pit-trial","240","1355306","0.0-126.0","battery-v0.2","","""event"",""trial"",""time""
""fullscreenenter"",""1"",""1374""
","
","
","""event"",""trial"",""time""
""fullscreenenter"",""1"",""1374""
","
","","","945.3999999761581","","","19","4445","3158","w","elianto","#f73b6a7A"," "," ","1","0","[1799.4000000059605]","1","2","","","4445","122","6","3","lose","go","0"
"pit-trial","241","1360178","0.0-127.0","battery-v0.2","","""event"",""trial"",""time""
""fullscreenenter"",""1"",""1374""
","
","
","""event"",""trial"",""time""
""fullscreenenter"",""1"",""1374""
","
","","","-1","","","19","4445","3158","e","elianto","#f73b6a7A","-1","-1","1","0","[]","0","2","","","4445","123","7","4","lose","no-go","0"
"pit-trial","242","1363722","0.0-128.0","battery-v0.2","","""event"",""trial"",""time""
""fullscreenenter"",""1"",""1374""
","
","
","""event"",""trial"",""time""
""fullscreenenter"",""1"",""1374""
","
","","","681.6999999880791","","","19","4445","3158","d","elianto","#3366ff99"," "," ","1","+10","[1532.5999999940395]","1","2","","","4445","124","8","1","win","go","0"
"pit-trial","243","1368593","0.0-129.0","battery-v0.2","","""event"",""trial"",""time""
""fullscreenenter"",""1"",""1374""
","
","
","""event"",""trial"",""time""
""fullscreenenter"",""1"",""1374""
","
","","","-1","","","19","4445","3158","e","elianto","#f73b6a7A","-1","-1","1","0","[]","0","2","","","4445","125","7","4","lose","no-go","0"
"pit-trial","244","1372697","0.0-130.0","battery-v0.2","","""event"",""trial"",""time""
""fullscreenenter"",""1"",""1374""
","
","
","""event"",""trial"",""time""
""fullscreenenter"",""1"",""1374""
","
","","","1242.699999988079","","","19","4445","3158","d","elianto","#3366ff99"," "," ","1","+10","[2093.5999999940395]","1","2","","","4445","126","8","1","win","go","0"
"pit-trial","245","1376505","0.0-131.0","battery-v0.2","","""event"",""trial"",""time""
""fullscreenenter"",""1"",""1374""
","
","
","""event"",""trial"",""time""
""fullscreenenter"",""1"",""1374""
","
","","","936.0999999940395","","","19","4445","3158","w","elianto","#f73b6a7A"," "," ","1","0","[1792.5999999940395]","1","2","","","4445","127","6","3","lose","go","0"
"pit-trial","246","1380249","0.0-132.0","battery-v0.2","","""event"",""trial"",""time""
""fullscreenenter"",""1"",""1374""
","
","
","""event"",""trial"",""time""
""fullscreenenter"",""1"",""1374""
","
","","","878.3999999761581","","","19","4445","3158","j","elianto","#3366ff99"," "," ","1","+10","[1735.5999999940395]","1","2","","","4445","128","9","1","win","go","0"
"pit-trial","247","1385121","0.0-133.0","battery-v0.2","","""event"",""trial"",""time""
""fullscreenenter"",""1"",""1374""
","
","
","""event"",""trial"",""time""
""fullscreenenter"",""1"",""1374""
","
","","","-1","","","19","4445","3158","e","elianto","#f73b6a7A","-1","-1","1","0","[]","0","2","","","4445","129","7","4","lose","no-go","0"
"pit-trial","248","1388641","0.0-134.0","battery-v0.2","","""event"",""trial"",""time""
""fullscreenenter"",""1"",""1374""
","
","
","""event"",""trial"",""time""
""fullscreenenter"",""1"",""1374""
","
","","","655.2999999821186","","","19","4445","3158","d","elianto","#3366ff99"," "," ","1","+10","[1511.5999999940395]","1","2","","","4445","130","8","1","win","go","0"
"pit-trial","249","1392104","0.0-135.0","battery-v0.2","","""event"",""trial"",""time""
""fullscreenenter"",""1"",""1374""
","
","
","""event"",""trial"",""time""
""fullscreenenter"",""1"",""1374""
","
","","","597.8999999761581","","","19","4445","3158","j","elianto","#3366ff99"," "," ","1","+10","[1450.5]","1","2","","","4445","131","9","1","win","go","0"
"pit-trial","250","1395788","0.0-136.0","battery-v0.2","","""event"",""trial"",""time""
""fullscreenenter"",""1"",""1374""
","
","
","""event"",""trial"",""time""
""fullscreenenter"",""1"",""1374""
","
","","","816.0999999940395","","","19","4445","3158","w","elianto","#f73b6a7A"," "," ","1","0","[1668.199999988079]","1","2","","","4445","132","6","3","lose","go","0"
"pit-trial","251","1399513","0.0-137.0","battery-v0.2","","""event"",""trial"",""time""
""fullscreenenter"",""1"",""1374""
","
","
","""event"",""trial"",""time""
""fullscreenenter"",""1"",""1374""
","
","","","854.7999999821186","","","19","4445","3158","j","elianto","#3366ff99"," "," ","1","0","[1711.5]","1","2","","","4445","133","9","1","win","go","1"
"pit-trial","252","1402912","0.0-138.0","battery-v0.2","","""event"",""trial"",""time""
""fullscreenenter"",""1"",""1374""
","
","
","""event"",""trial"",""time""
""fullscreenenter"",""1"",""1374""
","
","","","529.7000000178814","","","19","4445","3158","d","elianto","#3366ff99"," "," ","1","+10","[1385.800000011921]","1","2","","","4445","134","8","1","win","go","0"
"pit-trial","253","1407787","0.0-139.0","battery-v0.2","","""event"",""trial"",""time""
""fullscreenenter"",""1"",""1374""
","
","
","""event"",""trial"",""time""
""fullscreenenter"",""1"",""1374""
","
","","","-1","","","19","4445","3158","e","elianto","#f73b6a7A","-1","-1","1","0","[]","0","2","","","4445","135","7","4","lose","no-go","0"
"pit-trial","254","1412656","0.0-140.0","battery-v0.2","","""event"",""trial"",""time""
""fullscreenenter"",""1"",""1374""
","
","
","""event"",""trial"",""time""
""fullscreenenter"",""1"",""1374""
","
","","","-1","","","19","4445","3158","w","elianto","#f73b6a7A"," ","-1","0","-10","[]","0","2","","","4445","136","6","3","lose","go","0"
"pit-trial","255","1417528","0.0-141.0","battery-v0.2","","""event"",""trial"",""time""
""fullscreenenter"",""1"",""1374""
","
","
","""event"",""trial"",""time""
""fullscreenenter"",""1"",""1374""
","
","","","-1","","","19","4445","3158","w","elianto","#f73b6a7A"," ","-1","0","-10","[]","0","2","","","4445","137","6","3","lose","go","0"
"pit-trial","256","1422111","0.0-142.0","battery-v0.2","","""event"",""trial"",""time""
""fullscreenenter"",""1"",""1374""
","
","
","""event"",""trial"",""time""
""fullscreenenter"",""1"",""1374""
","
","","","1723","","","19","4445","3158","d","elianto","#3366ff99"," "," ","1","+10","[2573.7999999821186]","1","2","","","4445","138","8","1","win","go","0"
"pit-trial","257","1425640","0.0-143.0","battery-v0.2","","""event"",""trial"",""time""
""fullscreenenter"",""1"",""1374""
","
","
","""event"",""trial"",""time""
""fullscreenenter"",""1"",""1374""
","
","","","660.6999999880791","","","19","4445","3158","j","elianto","#3366ff99"," "," ","1","+10","[1511.300000011921]","1","2","","","4445","139","9","1","win","go","0"
"pit-trial","258","1430515","0.0-144.0","battery-v0.2","","""event"",""trial"",""time""
""fullscreenenter"",""1"",""1374""
","
","
","""event"",""trial"",""time""
""fullscreenenter"",""1"",""1374""
","
","","","-1","","","19","4445","3158","e","elianto","#f73b6a7A","-1","-1","1","0","[]","0","2","","","4445","140","7","4","lose","no-go","0"
"pit-instructions","259","1444493","0.0-145.0","battery-v0.2","","""event"",""trial"",""time""
""fullscreenenter"",""1"",""1374""
","
","
","""event"",""trial"",""time""
""fullscreenenter"",""1"",""1374""
","
","","[{""page_index"":0,""viewing_time"":5405.5},{""page_index"":1,""viewing_time"":8565.90000000596}]","13972.200000017881","","","","","","","","","","","","","","","","","","","","","","","",""
"pit-trial","260","1449360","0.0-146.0","battery-v0.2","","""event"",""trial"",""time""
""fullscreenenter"",""1"",""1374""
","
","
","""event"",""trial"",""time""
""fullscreenenter"",""1"",""1374""
","
","","","-1","","","19","4445","3158","h","elianto","#f73b6a7A"," ","-1","0","-10","[]","0","3","","","4445","141","3","3","lose","go","0"
"pit-trial","261","1454232","0.0-147.0","battery-v0.2","","""event"",""trial"",""time""
""fullscreenenter"",""1"",""1374""
","
","
","""event"",""trial"",""time""
""fullscreenenter"",""1"",""1374""
","
","","","-1","","","19","4445","3158","m","elianto","#f73b6a7A","-1","-1","1","0","[]","0","3","","","4445","142","0","4","lose","no-go","0"
"pit-trial","262","1459104","0.0-148.0","battery-v0.2","","""event"",""trial"",""time""
""fullscreenenter"",""1"",""1374""
","
","
","""event"",""trial"",""time""
""fullscreenenter"",""1"",""1374""
","
","","","-1","","","19","4445","3158","r","elianto","#3366ff99"," ","-1","0","+10","[]","0","3","","","4445","143","1","1","win","go","1"
"pit-trial","263","1463976","0.0-149.0","battery-v0.2","","""event"",""trial"",""time""
""fullscreenenter"",""1"",""1374""
","
","
","""event"",""trial"",""time""
""fullscreenenter"",""1"",""1374""
","
","","","-1","","","19","4445","3158","y","elianto","#f73b6a7A","-1","-1","1","0","[]","0","3","","","4445","144","2","4","lose","no-go","0"
"pit-trial","264","1467745","0.0-150.0","battery-v0.2","","""event"",""trial"",""time""
""fullscreenenter"",""1"",""1374""
","
","
","""event"",""trial"",""time""
""fullscreenenter"",""1"",""1374""
","
","","","903.5999999940395","","","19","4445","3158","r","elianto","#3366ff99"," "," ","1","+10","[1756]","1","3","","","4445","145","1","1","win","go","0"
"pit-trial","265","1471640","0.0-151.0","battery-v0.2","","""event"",""trial"",""time""
""fullscreenenter"",""1"",""1374""
","
","
","""event"",""trial"",""time""
""fullscreenenter"",""1"",""1374""
","
","","","1028.7000000178814","","","19","4445","3158","h","elianto","#f73b6a7A"," "," ","1","0","[1880.5]","1","3","","","4445","146","3","3","lose","go","0"
"pit-trial","266","1476511","0.0-152.0","battery-v0.2","","""event"",""trial"",""time""
""fullscreenenter"",""1"",""1374""
","
","
","""event"",""trial"",""time""
""fullscreenenter"",""1"",""1374""
","
","","","-1","","","19","4445","3158","m","elianto","#f73b6a7A","-1","-1","1","-10","[]","0","3","","","4445","147","0","4","lose","no-go","1"
"pit-trial","267","1481385","0.0-153.0","battery-v0.2","","""event"",""trial"",""time""
""fullscreenenter"",""1"",""1374""
","
","
","""event"",""trial"",""time""
""fullscreenenter"",""1"",""1374""
","
","","","-1","","","19","4445","3158","y","elianto","#f73b6a7A","-1","-1","1","0","[]","0","3","","","4445","148","2","4","lose","no-go","0"
"pit-trial","268","1486254","0.0-154.0","battery-v0.2","","""event"",""trial"",""time""
""fullscreenenter"",""1"",""1374""
","
","
","""event"",""trial"",""time""
""fullscreenenter"",""1"",""1374""
","
