"trial_type","trial_index","time_elapsed","internal_node_id","task_version","subject_id","interactions","blur_events","focus_events","fullscreenenter_events","fullscreenexit_events","success","view_history","rt","responses","num_errors","age","subject","participantId","rune","rune_set","hex","correct","choice","accuracy","outcome","keys","total_keys","block","practice","value","sub","trial","stimulus","robot","valence","action","sham"
"pavlovia","0","19","0.0-0.0","battery-v0.2","","""event"",""trial"",""time""
""blur"",""1"",""2515""
""focus"",""1"",""3024""
""blur"",""1"",""3899""
""focus"",""1"",""4112""
""fullscreenenter"",""1"",""6598""
","""event"",""trial"",""time""
""blur"",""1"",""2515""
""blur"",""1"",""3899""
","""event"",""trial"",""time""
""focus"",""1"",""3024""
""focus"",""1"",""4112""
","""event"",""trial"",""time""
""fullscreenenter"",""1"",""6598""
","
","","","","","","","","","","","","","","","","","","","","","","","","","","",""
"fullscreen","1","7577","0.0-1.0","battery-v0.2","","""event"",""trial"",""time""
""blur"",""1"",""2515""
""focus"",""1"",""3024""
""blur"",""1"",""3899""
""focus"",""1"",""4112""
""fullscreenenter"",""1"",""6598""
","""event"",""trial"",""time""
""blur"",""1"",""2515""
""blur"",""1"",""3899""
","""event"",""trial"",""time""
""focus"",""1"",""3024""
""focus"",""1"",""4112""
","""event"",""trial"",""time""
""fullscreenenter"",""1"",""6598""
","
","true","","","","","","","","","","","","","","","","","","","","","","","","","",""
"pit-instructions","2","11672","0.0-2.0-0.0","battery-v0.2","","""event"",""trial"",""time""
""blur"",""1"",""2515""
""focus"",""1"",""3024""
""blur"",""1"",""3899""
""focus"",""1"",""4112""
""fullscreenenter"",""1"",""6598""
","""event"",""trial"",""time""
""blur"",""1"",""2515""
""blur"",""1"",""3899""
","""event"",""trial"",""time""
""focus"",""1"",""3024""
""focus"",""1"",""4112""
","""event"",""trial"",""time""
""fullscreenenter"",""1"",""6598""
","
","","[{""page_index"":0,""viewing_time"":4088.5}]","4089.100000023842","","","","","","","","","","","","","","","","","","","","","","","",""
"pit-comprehension","3","16126","0.0-2.0-1.0-0.0","battery-v0.2","","""event"",""trial"",""time""
""blur"",""1"",""2515""
""focus"",""1"",""3024""
""blur"",""1"",""3899""
""focus"",""1"",""4112""
""fullscreenenter"",""1"",""6598""
","""event"",""trial"",""time""
""blur"",""1"",""2515""
""blur"",""1"",""3899""
","""event"",""trial"",""time""
""focus"",""1"",""3024""
""focus"",""1"",""4112""
","""event"",""trial"",""time""
""fullscreenenter"",""1"",""6598""
","
","","","4444","[""shark""]","0","18","3962","2804","","","","","","","","","","","","","","","","","","",""
"pit-instructions","4","17700","0.0-2.0-1.0-1.0","battery-v0.2","","""event"",""trial"",""time""
""blur"",""1"",""2515""
""focus"",""1"",""3024""
""blur"",""1"",""3899""
""focus"",""1"",""4112""
""fullscreenenter"",""1"",""6598""
","""event"",""trial"",""time""
""blur"",""1"",""2515""
""blur"",""1"",""3899""
","""event"",""trial"",""time""
""focus"",""1"",""3024""
""focus"",""1"",""4112""
","""event"",""trial"",""time""
""fullscreenenter"",""1"",""6598""
","
","","[{""page_index"":0,""viewing_time"":1531}]","1531.6000000238419","","","","","","","","","","","","","","","","","","","","","","","",""
"pit-comprehension","5","21064","0.0-2.0-2.0-0.0","battery-v0.2","","""event"",""trial"",""time""
""blur"",""1"",""2515""
""focus"",""1"",""3024""
""blur"",""1"",""3899""
""focus"",""1"",""4112""
""fullscreenenter"",""1"",""6598""
","""event"",""trial"",""time""
""blur"",""1"",""2515""
""blur"",""1"",""3899""
","""event"",""trial"",""time""
""focus"",""1"",""3024""
""focus"",""1"",""4112""
","""event"",""trial"",""time""
""fullscreenenter"",""1"",""6598""
","
","","","3349.899999976158","[""tiger""]","0","18","3962","2804","","","","","","","","","","","","","","","","","","",""
"pit-instructions","6","22674","0.0-2.0-2.0-1.0","battery-v0.2","","""event"",""trial"",""time""
""blur"",""1"",""2515""
""focus"",""1"",""3024""
""blur"",""1"",""3899""
""focus"",""1"",""4112""
""fullscreenenter"",""1"",""6598""
","""event"",""trial"",""time""
""blur"",""1"",""2515""
""blur"",""1"",""3899""
","""event"",""trial"",""time""
""focus"",""1"",""3024""
""focus"",""1"",""4112""
","""event"",""trial"",""time""
""fullscreenenter"",""1"",""6598""
","
","","[{""page_index"":0,""viewing_time"":1596.699999988079}]","1597.300000011921","","","","","","","","","","","","","","","","","","","","","","","",""
"pit-instructions","7","120560","0.0-2.0-3.0","battery-v0.2","","""event"",""trial"",""time""
""blur"",""1"",""2515""
""focus"",""1"",""3024""
""blur"",""1"",""3899""
""focus"",""1"",""4112""
""fullscreenenter"",""1"",""6598""
","""event"",""trial"",""time""
""blur"",""1"",""2515""
""blur"",""1"",""3899""
","""event"",""trial"",""time""
""focus"",""1"",""3024""
""focus"",""1"",""4112""
","""event"",""trial"",""time""
""fullscreenenter"",""1"",""6598""
","
","","[{""page_index"":0,""viewing_time"":7784.900000035763},{""page_index"":1,""viewing_time"":5870.699999988079},{""page_index"":2,""viewing_time"":6447.800000011921},{""page_index"":3,""viewing_time"":5273.800000011921},{""page_index"":4,""viewing_time"":6606.399999976158},{""page_index"":5,""viewing_time"":6349.100000023842},{""page_index"":6,""viewing_time"":8092.699999988079},{""page_index"":7,""viewing_time"":7438.800000011921},{""page_index"":8,""viewing_time"":6426.799999952316},{""page_index"":9,""viewing_time"":7967.5},{""page_index"":10,""viewing_time"":7896.600000023842},{""page_index"":11,""viewing_time"":7468.199999988079},{""page_index"":12,""viewing_time"":7219.100000023842},{""page_index"":13,""viewing_time"":7033.899999976158}]","97877.20000004768","","","","","","","","","","","","","","","","","","","","","","","",""
"pit-trial","8","123978","0.0-2.0-4.0-0.0","battery-v0.2","","""event"",""trial"",""time""
""blur"",""1"",""2515""
""focus"",""1"",""3024""
""blur"",""1"",""3899""
""focus"",""1"",""4112""
""fullscreenenter"",""1"",""6598""
","""event"",""trial"",""time""
""blur"",""1"",""2515""
""blur"",""1"",""3899""
","""event"",""trial"",""time""
""focus"",""1"",""3024""
""focus"",""1"",""4112""
","""event"",""trial"",""time""
""fullscreenenter"",""1"",""6598""
","
","","","539.5","","","18","3962","2804","&#9784;","elianto","#FFFFF080"," "," ","1","&#10004","[1391]","1","0","0","","","","","","","",""
"pit-trial","9","127350","0.0-2.0-4.1-0.1","battery-v0.2","","""event"",""trial"",""time""
""blur"",""1"",""2515""
""focus"",""1"",""3024""
""blur"",""1"",""3899""
""focus"",""1"",""4112""
""fullscreenenter"",""1"",""6598""
","""event"",""trial"",""time""
""blur"",""1"",""2515""
""blur"",""1"",""3899""
","""event"",""trial"",""time""
""focus"",""1"",""3024""
""focus"",""1"",""4112""
","""event"",""trial"",""time""
""fullscreenenter"",""1"",""6598""
","
","","","501.39999997615814","","","18","3962","2804","&#9784;","elianto","#FFFFF080"," "," ","1","&#10004","[1351.8999999761581]","1","0","0","","","","","","","",""
"pit-trial","10","130848","0.0-2.0-4.2-0.2","battery-v0.2","","""event"",""trial"",""time""
""blur"",""1"",""2515""
""focus"",""1"",""3024""
""blur"",""1"",""3899""
""focus"",""1"",""4112""
""fullscreenenter"",""1"",""6598""
","""event"",""trial"",""time""
""blur"",""1"",""2515""
""blur"",""1"",""3899""
","""event"",""trial"",""time""
""focus"",""1"",""3024""
""focus"",""1"",""4112""
","""event"",""trial"",""time""
""fullscreenenter"",""1"",""6598""
","
","","","617.3000000119209","","","18","3962","2804","&#9784;","elianto","#FFFFF080"," "," ","1","&#10004","[1470.300000011921]","1","0","0","","","","","","","",""
"pit-trial","11","134138","0.0-2.0-4.3-0.3","battery-v0.2","","""event"",""trial"",""time""
""blur"",""1"",""2515""
""focus"",""1"",""3024""
""blur"",""1"",""3899""
""focus"",""1"",""4112""
""fullscreenenter"",""1"",""6598""
","""event"",""trial"",""time""
""blur"",""1"",""2515""
""blur"",""1"",""3899""
","""event"",""trial"",""time""
""focus"",""1"",""3024""
""focus"",""1"",""4112""
","""event"",""trial"",""time""
""fullscreenenter"",""1"",""6598""
","
","","","412.5999999642372","","","18","3962","2804","&#9784;","elianto","#FFFFF080"," "," ","1","&#10004","[1262.6000000238419]","1","0","0","","","","","","","",""
"pit-trial","12","137438","0.0-2.0-4.4-0.4","battery-v0.2","","""event"",""trial"",""time""
""blur"",""1"",""2515""
""focus"",""1"",""3024""
""blur"",""1"",""3899""
""focus"",""1"",""4112""
""fullscreenenter"",""1"",""6598""
","""event"",""trial"",""time""
""blur"",""1"",""2515""
""blur"",""1"",""3899""
","""event"",""trial"",""time""
""focus"",""1"",""3024""
""focus"",""1"",""4112""
","""event"",""trial"",""time""
""fullscreenenter"",""1"",""6598""
","
","","","421.60000002384186","","","18","3962","2804","&#9784;","elianto","#FFFFF080"," "," ","1","&#10004","[1275.4000000357628]","1","0","0","","","","","","","",""
"pit-instructions","13","160502","0.0-2.0-5.0","battery-v0.2","","""event"",""trial"",""time""
""blur"",""1"",""2515""
""focus"",""1"",""3024""
""blur"",""1"",""3899""
""focus"",""1"",""4112""
""fullscreenenter"",""1"",""6598""
","""event"",""trial"",""time""
""blur"",""1"",""2515""
""blur"",""1"",""3899""
","""event"",""trial"",""time""
""focus"",""1"",""3024""
""focus"",""1"",""4112""
","""event"",""trial"",""time""
""fullscreenenter"",""1"",""6598""
","
","","[{""page_index"":0,""viewing_time"":5497.899999976158},{""page_index"":1,""viewing_time"":5416.899999976158},{""page_index"":2,""viewing_time"":5596.200000047684},{""page_index"":3,""viewing_time"":6543.5}]","23055.299999952316","","","","","","","","","","","","","","","","","","","","","","","",""
"pit-trial","14","165388","0.0-2.0-6.0-0.0","battery-v0.2","","""event"",""trial"",""time""
""blur"",""1"",""2515""
""focus"",""1"",""3024""
""blur"",""1"",""3899""
""focus"",""1"",""4112""
""fullscreenenter"",""1"",""6598""
","""event"",""trial"",""time""
""blur"",""1"",""2515""
""blur"",""1"",""3899""
","""event"",""trial"",""time""
""focus"",""1"",""3024""
""focus"",""1"",""4112""
","""event"",""trial"",""time""
""fullscreenenter"",""1"",""6598""
","
","","","-1","","","18","3962","2804","&#9854;","elianto","#FFFFF080","-1","-1","1","&#10004","[]","0","0","1","","","","","","","",""
"pit-trial","15","170268","0.0-2.0-6.1-0.1","battery-v0.2","","""event"",""trial"",""time""
""blur"",""1"",""2515""
""focus"",""1"",""3024""
""blur"",""1"",""3899""
""focus"",""1"",""4112""
""fullscreenenter"",""1"",""6598""
","""event"",""trial"",""time""
""blur"",""1"",""2515""
""blur"",""1"",""3899""
","""event"",""trial"",""time""
""focus"",""1"",""3024""
""focus"",""1"",""4112""
","""event"",""trial"",""time""
""fullscreenenter"",""1"",""6598""
","
","","","-1","","","18","3962","2804","&#9854;","elianto","#FFFFF080","-1","-1","1","&#10004","[]","0","0","1","","","","","","","",""
"pit-trial","16","175149","0.0-2.0-6.2-0.2","battery-v0.2","","""event"",""trial"",""time""
""blur"",""1"",""2515""
""focus"",""1"",""3024""
""blur"",""1"",""3899""
""focus"",""1"",""4112""
""fullscreenenter"",""1"",""6598""
","""event"",""trial"",""time""
""blur"",""1"",""2515""
""blur"",""1"",""3899""
","""event"",""trial"",""time""
""focus"",""1"",""3024""
""focus"",""1"",""4112""
","""event"",""trial"",""time""
""fullscreenenter"",""1"",""6598""
","
","","","-1","","","18","3962","2804","&#9854;","elianto","#FFFFF080","-1","-1","1","&#10004","[]","0","0","1","","","","","","","",""
"pit-trial","17","180049","0.0-2.0-6.3-0.3","battery-v0.2","","""event"",""trial"",""time""
""blur"",""1"",""2515""
""focus"",""1"",""3024""
""blur"",""1"",""3899""
""focus"",""1"",""4112""
""fullscreenenter"",""1"",""6598""
","""event"",""trial"",""time""
""blur"",""1"",""2515""
""blur"",""1"",""3899""
","""event"",""trial"",""time""
""focus"",""1"",""3024""
""focus"",""1"",""4112""
","""event"",""trial"",""time""
""fullscreenenter"",""1"",""6598""
","
","","","-1","","","18","3962","2804","&#9854;","elianto","#FFFFF080","-1","-1","1","&#10004","[]","0","0","1","","","","","","","",""
"pit-trial","18","184936","0.0-2.0-6.4-0.4","battery-v0.2","","""event"",""trial"",""time""
""blur"",""1"",""2515""
""focus"",""1"",""3024""
""blur"",""1"",""3899""
""focus"",""1"",""4112""
""fullscreenenter"",""1"",""6598""
","""event"",""trial"",""time""
""blur"",""1"",""2515""
""blur"",""1"",""3899""
","""event"",""trial"",""time""
""focus"",""1"",""3024""
""focus"",""1"",""4112""
","""event"",""trial"",""time""
""fullscreenenter"",""1"",""6598""
","
","","","-1","","","18","3962","2804","&#9854;","elianto","#FFFFF080","-1","-1","1","&#10004","[]","0","0","1","","","","","","","",""
"pit-instructions","19","312051","0.0-2.0-7.0","battery-v0.2","","""event"",""trial"",""time""
""blur"",""1"",""2515""
""focus"",""1"",""3024""
""blur"",""1"",""3899""
""focus"",""1"",""4112""
""fullscreenenter"",""1"",""6598""
","""event"",""trial"",""time""
""blur"",""1"",""2515""
""blur"",""1"",""3899""
","""event"",""trial"",""time""
""focus"",""1"",""3024""
""focus"",""1"",""4112""
","""event"",""trial"",""time""
""fullscreenenter"",""1"",""6598""
","
","","[{""page_index"":0,""viewing_time"":6477.400000035763},{""page_index"":1,""viewing_time"":7948.300000011921},{""page_index"":2,""viewing_time"":6594.699999988079},{""page_index"":3,""viewing_time"":6902.199999988079},{""page_index"":4,""viewing_time"":5867.800000011921},{""page_index"":5,""viewing_time"":6758.800000011921},{""page_index"":6,""viewing_time"":5867.299999952316},{""page_index"":7,""viewing_time"":8569.600000023842},{""page_index"":8,""viewing_time"":7749.5},{""page_index"":9,""viewing_time"":8049},{""page_index"":10,""viewing_time"":6956.399999976158},{""page_index"":11,""viewing_time"":5061.200000047684},{""page_index"":12,""viewing_time"":7472.199999988079},{""page_index"":13,""viewing_time"":7376.300000011921},{""page_index"":14,""viewing_time"":8903.899999976158},{""page_index"":15,""viewing_time"":6451},{""page_index"":16,""viewing_time"":6230.699999988079},{""page_index"":17,""viewing_time"":7876}]","127113.20000004768","","","","","","","","","","","","","","","","","","","","","","","",""
"pit-trial","20","315551","0.0-2.0-8.0-0.0","battery-v0.2","","""event"",""trial"",""time""
""blur"",""1"",""2515""
""focus"",""1"",""3024""
""blur"",""1"",""3899""
""focus"",""1"",""4112""
""fullscreenenter"",""1"",""6598""
","""event"",""trial"",""time""
""blur"",""1"",""2515""
""blur"",""1"",""3899""
","""event"",""trial"",""time""
""focus"",""1"",""3024""
""focus"",""1"",""4112""
","""event"",""trial"",""time""
""fullscreenenter"",""1"",""6598""
","
","","","631.3000000119209","","","18","3962","2804","&#9776;","elianto","#3366ff99"," "," ","1","+10","[1485.199999988079]","1","0","1","","","","","","","",""
"pit-trial","21","318803","0.0-2.0-8.0-1.0","battery-v0.2","","""event"",""trial"",""time""
""blur"",""1"",""2515""
""focus"",""1"",""3024""
""blur"",""1"",""3899""
""focus"",""1"",""4112""
""fullscreenenter"",""1"",""6598""
","""event"",""trial"",""time""
""blur"",""1"",""2515""
""blur"",""1"",""3899""
","""event"",""trial"",""time""
""focus"",""1"",""3024""
""focus"",""1"",""4112""
","""event"",""trial"",""time""
""fullscreenenter"",""1"",""6598""
","
","","","387.5","","","18","3962","2804","&#9776;","elianto","#3366ff99"," "," ","1","+10","[1239.199999988079]","1","0","1","","","","","","","",""
"pit-trial","22","322061","0.0-2.0-8.0-2.0","battery-v0.2","","""event"",""trial"",""time""
""blur"",""1"",""2515""
""focus"",""1"",""3024""
""blur"",""1"",""3899""
""focus"",""1"",""4112""
""fullscreenenter"",""1"",""6598""
","""event"",""trial"",""time""
""blur"",""1"",""2515""
""blur"",""1"",""3899""
","""event"",""trial"",""time""
""focus"",""1"",""3024""
""focus"",""1"",""4112""
","""event"",""trial"",""time""
""fullscreenenter"",""1"",""6598""
","
","","","389.69999998807907","","","18","3962","2804","&#9776;","elianto","#3366ff99"," "," ","1","+10","[1243.300000011921]","1","0","1","","","","","","","",""
"pit-trial","23","325371","0.0-2.0-8.0-3.0","battery-v0.2","","""event"",""trial"",""time""
""blur"",""1"",""2515""
""focus"",""1"",""3024""
""blur"",""1"",""3899""
""focus"",""1"",""4112""
""fullscreenenter"",""1"",""6598""
","""event"",""trial"",""time""
""blur"",""1"",""2515""
""blur"",""1"",""3899""
","""event"",""trial"",""time""
""focus"",""1"",""3024""
""focus"",""1"",""4112""
","""event"",""trial"",""time""
""fullscreenenter"",""1"",""6598""
","
","","","420","","","18","3962","2804","&#9776;","elianto","#3366ff99"," "," ","1","0","[1280.800000011921]","1","0","1","","","","","","","",""
"pit-trial","24","328611","0.0-2.0-8.0-4.0","battery-v0.2","","""event"",""trial"",""time""
""blur"",""1"",""2515""
""focus"",""1"",""3024""
""blur"",""1"",""3899""
""focus"",""1"",""4112""
""fullscreenenter"",""1"",""6598""
","""event"",""trial"",""time""
""blur"",""1"",""2515""
""blur"",""1"",""3899""
","""event"",""trial"",""time""
""focus"",""1"",""3024""
""focus"",""1"",""4112""
","""event"",""trial"",""time""
""fullscreenenter"",""1"",""6598""
","
","","","374.19999998807907","","","18","3962","2804","&#9776;","elianto","#3366ff99"," "," ","1","+10","[1230.5]","1","0","1","","","","","","","",""
"pit-trial","25","331861","0.0-2.0-8.1-0.1","battery-v0.2","","""event"",""trial"",""time""
""blur"",""1"",""2515""
""focus"",""1"",""3024""
""blur"",""1"",""3899""
""focus"",""1"",""4112""
""fullscreenenter"",""1"",""6598""
","""event"",""trial"",""time""
""blur"",""1"",""2515""
""blur"",""1"",""3899""
","""event"",""trial"",""time""
""focus"",""1"",""3024""
""focus"",""1"",""4112""
","""event"",""trial"",""time""
""fullscreenenter"",""1"",""6598""
","
","","","377.80000001192093","","","18","3962","2804","&#9776;","elianto","#3366ff99"," "," ","1","+10","[1231.5999999642372]","1","0","1","","","","","","","",""
"pit-trial","26","335091","0.0-2.0-8.1-1.1","battery-v0.2","","""event"",""trial"",""time""
""blur"",""1"",""2515""
""focus"",""1"",""3024""
""blur"",""1"",""3899""
""focus"",""1"",""4112""
""fullscreenenter"",""1"",""6598""
","""event"",""trial"",""time""
""blur"",""1"",""2515""
""blur"",""1"",""3899""
","""event"",""trial"",""time""
""focus"",""1"",""3024""
""focus"",""1"",""4112""
","""event"",""trial"",""time""
""fullscreenenter"",""1"",""6598""
","
","","","358.7000000476837","","","18","3962","2804","&#9776;","elianto","#3366ff99"," "," ","1","+10","[1210]","1","0","1","","","","","","","",""
"pit-trial","27","338391","0.0-2.0-8.1-2.1","battery-v0.2","","""event"",""trial"",""time""
""blur"",""1"",""2515""
""focus"",""1"",""3024""
""blur"",""1"",""3899""
""focus"",""1"",""4112""
""fullscreenenter"",""1"",""6598""
","""event"",""trial"",""time""
""blur"",""1"",""2515""
""blur"",""1"",""3899""
","""event"",""trial"",""time""
""focus"",""1"",""3024""
""focus"",""1"",""4112""
","""event"",""trial"",""time""
""fullscreenenter"",""1"",""6598""
","
","","","410.5","","","18","3962","2804","&#9776;","elianto","#3366ff99"," "," ","1","+10","[1271.4000000357628]","1","0","1","","","","","","","",""
"pit-trial","28","341663","0.0-2.0-8.1-3.1","battery-v0.2","","""event"",""trial"",""time""
""blur"",""1"",""2515""
""focus"",""1"",""3024""
""blur"",""1"",""3899""
""focus"",""1"",""4112""
""fullscreenenter"",""1"",""6598""
","""event"",""trial"",""time""
""blur"",""1"",""2515""
""blur"",""1"",""3899""
","""event"",""trial"",""time""
""focus"",""1"",""3024""
""focus"",""1"",""4112""
","""event"",""trial"",""time""
""fullscreenenter"",""1"",""6598""
","
","","","402.80000001192093","","","18","3962","2804","&#9776;","elianto","#3366ff99"," "," ","1","0","[1255.9000000357628]","1","0","1","","","","","","","",""
"pit-trial","29","344890","0.0-2.0-8.1-4.1","battery-v0.2","","""event"",""trial"",""time""
""blur"",""1"",""2515""
""focus"",""1"",""3024""
""blur"",""1"",""3899""
""focus"",""1"",""4112""
""fullscreenenter"",""1"",""6598""
","""event"",""trial"",""time""
""blur"",""1"",""2515""
""blur"",""1"",""3899""
","""event"",""trial"",""time""
""focus"",""1"",""3024""
""focus"",""1"",""4112""
","""event"",""trial"",""time""
""fullscreenenter"",""1"",""6598""
","
","","","355.39999997615814","","","18","3962","2804","&#9776;","elianto","#3366ff99"," "," ","1","+10","[1209.3999999761581]","1","0","1","","","","","","","",""
"pit-trial","30","348090","0.0-2.0-8.2-0.2","battery-v0.2","","""event"",""trial"",""time""
""blur"",""1"",""2515""
""focus"",""1"",""3024""
""blur"",""1"",""3899""
""focus"",""1"",""4112""
""fullscreenenter"",""1"",""6598""
","""event"",""trial"",""time""
""blur"",""1"",""2515""
""blur"",""1"",""3899""
","""event"",""trial"",""time""
""focus"",""1"",""3024""
""focus"",""1"",""4112""
","""event"",""trial"",""time""
""fullscreenenter"",""1"",""6598""
","
","","","335.5999999642372","","","18","3962","2804","&#9776;","elianto","#3366ff99"," "," ","1","+10","[1187.800000011921]","1","0","1","","","","","","","",""
"pit-trial","31","351291","0.0-2.0-8.2-1.2","battery-v0.2","","""event"",""trial"",""time""
""blur"",""1"",""2515""
""focus"",""1"",""3024""
""blur"",""1"",""3899""
""focus"",""1"",""4112""
""fullscreenenter"",""1"",""6598""
","""event"",""trial"",""time""
""blur"",""1"",""2515""
""blur"",""1"",""3899""
","""event"",""trial"",""time""
""focus"",""1"",""3024""
""focus"",""1"",""4112""
","""event"",""trial"",""time""
""fullscreenenter"",""1"",""6598""
","
","","","329.19999998807907","","","18","3962","2804","&#9776;","elianto","#3366ff99"," "," ","1","+10","[1187.199999988079]","1","0","1","","","","","","","",""
"pit-trial","32","354506","0.0-2.0-8.2-2.2","battery-v0.2","","""event"",""trial"",""time""
""blur"",""1"",""2515""
""focus"",""1"",""3024""
""blur"",""1"",""3899""
""focus"",""1"",""4112""
""fullscreenenter"",""1"",""6598""
","""event"",""trial"",""time""
""blur"",""1"",""2515""
""blur"",""1"",""3899""
","""event"",""trial"",""time""
""focus"",""1"",""3024""
""focus"",""1"",""4112""
","""event"",""trial"",""time""
""fullscreenenter"",""1"",""6598""
","
","","","346","","","18","3962","2804","&#9776;","elianto","#3366ff99"," "," ","1","+10","[1202.300000011921]","1","0","1","","","","","","","",""
"pit-trial","33","357722","0.0-2.0-8.2-3.2","battery-v0.2","","""event"",""trial"",""time""
""blur"",""1"",""2515""
""focus"",""1"",""3024""
""blur"",""1"",""3899""
""focus"",""1"",""4112""
""fullscreenenter"",""1"",""6598""
","""event"",""trial"",""time""
""blur"",""1"",""2515""
""blur"",""1"",""3899""
","""event"",""trial"",""time""
""focus"",""1"",""3024""
""focus"",""1"",""4112""
","""event"",""trial"",""time""
""fullscreenenter"",""1"",""6598""
","
","","","348.5","","","18","3962","2804","&#9776;","elianto","#3366ff99"," "," ","1","0","[1202]","1","0","1","","","","","","","",""
"pit-trial","34","360800","0.0-2.0-8.2-4.2","battery-v0.2","","""event"",""trial"",""time""
""blur"",""1"",""2515""
""focus"",""1"",""3024""
""blur"",""1"",""3899""
""focus"",""1"",""4112""
""fullscreenenter"",""1"",""6598""
","""event"",""trial"",""time""
""blur"",""1"",""2515""
""blur"",""1"",""3899""
","""event"",""trial"",""time""
""focus"",""1"",""3024""
""focus"",""1"",""4112""
","""event"",""trial"",""time""
""fullscreenenter"",""1"",""6598""
","
","","","204.20000004768372","","","18","3962","2804","&#9776;","elianto","#3366ff99"," "," ","1","+10","[1063.3999999761581]","1","0","1","","","","","","","",""
"call-function","35","360809","0.0-2.0-9.0","battery-v0.2","","""event"",""trial"",""time""
""blur"",""1"",""2515""
""focus"",""1"",""3024""
""blur"",""1"",""3899""
""focus"",""1"",""4112""
""fullscreenenter"",""1"",""6598""
","""event"",""trial"",""time""
""blur"",""1"",""2515""
""blur"",""1"",""3899""
","""event"",""trial"",""time""
""focus"",""1"",""3024""
""focus"",""1"",""4112""
","""event"",""trial"",""time""
""fullscreenenter"",""1"",""6598""
","
","","","","","","","","","","","","","","","","","","","","","","","","","","",""
"pit-instructions","36","399834","0.0-2.0-10.0","battery-v0.2","","""event"",""trial"",""time""
""blur"",""1"",""2515""
""focus"",""1"",""3024""
""blur"",""1"",""3899""
""focus"",""1"",""4112""
""fullscreenenter"",""1"",""6598""
","""event"",""trial"",""time""
""blur"",""1"",""2515""
""blur"",""1"",""3899""
","""event"",""trial"",""time""
""focus"",""1"",""3024""
""focus"",""1"",""4112""
","""event"",""trial"",""time""
""fullscreenenter"",""1"",""6598""
","
","","[{""page_index"":0,""viewing_time"":5824.400000035763},{""page_index"":1,""viewing_time"":7124.699999988079},{""page_index"":2,""viewing_time"":10211.800000011921},{""page_index"":3,""viewing_time"":8260.699999988079},{""page_index"":4,""viewing_time"":7600.599999964237}]","39023.19999998808","","","","","","","","","","","","","","","","","","","","","","","",""
"pit-trial","37","403470","0.0-2.0-11.0-0.0","battery-v0.2","","""event"",""trial"",""time""
""blur"",""1"",""2515""
""focus"",""1"",""3024""
""blur"",""1"",""3899""
""focus"",""1"",""4112""
""fullscreenenter"",""1"",""6598""
","""event"",""trial"",""time""
""blur"",""1"",""2515""
""blur"",""1"",""3899""
","""event"",""trial"",""time""
""focus"",""1"",""3024""
""focus"",""1"",""4112""
","""event"",""trial"",""time""
""fullscreenenter"",""1"",""6598""
","
","","","760.8999999761581","","","18","3962","2804","&#9761;","elianto","#3366ff99","-1"," ","0","0","[1611.5]","1","0","2","","","","","","","",""
"pit-trial","38","406670","0.0-2.0-11.0-1.0","battery-v0.2","","""event"",""trial"",""time""
""blur"",""1"",""2515""
""focus"",""1"",""3024""
""blur"",""1"",""3899""
""focus"",""1"",""4112""
""fullscreenenter"",""1"",""6598""
","""event"",""trial"",""time""
""blur"",""1"",""2515""
""blur"",""1"",""3899""
","""event"",""trial"",""time""
""focus"",""1"",""3024""
""focus"",""1"",""4112""
","""event"",""trial"",""time""
""fullscreenenter"",""1"",""6598""
","
","","","308.80000001192093","","","18","3962","2804","&#9761;","elianto","#3366ff99","-1"," ","0","0","[1170.300000011921]","1","0","2","","","","","","","",""
"pit-trial","39","409770","0.0-2.0-11.0-2.0","battery-v0.2","","""event"",""trial"",""time""
""blur"",""1"",""2515""
""focus"",""1"",""3024""
""blur"",""1"",""3899""
""focus"",""1"",""4112""
""fullscreenenter"",""1"",""6598""
","""event"",""trial"",""time""
""blur"",""1"",""2515""
""blur"",""1"",""3899""
","""event"",""trial"",""time""
""focus"",""1"",""3024""
""focus"",""1"",""4112""
","""event"",""trial"",""time""
""fullscreenenter"",""1"",""6598""
","
","","","225.69999998807907","","","18","3962","2804","&#9761;","elianto","#3366ff99","-1"," ","0","0","[1078.9000000357628]","1","0","2","","","","","","","",""
"pit-trial","40","414660","0.0-2.0-11.0-3.0","battery-v0.2","","""event"",""trial"",""time""
""blur"",""1"",""2515""
""focus"",""1"",""3024""
""blur"",""1"",""3899""
""focus"",""1"",""4112""
""fullscreenenter"",""1"",""6598""
","""event"",""trial"",""time""
""blur"",""1"",""2515""
""blur"",""1"",""3899""
","""event"",""trial"",""time""
""focus"",""1"",""3024""
""focus"",""1"",""4112""
","""event"",""trial"",""time""
""fullscreenenter"",""1"",""6598""
","
","","","-1","","","18","3962","2804","&#9761;","elianto","#3366ff99","-1","-1","1","0","[]","0","0","2","","","","","","","",""
"pit-trial","41","419550","0.0-2.0-11.0-4.0","battery-v0.2","","""event"",""trial"",""time""
""blur"",""1"",""2515""
""focus"",""1"",""3024""
""blur"",""1"",""3899""
""focus"",""1"",""4112""
""fullscreenenter"",""1"",""6598""
","""event"",""trial"",""time""
""blur"",""1"",""2515""
""blur"",""1"",""3899""
","""event"",""trial"",""time""
""focus"",""1"",""3024""
""focus"",""1"",""4112""
","""event"",""trial"",""time""
""fullscreenenter"",""1"",""6598""
","
","","","-1","","","18","3962","2804","&#9761;","elianto","#3366ff99","-1","-1","1","+10","[]","0","0","2","","","","","","","",""
"pit-trial","42","424440","0.0-2.0-11.1-0.1","battery-v0.2","","""event"",""trial"",""time""
""blur"",""1"",""2515""
""focus"",""1"",""3024""
""blur"",""1"",""3899""
""focus"",""1"",""4112""
""fullscreenenter"",""1"",""6598""
","""event"",""trial"",""time""
""blur"",""1"",""2515""
""blur"",""1"",""3899""
","""event"",""trial"",""time""
""focus"",""1"",""3024""
""focus"",""1"",""4112""
","""event"",""trial"",""time""
""fullscreenenter"",""1"",""6598""
","
","","","-1","","","18","3962","2804","&#9761;","elianto","#3366ff99","-1","-1","1","+10","[]","0","0","2","","","","","","","",""
"pit-trial","43","427852","0.0-2.0-11.1-1.1","battery-v0.2","","""event"",""trial"",""time""
""blur"",""1"",""2515""
""focus"",""1"",""3024""
""blur"",""1"",""3899""
""focus"",""1"",""4112""
""fullscreenenter"",""1"",""6598""
","""event"",""trial"",""time""
""blur"",""1"",""2515""
""blur"",""1"",""3899""
","""event"",""trial"",""time""
""focus"",""1"",""3024""
""focus"",""1"",""4112""
","""event"",""trial"",""time""
""fullscreenenter"",""1"",""6598""
","
","","","547.1999999880791","","","18","3962","2804","&#9761;","elianto","#3366ff99","-1"," ","0","0","[1398]","1","0","2","","","","","","","",""
"pit-trial","44","432719","0.0-2.0-11.1-2.1","battery-v0.2","","""event"",""trial"",""time""
""blur"",""1"",""2515""
""focus"",""1"",""3024""
""blur"",""1"",""3899""
""focus"",""1"",""4112""
""fullscreenenter"",""1"",""6598""
","""event"",""trial"",""time""
""blur"",""1"",""2515""
""blur"",""1"",""3899""
","""event"",""trial"",""time""
""focus"",""1"",""3024""
""focus"",""1"",""4112""
","""event"",""trial"",""time""
""fullscreenenter"",""1"",""6598""
","
","","","-1","","","18","3962","2804","&#9761;","elianto","#3366ff99","-1","-1","1","+10","[]","0","0","2","","","","","","","",""
"pit-trial","45","437596","0.0-2.0-11.1-3.1","battery-v0.2","","""event"",""trial"",""time""
""blur"",""1"",""2515""
""focus"",""1"",""3024""
""blur"",""1"",""3899""
""focus"",""1"",""4112""
""fullscreenenter"",""1"",""6598""
","""event"",""trial"",""time""
""blur"",""1"",""2515""
""blur"",""1"",""3899""
","""event"",""trial"",""time""
""focus"",""1"",""3024""
""focus"",""1"",""4112""
","""event"",""trial"",""time""
""fullscreenenter"",""1"",""6598""
","
","","","-1","","","18","3962","2804","&#9761;","elianto","#3366ff99","-1","-1","1","0","[]","0","0","2","","","","","","","",""
"pit-trial","46","442467","0.0-2.0-11.1-4.1","battery-v0.2","","""event"",""trial"",""time""
""blur"",""1"",""2515""
""focus"",""1"",""3024""
""blur"",""1"",""3899""
""focus"",""1"",""4112""
""fullscreenenter"",""1"",""6598""
","""event"",""trial"",""time""
""blur"",""1"",""2515""
""blur"",""1"",""3899""
","""event"",""trial"",""time""
""focus"",""1"",""3024""
""focus"",""1"",""4112""
","""event"",""trial"",""time""
""fullscreenenter"",""1"",""6598""
","
","","","-1","","","18","3962","2804","&#9761;","elianto","#3366ff99","-1","-1","1","+10","[]","0","0","2","","","","","","","",""
"pit-trial","47","447337","0.0-2.0-11.2-0.2","battery-v0.2","","""event"",""trial"",""time""
""blur"",""1"",""2515""
""focus"",""1"",""3024""
""blur"",""1"",""3899""
""focus"",""1"",""4112""
""fullscreenenter"",""1"",""6598""
","""event"",""trial"",""time""
""blur"",""1"",""2515""
""blur"",""1"",""3899""
","""event"",""trial"",""time""
""focus"",""1"",""3024""
""focus"",""1"",""4112""
","""event"",""trial"",""time""
""fullscreenenter"",""1"",""6598""
","
","","","-1","","","18","3962","2804","&#9761;","elianto","#3366ff99","-1","-1","1","+10","[]","0","0","2","","","","","","","",""
"pit-trial","48","450688","0.0-2.0-11.2-1.2","battery-v0.2","","""event"",""trial"",""time""
""blur"",""1"",""2515""
""focus"",""1"",""3024""
""blur"",""1"",""3899""
""focus"",""1"",""4112""
""fullscreenenter"",""1"",""6598""
","""event"",""trial"",""time""
""blur"",""1"",""2515""
""blur"",""1"",""3899""
","""event"",""trial"",""time""
""focus"",""1"",""3024""
""focus"",""1"",""4112""
","""event"",""trial"",""time""
""fullscreenenter"",""1"",""6598""
","
","","","481.30000001192093","","","18","3962","2804","&#9761;","elianto","#3366ff99","-1"," ","0","0","[1332.5]","1","0","2","","","","","","","",""
"pit-trial","49","455560","0.0-2.0-11.2-2.2","battery-v0.2","","""event"",""trial"",""time""
""blur"",""1"",""2515""
""focus"",""1"",""3024""
""blur"",""1"",""3899""
""focus"",""1"",""4112""
""fullscreenenter"",""1"",""6598""
","""event"",""trial"",""time""
""blur"",""1"",""2515""
""blur"",""1"",""3899""
","""event"",""trial"",""time""
""focus"",""1"",""3024""
""focus"",""1"",""4112""
","""event"",""trial"",""time""
""fullscreenenter"",""1"",""6598""
","
","","","-1","","","18","3962","2804","&#9761;","elianto","#3366ff99","-1","-1","1","+10","[]","0","0","2","","","","","","","",""
"pit-trial","50","460440","0.0-2.0-11.2-3.2","battery-v0.2","","""event"",""trial"",""time""
""blur"",""1"",""2515""
""focus"",""1"",""3024""
""blur"",""1"",""3899""
""focus"",""1"",""4112""
""fullscreenenter"",""1"",""6598""
","""event"",""trial"",""time""
""blur"",""1"",""2515""
""blur"",""1"",""3899""
","""event"",""trial"",""time""
""focus"",""1"",""3024""
""focus"",""1"",""4112""
","""event"",""trial"",""time""
""fullscreenenter"",""1"",""6598""
","
","","","-1","","","18","3962","2804","&#9761;","elianto","#3366ff99","-1","-1","1","0","[]","0","0","2","","","","","","","",""
"pit-trial","51","465313","0.0-2.0-11.2-4.2","battery-v0.2","","""event"",""trial"",""time""
""blur"",""1"",""2515""
""focus"",""1"",""3024""
""blur"",""1"",""3899""
""focus"",""1"",""4112""
""fullscreenenter"",""1"",""6598""
","""event"",""trial"",""time""
""blur"",""1"",""2515""
""blur"",""1"",""3899""
","""event"",""trial"",""time""
""focus"",""1"",""3024""
""focus"",""1"",""4112""
","""event"",""trial"",""time""
""fullscreenenter"",""1"",""6598""
","
","","","-1","","","18","3962","2804","&#9761;","elianto","#3366ff99","-1","-1","1","+10","[]","0","0","2","","","","","","","",""
"pit-trial","52","470185","0.0-2.0-11.3-0.3","battery-v0.2","","""event"",""trial"",""time""
""blur"",""1"",""2515""
""focus"",""1"",""3024""
""blur"",""1"",""3899""
""focus"",""1"",""4112""
""fullscreenenter"",""1"",""6598""
","""event"",""trial"",""time""
""blur"",""1"",""2515""
""blur"",""1"",""3899""
","""event"",""trial"",""time""
""focus"",""1"",""3024""
""focus"",""1"",""4112""
","""event"",""trial"",""time""
""fullscreenenter"",""1"",""6598""
","
","","","-1","","","18","3962","2804","&#9761;","elianto","#3366ff99","-1","-1","1","+10","[]","0","0","2","","","","","","","",""
"pit-trial","53","475057","0.0-2.0-11.3-1.3","battery-v0.2","","""event"",""trial"",""time""
""blur"",""1"",""2515""
""focus"",""1"",""3024""
""blur"",""1"",""3899""
""focus"",""1"",""4112""
""fullscreenenter"",""1"",""6598""
","""event"",""trial"",""time""
""blur"",""1"",""2515""
""blur"",""1"",""3899""
","""event"",""trial"",""time""
""focus"",""1"",""3024""
""focus"",""1"",""4112""
","""event"",""trial"",""time""
""fullscreenenter"",""1"",""6598""
","
","","","-1","","","18","3962","2804","&#9761;","elianto","#3366ff99","-1","-1","1","+10","[]","0","0","2","","","","","","","",""
"pit-trial","54","479929","0.0-2.0-11.3-2.3","battery-v0.2","","""event"",""trial"",""time""
""blur"",""1"",""2515""
""focus"",""1"",""3024""
""blur"",""1"",""3899""
""focus"",""1"",""4112""
""fullscreenenter"",""1"",""6598""
","""event"",""trial"",""time""
""blur"",""1"",""2515""
""blur"",""1"",""3899""
","""event"",""trial"",""time""
""focus"",""1"",""3024""
""focus"",""1"",""4112""
","""event"",""trial"",""time""
""fullscreenenter"",""1"",""6598""
","
","","","-1","","","18","3962","2804","&#9761;","elianto","#3366ff99","-1","-1","1","+10","[]","0","0","2","","","","","","","",""
"pit-trial","55","484800","0.0-2.0-11.3-3.3","battery-v0.2","","""event"",""trial"",""time""
""blur"",""1"",""2515""
""focus"",""1"",""3024""
""blur"",""1"",""3899""
""focus"",""1"",""4112""
""fullscreenenter"",""1"",""6598""
","""event"",""trial"",""time""
""blur"",""1"",""2515""
""blur"",""1"",""3899""
","""event"",""trial"",""time""
""focus"",""1"",""3024""
""focus"",""1"",""4112""
","""event"",""trial"",""time""
""fullscreenenter"",""1"",""6598""
","
","","","-1","","","18","3962","2804","&#9761;","elianto","#3366ff99","-1","-1","1","0","[]","0","0","2","","","","","","","",""
"pit-trial","56","489673","0.0-2.0-11.3-4.3","battery-v0.2","","""event"",""trial"",""time""
""blur"",""1"",""2515""
""focus"",""1"",""3024""
""blur"",""1"",""3899""
""focus"",""1"",""4112""
""fullscreenenter"",""1"",""6598""
","""event"",""trial"",""time""
""blur"",""1"",""2515""
""blur"",""1"",""3899""
","""event"",""trial"",""time""
""focus"",""1"",""3024""
""focus"",""1"",""4112""
","""event"",""trial"",""time""
""fullscreenenter"",""1"",""6598""
","
","","","-1","","","18","3962","2804","&#9761;","elianto","#3366ff99","-1","-1","1","+10","[]","0","0","2","","","","","","","",""
"call-function","57","489680","0.0-2.0-12.0","battery-v0.2","","""event"",""trial"",""time""
""blur"",""1"",""2515""
""focus"",""1"",""3024""
""blur"",""1"",""3899""
""focus"",""1"",""4112""
""fullscreenenter"",""1"",""6598""
","""event"",""trial"",""time""
""blur"",""1"",""2515""
""blur"",""1"",""3899""
","""event"",""trial"",""time""
""focus"",""1"",""3024""
""focus"",""1"",""4112""
","""event"",""trial"",""time""
""fullscreenenter"",""1"",""6598""
","
","","","","","","","","","","","","","","","","","","","","","","","","","","",""
"pit-instructions","58","522607","0.0-2.0-13.0","battery-v0.2","","""event"",""trial"",""time""
""blur"",""1"",""2515""
""focus"",""1"",""3024""
""blur"",""1"",""3899""
""focus"",""1"",""4112""
""fullscreenenter"",""1"",""6598""
","""event"",""trial"",""time""
""blur"",""1"",""2515""
""blur"",""1"",""3899""
","""event"",""trial"",""time""
""focus"",""1"",""3024""
""focus"",""1"",""4112""
","""event"",""trial"",""time""
""fullscreenenter"",""1"",""6598""
","
","","[{""page_index"":0,""viewing_time"":5032.600000023842},{""page_index"":1,""viewing_time"":7077.800000011921},{""page_index"":2,""viewing_time"":4425},{""page_index"":3,""viewing_time"":10602.699999988079},{""page_index"":4,""viewing_time"":5787.699999988079}]","32926.80000001192","","","","","","","","","","","","","","","","","","","","","","","",""
"pit-trial","59","526113","0.0-2.0-14.0-0.0","battery-v0.2","","""event"",""trial"",""time""
""blur"",""1"",""2515""
""focus"",""1"",""3024""
""blur"",""1"",""3899""
""focus"",""1"",""4112""
""fullscreenenter"",""1"",""6598""
","""event"",""trial"",""time""
""blur"",""1"",""2515""
""blur"",""1"",""3899""
","""event"",""trial"",""time""
""focus"",""1"",""3024""
""focus"",""1"",""4112""
","""event"",""trial"",""time""
""fullscreenenter"",""1"",""6598""
","
","","","641.0999999642372","","","18","3962","2804","&#9826;","elianto","#f73b6a7A","-1"," ","0","-10","[1493.2000000476837]","1","0","3","","","","","","","",""
"pit-trial","60","529563","0.0-2.0-14.0-1.0","battery-v0.2","","""event"",""trial"",""time""
""blur"",""1"",""2515""
""focus"",""1"",""3024""
""blur"",""1"",""3899""
""focus"",""1"",""4112""
""fullscreenenter"",""1"",""6598""
","""event"",""trial"",""time""
""blur"",""1"",""2515""
""blur"",""1"",""3899""
","""event"",""trial"",""time""
""focus"",""1"",""3024""
""focus"",""1"",""4112""
","""event"",""trial"",""time""
""fullscreenenter"",""1"",""6598""
","
","","","568","","","18","3962","2804","&#9826;","elianto","#f73b6a7A","-1"," ","0","-10","[1419.1000000238419]","1","0","3","","","","","","","",""
"pit-trial","61","534453","0.0-2.0-14.0-2.0","battery-v0.2","","""event"",""trial"",""time""
""blur"",""1"",""2515""
""focus"",""1"",""3024""
""blur"",""1"",""3899""
""focus"",""1"",""4112""
""fullscreenenter"",""1"",""6598""
","""event"",""trial"",""time""
""blur"",""1"",""2515""
""blur"",""1"",""3899""
","""event"",""trial"",""time""
""focus"",""1"",""3024""
""focus"",""1"",""4112""
","""event"",""trial"",""time""
""fullscreenenter"",""1"",""6598""
","
","","","-1","","","18","3962","2804","&#9826;","elianto","#f73b6a7A","-1","-1","1","0","[]","0","0","3","","","","","","","",""
"pit-trial","62","539333","0.0-2.0-14.0-3.0","battery-v0.2","","""event"",""trial"",""time""
""blur"",""1"",""2515""
""focus"",""1"",""3024""
""blur"",""1"",""3899""
""focus"",""1"",""4112""
""fullscreenenter"",""1"",""6598""
","""event"",""trial"",""time""
""blur"",""1"",""2515""
""blur"",""1"",""3899""
","""event"",""trial"",""time""
""focus"",""1"",""3024""
""focus"",""1"",""4112""
","""event"",""trial"",""time""
""fullscreenenter"",""1"",""6598""
","
","","","-1","","","18","3962","2804","&#9826;","elianto","#f73b6a7A","-1","-1","1","-10","[]","0","0","3","","","","","","","",""
"pit-trial","63","544222","0.0-2.0-14.0-4.0","battery-v0.2","","""event"",""trial"",""time""
""blur"",""1"",""2515""
""focus"",""1"",""3024""
""blur"",""1"",""3899""
""focus"",""1"",""4112""
""fullscreenenter"",""1"",""6598""
","""event"",""trial"",""time""
""blur"",""1"",""2515""
""blur"",""1"",""3899""
","""event"",""trial"",""time""
""focus"",""1"",""3024""
""focus"",""1"",""4112""
","""event"",""trial"",""time""
""fullscreenenter"",""1"",""6598""
","
","","","-1","","","18","3962","2804","&#9826;","elianto","#f73b6a7A","-1","-1","1","0","[]","0","0","3","","","","","","","",""
"pit-trial","64","549113","0.0-2.0-14.1-0.1","battery-v0.2","","""event"",""trial"",""time""
""blur"",""1"",""2515""
""focus"",""1"",""3024""
""blur"",""1"",""3899""
""focus"",""1"",""4112""
""fullscreenenter"",""1"",""6598""
","""event"",""trial"",""time""
""blur"",""1"",""2515""
""blur"",""1"",""3899""
","""event"",""trial"",""time""
""focus"",""1"",""3024""
""focus"",""1"",""4112""
","""event"",""trial"",""time""
""fullscreenenter"",""1"",""6598""
","
","","","-1","","","18","3962","2804","&#9826;","elianto","#f73b6a7A","-1","-1","1","0","[]","0","0","3","","","","","","","",""
"pit-trial","65","553988","0.0-2.0-14.1-1.1","battery-v0.2","","""event"",""trial"",""time""
""blur"",""1"",""2515""
""focus"",""1"",""3024""
""blur"",""1"",""3899""
""focus"",""1"",""4112""
""fullscreenenter"",""1"",""6598""
","""event"",""trial"",""time""
""blur"",""1"",""2515""
""blur"",""1"",""3899""
","""event"",""trial"",""time""
""focus"",""1"",""3024""
""focus"",""1"",""4112""
","""event"",""trial"",""time""
""fullscreenenter"",""1"",""6598""
","
","","","-1","","","18","3962","2804","&#9826;","elianto","#f73b6a7A","-1","-1","1","0","[]","0","0","3","","","","","","","",""
"pit-trial","66","558858","0.0-2.0-14.1-2.1","battery-v0.2","","""event"",""trial"",""time""
""blur"",""1"",""2515""
""focus"",""1"",""3024""
""blur"",""1"",""3899""
""focus"",""1"",""4112""
""fullscreenenter"",""1"",""6598""
","""event"",""trial"",""time""
""blur"",""1"",""2515""
""blur"",""1"",""3899""
","""event"",""trial"",""time""
""focus"",""1"",""3024""
""focus"",""1"",""4112""
","""event"",""trial"",""time""
""fullscreenenter"",""1"",""6598""
","
","","","-1","","","18","3962","2804","&#9826;","elianto","#f73b6a7A","-1","-1","1","0","[]","0","0","3","","","","","","","",""
"pit-trial","67","563731","0.0-2.0-14.1-3.1","battery-v0.2","","""event"",""trial"",""time""
""blur"",""1"",""2515""
""focus"",""1"",""3024""
""blur"",""1"",""3899""
""focus"",""1"",""4112""
""fullscreenenter"",""1"",""6598""
","""event"",""trial"",""time""
""blur"",""1"",""2515""
""blur"",""1"",""3899""
","""event"",""trial"",""time""
""focus"",""1"",""3024""
""focus"",""1"",""4112""
","""event"",""trial"",""time""
""fullscreenenter"",""1"",""6598""
","
","","","-1","","","18","3962","2804","&#9826;","elianto","#f73b6a7A","-1","-1","1","-10","[]","0","0","3","","","","","","","",""
"pit-trial","68","568608","0.0-2.0-14.1-4.1","battery-v0.2","","""event"",""trial"",""time""
""blur"",""1"",""2515""
""focus"",""1"",""3024""
""blur"",""1"",""3899""
""focus"",""1"",""4112""
""fullscreenenter"",""1"",""6598""
","""event"",""trial"",""time""
""blur"",""1"",""2515""
""blur"",""1"",""3899""
","""event"",""trial"",""time""
""focus"",""1"",""3024""
""focus"",""1"",""4112""
","""event"",""trial"",""time""
""fullscreenenter"",""1"",""6598""
","
","","","-1","","","18","3962","2804","&#9826;","elianto","#f73b6a7A","-1","-1","1","0","[]","0","0","3","","","","","","","",""
"pit-trial","69","573489","0.0-2.0-14.2-0.2","battery-v0.2","","""event"",""trial"",""time""
""blur"",""1"",""2515""
""focus"",""1"",""3024""
""blur"",""1"",""3899""
""focus"",""1"",""4112""
""fullscreenenter"",""1"",""6598""
","""event"",""trial"",""time""
""blur"",""1"",""2515""
""blur"",""1"",""3899""
","""event"",""trial"",""time""
""focus"",""1"",""3024""
""focus"",""1"",""4112""
","""event"",""trial"",""time""
""fullscreenenter"",""1"",""6598""
","
","","","-1","","","18","3962","2804","&#9826;","elianto","#f73b6a7A","-1","-1","1","0","[]","0","0","3","","","","","","","",""
"pit-trial","70","578361","0.0-2.0-14.2-1.2","battery-v0.2","","""event"",""trial"",""time""
""blur"",""1"",""2515""
""focus"",""1"",""3024""
""blur"",""1"",""3899""
""focus"",""1"",""4112""
""fullscreenenter"",""1"",""6598""
","""event"",""trial"",""time""
""blur"",""1"",""2515""
""blur"",""1"",""3899""
","""event"",""trial"",""time""
""focus"",""1"",""3024""
""focus"",""1"",""4112""
","""event"",""trial"",""time""
""fullscreenenter"",""1"",""6598""
","
","","","-1","","","18","3962","2804","&#9826;","elianto","#f73b6a7A","-1","-1","1","0","[]","0","0","3","","","","","","","",""
"pit-trial","71","583233","0.0-2.0-14.2-2.2","battery-v0.2","","""event"",""trial"",""time""
""blur"",""1"",""2515""
""focus"",""1"",""3024""
""blur"",""1"",""3899""
""focus"",""1"",""4112""
""fullscreenenter"",""1"",""6598""
","""event"",""trial"",""time""
""blur"",""1"",""2515""
""blur"",""1"",""3899""
","""event"",""trial"",""time""
""focus"",""1"",""3024""
""focus"",""1"",""4112""
","""event"",""trial"",""time""
""fullscreenenter"",""1"",""6598""
","
","","","-1","","","18","3962","2804","&#9826;","elianto","#f73b6a7A","-1","-1","1","0","[]","0","0","3","","","","","","","",""
"pit-trial","72","588108","0.0-2.0-14.2-3.2","battery-v0.2","","""event"",""trial"",""time""
""blur"",""1"",""2515""
""focus"",""1"",""3024""
""blur"",""1"",""3899""
""focus"",""1"",""4112""
""fullscreenenter"",""1"",""6598""
","""event"",""trial"",""time""
""blur"",""1"",""2515""
""blur"",""1"",""3899""
","""event"",""trial"",""time""
""focus"",""1"",""3024""
""focus"",""1"",""4112""
","""event"",""trial"",""time""
""fullscreenenter"",""1"",""6598""
","
","","","-1","","","18","3962","2804","&#9826;","elianto","#f73b6a7A","-1","-1","1","-10","[]","0","0","3","","","","","","","",""
"pit-trial","73","592978","0.0-2.0-14.2-4.2","battery-v0.2","","""event"",""trial"",""time""
""blur"",""1"",""2515""
""focus"",""1"",""3024""
""blur"",""1"",""3899""
""focus"",""1"",""4112""
""fullscreenenter"",""1"",""6598""
","""event"",""trial"",""time""
""blur"",""1"",""2515""
""blur"",""1"",""3899""
","""event"",""trial"",""time""
""focus"",""1"",""3024""
""focus"",""1"",""4112""
","""event"",""trial"",""time""
""fullscreenenter"",""1"",""6598""
","
","","","-1","","","18","3962","2804","&#9826;","elianto","#f73b6a7A","-1","-1","1","0","[]","0","0","3","","","","","","","",""
"pit-trial","74","597851","0.0-2.0-14.3-0.3","battery-v0.2","","""event"",""trial"",""time""
""blur"",""1"",""2515""
""focus"",""1"",""3024""
""blur"",""1"",""3899""
""focus"",""1"",""4112""
""fullscreenenter"",""1"",""6598""
","""event"",""trial"",""time""
""blur"",""1"",""2515""
""blur"",""1"",""3899""
","""event"",""trial"",""time""
""focus"",""1"",""3024""
""focus"",""1"",""4112""
","""event"",""trial"",""time""
""fullscreenenter"",""1"",""6598""
","
","","","-1","","","18","3962","2804","&#9826;","elianto","#f73b6a7A","-1","-1","1","0","[]","0","0","3","","","","","","","",""
"pit-trial","75","602728","0.0-2.0-14.3-1.3","battery-v0.2","","""event"",""trial"",""time""
""blur"",""1"",""2515""
""focus"",""1"",""3024""
""blur"",""1"",""3899""
""focus"",""1"",""4112""
""fullscreenenter"",""1"",""6598""
","""event"",""trial"",""time""
""blur"",""1"",""2515""
""blur"",""1"",""3899""
","""event"",""trial"",""time""
""focus"",""1"",""3024""
""focus"",""1"",""4112""
","""event"",""trial"",""time""
""fullscreenenter"",""1"",""6598""
","
","","","-1","","","18","3962","2804","&#9826;","elianto","#f73b6a7A","-1","-1","1","0","[]","0","0","3","","","","","","","",""
"pit-trial","76","607601","0.0-2.0-14.3-2.3","battery-v0.2","","""event"",""trial"",""time""
""blur"",""1"",""2515""
""focus"",""1"",""3024""
""blur"",""1"",""3899""
""focus"",""1"",""4112""
""fullscreenenter"",""1"",""6598""
","""event"",""trial"",""time""
""blur"",""1"",""2515""
""blur"",""1"",""3899""
","""event"",""trial"",""time""
""focus"",""1"",""3024""
""focus"",""1"",""4112""
","""event"",""trial"",""time""
""fullscreenenter"",""1"",""6598""
","
","","","-1","","","18","3962","2804","&#9826;","elianto","#f73b6a7A","-1","-1","1","0","[]","0","0","3","","","","","","","",""
"pit-trial","77","612472","0.0-2.0-14.3-3.3","battery-v0.2","","""event"",""trial"",""time""
""blur"",""1"",""2515""
""focus"",""1"",""3024""
""blur"",""1"",""3899""
""focus"",""1"",""4112""
""fullscreenenter"",""1"",""6598""
","""event"",""trial"",""time""
""blur"",""1"",""2515""
""blur"",""1"",""3899""
","""event"",""trial"",""time""
""focus"",""1"",""3024""
""focus"",""1"",""4112""
","""event"",""trial"",""time""
""fullscreenenter"",""1"",""6598""
","
","","","-1","","","18","3962","2804","&#9826;","elianto","#f73b6a7A","-1","-1","1","-10","[]","0","0","3","","","","","","","",""
"pit-trial","78","617346","0.0-2.0-14.3-4.3","battery-v0.2","","""event"",""trial"",""time""
""blur"",""1"",""2515""
""focus"",""1"",""3024""
""blur"",""1"",""3899""
""focus"",""1"",""4112""
""fullscreenenter"",""1"",""6598""
","""event"",""trial"",""time""
""blur"",""1"",""2515""
""blur"",""1"",""3899""
","""event"",""trial"",""time""
""focus"",""1"",""3024""
""focus"",""1"",""4112""
","""event"",""trial"",""time""
""fullscreenenter"",""1"",""6598""
","
","","","-1","","","18","3962","2804","&#9826;","elianto","#f73b6a7A","-1","-1","1","0","[]","0","0","3","","","","","","","",""
"call-function","79","617352","0.0-2.0-15.0","battery-v0.2","","""event"",""trial"",""time""
""blur"",""1"",""2515""
""focus"",""1"",""3024""
""blur"",""1"",""3899""
""focus"",""1"",""4112""
""fullscreenenter"",""1"",""6598""
","""event"",""trial"",""time""
""blur"",""1"",""2515""
""blur"",""1"",""3899""
","""event"",""trial"",""time""
""focus"",""1"",""3024""
""focus"",""1"",""4112""
","""event"",""trial"",""time""
""fullscreenenter"",""1"",""6598""
","
","","","","","","","","","","","","","","","","","","","","","","","","","","",""
"pit-instructions","80","642177","0.0-2.0-16.0","battery-v0.2","","""event"",""trial"",""time""
""blur"",""1"",""2515""
""focus"",""1"",""3024""
""blur"",""1"",""3899""
""focus"",""1"",""4112""
""fullscreenenter"",""1"",""6598""
","""event"",""trial"",""time""
""blur"",""1"",""2515""
""blur"",""1"",""3899""
","""event"",""trial"",""time""
""focus"",""1"",""3024""
""focus"",""1"",""4112""
","""event"",""trial"",""time""
""fullscreenenter"",""1"",""6598""
","
","","[{""page_index"":0,""viewing_time"":6470.199999988079},{""page_index"":1,""viewing_time"":8386.600000023842},{""page_index"":2,""viewing_time"":5035.199999988079},{""page_index"":3,""viewing_time"":4931.5}]","24824","","","","","","","","","","","","","","","","","","","","","","","",""
"pit-trial","81","645543","0.0-2.0-17.0-0.0","battery-v0.2","","""event"",""trial"",""time""
""blur"",""1"",""2515""
""focus"",""1"",""3024""
""blur"",""1"",""3899""
""focus"",""1"",""4112""
""fullscreenenter"",""1"",""6598""
","""event"",""trial"",""time""
""blur"",""1"",""2515""
""blur"",""1"",""3899""
","""event"",""trial"",""time""
""focus"",""1"",""3024""
""focus"",""1"",""4112""
","""event"",""trial"",""time""
""fullscreenenter"",""1"",""6598""
","
","","","501.5","","","18","3962","2804","&#9789;","elianto","#f73b6a7A"," "," ","1","0","[1353.9000000357628]","1","0","4","","","","","","","",""
"pit-trial","82","648624","0.0-2.0-17.0-1.0","battery-v0.2","","""event"",""trial"",""time""
""blur"",""1"",""2515""
""focus"",""1"",""3024""
""blur"",""1"",""3899""
""focus"",""1"",""4112""
""fullscreenenter"",""1"",""6598""
","""event"",""trial"",""time""
""blur"",""1"",""2515""
""blur"",""1"",""3899""
","""event"",""trial"",""time""
""focus"",""1"",""3024""
""focus"",""1"",""4112""
","""event"",""trial"",""time""
""fullscreenenter"",""1"",""6598""
","
","","","197","","","18","3962","2804","&#9789;","elianto","#f73b6a7A"," "," ","1","0","[1051.6000000238419]","1","0","4","","","","","","","",""
"pit-trial","83","651764","0.0-2.0-17.0-2.0","battery-v0.2","","""event"",""trial"",""time""
""blur"",""1"",""2515""
""focus"",""1"",""3024""
""blur"",""1"",""3899""
""focus"",""1"",""4112""
""fullscreenenter"",""1"",""6598""
","""event"",""trial"",""time""
""blur"",""1"",""2515""
""blur"",""1"",""3899""
","""event"",""trial"",""time""
""focus"",""1"",""3024""
""focus"",""1"",""4112""
","""event"",""trial"",""time""
""fullscreenenter"",""1"",""6598""
","
","","","259.10000002384186","","","18","3962","2804","&#9789;","elianto","#f73b6a7A"," "," ","1","0","[1110.1000000238419]","1","0","4","","","","","","","",""
"pit-trial","84","654810","0.0-2.0-17.0-3.0","battery-v0.2","","""event"",""trial"",""time""
""blur"",""1"",""2515""
""focus"",""1"",""3024""
""blur"",""1"",""3899""
""focus"",""1"",""4112""
""fullscreenenter"",""1"",""6598""
","""event"",""trial"",""time""
""blur"",""1"",""2515""
""blur"",""1"",""3899""
","""event"",""trial"",""time""
""focus"",""1"",""3024""
""focus"",""1"",""4112""
","""event"",""trial"",""time""
""fullscreenenter"",""1"",""6598""
","
","","","175.0999999642372","","","18","3962","2804","&#9789;","elianto","#f73b6a7A"," "," ","1","-10","[1026.699999988079]","1","0","4","","","","","","","",""
"pit-trial","85","657914","0.0-2.0-17.0-4.0","battery-v0.2","","""event"",""trial"",""time""
""blur"",""1"",""2515""
""focus"",""1"",""3024""
""blur"",""1"",""3899""
""focus"",""1"",""4112""
""fullscreenenter"",""1"",""6598""
","""event"",""trial"",""time""
""blur"",""1"",""2515""
""blur"",""1"",""3899""
","""event"",""trial"",""time""
""focus"",""1"",""3024""
""focus"",""1"",""4112""
","""event"",""trial"",""time""
""fullscreenenter"",""1"",""6598""
","
","","","235.30000001192093","","","18","3962","2804","&#9789;","elianto","#f73b6a7A"," "," ","1","0","[1085.699999988079]","1","0","4","","","","","","","",""
"pit-trial","86","661098","0.0-2.0-17.1-0.1","battery-v0.2","","""event"",""trial"",""time""
""blur"",""1"",""2515""
""focus"",""1"",""3024""
""blur"",""1"",""3899""
""focus"",""1"",""4112""
""fullscreenenter"",""1"",""6598""
","""event"",""trial"",""time""
""blur"",""1"",""2515""
""blur"",""1"",""3899""
","""event"",""trial"",""time""
""focus"",""1"",""3024""
""focus"",""1"",""4112""
","""event"",""trial"",""time""
""fullscreenenter"",""1"",""6598""
","
","","","310.60000002384186","","","18","3962","2804","&#9789;","elianto","#f73b6a7A"," "," ","1","0","[1164.3999999761581]","1","0","4","","","","","","","",""
"pit-trial","87","664124","0.0-2.0-17.1-1.1","battery-v0.2","","""event"",""trial"",""time""
""blur"",""1"",""2515""
""focus"",""1"",""3024""
""blur"",""1"",""3899""
""focus"",""1"",""4112""
""fullscreenenter"",""1"",""6598""
","""event"",""trial"",""time""
""blur"",""1"",""2515""
""blur"",""1"",""3899""
","""event"",""trial"",""time""
""focus"",""1"",""3024""
""focus"",""1"",""4112""
","""event"",""trial"",""time""
""fullscreenenter"",""1"",""6598""
","
","","","160.80000001192093","","","18","3962","2804","&#9789;","elianto","#f73b6a7A"," "," ","1","0","[1015.1000000238419]","1","0","4","","","","","","","",""
"pit-trial","88","667244","0.0-2.0-17.1-2.1","battery-v0.2","","""event"",""trial"",""time""
""blur"",""1"",""2515""
""focus"",""1"",""3024""
""blur"",""1"",""3899""
""focus"",""1"",""4112""
""fullscreenenter"",""1"",""6598""
","""event"",""trial"",""time""
""blur"",""1"",""2515""
""blur"",""1"",""3899""
","""event"",""trial"",""time""
""focus"",""1"",""3024""
""focus"",""1"",""4112""
","""event"",""trial"",""time""
""fullscreenenter"",""1"",""6598""
","
","","","250.9000000357628","","","18","3962","2804","&#9789;","elianto","#f73b6a7A"," "," ","1","0","[1104.9000000357628]","1","0","4","","","","","","","",""
"pit-trial","89","670314","0.0-2.0-17.1-3.1","battery-v0.2","","""event"",""trial"",""time""
""blur"",""1"",""2515""
""focus"",""1"",""3024""
""blur"",""1"",""3899""
""focus"",""1"",""4112""
""fullscreenenter"",""1"",""6598""
","""event"",""trial"",""time""
""blur"",""1"",""2515""
""blur"",""1"",""3899""
","""event"",""trial"",""time""
""focus"",""1"",""3024""
""focus"",""1"",""4112""
","""event"",""trial"",""time""
""fullscreenenter"",""1"",""6598""
","
","","","195.30000001192093","","","18","3962","2804","&#9789;","elianto","#f73b6a7A"," "," ","1","-10","[1045.9000000357628]","1","0","4","","","","","","","",""
"pit-trial","90","673481","0.0-2.0-17.1-4.1","battery-v0.2","","""event"",""trial"",""time""
""blur"",""1"",""2515""
""focus"",""1"",""3024""
""blur"",""1"",""3899""
""focus"",""1"",""4112""
""fullscreenenter"",""1"",""6598""
","""event"",""trial"",""time""
""blur"",""1"",""2515""
""blur"",""1"",""3899""
","""event"",""trial"",""time""
""focus"",""1"",""3024""
""focus"",""1"",""4112""
","""event"",""trial"",""time""
""fullscreenenter"",""1"",""6598""
","
","","","297.30000001192093","","","18","3962","2804","&#9789;","elianto","#f73b6a7A"," "," ","1","0","[1152.7000000476837]","1","0","4","","","","","","","",""
"pit-trial","91","676544","0.0-2.0-17.2-0.2","battery-v0.2","","""event"",""trial"",""time""
""blur"",""1"",""2515""
""focus"",""1"",""3024""
""blur"",""1"",""3899""
""focus"",""1"",""4112""
""fullscreenenter"",""1"",""6598""
","""event"",""trial"",""time""
""blur"",""1"",""2515""
""blur"",""1"",""3899""
","""event"",""trial"",""time""
""focus"",""1"",""3024""
""focus"",""1"",""4112""
","""event"",""trial"",""time""
""fullscreenenter"",""1"",""6598""
","
","","","194.69999998807907","","","18","3962","2804","&#9789;","elianto","#f73b6a7A"," "," ","1","0","[1052.5]","1","0","4","","","","","","","",""
"pit-trial","92","679757","0.0-2.0-17.2-1.2","battery-v0.2","","""event"",""trial"",""time""
""blur"",""1"",""2515""
""focus"",""1"",""3024""
""blur"",""1"",""3899""
""focus"",""1"",""4112""
""fullscreenenter"",""1"",""6598""
","""event"",""trial"",""time""
""blur"",""1"",""2515""
""blur"",""1"",""3899""
","""event"",""trial"",""time""
""focus"",""1"",""3024""
""focus"",""1"",""4112""
","""event"",""trial"",""time""
""fullscreenenter"",""1"",""6598""
","
","","","341.69999998807907","","","18","3962","2804","&#9789;","elianto","#f73b6a7A"," "," ","1","0","[1197]","1","0","4","","","","","","","",""
"pit-trial","93","682821","0.0-2.0-17.2-2.2","battery-v0.2","","""event"",""trial"",""time""
""blur"",""1"",""2515""
""focus"",""1"",""3024""
""blur"",""1"",""3899""
""focus"",""1"",""4112""
""fullscreenenter"",""1"",""6598""
","""event"",""trial"",""time""
""blur"",""1"",""2515""
""blur"",""1"",""3899""
","""event"",""trial"",""time""
""focus"",""1"",""3024""
""focus"",""1"",""4112""
","""event"",""trial"",""time""
""fullscreenenter"",""1"",""6598""
","
","","","192.30000001192093","","","18","3962","2804","&#9789;","elianto","#f73b6a7A"," "," ","1","0","[1046.9000000357628]","1","0","4","","","","","","","",""
"pit-trial","94","685901","0.0-2.0-17.2-3.2","battery-v0.2","","""event"",""trial"",""time""
""blur"",""1"",""2515""
""focus"",""1"",""3024""
""blur"",""1"",""3899""
""focus"",""1"",""4112""
""fullscreenenter"",""1"",""6598""
","""event"",""trial"",""time""
""blur"",""1"",""2515""
""blur"",""1"",""3899""
","""event"",""trial"",""time""
""focus"",""1"",""3024""
""focus"",""1"",""4112""
","""event"",""trial"",""time""
""fullscreenenter"",""1"",""6598""
","
","","","214.79999995231628","","","18","3962","2804","&#9789;","elianto","#f73b6a7A"," "," ","1","-10","[1067.2999999523163]","1","0","4","","","","","","","",""
"pit-trial","95","688959","0.0-2.0-17.2-4.2","battery-v0.2","","""event"",""trial"",""time""
""blur"",""1"",""2515""
""focus"",""1"",""3024""
""blur"",""1"",""3899""
""focus"",""1"",""4112""
""fullscreenenter"",""1"",""6598""
","""event"",""trial"",""time""
""blur"",""1"",""2515""
""blur"",""1"",""3899""
","""event"",""trial"",""time""
""focus"",""1"",""3024""
""focus"",""1"",""4112""
","""event"",""trial"",""time""
""fullscreenenter"",""1"",""6598""
","
","","","190.10000002384186","","","18","3962","2804","&#9789;","elianto","#f73b6a7A"," "," ","1","0","[1041.800000011921]","1","0","4","","","","","","","",""
"pit-trial","96","692153","0.0-2.0-17.3-0.3","battery-v0.2","","""event"",""trial"",""time""
""blur"",""1"",""2515""
""focus"",""1"",""3024""
""blur"",""1"",""3899""
""focus"",""1"",""4112""
""fullscreenenter"",""1"",""6598""
","""event"",""trial"",""time""
""blur"",""1"",""2515""
""blur"",""1"",""3899""
","""event"",""trial"",""time""
""focus"",""1"",""3024""
""focus"",""1"",""4112""
","""event"",""trial"",""time""
""fullscreenenter"",""1"",""6598""
","
","","","325.69999998807907","","","18","3962","2804","&#9789;","elianto","#f73b6a7A"," "," ","1","0","[1179.5]","1","0","4","","","","","","","",""
"pit-trial","97","695371","0.0-2.0-17.3-1.3","battery-v0.2","","""event"",""trial"",""time""
""blur"",""1"",""2515""
""focus"",""1"",""3024""
""blur"",""1"",""3899""
""focus"",""1"",""4112""
""fullscreenenter"",""1"",""6598""
","""event"",""trial"",""time""
""blur"",""1"",""2515""
""blur"",""1"",""3899""
","""event"",""trial"",""time""
""focus"",""1"",""3024""
""focus"",""1"",""4112""
","""event"",""trial"",""time""
""fullscreenenter"",""1"",""6598""
","
","","","352.7999999523163","","","18","3962","2804","&#9789;","elianto","#f73b6a7A"," "," ","1","0","[1206]","1","0","4","","","","","","","",""
"pit-trial","98","698610","0.0-2.0-17.3-2.3","battery-v0.2","","""event"",""trial"",""time""
""blur"",""1"",""2515""
""focus"",""1"",""3024""
""blur"",""1"",""3899""
""focus"",""1"",""4112""
""fullscreenenter"",""1"",""6598""
","""event"",""trial"",""time""
""blur"",""1"",""2515""
""blur"",""1"",""3899""
","""event"",""trial"",""time""
""focus"",""1"",""3024""
""focus"",""1"",""4112""
","""event"",""trial"",""time""
""fullscreenenter"",""1"",""6598""
","
","","","369.60000002384186","","","18","3962","2804","&#9789;","elianto","#f73b6a7A"," "," ","1","0","[1224]","1","0","4","","","","","","","",""
"pit-trial","99","701793","0.0-2.0-17.3-3.3","battery-v0.2","","""event"",""trial"",""time""
""blur"",""1"",""2515""
""focus"",""1"",""3024""
""blur"",""1"",""3899""
""focus"",""1"",""4112""
""fullscreenenter"",""1"",""6598""
","""event"",""trial"",""time""
""blur"",""1"",""2515""
""blur"",""1"",""3899""
","""event"",""trial"",""time""
""focus"",""1"",""3024""
""focus"",""1"",""4112""
","""event"",""trial"",""time""
""fullscreenenter"",""1"",""6598""
","
","","","317.0999999642372","","","18","3962","2804","&#9789;","elianto","#f73b6a7A"," "," ","1","-10","[1168.800000011921]","1","0","4","","","","","","","",""
"pit-trial","100","705089","0.0-2.0-17.3-4.3","battery-v0.2","","""event"",""trial"",""time""
""blur"",""1"",""2515""
""focus"",""1"",""3024""
""blur"",""1"",""3899""
""focus"",""1"",""4112""
""fullscreenenter"",""1"",""6598""
","""event"",""trial"",""time""
""blur"",""1"",""2515""
""blur"",""1"",""3899""
","""event"",""trial"",""time""
""focus"",""1"",""3024""
""focus"",""1"",""4112""
","""event"",""trial"",""time""
""fullscreenenter"",""1"",""6598""
","
","","","430.60000002384186","","","18","3962","2804","&#9789;","elianto","#f73b6a7A"," "," ","1","0","[1284.300000011921]","1","0","4","","","","","","","",""
"call-function","101","705096","0.0-2.0-18.0","battery-v0.2","","""event"",""trial"",""time""
""blur"",""1"",""2515""
""focus"",""1"",""3024""
""blur"",""1"",""3899""
""focus"",""1"",""4112""
""fullscreenenter"",""1"",""6598""
","""event"",""trial"",""time""
""blur"",""1"",""2515""
""blur"",""1"",""3899""
","""event"",""trial"",""time""
""focus"",""1"",""3024""
""focus"",""1"",""4112""
","""event"",""trial"",""time""
""fullscreenenter"",""1"",""6598""
","
","","","","","","","","","","","","","","","","","","","","","","","","","","",""
"pit-instructions","102","776139","0.0-2.0-19.0","battery-v0.2","","""event"",""trial"",""time""
""blur"",""1"",""2515""
""focus"",""1"",""3024""
""blur"",""1"",""3899""
""focus"",""1"",""4112""
""fullscreenenter"",""1"",""6598""
","""event"",""trial"",""time""
""blur"",""1"",""2515""
""blur"",""1"",""3899""
","""event"",""trial"",""time""
""focus"",""1"",""3024""
""focus"",""1"",""4112""
","""event"",""trial"",""time""
""fullscreenenter"",""1"",""6598""
","
","","[{""page_index"":0,""viewing_time"":6226},{""page_index"":1,""viewing_time"":7288.399999976158},{""page_index"":2,""viewing_time"":13519.600000023842},{""page_index"":3,""viewing_time"":8033},{""page_index"":4,""viewing_time"":8554.5},{""page_index"":5,""viewing_time"":9339.099999964237},{""page_index"":6,""viewing_time"":7593.100000023842},{""page_index"":7,""viewing_time"":6167.100000023842},{""page_index"":8,""viewing_time"":4320.5}]","71041.80000001192","","","","","","","","","","","","","","","","","","","","","","","",""
"pit-comprehension","103","780767","0.0-2.0-20.0-0.0","battery-v0.2","","""event"",""trial"",""time""
""blur"",""1"",""2515""
""focus"",""1"",""3024""
""blur"",""1"",""3899""
""focus"",""1"",""4112""
""fullscreenenter"",""1"",""6598""
","""event"",""trial"",""time""
""blur"",""1"",""2515""
""blur"",""1"",""3899""
","""event"",""trial"",""time""
""focus"",""1"",""3024""
""focus"",""1"",""4112""
","""event"",""trial"",""time""
""fullscreenenter"",""1"",""6598""
","
","","","4618.099999964237","[""SPACE""]","0","18","3962","2804","","","","","","","","","","","","","","","","","","",""
"pit-instructions","104","783261","0.0-2.0-20.0-1.0","battery-v0.2","","""event"",""trial"",""time""
""blur"",""1"",""2515""
""focus"",""1"",""3024""
""blur"",""1"",""3899""
""focus"",""1"",""4112""
""fullscreenenter"",""1"",""6598""
","""event"",""trial"",""time""
""blur"",""1"",""2515""
""blur"",""1"",""3899""
","""event"",""trial"",""time""
""focus"",""1"",""3024""
""focus"",""1"",""4112""
","""event"",""trial"",""time""
""fullscreenenter"",""1"",""6598""
","
","","[{""page_index"":0,""viewing_time"":2403.800000011921}]","2404.399999976158","","","","","","","","","","","","","","","","","","","","","","","",""
"pit-comprehension","105","789995","0.0-2.0-21.0-0.0","battery-v0.2","","""event"",""trial"",""time""
""blur"",""1"",""2515""
""focus"",""1"",""3024""
""blur"",""1"",""3899""
""focus"",""1"",""4112""
""fullscreenenter"",""1"",""6598""
","""event"",""trial"",""time""
""blur"",""1"",""2515""
""blur"",""1"",""3899""
","""event"",""trial"",""time""
""focus"",""1"",""3024""
""focus"",""1"",""4112""
","""event"",""trial"",""time""
""fullscreenenter"",""1"",""6598""
","
","","","6722.799999952316","[""10""]","0","18","3962","2804","","","","","","","","","","","","","","","","","","",""
"pit-instructions","106","791818","0.0-2.0-21.0-1.0","battery-v0.2","","""event"",""trial"",""time""
""blur"",""1"",""2515""
""focus"",""1"",""3024""
""blur"",""1"",""3899""
""focus"",""1"",""4112""
""fullscreenenter"",""1"",""6598""
","""event"",""trial"",""time""
""blur"",""1"",""2515""
""blur"",""1"",""3899""
","""event"",""trial"",""time""
""focus"",""1"",""3024""
""focus"",""1"",""4112""
","""event"",""trial"",""time""
""fullscreenenter"",""1"",""6598""
","
","","[{""page_index"":0,""viewing_time"":1739.5}]","1740.199999988079","","","","","","","","","","","","","","","","","","","","","","","",""
"pit-comprehension","107","798372","0.0-2.0-22.0-0.0","battery-v0.2","","""event"",""trial"",""time""
""blur"",""1"",""2515""
""focus"",""1"",""3024""
""blur"",""1"",""3899""
""focus"",""1"",""4112""
""fullscreenenter"",""1"",""6598""
","""event"",""trial"",""time""
""blur"",""1"",""2515""
""blur"",""1"",""3899""
","""event"",""trial"",""time""
""focus"",""1"",""3024""
""focus"",""1"",""4112""
","""event"",""trial"",""time""
""fullscreenenter"",""1"",""6598""
","
","","","6543.600000023842","[""0""]","0","18","3962","2804","","","","","","","","","","","","","","","","","","",""
"pit-instructions","108","800218","0.0-2.0-22.0-1.0","battery-v0.2","","""event"",""trial"",""time""
""blur"",""1"",""2515""
""focus"",""1"",""3024""
""blur"",""1"",""3899""
""focus"",""1"",""4112""
""fullscreenenter"",""1"",""6598""
","""event"",""trial"",""time""
""blur"",""1"",""2515""
""blur"",""1"",""3899""
","""event"",""trial"",""time""
""focus"",""1"",""3024""
""focus"",""1"",""4112""
","""event"",""trial"",""time""
""fullscreenenter"",""1"",""6598""
","
","","[{""page_index"":0,""viewing_time"":1750.0999999642372}]","1750.699999988079","","","","","","","","","","","","","","","","","","","","","","","",""
"pit-comprehension","109","808690","0.0-2.0-23.0-0.0","battery-v0.2","","""event"",""trial"",""time""
""blur"",""1"",""2515""
""focus"",""1"",""3024""
""blur"",""1"",""3899""
""focus"",""1"",""4112""
""fullscreenenter"",""1"",""6598""
","""event"",""trial"",""time""
""blur"",""1"",""2515""
""blur"",""1"",""3899""
","""event"",""trial"",""time""
""focus"",""1"",""3024""
""focus"",""1"",""4112""
","""event"",""trial"",""time""
""fullscreenenter"",""1"",""6598""
","
","","","8462.5","[""True""]","0","18","3962","2804","","","","","","","","","","","","","","","","","","",""
"pit-instructions","110","810493","0.0-2.0-23.0-1.0","battery-v0.2","","""event"",""trial"",""time""
""blur"",""1"",""2515""
""focus"",""1"",""3024""
""blur"",""1"",""3899""
""focus"",""1"",""4112""
""fullscreenenter"",""1"",""6598""
","""event"",""trial"",""time""
""blur"",""1"",""2515""
""blur"",""1"",""3899""
","""event"",""trial"",""time""
""focus"",""1"",""3024""
""focus"",""1"",""4112""
","""event"",""trial"",""time""
""fullscreenenter"",""1"",""6598""
","
","","[{""page_index"":0,""viewing_time"":1715.5999999642372}]","1716.0999999642372","","","","","","","","","","","","","","","","","","","","","","","",""
"pit-comprehension","111","817890","0.0-2.0-24.0-0.0","battery-v0.2","","""event"",""trial"",""time""
""blur"",""1"",""2515""
""focus"",""1"",""3024""
""blur"",""1"",""3899""
""focus"",""1"",""4112""
""fullscreenenter"",""1"",""6598""
","""event"",""trial"",""time""
""blur"",""1"",""2515""
""blur"",""1"",""3899""
","""event"",""trial"",""time""
""focus"",""1"",""3024""
""focus"",""1"",""4112""
","""event"",""trial"",""time""
""fullscreenenter"",""1"",""6598""
","
","","","7386.300000011921","[""True""]","0","18","3962","2804","","","","","","","","","","","","","","","","","","",""
"pit-instructions","112","819708","0.0-2.0-24.0-1.0","battery-v0.2","","""event"",""trial"",""time""
""blur"",""1"",""2515""
""focus"",""1"",""3024""
""blur"",""1"",""3899""
""focus"",""1"",""4112""
""fullscreenenter"",""1"",""6598""
","""event"",""trial"",""time""
""blur"",""1"",""2515""
""blur"",""1"",""3899""
","""event"",""trial"",""time""
""focus"",""1"",""3024""
""focus"",""1"",""4112""
","""event"",""trial"",""time""
""fullscreenenter"",""1"",""6598""
","
","","[{""page_index"":0,""viewing_time"":1733.6000000238419}]","1734.300000011921","","","","","","","","","","","","","","","","","","","","","","","",""
"pit-comprehension","113","826057","0.0-2.0-25.0-0.0","battery-v0.2","","""event"",""trial"",""time""
""blur"",""1"",""2515""
""focus"",""1"",""3024""
""blur"",""1"",""3899""
""focus"",""1"",""4112""
""fullscreenenter"",""1"",""6598""
","""event"",""trial"",""time""
""blur"",""1"",""2515""
""blur"",""1"",""3899""
","""event"",""trial"",""time""
""focus"",""1"",""3024""
""focus"",""1"",""4112""
","""event"",""trial"",""time""
""fullscreenenter"",""1"",""6598""
","
","","","6339","[""True""]","0","18","3962","2804","","","","","","","","","","","","","","","","","","",""
"pit-instructions","114","827516","0.0-2.0-25.0-1.0","battery-v0.2","","""event"",""trial"",""time""
""blur"",""1"",""2515""
""focus"",""1"",""3024""
""blur"",""1"",""3899""
""focus"",""1"",""4112""
""fullscreenenter"",""1"",""6598""
","""event"",""trial"",""time""
""blur"",""1"",""2515""
""blur"",""1"",""3899""
","""event"",""trial"",""time""
""focus"",""1"",""3024""
""focus"",""1"",""4112""
","""event"",""trial"",""time""
""fullscreenenter"",""1"",""6598""
","
","","[{""page_index"":0,""viewing_time"":1370.3999999761581}]","1371.0999999642372","","","","","","","","","","","","","","","","","","","","","","","",""
"pit-comprehension","115","832216","0.0-2.0-26.0-0.0","battery-v0.2","","""event"",""trial"",""time""
""blur"",""1"",""2515""
""focus"",""1"",""3024""
""blur"",""1"",""3899""
""focus"",""1"",""4112""
""fullscreenenter"",""1"",""6598""
","""event"",""trial"",""time""
""blur"",""1"",""2515""
""blur"",""1"",""3899""
","""event"",""trial"",""time""
""focus"",""1"",""3024""
""focus"",""1"",""4112""
","""event"",""trial"",""time""
""fullscreenenter"",""1"",""6598""
","
","","","4689.899999976158","[""False""]","0","18","3962","2804","","","","","","","","","","","","","","","","","","",""
"pit-instructions","116","835539","0.0-2.0-26.0-1.0","battery-v0.2","","""event"",""trial"",""time""
""blur"",""1"",""2515""
""focus"",""1"",""3024""
""blur"",""1"",""3899""
""focus"",""1"",""4112""
""fullscreenenter"",""1"",""6598""
","""event"",""trial"",""time""
""blur"",""1"",""2515""
""blur"",""1"",""3899""
","""event"",""trial"",""time""
""focus"",""1"",""3024""
""focus"",""1"",""4112""
","""event"",""trial"",""time""
""fullscreenenter"",""1"",""6598""
","
","","[{""page_index"":0,""viewing_time"":3251}]","3251.5","","","","","","","","","","","","","","","","","","","","","","","",""
"pit-instructions","117","853116","0.0-3.0","battery-v0.2","","""event"",""trial"",""time""
""blur"",""1"",""2515""
""focus"",""1"",""3024""
""blur"",""1"",""3899""
""focus"",""1"",""4112""
""fullscreenenter"",""1"",""6598""
","""event"",""trial"",""time""
""blur"",""1"",""2515""
""blur"",""1"",""3899""
","""event"",""trial"",""time""
""focus"",""1"",""3024""
""focus"",""1"",""4112""
","""event"",""trial"",""time""
""fullscreenenter"",""1"",""6598""
","
","","[{""page_index"":0,""viewing_time"":3885.599999964237},{""page_index"":1,""viewing_time"":6466.400000035763},{""page_index"":2,""viewing_time"":7216.800000011921}]","17569.80000001192","","","","","","","","","","","","","","","","","","","","","","","",""
"pit-trial","118","858015","0.0-4.0","battery-v0.2","","""event"",""trial"",""time""
""blur"",""1"",""2515""
""focus"",""1"",""3024""
""blur"",""1"",""3899""
""focus"",""1"",""4112""
""fullscreenenter"",""1"",""6598""
","""event"",""trial"",""time""
""blur"",""1"",""2515""
""blur"",""1"",""3899""
","""event"",""trial"",""time""
""focus"",""1"",""3024""
""focus"",""1"",""4112""
","""event"",""trial"",""time""
""fullscreenenter"",""1"",""6598""
","
","","","-1","","","18","3962","2804","&#9752;","elianto","#f73b6a7A"," ","-1","0","-10","[]","0","1","","","3962","1","3","3","lose","go","0"
"pit-trial","119","862195","0.0-5.0","battery-v0.2","","""event"",""trial"",""time""
""blur"",""1"",""2515""
""focus"",""1"",""3024""
""blur"",""1"",""3899""
""focus"",""1"",""4112""
""fullscreenenter"",""1"",""6598""
","""event"",""trial"",""time""
""blur"",""1"",""2515""
""blur"",""1"",""3899""
","""event"",""trial"",""time""
""focus"",""1"",""3024""
""focus"",""1"",""4112""
","""event"",""trial"",""time""
""fullscreenenter"",""1"",""6598""
","
","","","1308.699999988079","","","18","3962","2804","&#9730;","elianto","#3366ff99"," "," ","1","0","[2159.300000011921]","1","1","","","3962","2","1","1","win","go","1"
"pit-trial","120","865635","0.0-6.0","battery-v0.2","","""event"",""trial"",""time""
""blur"",""1"",""2515""
""focus"",""1"",""3024""
""blur"",""1"",""3899""
""focus"",""1"",""4112""
""fullscreenenter"",""1"",""6598""
","""event"",""trial"",""time""
""blur"",""1"",""2515""
""blur"",""1"",""3899""
","""event"",""trial"",""time""
""focus"",""1"",""3024""
""focus"",""1"",""4112""
","""event"",""trial"",""time""
""fullscreenenter"",""1"",""6598""
","
","","","560.5","","","18","3962","2804","&#9733;","elianto","#3366ff99","-1"," ","0","0","[1412.4000000357628]","1","1","","","3962","3","2","2","win","no-go","0"
"pit-trial","121","869175","0.0-7.0","battery-v0.2","","""event"",""trial"",""time""
""blur"",""1"",""2515""
""focus"",""1"",""3024""
""blur"",""1"",""3899""
""focus"",""1"",""4112""
""fullscreenenter"",""1"",""6598""
","""event"",""trial"",""time""
""blur"",""1"",""2515""
""blur"",""1"",""3899""
","""event"",""trial"",""time""
""focus"",""1"",""3024""
""focus"",""1"",""4112""
","""event"",""trial"",""time""
""fullscreenenter"",""1"",""6598""
","
","","","664.7000000476837","","","18","3962","2804","&#9728;","elianto","#f73b6a7A","-1"," ","0","0","[1517]","1","1","","","3962","4","0","4","lose","no-go","1"
"pit-trial","122","872665","0.0-8.0","battery-v0.2","","""event"",""trial"",""time""
""blur"",""1"",""2515""
""focus"",""1"",""3024""
""blur"",""1"",""3899""
""focus"",""1"",""4112""
""fullscreenenter"",""1"",""6598""
","""event"",""trial"",""time""
""blur"",""1"",""2515""
""blur"",""1"",""3899""
","""event"",""trial"",""time""
""focus"",""1"",""3024""
""focus"",""1"",""4112""
","""event"",""trial"",""time""
""fullscreenenter"",""1"",""6598""
","
","","","625.0999999642372","","","18","3962","2804","&#9752;","elianto","#f73b6a7A"," "," ","1","0","[1475.800000011921]","1","1","","","3962","5","3","3","lose","go","0"
"pit-trial","123","875975","0.0-9.0","battery-v0.2","","""event"",""trial"",""time""
""blur"",""1"",""2515""
""focus"",""1"",""3024""
""blur"",""1"",""3899""
""focus"",""1"",""4112""
""fullscreenenter"",""1"",""6598""
","""event"",""trial"",""time""
""blur"",""1"",""2515""
""blur"",""1"",""3899""
","""event"",""trial"",""time""
""focus"",""1"",""3024""
""focus"",""1"",""4112""
","""event"",""trial"",""time""
""fullscreenenter"",""1"",""6598""
","
","","","431.5","","","18","3962","2804","&#9733;","elianto","#3366ff99","-1"," ","0","0","[1283.8999999761581]","1","1","","","3962","6","2","2","win","no-go","0"
"pit-trial","124","879455","0.0-10.0","battery-v0.2","","""event"",""trial"",""time""
""blur"",""1"",""2515""
""focus"",""1"",""3024""
""blur"",""1"",""3899""
""focus"",""1"",""4112""
""fullscreenenter"",""1"",""6598""
","""event"",""trial"",""time""
""blur"",""1"",""2515""
""blur"",""1"",""3899""
","""event"",""trial"",""time""
""focus"",""1"",""3024""
""focus"",""1"",""4112""
","""event"",""trial"",""time""
""fullscreenenter"",""1"",""6598""
","
","","","592.5","","","18","3962","2804","&#9728;","elianto","#f73b6a7A","-1"," ","0","-10","[1455.199999988079]","1","1","","","3962","7","0","4","lose","no-go","0"
"pit-trial","125","883005","0.0-11.0","battery-v0.2","","""event"",""trial"",""time""
""blur"",""1"",""2515""
""focus"",""1"",""3024""
""blur"",""1"",""3899""
""focus"",""1"",""4112""
""fullscreenenter"",""1"",""6598""
","""event"",""trial"",""time""
""blur"",""1"",""2515""
""blur"",""1"",""3899""
","""event"",""trial"",""time""
""focus"",""1"",""3024""
""focus"",""1"",""4112""
","""event"",""trial"",""time""
""fullscreenenter"",""1"",""6598""
","
","","","683.1000000238419","","","18","3962","2804","&#9730;","elianto","#3366ff99"," "," ","1","+10","[1536.699999988079]","1","1","","","3962","8","1","1","win","go","0"
"pit-trial","126","886328","0.0-12.0","battery-v0.2","","""event"",""trial"",""time""
""blur"",""1"",""2515""
""focus"",""1"",""3024""
""blur"",""1"",""3899""
""focus"",""1"",""4112""
""fullscreenenter"",""1"",""6598""
","""event"",""trial"",""time""
""blur"",""1"",""2515""
""blur"",""1"",""3899""
","""event"",""trial"",""time""
""focus"",""1"",""3024""
""focus"",""1"",""4112""
","""event"",""trial"",""time""
""fullscreenenter"",""1"",""6598""
","
","","","454.10000002384186","","","18","3962","2804","&#9730;","elianto","#3366ff99"," "," ","1","+10","[1304.8999999761581]","1","1","","","3962","9","1","1","win","go","0"
"pit-trial","127","889650","0.0-13.0","battery-v0.2","","""event"",""trial"",""time""
""blur"",""1"",""2515""
""focus"",""1"",""3024""
""blur"",""1"",""3899""
""focus"",""1"",""4112""
""fullscreenenter"",""1"",""6598""
","""event"",""trial"",""time""
""blur"",""1"",""2515""
""blur"",""1"",""3899""
","""event"",""trial"",""time""
""focus"",""1"",""3024""
""focus"",""1"",""4112""
","""event"",""trial"",""time""
""fullscreenenter"",""1"",""6598""
","
","","","459.9000000357628","","","18","3962","2804","&#9728;","elianto","#f73b6a7A","-1"," ","0","-10","[1312.1000000238419]","1","1","","","3962","10","0","4","lose","no-go","0"
"pit-trial","128","893228","0.0-14.0","battery-v0.2","","""event"",""trial"",""time""
""blur"",""1"",""2515""
""focus"",""1"",""3024""
""blur"",""1"",""3899""
""focus"",""1"",""4112""
""fullscreenenter"",""1"",""6598""
","""event"",""trial"",""time""
""blur"",""1"",""2515""
""blur"",""1"",""3899""
","""event"",""trial"",""time""
""focus"",""1"",""3024""
""focus"",""1"",""4112""
","""event"",""trial"",""time""
""fullscreenenter"",""1"",""6598""
","
","","","704.9000000357628","","","18","3962","2804","&#9752;","elianto","#f73b6a7A"," "," ","1","0","[1561.300000011921]","1","1","","","3962","11","3","3","lose","go","0"
"pit-trial","129","898097","0.0-15.0","battery-v0.2","","""event"",""trial"",""time""
""blur"",""1"",""2515""
""focus"",""1"",""3024""
""blur"",""1"",""3899""
""focus"",""1"",""4112""
""fullscreenenter"",""1"",""6598""
","""event"",""trial"",""time""
""blur"",""1"",""2515""
""blur"",""1"",""3899""
","""event"",""trial"",""time""
""focus"",""1"",""3024""
""focus"",""1"",""4112""
","""event"",""trial"",""time""
""fullscreenenter"",""1"",""6598""
","
","","","-1","","","18","3962","2804","&#9733;","elianto","#3366ff99","-1","-1","1","+10","[]","0","1","","","3962","12","2","2","win","no-go","0"
"pit-trial","130","901865","0.0-16.0","battery-v0.2","","""event"",""trial"",""time""
""blur"",""1"",""2515""
""focus"",""1"",""3024""
""blur"",""1"",""3899""
""focus"",""1"",""4112""
""fullscreenenter"",""1"",""6598""
","""event"",""trial"",""time""
""blur"",""1"",""2515""
""blur"",""1"",""3899""
","""event"",""trial"",""time""
""focus"",""1"",""3024""
""focus"",""1"",""4112""
","""event"",""trial"",""time""
""fullscreenenter"",""1"",""6598""
","
","","","896.5","","","18","3962","2804","&#9752;","elianto","#f73b6a7A"," "," ","1","0","[1754.300000011921]","1","1","","","3962","13","3","3","lose","go","0"
"pit-trial","131","905369","0.0-17.0","battery-v0.2","","""event"",""trial"",""time""
""blur"",""1"",""2515""
""focus"",""1"",""3024""
""blur"",""1"",""3899""
""focus"",""1"",""4112""
""fullscreenenter"",""1"",""6598""
","""event"",""trial"",""time""
""blur"",""1"",""2515""
""blur"",""1"",""3899""
","""event"",""trial"",""time""
""focus"",""1"",""3024""
""focus"",""1"",""4112""
","""event"",""trial"",""time""
""fullscreenenter"",""1"",""6598""
","
","","","631.6000000238419","","","18","3962","2804","&#9730;","elianto","#3366ff99"," "," ","1","0","[1493.5]","1","1","","","3962","14","1","1","win","go","1"
"pit-trial","132","909017","0.0-18.0","battery-v0.2","","""event"",""trial"",""time""
""blur"",""1"",""2515""
""focus"",""1"",""3024""
""blur"",""1"",""3899""
""focus"",""1"",""4112""
""fullscreenenter"",""1"",""6598""
","""event"",""trial"",""time""
""blur"",""1"",""2515""
""blur"",""1"",""3899""
","""event"",""trial"",""time""
""focus"",""1"",""3024""
""focus"",""1"",""4112""
","""event"",""trial"",""time""
""fullscreenenter"",""1"",""6598""
","
","","","777.9000000357628","","","18","3962","2804","&#9733;","elianto","#3366ff99","-1"," ","0","+10","[1632]","1","1","","","3962","15","2","2","win","no-go","1"
"pit-trial","133","913892","0.0-19.0","battery-v0.2","","""event"",""trial"",""time""
""blur"",""1"",""2515""
""focus"",""1"",""3024""
""blur"",""1"",""3899""
""focus"",""1"",""4112""
""fullscreenenter"",""1"",""6598""
","""event"",""trial"",""time""
""blur"",""1"",""2515""
""blur"",""1"",""3899""
","""event"",""trial"",""time""
""focus"",""1"",""3024""
""focus"",""1"",""4112""
","""event"",""trial"",""time""
""fullscreenenter"",""1"",""6598""
","
","","","-1","","","18","3962","2804","&#9728;","elianto","#f73b6a7A","-1","-1","1","0","[]","0","1","","","3962","16","0","4","lose","no-go","0"
"pit-trial","134","917456","0.0-20.0","battery-v0.2","","""event"",""trial"",""time""
""blur"",""1"",""2515""
""focus"",""1"",""3024""
""blur"",""1"",""3899""
""focus"",""1"",""4112""
""fullscreenenter"",""1"",""6598""
","""event"",""trial"",""time""
""blur"",""1"",""2515""
""blur"",""1"",""3899""
","""event"",""trial"",""time""
""focus"",""1"",""3024""
""focus"",""1"",""4112""
","""event"",""trial"",""time""
""fullscreenenter"",""1"",""6598""
","
","","","694.2999999523163","","","18","3962","2804","&#9733;","elianto","#3366ff99","-1"," ","0","+10","[1548.199999988079]","1","1","","","3962","17","2","2","win","no-go","1"
"pit-trial","135","922334","0.0-21.0","battery-v0.2","","""event"",""trial"",""time""
""blur"",""1"",""2515""
""focus"",""1"",""3024""
""blur"",""1"",""3899""
""focus"",""1"",""4112""
""fullscreenenter"",""1"",""6598""
","""event"",""trial"",""time""
""blur"",""1"",""2515""
""blur"",""1"",""3899""
","""event"",""trial"",""time""
""focus"",""1"",""3024""
""focus"",""1"",""4112""
","""event"",""trial"",""time""
""fullscreenenter"",""1"",""6598""
","
","","","-1","","","18","3962","2804","&#9728;","elianto","#f73b6a7A","-1","-1","1","-10","[]","0","1","","","3962","18","0","4","lose","no-go","1"
"pit-trial","136","925866","0.0-22.0","battery-v0.2","","""event"",""trial"",""time""
""blur"",""1"",""2515""
""focus"",""1"",""3024""
""blur"",""1"",""3899""
""focus"",""1"",""4112""
""fullscreenenter"",""1"",""6598""
","""event"",""trial"",""time""
""blur"",""1"",""2515""
""blur"",""1"",""3899""
","""event"",""trial"",""time""
""focus"",""1"",""3024""
""focus"",""1"",""4112""
","""event"",""trial"",""time""
""fullscreenenter"",""1"",""6598""
","
","","","665.5","","","18","3962","2804","&#9730;","elianto","#3366ff99"," "," ","1","+10","[1519.2999999523163]","1","1","","","3962","19","1","1","win","go","0"
"pit-trial","137","930044","0.0-23.0","battery-v0.2","","""event"",""trial"",""time""
""blur"",""1"",""2515""
""focus"",""1"",""3024""
""blur"",""1"",""3899""
""focus"",""1"",""4112""
""fullscreenenter"",""1"",""6598""
","""event"",""trial"",""time""
""blur"",""1"",""2515""
""blur"",""1"",""3899""
","""event"",""trial"",""time""
""focus"",""1"",""3024""
""focus"",""1"",""4112""
","""event"",""trial"",""time""
""fullscreenenter"",""1"",""6598""
","
","","","1303.199999988079","","","18","3962","2804","&#9752;","elianto","#f73b6a7A"," "," ","1","0","[2163]","1","1","","","3962","20","3","3","lose","go","0"
"pit-instructions","138","948172","0.0-24.0","battery-v0.2","","""event"",""trial"",""time""
""blur"",""1"",""2515""
""focus"",""1"",""3024""
""blur"",""1"",""3899""
""focus"",""1"",""4112""
""fullscreenenter"",""1"",""6598""
","""event"",""trial"",""time""
""blur"",""1"",""2515""
""blur"",""1"",""3899""
","""event"",""trial"",""time""
""focus"",""1"",""3024""
""focus"",""1"",""4112""
","""event"",""trial"",""time""
""fullscreenenter"",""1"",""6598""
","
","","[{""page_index"":0,""viewing_time"":10303.5},{""page_index"":1,""viewing_time"":7817}]","18121.399999976158","","","","","","","","","","","","","","","","","","","","","","","",""
"pit-trial","139","953045","0.0-25.0","battery-v0.2","","""event"",""trial"",""time""
""blur"",""1"",""2515""
""focus"",""1"",""3024""
""blur"",""1"",""3899""
""focus"",""1"",""4112""
""fullscreenenter"",""1"",""6598""
","""event"",""trial"",""time""
""blur"",""1"",""2515""
""blur"",""1"",""3899""
","""event"",""trial"",""time""
""focus"",""1"",""3024""
""focus"",""1"",""4112""
","""event"",""trial"",""time""
""fullscreenenter"",""1"",""6598""
","
","","","-1","","","18","3962","2804","h","elianto","#f73b6a7A","-1","-1","1","-10","[]","0","2","","","3962","21","3","4","lose","no-go","1"
"pit-trial","140","957919","0.0-26.0","battery-v0.2","","""event"",""trial"",""time""
""blur"",""1"",""2515""
""focus"",""1"",""3024""
""blur"",""1"",""3899""
""focus"",""1"",""4112""
""fullscreenenter"",""1"",""6598""
","""event"",""trial"",""time""
""blur"",""1"",""2515""
""blur"",""1"",""3899""
","""event"",""trial"",""time""
""focus"",""1"",""3024""
""focus"",""1"",""4112""
","""event"",""trial"",""time""
""fullscreenenter"",""1"",""6598""
","
","","","-1","","","18","3962","2804","y","elianto","#f73b6a7A"," ","-1","0","-10","[]","0","2","","","3962","22","2","3","lose","go","0"
"pit-trial","141","962797","0.0-27.0","battery-v0.2","","""event"",""trial"",""time""
""blur"",""1"",""2515""
""focus"",""1"",""3024""
""blur"",""1"",""3899""
""focus"",""1"",""4112""
""fullscreenenter"",""1"",""6598""
","""event"",""trial"",""time""
""blur"",""1"",""2515""
""blur"",""1"",""3899""
","""event"",""trial"",""time""
""focus"",""1"",""3024""
""focus"",""1"",""4112""
","""event"",""trial"",""time""
""fullscreenenter"",""1"",""6598""
","
","","","-1","","","18","3962","2804","m","elianto","#f73b6a7A"," ","-1","0","-10","[]","0","2","","","3962","23","0","3","lose","go","0"
"pit-trial","142","967677","0.0-28.0","battery-v0.2","","""event"",""trial"",""time""
""blur"",""1"",""2515""
""focus"",""1"",""3024""
""blur"",""1"",""3899""
""focus"",""1"",""4112""
""fullscreenenter"",""1"",""6598""
","""event"",""trial"",""time""
""blur"",""1"",""2515""
""blur"",""1"",""3899""
","""event"",""trial"",""time""
""focus"",""1"",""3024""
""focus"",""1"",""4112""
","""event"",""trial"",""time""
""fullscreenenter"",""1"",""6598""
","
","","","-1","","","18","3962","2804","r","elianto","#3366ff99","-1","-1","1","+10","[]","0","2","","","3962","24","1","2","win","no-go","0"
"pit-trial","143","971137","0.0-29.0","battery-v0.2","","""event"",""trial"",""time""
""blur"",""1"",""2515""
""focus"",""1"",""3024""
""blur"",""1"",""3899""
""focus"",""1"",""4112""
""fullscreenenter"",""1"",""6598""
","""event"",""trial"",""time""
""blur"",""1"",""2515""
""blur"",""1"",""3899""
","""event"",""trial"",""time""
""focus"",""1"",""3024""
""focus"",""1"",""4112""
","""event"",""trial"",""time""
""fullscreenenter"",""1"",""6598""
","
","","","592.8000000119209","","","18","3962","2804","y","elianto","#f73b6a7A"," "," ","1","-10","[1446.0999999642372]","1","2","","","3962","25","2","3","lose","go","1"
"pit-trial","144","976026","0.0-30.0","battery-v0.2","","""event"",""trial"",""time""
""blur"",""1"",""2515""
""focus"",""1"",""3024""
""blur"",""1"",""3899""
""focus"",""1"",""4112""
""fullscreenenter"",""1"",""6598""
","""event"",""trial"",""time""
""blur"",""1"",""2515""
""blur"",""1"",""3899""
","""event"",""trial"",""time""
""focus"",""1"",""3024""
""focus"",""1"",""4112""
","""event"",""trial"",""time""
""fullscreenenter"",""1"",""6598""
","
","","","-1","","","18","3962","2804","r","elianto","#3366ff99","-1","-1","1","+10","[]","0","2","","","3962","26","1","2","win","no-go","0"
"pit-trial","145","979762","0.0-31.0","battery-v0.2","","""event"",""trial"",""time""
""blur"",""1"",""2515""
""focus"",""1"",""3024""
""blur"",""1"",""3899""
""focus"",""1"",""4112""
""fullscreenenter"",""1"",""6598""
","""event"",""trial"",""time""
""blur"",""1"",""2515""
""blur"",""1"",""3899""
","""event"",""trial"",""time""
""focus"",""1"",""3024""
""focus"",""1"",""4112""
","""event"",""trial"",""time""
""fullscreenenter"",""1"",""6598""
","
","","","861.0999999642372","","","18","3962","2804","m","elianto","#f73b6a7A"," "," ","1","0","[1718.7999999523163]","1","2","","","3962","27","0","3","lose","go","0"
"pit-trial","146","983931","0.0-32.0","battery-v0.2","","""event"",""trial"",""time""
""blur"",""1"",""2515""
""focus"",""1"",""3024""
""blur"",""1"",""3899""
""focus"",""1"",""4112""
""fullscreenenter"",""1"",""6598""
","""event"",""trial"",""time""
""blur"",""1"",""2515""
""blur"",""1"",""3899""
","""event"",""trial"",""time""
""focus"",""1"",""3024""
""focus"",""1"",""4112""
","""event"",""trial"",""time""
""fullscreenenter"",""1"",""6598""
","
","","","1300","","","18","3962","2804","h","elianto","#f73b6a7A","-1"," ","0","0","[2156]","1","2","","","3962","28","3","4","lose","no-go","1"
"pit-trial","147","987640","0.0-33.0","battery-v0.2","","""event"",""trial"",""time""
""blur"",""1"",""2515""
""focus"",""1"",""3024""
""blur"",""1"",""3899""
""focus"",""1"",""4112""
""fullscreenenter"",""1"",""6598""
","""event"",""trial"",""time""
""blur"",""1"",""2515""
""blur"",""1"",""3899""
","""event"",""trial"",""time""
""focus"",""1"",""3024""
""focus"",""1"",""4112""
","""event"",""trial"",""time""
""fullscreenenter"",""1"",""6598""
","
","","","839.3999999761581","","","18","3962","2804","m","elianto","#f73b6a7A"," "," ","1","-10","[1692.5999999642372]","1","2","","","3962","29","0","3","lose","go","1"
"pit-trial","148","991113","0.0-34.0","battery-v0.2","","""event"",""trial"",""time""
""blur"",""1"",""2515""
""focus"",""1"",""3024""
""blur"",""1"",""3899""
""focus"",""1"",""4112""
""fullscreenenter"",""1"",""6598""
","""event"",""trial"",""time""
""blur"",""1"",""2515""
""blur"",""1"",""3899""
","""event"",""trial"",""time""
""focus"",""1"",""3024""
""focus"",""1"",""4112""
","""event"",""trial"",""time""
""fullscreenenter"",""1"",""6598""
","
","","","603.5","","","18","3962","2804","y","elianto","#f73b6a7A"," "," ","1","0","[1455.7999999523163]","1","2","","","3962","30","2","3","lose","go","0"
"pit-trial","149","995989","0.0-35.0","battery-v0.2","","""event"",""trial"",""time""
""blur"",""1"",""2515""
""focus"",""1"",""3024""
""blur"",""1"",""3899""
""focus"",""1"",""4112""
""fullscreenenter"",""1"",""6598""
","""event"",""trial"",""time""
""blur"",""1"",""2515""
""blur"",""1"",""3899""
","""event"",""trial"",""time""
""focus"",""1"",""3024""
""focus"",""1"",""4112""
","""event"",""trial"",""time""
""fullscreenenter"",""1"",""6598""
","
","","","-1","","","18","3962","2804","r","elianto","#3366ff99","-1","-1","1","+10","[]","0","2","","","3962","31","1","2","win","no-go","0"
"pit-trial","150","999494","0.0-36.0","battery-v0.2","","""event"",""trial"",""time""
""blur"",""1"",""2515""
""focus"",""1"",""3024""
""blur"",""1"",""3899""
""focus"",""1"",""4112""
""fullscreenenter"",""1"",""6598""
","""event"",""trial"",""time""
""blur"",""1"",""2515""
""blur"",""1"",""3899""
","""event"",""trial"",""time""
""focus"",""1"",""3024""
""focus"",""1"",""4112""
","""event"",""trial"",""time""
""fullscreenenter"",""1"",""6598""
","
","","","633.7000000476837","","","18","3962","2804","h","elianto","#f73b6a7A","-1"," ","0","0","[1485]","1","2","","","3962","32","3","4","lose","no-go","1"
"pit-trial","151","1002887","0.0-37.0","battery-v0.2","","""event"",""trial"",""time""
""blur"",""1"",""2515""
""focus"",""1"",""3024""
""blur"",""1"",""3899""
""focus"",""1"",""4112""
""fullscreenenter"",""1"",""6598""
","""event"",""trial"",""time""
""blur"",""1"",""2515""
""blur"",""1"",""3899""
","""event"",""trial"",""time""
""focus"",""1"",""3024""
""focus"",""1"",""4112""
","""event"",""trial"",""time""
""fullscreenenter"",""1"",""6598""
","
","","","529.8000000119209","","","18","3962","2804","h","elianto","#f73b6a7A","-1"," ","0","-10","[1380.4000000357628]","1","2","","","3962","33","3","4","lose","no-go","0"
"pit-trial","152","1007758","0.0-38.0","battery-v0.2","","""event"",""trial"",""time""
""blur"",""1"",""2515""
""focus"",""1"",""3024""
""blur"",""1"",""3899""
""focus"",""1"",""4112""
""fullscreenenter"",""1"",""6598""
","""event"",""trial"",""time""
""blur"",""1"",""2515""
""blur"",""1"",""3899""
","""event"",""trial"",""time""
""focus"",""1"",""3024""
""focus"",""1"",""4112""
","""event"",""trial"",""time""
""fullscreenenter"",""1"",""6598""
","
","","","-1","","","18","3962","2804","r","elianto","#3366ff99","-1","-1","1","+10","[]","0","2","","","3962","34","1","2","win","no-go","0"
"pit-trial","153","1011273","0.0-39.0","battery-v0.2","","""event"",""trial"",""time""
""blur"",""1"",""2515""
""focus"",""1"",""3024""
""blur"",""1"",""3899""
""focus"",""1"",""4112""
""fullscreenenter"",""1"",""6598""
","""event"",""trial"",""time""
""blur"",""1"",""2515""
""blur"",""1"",""3899""
","""event"",""trial"",""time""
""focus"",""1"",""3024""
""focus"",""1"",""4112""
","""event"",""trial"",""time""
""fullscreenenter"",""1"",""6598""
","
","","","637.0999999642372","","","18","3962","2804","y","elianto","#f73b6a7A"," "," ","1","-10","[1498.5999999642372]","1","2","","","3962","35","2","3","lose","go","1"
"pit-trial","154","1014827","0.0-40.0","battery-v0.2","","""event"",""trial"",""time""
""blur"",""1"",""2515""
""focus"",""1"",""3024""
""blur"",""1"",""3899""
""focus"",""1"",""4112""
""fullscreenenter"",""1"",""6598""
","""event"",""trial"",""time""
""blur"",""1"",""2515""
""blur"",""1"",""3899""
","""event"",""trial"",""time""
""focus"",""1"",""3024""
""focus"",""1"",""4112""
","""event"",""trial"",""time""
""fullscreenenter"",""1"",""6598""
","
","","","684.9000000357628","","","18","3962","2804","m","elianto","#f73b6a7A"," "," ","1","-10","[1536.9000000357628]","1","2","","","3962","36","0","3","lose","go","1"
"pit-trial","155","1019698","0.0-41.0","battery-v0.2","","""event"",""trial"",""time""
""blur"",""1"",""2515""
""focus"",""1"",""3024""
""blur"",""1"",""3899""
""focus"",""1"",""4112""
""fullscreenenter"",""1"",""6598""
","""event"",""trial"",""time""
""blur"",""1"",""2515""
""blur"",""1"",""3899""
","""event"",""trial"",""time""
""focus"",""1"",""3024""
""focus"",""1"",""4112""
","""event"",""trial"",""time""
""fullscreenenter"",""1"",""6598""
","
","","","-1","","","18","3962","2804","r","elianto","#3366ff99","-1","-1","1","+10","[]","0","2","","","3962","37","1","2","win","no-go","0"
"pit-trial","156","1023114","0.0-42.0","battery-v0.2","","""event"",""trial"",""time""
""blur"",""1"",""2515""
""focus"",""1"",""3024""
""blur"",""1"",""3899""
""focus"",""1"",""4112""
