"trial_type","trial_index","time_elapsed","internal_node_id","task_version","subject_id","interactions","blur_events","focus_events","fullscreenenter_events","fullscreenexit_events","success","view_history","rt","responses","num_errors","age","subject","participantId","rune","rune_set","hex","correct","choice","accuracy","outcome","keys","total_keys","block","practice","value","sub","trial","stimulus","robot","valence","action","sham"
"pavlovia","0","16","0.0-0.0","battery-v0.2","","""event"",""trial"",""time""
""fullscreenenter"",""1"",""3800""
","
","
","""event"",""trial"",""time""
""fullscreenenter"",""1"",""3800""
","
","","","","","","","","","","","","","","","","","","","","","","","","","","",""
"fullscreen","1","4751","0.0-1.0","battery-v0.2","","""event"",""trial"",""time""
""fullscreenenter"",""1"",""3800""
","
","
","""event"",""trial"",""time""
""fullscreenenter"",""1"",""3800""
","
","true","","","","","","","","","","","","","","","","","","","","","","","","","",""
"pit-instructions","2","10176","0.0-2.0-0.0","battery-v0.2","","""event"",""trial"",""time""
""fullscreenenter"",""1"",""3800""
","
","
","""event"",""trial"",""time""
""fullscreenenter"",""1"",""3800""
","
","","[{""page_index"":0,""viewing_time"":5419.900000095367}]","5420.700000047684","","","","","","","","","","","","","","","","","","","","","","","",""
"pit-comprehension","3","18661","0.0-2.0-1.0-0.0","battery-v0.2","","""event"",""trial"",""time""
""fullscreenenter"",""1"",""3800""
","
","
","""event"",""trial"",""time""
""fullscreenenter"",""1"",""3800""
","
","","","8479.299999952316","[""shark""]","0","12","5252","3285","","","","","","","","","","","","","","","","","","",""
"pit-instructions","4","20355","0.0-2.0-1.0-1.0","battery-v0.2","","""event"",""trial"",""time""
""fullscreenenter"",""1"",""3800""
","
","
","""event"",""trial"",""time""
""fullscreenenter"",""1"",""3800""
","
","","[{""page_index"":0,""viewing_time"":1670.2000000476837}]","1670.6000000238419","","","","","","","","","","","","","","","","","","","","","","","",""
"pit-comprehension","5","25377","0.0-2.0-2.0-0.0","battery-v0.2","","""event"",""trial"",""time""
""fullscreenenter"",""1"",""3800""
","
","
","""event"",""trial"",""time""
""fullscreenenter"",""1"",""3800""
","
","","","5017.599999904633","[""tiger""]","0","12","5252","3285","","","","","","","","","","","","","","","","","","",""
"pit-instructions","6","26479","0.0-2.0-2.0-1.0","battery-v0.2","","""event"",""trial"",""time""
""fullscreenenter"",""1"",""3800""
","
","
","""event"",""trial"",""time""
""fullscreenenter"",""1"",""3800""
","
","","[{""page_index"":0,""viewing_time"":1097}]","1097.3999999761581","","","","","","","","","","","","","","","","","","","","","","","",""
"pit-instructions","7","128722","0.0-2.0-3.0","battery-v0.2","","""event"",""trial"",""time""
""fullscreenenter"",""1"",""3800""
","
","
","""event"",""trial"",""time""
""fullscreenenter"",""1"",""3800""
","
","","[{""page_index"":0,""viewing_time"":11419},{""page_index"":1,""viewing_time"":6565.300000071526},{""page_index"":2,""viewing_time"":6774.799999952316},{""page_index"":3,""viewing_time"":5207},{""page_index"":4,""viewing_time"":8818.200000047684},{""page_index"":5,""viewing_time"":6058.799999952316},{""page_index"":6,""viewing_time"":6985.200000047684},{""page_index"":7,""viewing_time"":6606.099999904633},{""page_index"":8,""viewing_time"":6525.800000071526},{""page_index"":9,""viewing_time"":9510},{""page_index"":10,""viewing_time"":7126},{""page_index"":11,""viewing_time"":9110.199999928474},{""page_index"":12,""viewing_time"":6300.300000071526},{""page_index"":13,""viewing_time"":5231.5}]","102239","","","","","","","","","","","","","","","","","","","","","","","",""
"pit-trial","8","132940","0.0-2.0-4.0-0.0","battery-v0.2","","""event"",""trial"",""time""
""fullscreenenter"",""1"",""3800""
","
","
","""event"",""trial"",""time""
""fullscreenenter"",""1"",""3800""
","
","","","1337.8999999761581","","","12","5252","3285","&#9784;","elianto","#FFFFF080"," "," ","1","&#10004","[2192.399999976158]","1","0","0","","","","","","","",""
"pit-trial","9","136656","0.0-2.0-4.1-0.1","battery-v0.2","","""event"",""trial"",""time""
""fullscreenenter"",""1"",""3800""
","
","
","""event"",""trial"",""time""
""fullscreenenter"",""1"",""3800""
","
","","","849","","","12","5252","3285","&#9784;","elianto","#FFFFF080"," "," ","1","&#10004","[1706.2999999523163]","1","0","0","","","","","","","",""
"pit-trial","10","140434","0.0-2.0-4.2-0.2","battery-v0.2","","""event"",""trial"",""time""
""fullscreenenter"",""1"",""3800""
","
","
","""event"",""trial"",""time""
""fullscreenenter"",""1"",""3800""
","
","","","909.7999999523163","","","12","5252","3285","&#9784;","elianto","#FFFFF080"," "," ","1","&#10004","[473.60000002384186,1765.2999999523163]","2","0","0","","","","","","","",""
"pit-trial","11","144139","0.0-2.0-4.3-0.3","battery-v0.2","","""event"",""trial"",""time""
""fullscreenenter"",""1"",""3800""
","
","
","""event"",""trial"",""time""
""fullscreenenter"",""1"",""3800""
","
","","","845.2000000476837","","","12","5252","3285","&#9784;","elianto","#FFFFF080"," "," ","1","&#10004","[1698.8999999761581]","1","0","0","","","","","","","",""
"pit-trial","12","147716","0.0-2.0-4.4-0.4","battery-v0.2","","""event"",""trial"",""time""
""fullscreenenter"",""1"",""3800""
","
","
","""event"",""trial"",""time""
""fullscreenenter"",""1"",""3800""
","
","","","707.1000000238419","","","12","5252","3285","&#9784;","elianto","#FFFFF080"," "," ","1","&#10004","[1559.8000000715256]","1","0","0","","","","","","","",""
"pit-instructions","13","171114","0.0-2.0-5.0","battery-v0.2","","""event"",""trial"",""time""
""fullscreenenter"",""1"",""3800""
","
","
","""event"",""trial"",""time""
""fullscreenenter"",""1"",""3800""
","
","","[{""page_index"":0,""viewing_time"":5323.400000095367},{""page_index"":1,""viewing_time"":6799.799999952316},{""page_index"":2,""viewing_time"":5716.200000047684},{""page_index"":3,""viewing_time"":5554.899999976158}]","23394.700000047684","","","","","","","","","","","","","","","","","","","","","","","",""
"pit-trial","14","176001","0.0-2.0-6.0-0.0","battery-v0.2","","""event"",""trial"",""time""
""fullscreenenter"",""1"",""3800""
","
","
","""event"",""trial"",""time""
""fullscreenenter"",""1"",""3800""
","
","","","-1","","","12","5252","3285","&#9854;","elianto","#FFFFF080","-1","-1","1","&#10004","[]","0","0","1","","","","","","","",""
"pit-trial","15","180885","0.0-2.0-6.1-0.1","battery-v0.2","","""event"",""trial"",""time""
""fullscreenenter"",""1"",""3800""
","
","
","""event"",""trial"",""time""
""fullscreenenter"",""1"",""3800""
","
","","","-1","","","12","5252","3285","&#9854;","elianto","#FFFFF080","-1","-1","1","&#10004","[]","0","0","1","","","","","","","",""
"pit-trial","16","185749","0.0-2.0-6.2-0.2","battery-v0.2","","""event"",""trial"",""time""
""fullscreenenter"",""1"",""3800""
","
","
","""event"",""trial"",""time""
""fullscreenenter"",""1"",""3800""
","
","","","-1","","","12","5252","3285","&#9854;","elianto","#FFFFF080","-1","-1","1","&#10004","[]","0","0","1","","","","","","","",""
"pit-trial","17","190615","0.0-2.0-6.3-0.3","battery-v0.2","","""event"",""trial"",""time""
""fullscreenenter"",""1"",""3800""
","
","
","""event"",""trial"",""time""
""fullscreenenter"",""1"",""3800""
","
","","","-1","","","12","5252","3285","&#9854;","elianto","#FFFFF080","-1","-1","1","&#10004","[]","0","0","1","","","","","","","",""
"pit-trial","18","195475","0.0-2.0-6.4-0.4","battery-v0.2","","""event"",""trial"",""time""
""fullscreenenter"",""1"",""3800""
","
","
","""event"",""trial"",""time""
""fullscreenenter"",""1"",""3800""
","
","","","-1","","","12","5252","3285","&#9854;","elianto","#FFFFF080","-1","-1","1","&#10004","[]","0","0","1","","","","","","","",""
"pit-instructions","19","327276","0.0-2.0-7.0","battery-v0.2","","""event"",""trial"",""time""
""fullscreenenter"",""1"",""3800""
","
","
","""event"",""trial"",""time""
""fullscreenenter"",""1"",""3800""
","
","","[{""page_index"":0,""viewing_time"":6852.899999976158},{""page_index"":1,""viewing_time"":8724.5},{""page_index"":2,""viewing_time"":6653.400000095367},{""page_index"":3,""viewing_time"":8029.899999976158},{""page_index"":4,""viewing_time"":5208.100000023842},{""page_index"":5,""viewing_time"":5481.899999976158},{""page_index"":6,""viewing_time"":8224.100000023842},{""page_index"":7,""viewing_time"":7083.899999976158},{""page_index"":8,""viewing_time"":6430.199999928474},{""page_index"":9,""viewing_time"":7716},{""page_index"":10,""viewing_time"":8145.800000071526},{""page_index"":11,""viewing_time"":4764.100000023842},{""page_index"":12,""viewing_time"":10170},{""page_index"":13,""viewing_time"":9934},{""page_index"":14,""viewing_time"":6528.299999952316},{""page_index"":15,""viewing_time"":6043.600000023842},{""page_index"":16,""viewing_time"":9582.699999928474},{""page_index"":17,""viewing_time"":6223.5}]","131797.60000002384","","","","","","","","","","","","","","","","","","","","","","","",""
"pit-trial","20","331797","0.0-2.0-8.0-0.0","battery-v0.2","","""event"",""trial"",""time""
""fullscreenenter"",""1"",""3800""
","
","
","""event"",""trial"",""time""
""fullscreenenter"",""1"",""3800""
","
","","","1652.7000000476837","","","12","5252","3285","&#9776;","elianto","#3366ff99"," "," ","1","+10","[2507.899999976158]","1","0","1","","","","","","","",""
"pit-trial","21","335552","0.0-2.0-8.0-1.0","battery-v0.2","","""event"",""trial"",""time""
""fullscreenenter"",""1"",""3800""
","
","
","""event"",""trial"",""time""
""fullscreenenter"",""1"",""3800""
","
","","","887","","","12","5252","3285","&#9776;","elianto","#3366ff99"," "," ","1","+10","[1741.7000000476837]","1","0","1","","","","","","","",""
"pit-trial","22","339177","0.0-2.0-8.0-2.0","battery-v0.2","","""event"",""trial"",""time""
""fullscreenenter"",""1"",""3800""
","
","
","""event"",""trial"",""time""
""fullscreenenter"",""1"",""3800""
","
","","","762.7999999523163","","","12","5252","3285","&#9776;","elianto","#3366ff99"," "," ","1","+10","[1615.8999999761581]","1","0","1","","","","","","","",""
"pit-trial","23","342580","0.0-2.0-8.0-3.0","battery-v0.2","","""event"",""trial"",""time""
""fullscreenenter"",""1"",""3800""
","
","
","""event"",""trial"",""time""
""fullscreenenter"",""1"",""3800""
","
","","","539","","","12","5252","3285","&#9776;","elianto","#3366ff99"," "," ","1","0","[1397.6000000238419]","1","0","1","","","","","","","",""
"pit-trial","24","345965","0.0-2.0-8.0-4.0","battery-v0.2","","""event"",""trial"",""time""
""fullscreenenter"",""1"",""3800""
","
","
","""event"",""trial"",""time""
""fullscreenenter"",""1"",""3800""
","
","","","509.60000002384186","","","12","5252","3285","&#9776;","elianto","#3366ff99"," "," ","1","+10","[1372]","1","0","1","","","","","","","",""
"pit-trial","25","349271","0.0-2.0-8.1-0.1","battery-v0.2","","""event"",""trial"",""time""
""fullscreenenter"",""1"",""3800""
","
","
","""event"",""trial"",""time""
""fullscreenenter"",""1"",""3800""
","
","","","442.60000002384186","","","12","5252","3285","&#9776;","elianto","#3366ff99"," "," ","1","+10","[1296.5]","1","0","1","","","","","","","",""
"pit-trial","26","352622","0.0-2.0-8.1-1.1","battery-v0.2","","""event"",""trial"",""time""
""fullscreenenter"",""1"",""3800""
","
","
","""event"",""trial"",""time""
""fullscreenenter"",""1"",""3800""
","
","","","484.10000002384186","","","12","5252","3285","&#9776;","elianto","#3366ff99"," "," ","1","+10","[1334.8999999761581]","1","0","1","","","","","","","",""
"pit-trial","27","355900","0.0-2.0-8.1-2.1","battery-v0.2","","""event"",""trial"",""time""
""fullscreenenter"",""1"",""3800""
","
","
","""event"",""trial"",""time""
""fullscreenenter"",""1"",""3800""
","
","","","422","","","12","5252","3285","&#9776;","elianto","#3366ff99"," "," ","1","+10","[1272]","1","0","1","","","","","","","",""
"pit-trial","28","359128","0.0-2.0-8.1-3.1","battery-v0.2","","""event"",""trial"",""time""
""fullscreenenter"",""1"",""3800""
","
","
","""event"",""trial"",""time""
""fullscreenenter"",""1"",""3800""
","
","","","362.7000000476837","","","12","5252","3285","&#9776;","elianto","#3366ff99"," "," ","1","0","[1212.8999999761581]","1","0","1","","","","","","","",""
"pit-trial","29","362221","0.0-2.0-8.1-4.1","battery-v0.2","","""event"",""trial"",""time""
""fullscreenenter"",""1"",""3800""
","
","
","""event"",""trial"",""time""
""fullscreenenter"",""1"",""3800""
","
","","","234.40000009536743","","","12","5252","3285","&#9776;","elianto","#3366ff99"," "," ","1","+10","[1086.4000000953674]","1","0","1","","","","","","","",""
"pit-trial","30","365333","0.0-2.0-8.2-0.2","battery-v0.2","","""event"",""trial"",""time""
""fullscreenenter"",""1"",""3800""
","
","
","""event"",""trial"",""time""
""fullscreenenter"",""1"",""3800""
","
","","","250.60000002384186","","","12","5252","3285","&#9776;","elianto","#3366ff99"," "," ","1","+10","[1105.3000000715256]","1","0","1","","","","","","","",""
"pit-trial","31","368652","0.0-2.0-8.2-1.2","battery-v0.2","","""event"",""trial"",""time""
""fullscreenenter"",""1"",""3800""
","
","
","""event"",""trial"",""time""
""fullscreenenter"",""1"",""3800""
","
","","","461.09999990463257","","","12","5252","3285","&#9776;","elianto","#3366ff99"," "," ","1","+10","[1313.0999999046326]","1","0","1","","","","","","","",""
"pit-trial","32","371756","0.0-2.0-8.2-2.2","battery-v0.2","","""event"",""trial"",""time""
""fullscreenenter"",""1"",""3800""
","
","
","""event"",""trial"",""time""
""fullscreenenter"",""1"",""3800""
","
","","","246.69999992847443","","","12","5252","3285","&#9776;","elianto","#3366ff99"," "," ","1","+10","[1099.6999999284744]","1","0","1","","","","","","","",""
"pit-trial","33","375220","0.0-2.0-8.2-3.2","battery-v0.2","","""event"",""trial"",""time""
""fullscreenenter"",""1"",""3800""
","
","
","""event"",""trial"",""time""
""fullscreenenter"",""1"",""3800""
","
","","","597.2000000476837","","","12","5252","3285","&#9776;","elianto","#3366ff99"," "," ","1","0","[1451.5]","1","0","1","","","","","","","",""
"pit-trial","34","378252","0.0-2.0-8.2-4.2","battery-v0.2","","""event"",""trial"",""time""
""fullscreenenter"",""1"",""3800""
","
","
","""event"",""trial"",""time""
""fullscreenenter"",""1"",""3800""
","
","","","170.10000002384186","","","12","5252","3285","&#9776;","elianto","#3366ff99"," "," ","1","+10","[1024.3999999761581]","1","0","1","","","","","","","",""
"call-function","35","378254","0.0-2.0-9.0","battery-v0.2","","""event"",""trial"",""time""
""fullscreenenter"",""1"",""3800""
","
","
","""event"",""trial"",""time""
""fullscreenenter"",""1"",""3800""
","
","","","","","","","","","","","","","","","","","","","","","","","","","","",""
"pit-instructions","36","419419","0.0-2.0-10.0","battery-v0.2","","""event"",""trial"",""time""
""fullscreenenter"",""1"",""3800""
","
","
","""event"",""trial"",""time""
""fullscreenenter"",""1"",""3800""
","
","","[{""page_index"":0,""viewing_time"":6764.399999976158},{""page_index"":1,""viewing_time"":6739.5},{""page_index"":2,""viewing_time"":9058.400000095367},{""page_index"":3,""viewing_time"":9718.5},{""page_index"":4,""viewing_time"":8883.599999904633}]","41164.89999997616","","","","","","","","","","","","","","","","","","","","","","","",""
"pit-trial","37","423141","0.0-2.0-11.0-0.0","battery-v0.2","","""event"",""trial"",""time""
""fullscreenenter"",""1"",""3800""
","
","
","""event"",""trial"",""time""
""fullscreenenter"",""1"",""3800""
","
","","","856.6999999284744","","","12","5252","3285","&#9761;","elianto","#3366ff99","-1"," ","0","0","[1710.6999999284744]","1","0","2","","","","","","","",""
"pit-trial","38","426306","0.0-2.0-11.0-1.0","battery-v0.2","","""event"",""trial"",""time""
""fullscreenenter"",""1"",""3800""
","
","
","""event"",""trial"",""time""
""fullscreenenter"",""1"",""3800""
","
","","","287.5","","","12","5252","3285","&#9761;","elianto","#3366ff99","-1"," ","0","0","[1146.7999999523163]","1","0","2","","","","","","","",""
"pit-trial","39","430671","0.0-2.0-11.0-2.0","battery-v0.2","","""event"",""trial"",""time""
""fullscreenenter"",""1"",""3800""
","
","
","""event"",""trial"",""time""
""fullscreenenter"",""1"",""3800""
","
","","","1505.2999999523163","","","12","5252","3285","&#9761;","elianto","#3366ff99","-1"," ","0","0","[2355.5]","1","0","2","","","","","","","",""
"pit-trial","40","433947","0.0-2.0-11.0-3.0","battery-v0.2","","""event"",""trial"",""time""
""fullscreenenter"",""1"",""3800""
","
","
","""event"",""trial"",""time""
""fullscreenenter"",""1"",""3800""
","
","","","414.60000002384186","","","12","5252","3285","&#9761;","elianto","#3366ff99","-1"," ","0","+10","[1264.8000000715256]","1","0","2","","","","","","","",""
"pit-trial","41","438821","0.0-2.0-11.0-4.0","battery-v0.2","","""event"",""trial"",""time""
""fullscreenenter"",""1"",""3800""
","
","
","""event"",""trial"",""time""
""fullscreenenter"",""1"",""3800""
","
","","","-1","","","12","5252","3285","&#9761;","elianto","#3366ff99","-1","-1","1","+10","[]","0","0","2","","","","","","","",""
"pit-trial","42","443696","0.0-2.0-11.1-0.1","battery-v0.2","","""event"",""trial"",""time""
""fullscreenenter"",""1"",""3800""
","
","
","""event"",""trial"",""time""
""fullscreenenter"",""1"",""3800""
","
","","","-1","","","12","5252","3285","&#9761;","elianto","#3366ff99","-1","-1","1","+10","[]","0","0","2","","","","","","","",""
"pit-trial","43","447642","0.0-2.0-11.1-1.1","battery-v0.2","","""event"",""trial"",""time""
""fullscreenenter"",""1"",""3800""
","
","
","""event"",""trial"",""time""
""fullscreenenter"",""1"",""3800""
","
","","","1077","","","12","5252","3285","&#9761;","elianto","#3366ff99","-1"," ","0","0","[1927.3000000715256]","1","0","2","","","","","","","",""
"pit-trial","44","452508","0.0-2.0-11.1-2.1","battery-v0.2","","""event"",""trial"",""time""
""fullscreenenter"",""1"",""3800""
","
","
","""event"",""trial"",""time""
""fullscreenenter"",""1"",""3800""
","
","","","-1","","","12","5252","3285","&#9761;","elianto","#3366ff99","-1","-1","1","+10","[]","0","0","2","","","","","","","",""
"pit-trial","45","456093","0.0-2.0-11.1-3.1","battery-v0.2","","""event"",""trial"",""time""
""fullscreenenter"",""1"",""3800""
","
","
","""event"",""trial"",""time""
""fullscreenenter"",""1"",""3800""
","
","","","722.1000000238419","","","12","5252","3285","&#9761;","elianto","#3366ff99","-1"," ","0","+10","[1574.8999999761581]","1","0","2","","","","","","","",""
"pit-trial","46","459564","0.0-2.0-11.1-4.1","battery-v0.2","","""event"",""trial"",""time""
""fullscreenenter"",""1"",""3800""
","
","
","""event"",""trial"",""time""
""fullscreenenter"",""1"",""3800""
","
","","","608.2000000476837","","","12","5252","3285","&#9761;","elianto","#3366ff99","-1"," ","0","0","[1460.2000000476837]","1","0","2","","","","","","","",""
"pit-trial","47","464429","0.0-2.0-11.2-0.2","battery-v0.2","","""event"",""trial"",""time""
""fullscreenenter"",""1"",""3800""
","
","
","""event"",""trial"",""time""
""fullscreenenter"",""1"",""3800""
","
","","","-1","","","12","5252","3285","&#9761;","elianto","#3366ff99","-1","-1","1","+10","[]","0","0","2","","","","","","","",""
"pit-trial","48","468284","0.0-2.0-11.2-1.2","battery-v0.2","","""event"",""trial"",""time""
""fullscreenenter"",""1"",""3800""
","
","
","""event"",""trial"",""time""
""fullscreenenter"",""1"",""3800""
","
","","","997.3999999761581","","","12","5252","3285","&#9761;","elianto","#3366ff99","-1"," ","0","0","[1850.1000000238419]","1","0","2","","","","","","","",""
"pit-trial","49","473147","0.0-2.0-11.2-2.2","battery-v0.2","","""event"",""trial"",""time""
""fullscreenenter"",""1"",""3800""
","
","
","""event"",""trial"",""time""
""fullscreenenter"",""1"",""3800""
","
","","","-1","","","12","5252","3285","&#9761;","elianto","#3366ff99","-1","-1","1","+10","[]","0","0","2","","","","","","","",""
"pit-trial","50","478011","0.0-2.0-11.2-3.2","battery-v0.2","","""event"",""trial"",""time""
""fullscreenenter"",""1"",""3800""
","
","
","""event"",""trial"",""time""
""fullscreenenter"",""1"",""3800""
","
","","","-1","","","12","5252","3285","&#9761;","elianto","#3366ff99","-1","-1","1","0","[]","0","0","2","","","","","","","",""
"pit-trial","51","482876","0.0-2.0-11.2-4.2","battery-v0.2","","""event"",""trial"",""time""
""fullscreenenter"",""1"",""3800""
","
","
","""event"",""trial"",""time""
""fullscreenenter"",""1"",""3800""
","
","","","-1","","","12","5252","3285","&#9761;","elianto","#3366ff99","-1","-1","1","+10","[]","0","0","2","","","","","","","",""
"pit-trial","52","487741","0.0-2.0-11.3-0.3","battery-v0.2","","""event"",""trial"",""time""
""fullscreenenter"",""1"",""3800""
","
","
","""event"",""trial"",""time""
""fullscreenenter"",""1"",""3800""
","
","","","-1","","","12","5252","3285","&#9761;","elianto","#3366ff99","-1","-1","1","+10","[]","0","0","2","","","","","","","",""
"pit-trial","53","492604","0.0-2.0-11.3-1.3","battery-v0.2","","""event"",""trial"",""time""
""fullscreenenter"",""1"",""3800""
","
","
","""event"",""trial"",""time""
""fullscreenenter"",""1"",""3800""
","
","","","-1","","","12","5252","3285","&#9761;","elianto","#3366ff99","-1","-1","1","+10","[]","0","0","2","","","","","","","",""
"pit-trial","54","497469","0.0-2.0-11.3-2.3","battery-v0.2","","""event"",""trial"",""time""
""fullscreenenter"",""1"",""3800""
","
","
","""event"",""trial"",""time""
""fullscreenenter"",""1"",""3800""
","
","","","-1","","","12","5252","3285","&#9761;","elianto","#3366ff99","-1","-1","1","+10","[]","0","0","2","","","","","","","",""
"pit-trial","55","502333","0.0-2.0-11.3-3.3","battery-v0.2","","""event"",""trial"",""time""
""fullscreenenter"",""1"",""3800""
","
","
","""event"",""trial"",""time""
""fullscreenenter"",""1"",""3800""
","
","","","-1","","","12","5252","3285","&#9761;","elianto","#3366ff99","-1","-1","1","0","[]","0","0","2","","","","","","","",""
"pit-trial","56","507196","0.0-2.0-11.3-4.3","battery-v0.2","","""event"",""trial"",""time""
""fullscreenenter"",""1"",""3800""
","
","
","""event"",""trial"",""time""
""fullscreenenter"",""1"",""3800""
","
","","","-1","","","12","5252","3285","&#9761;","elianto","#3366ff99","-1","-1","1","+10","[]","0","0","2","","","","","","","",""
"call-function","57","507198","0.0-2.0-12.0","battery-v0.2","","""event"",""trial"",""time""
""fullscreenenter"",""1"",""3800""
","
","
","""event"",""trial"",""time""
""fullscreenenter"",""1"",""3800""
","
","","","","","","","","","","","","","","","","","","","","","","","","","","",""
"pit-instructions","58","557608","0.0-2.0-13.0","battery-v0.2","","""event"",""trial"",""time""
""fullscreenenter"",""1"",""3800""
","
","
","""event"",""trial"",""time""
""fullscreenenter"",""1"",""3800""
","
","","[{""page_index"":0,""viewing_time"":8398.700000047684},{""page_index"":1,""viewing_time"":8204.199999928474},{""page_index"":2,""viewing_time"":8935.899999976158},{""page_index"":3,""viewing_time"":15228},{""page_index"":4,""viewing_time"":9642.100000023842}]","50409.60000002384","","","","","","","","","","","","","","","","","","","","","","","",""
"pit-trial","59","561148","0.0-2.0-14.0-0.0","battery-v0.2","","""event"",""trial"",""time""
""fullscreenenter"",""1"",""3800""
","
","
","""event"",""trial"",""time""
""fullscreenenter"",""1"",""3800""
","
","","","675.2999999523163","","","12","5252","3285","&#9826;","elianto","#f73b6a7A","-1"," ","0","-10","[1536.2000000476837]","1","0","3","","","","","","","",""
"pit-trial","60","564476","0.0-2.0-14.0-1.0","battery-v0.2","","""event"",""trial"",""time""
""fullscreenenter"",""1"",""3800""
","
","
","""event"",""trial"",""time""
""fullscreenenter"",""1"",""3800""
","
","","","464.5","","","12","5252","3285","&#9826;","elianto","#f73b6a7A","-1"," ","0","-10","[1319.7999999523163]","1","0","3","","","","","","","",""
"pit-trial","61","569340","0.0-2.0-14.0-2.0","battery-v0.2","","""event"",""trial"",""time""
""fullscreenenter"",""1"",""3800""
","
","
","""event"",""trial"",""time""
""fullscreenenter"",""1"",""3800""
","
","","","-1","","","12","5252","3285","&#9826;","elianto","#f73b6a7A","-1","-1","1","0","[]","0","0","3","","","","","","","",""
"pit-trial","62","574219","0.0-2.0-14.0-3.0","battery-v0.2","","""event"",""trial"",""time""
""fullscreenenter"",""1"",""3800""
","
","
","""event"",""trial"",""time""
""fullscreenenter"",""1"",""3800""
","
","","","-1","","","12","5252","3285","&#9826;","elianto","#f73b6a7A","-1","-1","1","-10","[]","0","0","3","","","","","","","",""
"pit-trial","63","579089","0.0-2.0-14.0-4.0","battery-v0.2","","""event"",""trial"",""time""
""fullscreenenter"",""1"",""3800""
","
","
","""event"",""trial"",""time""
""fullscreenenter"",""1"",""3800""
","
","","","-1","","","12","5252","3285","&#9826;","elianto","#f73b6a7A","-1","-1","1","0","[]","0","0","3","","","","","","","",""
"pit-trial","64","583956","0.0-2.0-14.1-0.1","battery-v0.2","","""event"",""trial"",""time""
""fullscreenenter"",""1"",""3800""
","
","
","""event"",""trial"",""time""
""fullscreenenter"",""1"",""3800""
","
","","","-1","","","12","5252","3285","&#9826;","elianto","#f73b6a7A","-1","-1","1","0","[]","0","0","3","","","","","","","",""
"pit-trial","65","588827","0.0-2.0-14.1-1.1","battery-v0.2","","""event"",""trial"",""time""
""fullscreenenter"",""1"",""3800""
","
","
","""event"",""trial"",""time""
""fullscreenenter"",""1"",""3800""
","
","","","-1","","","12","5252","3285","&#9826;","elianto","#f73b6a7A","-1","-1","1","0","[]","0","0","3","","","","","","","",""
"pit-trial","66","593693","0.0-2.0-14.1-2.1","battery-v0.2","","""event"",""trial"",""time""
""fullscreenenter"",""1"",""3800""
","
","
","""event"",""trial"",""time""
""fullscreenenter"",""1"",""3800""
","
","","","-1","","","12","5252","3285","&#9826;","elianto","#f73b6a7A","-1","-1","1","0","[]","0","0","3","","","","","","","",""
"pit-trial","67","598557","0.0-2.0-14.1-3.1","battery-v0.2","","""event"",""trial"",""time""
""fullscreenenter"",""1"",""3800""
","
","
","""event"",""trial"",""time""
""fullscreenenter"",""1"",""3800""
","
","","","-1","","","12","5252","3285","&#9826;","elianto","#f73b6a7A","-1","-1","1","-10","[]","0","0","3","","","","","","","",""
"pit-trial","68","603420","0.0-2.0-14.1-4.1","battery-v0.2","","""event"",""trial"",""time""
""fullscreenenter"",""1"",""3800""
","
","
","""event"",""trial"",""time""
""fullscreenenter"",""1"",""3800""
","
","","","-1","","","12","5252","3285","&#9826;","elianto","#f73b6a7A","-1","-1","1","0","[]","0","0","3","","","","","","","",""
"pit-trial","69","608285","0.0-2.0-14.2-0.2","battery-v0.2","","""event"",""trial"",""time""
""fullscreenenter"",""1"",""3800""
","
","
","""event"",""trial"",""time""
""fullscreenenter"",""1"",""3800""
","
","","","-1","","","12","5252","3285","&#9826;","elianto","#f73b6a7A","-1","-1","1","0","[]","0","0","3","","","","","","","",""
"pit-trial","70","613150","0.0-2.0-14.2-1.2","battery-v0.2","","""event"",""trial"",""time""
""fullscreenenter"",""1"",""3800""
","
","
","""event"",""trial"",""time""
""fullscreenenter"",""1"",""3800""
","
","","","-1","","","12","5252","3285","&#9826;","elianto","#f73b6a7A","-1","-1","1","0","[]","0","0","3","","","","","","","",""
"pit-trial","71","618012","0.0-2.0-14.2-2.2","battery-v0.2","","""event"",""trial"",""time""
""fullscreenenter"",""1"",""3800""
","
","
","""event"",""trial"",""time""
""fullscreenenter"",""1"",""3800""
","
","","","-1","","","12","5252","3285","&#9826;","elianto","#f73b6a7A","-1","-1","1","0","[]","0","0","3","","","","","","","",""
"pit-trial","72","622876","0.0-2.0-14.2-3.2","battery-v0.2","","""event"",""trial"",""time""
""fullscreenenter"",""1"",""3800""
","
","
","""event"",""trial"",""time""
""fullscreenenter"",""1"",""3800""
","
","","","-1","","","12","5252","3285","&#9826;","elianto","#f73b6a7A","-1","-1","1","-10","[]","0","0","3","","","","","","","",""
"pit-trial","73","627740","0.0-2.0-14.2-4.2","battery-v0.2","","""event"",""trial"",""time""
""fullscreenenter"",""1"",""3800""
","
","
","""event"",""trial"",""time""
""fullscreenenter"",""1"",""3800""
","
","","","-1","","","12","5252","3285","&#9826;","elianto","#f73b6a7A","-1","-1","1","0","[]","0","0","3","","","","","","","",""
"pit-trial","74","632604","0.0-2.0-14.3-0.3","battery-v0.2","","""event"",""trial"",""time""
""fullscreenenter"",""1"",""3800""
","
","
","""event"",""trial"",""time""
""fullscreenenter"",""1"",""3800""
","
","","","-1","","","12","5252","3285","&#9826;","elianto","#f73b6a7A","-1","-1","1","0","[]","0","0","3","","","","","","","",""
"pit-trial","75","637469","0.0-2.0-14.3-1.3","battery-v0.2","","""event"",""trial"",""time""
""fullscreenenter"",""1"",""3800""
","
","
","""event"",""trial"",""time""
""fullscreenenter"",""1"",""3800""
","
","","","-1","","","12","5252","3285","&#9826;","elianto","#f73b6a7A","-1","-1","1","0","[]","0","0","3","","","","","","","",""
"pit-trial","76","642333","0.0-2.0-14.3-2.3","battery-v0.2","","""event"",""trial"",""time""
""fullscreenenter"",""1"",""3800""
","
","
","""event"",""trial"",""time""
""fullscreenenter"",""1"",""3800""
","
","","","-1","","","12","5252","3285","&#9826;","elianto","#f73b6a7A","-1","-1","1","0","[]","0","0","3","","","","","","","",""
"pit-trial","77","647189","0.0-2.0-14.3-3.3","battery-v0.2","","""event"",""trial"",""time""
""fullscreenenter"",""1"",""3800""
","
","
","""event"",""trial"",""time""
""fullscreenenter"",""1"",""3800""
","
","","","-1","","","12","5252","3285","&#9826;","elianto","#f73b6a7A","-1","-1","1","-10","[]","0","0","3","","","","","","","",""
"pit-trial","78","652052","0.0-2.0-14.3-4.3","battery-v0.2","","""event"",""trial"",""time""
""fullscreenenter"",""1"",""3800""
","
","
","""event"",""trial"",""time""
""fullscreenenter"",""1"",""3800""
","
","","","-1","","","12","5252","3285","&#9826;","elianto","#f73b6a7A","-1","-1","1","0","[]","0","0","3","","","","","","","",""
"call-function","79","652054","0.0-2.0-15.0","battery-v0.2","","""event"",""trial"",""time""
""fullscreenenter"",""1"",""3800""
","
","
","""event"",""trial"",""time""
""fullscreenenter"",""1"",""3800""
","
","","","","","","","","","","","","","","","","","","","","","","","","","","",""
"pit-instructions","80","688800","0.0-2.0-16.0","battery-v0.2","","""event"",""trial"",""time""
""fullscreenenter"",""1"",""3800""
","
","
","""event"",""trial"",""time""
""fullscreenenter"",""1"",""3800""
","
","","[{""page_index"":0,""viewing_time"":13103.299999952316},{""page_index"":1,""viewing_time"":12451.700000047684},{""page_index"":2,""viewing_time"":5798.099999904633},{""page_index"":3,""viewing_time"":5392}]","36745.5","","","","","","","","","","","","","","","","","","","","","","","",""
"pit-trial","81","692661","0.0-2.0-17.0-0.0","battery-v0.2","","""event"",""trial"",""time""
""fullscreenenter"",""1"",""3800""
","
","
","""event"",""trial"",""time""
""fullscreenenter"",""1"",""3800""
","
","","","988.2999999523163","","","12","5252","3285","&#9789;","elianto","#f73b6a7A"," "," ","1","0","[1845.6000000238419]","1","0","4","","","","","","","",""
"pit-trial","82","696270","0.0-2.0-17.0-1.0","battery-v0.2","","""event"",""trial"",""time""
""fullscreenenter"",""1"",""3800""
","
","
","""event"",""trial"",""time""
""fullscreenenter"",""1"",""3800""
","
","","","748","","","12","5252","3285","&#9789;","elianto","#f73b6a7A"," "," ","1","0","[1601.7000000476837]","1","0","4","","","","","","","",""
"pit-trial","83","699544","0.0-2.0-17.0-2.0","battery-v0.2","","""event"",""trial"",""time""
""fullscreenenter"",""1"",""3800""
","
","
","""event"",""trial"",""time""
""fullscreenenter"",""1"",""3800""
","
","","","408","","","12","5252","3285","&#9789;","elianto","#f73b6a7A"," "," ","1","0","[1260.3999999761581]","1","0","4","","","","","","","",""
"pit-trial","84","702739","0.0-2.0-17.0-3.0","battery-v0.2","","""event"",""trial"",""time""
""fullscreenenter"",""1"",""3800""
","
","
","""event"",""trial"",""time""
""fullscreenenter"",""1"",""3800""
","
","","","328.89999997615814","","","12","5252","3285","&#9789;","elianto","#f73b6a7A"," "," ","1","-10","[1180.6000000238419]","1","0","4","","","","","","","",""
"pit-trial","85","705877","0.0-2.0-17.0-4.0","battery-v0.2","","""event"",""trial"",""time""
""fullscreenenter"",""1"",""3800""
","
","
","""event"",""trial"",""time""
""fullscreenenter"",""1"",""3800""
","
","","","274.89999997615814","","","12","5252","3285","&#9789;","elianto","#f73b6a7A"," "," ","1","0","[1127.1999999284744]","1","0","4","","","","","","","",""
"pit-trial","86","709101","0.0-2.0-17.1-0.1","battery-v0.2","","""event"",""trial"",""time""
""fullscreenenter"",""1"",""3800""
","
","
","""event"",""trial"",""time""
""fullscreenenter"",""1"",""3800""
","
","","","365.10000002384186","","","12","5252","3285","&#9789;","elianto","#f73b6a7A"," "," ","1","0","[1216.3999999761581]","1","0","4","","","","","","","",""
"pit-trial","87","712352","0.0-2.0-17.1-1.1","battery-v0.2","","""event"",""trial"",""time""
""fullscreenenter"",""1"",""3800""
","
","
","""event"",""trial"",""time""
""fullscreenenter"",""1"",""3800""
","
","","","385.5","","","12","5252","3285","&#9789;","elianto","#f73b6a7A"," "," ","1","0","[1238]","1","0","4","","","","","","","",""
"pit-trial","88","715548","0.0-2.0-17.1-2.1","battery-v0.2","","""event"",""trial"",""time""
""fullscreenenter"",""1"",""3800""
","
","
","""event"",""trial"",""time""
""fullscreenenter"",""1"",""3800""
","
","","","325.89999997615814","","","12","5252","3285","&#9789;","elianto","#f73b6a7A"," "," ","1","0","[1184.2999999523163]","1","0","4","","","","","","","",""
"pit-trial","89","718710","0.0-2.0-17.1-3.1","battery-v0.2","","""event"",""trial"",""time""
""fullscreenenter"",""1"",""3800""
","
","
","""event"",""trial"",""time""
""fullscreenenter"",""1"",""3800""
","
","","","298.7000000476837","","","12","5252","3285","&#9789;","elianto","#f73b6a7A"," "," ","1","-10","[1150.7000000476837]","1","0","4","","","","","","","",""
"pit-trial","90","723572","0.0-2.0-17.1-4.1","battery-v0.2","","""event"",""trial"",""time""
""fullscreenenter"",""1"",""3800""
","
","
","""event"",""trial"",""time""
""fullscreenenter"",""1"",""3800""
","
","","","-1","","","12","5252","3285","&#9789;","elianto","#f73b6a7A"," ","-1","0","-10","[]","0","0","4","","","","","","","",""
"pit-trial","91","726950","0.0-2.0-17.2-0.2","battery-v0.2","","""event"",""trial"",""time""
""fullscreenenter"",""1"",""3800""
","
","
","""event"",""trial"",""time""
""fullscreenenter"",""1"",""3800""
","
","","","518.5","","","12","5252","3285","&#9789;","elianto","#f73b6a7A"," "," ","1","0","[1371.7000000476837]","1","0","4","","","","","","","",""
"pit-trial","92","730270","0.0-2.0-17.2-1.2","battery-v0.2","","""event"",""trial"",""time""
""fullscreenenter"",""1"",""3800""
","
","
","""event"",""trial"",""time""
""fullscreenenter"",""1"",""3800""
","
","","","456.3000000715256","","","12","5252","3285","&#9789;","elianto","#f73b6a7A"," "," ","1","0","[1308.8000000715256]","1","0","4","","","","","","","",""
"pit-trial","93","733789","0.0-2.0-17.2-2.2","battery-v0.2","","""event"",""trial"",""time""
""fullscreenenter"",""1"",""3800""
","
","
","""event"",""trial"",""time""
""fullscreenenter"",""1"",""3800""
","
","","","658.3999999761581","","","12","5252","3285","&#9789;","elianto","#f73b6a7A"," "," ","1","0","[1510.2000000476837]","1","0","4","","","","","","","",""
"pit-trial","94","737116","0.0-2.0-17.2-3.2","battery-v0.2","","""event"",""trial"",""time""
""fullscreenenter"",""1"",""3800""
","
","
","""event"",""trial"",""time""
""fullscreenenter"",""1"",""3800""
","
","","","464.1999999284744","","","12","5252","3285","&#9789;","elianto","#f73b6a7A"," "," ","1","-10","[1316.9000000953674]","1","0","4","","","","","","","",""
"pit-trial","95","740412","0.0-2.0-17.2-4.2","battery-v0.2","","""event"",""trial"",""time""
""fullscreenenter"",""1"",""3800""
","
","
","""event"",""trial"",""time""
""fullscreenenter"",""1"",""3800""
","
","","","433.7999999523163","","","12","5252","3285","&#9789;","elianto","#f73b6a7A"," "," ","1","0","[1287.6999999284744]","1","0","4","","","","","","","",""
"pit-trial","96","743828","0.0-2.0-17.3-0.3","battery-v0.2","","""event"",""trial"",""time""
""fullscreenenter"",""1"",""3800""
","
","
","""event"",""trial"",""time""
""fullscreenenter"",""1"",""3800""
","
","","","554.2000000476837","","","12","5252","3285","&#9789;","elianto","#f73b6a7A"," "," ","1","0","[1406.8999999761581]","1","0","4","","","","","","","",""
"pit-trial","97","747093","0.0-2.0-17.3-1.3","battery-v0.2","","""event"",""trial"",""time""
""fullscreenenter"",""1"",""3800""
","
","
","""event"",""trial"",""time""
""fullscreenenter"",""1"",""3800""
","
","","","401","","","12","5252","3285","&#9789;","elianto","#f73b6a7A"," "," ","1","0","[1255.3000000715256]","1","0","4","","","","","","","",""
"pit-trial","98","750411","0.0-2.0-17.3-2.3","battery-v0.2","","""event"",""trial"",""time""
""fullscreenenter"",""1"",""3800""
","
","
","""event"",""trial"",""time""
""fullscreenenter"",""1"",""3800""
","
","","","460","","","12","5252","3285","&#9789;","elianto","#f73b6a7A"," "," ","1","0","[417.7999999523163,1313.3999999761581]","2","0","4","","","","","","","",""
"pit-trial","99","754060","0.0-2.0-17.3-3.3","battery-v0.2","","""event"",""trial"",""time""
""fullscreenenter"",""1"",""3800""
","
","
","""event"",""trial"",""time""
""fullscreenenter"",""1"",""3800""
","
","","","787.1999999284744","","","12","5252","3285","&#9789;","elianto","#f73b6a7A"," "," ","1","-10","[502.7999999523163,1642.7999999523163]","2","0","4","","","","","","","",""
"pit-trial","100","757435","0.0-2.0-17.3-4.3","battery-v0.2","","""event"",""trial"",""time""
""fullscreenenter"",""1"",""3800""
","
","
","""event"",""trial"",""time""
""fullscreenenter"",""1"",""3800""
","
","","","511.5","","","12","5252","3285","&#9789;","elianto","#f73b6a7A"," "," ","1","0","[496.89999997615814,1365.6000000238419]","2","0","4","","","","","","","",""
"call-function","101","757437","0.0-2.0-18.0","battery-v0.2","","""event"",""trial"",""time""
""fullscreenenter"",""1"",""3800""
","
","
","""event"",""trial"",""time""
""fullscreenenter"",""1"",""3800""
","
","","","","","","","","","","","","","","","","","","","","","","","","","","",""
"pit-instructions","102","833252","0.0-2.0-19.0","battery-v0.2","","""event"",""trial"",""time""
""fullscreenenter"",""1"",""3800""
","
","
","""event"",""trial"",""time""
""fullscreenenter"",""1"",""3800""
","
","","[{""page_index"":0,""viewing_time"":6469.799999952316},{""page_index"":1,""viewing_time"":6546.299999952316},{""page_index"":2,""viewing_time"":14311.400000095367},{""page_index"":3,""viewing_time"":10628},{""page_index"":4,""viewing_time"":9814.199999928474},{""page_index"":5,""viewing_time"":11697.700000047684},{""page_index"":6,""viewing_time"":6648.100000023842},{""page_index"":7,""viewing_time"":5770},{""page_index"":8,""viewing_time"":3928.1999999284744}]","75814.39999997616","","","","","","","","","","","","","","","","","","","","","","","",""
"pit-comprehension","103","840189","0.0-2.0-20.0-0.0","battery-v0.2","","""event"",""trial"",""time""
""fullscreenenter"",""1"",""3800""
","
","
","""event"",""trial"",""time""
""fullscreenenter"",""1"",""3800""
","
","","","6931","[""SPACE""]","0","12","5252","3285","","","","","","","","","","","","","","","","","","",""
"pit-instructions","104","843330","0.0-2.0-20.0-1.0","battery-v0.2","","""event"",""trial"",""time""
""fullscreenenter"",""1"",""3800""
","
","
","""event"",""trial"",""time""
""fullscreenenter"",""1"",""3800""
","
","","[{""page_index"":0,""viewing_time"":3048.5}]","3048.7000000476837","","","","","","","","","","","","","","","","","","","","","","","",""
"pit-comprehension","105","851084","0.0-2.0-21.0-0.0","battery-v0.2","","""event"",""trial"",""time""
""fullscreenenter"",""1"",""3800""
","
","
","""event"",""trial"",""time""
""fullscreenenter"",""1"",""3800""
","
","","","7750.800000071526","[""10""]","0","12","5252","3285","","","","","","","","","","","","","","","","","","",""
"pit-instructions","106","856659","0.0-2.0-21.0-1.0","battery-v0.2","","""event"",""trial"",""time""
""fullscreenenter"",""1"",""3800""
","
","
","""event"",""trial"",""time""
""fullscreenenter"",""1"",""3800""
","
","","[{""page_index"":0,""viewing_time"":5504.600000023842}]","5505","","","","","","","","","","","","","","","","","","","","","","","",""
"pit-comprehension","107","874206","0.0-2.0-22.0-0.0","battery-v0.2","","""event"",""trial"",""time""
""fullscreenenter"",""1"",""3800""
","
","
","""event"",""trial"",""time""
""fullscreenenter"",""1"",""3800""
","
","","","17542.699999928474","[""0""]","0","12","5252","3285","","","","","","","","","","","","","","","","","","",""
"pit-instructions","108","877745","0.0-2.0-22.0-1.0","battery-v0.2","","""event"",""trial"",""time""
""fullscreenenter"",""1"",""3800""
","
","
","""event"",""trial"",""time""
""fullscreenenter"",""1"",""3800""
","
","","[{""page_index"":0,""viewing_time"":3463.5}]","3464","","","","","","","","","","","","","","","","","","","","","","","",""
"pit-comprehension","109","901178","0.0-2.0-23.0-0.0","battery-v0.2","","""event"",""trial"",""time""
""fullscreenenter"",""1"",""3800""
","
","
","""event"",""trial"",""time""
""fullscreenenter"",""1"",""3800""
","
","","","23428.900000095367","[""True""]","0","12","5252","3285","","","","","","","","","","","","","","","","","","",""
"pit-instructions","110","904839","0.0-2.0-23.0-1.0","battery-v0.2","","""event"",""trial"",""time""
""fullscreenenter"",""1"",""3800""
","
","
","""event"",""trial"",""time""
""fullscreenenter"",""1"",""3800""
","
","","[{""page_index"":0,""viewing_time"":3587.5}]","3587.9000000953674","","","","","","","","","","","","","","","","","","","","","","","",""
"pit-comprehension","111","926954","0.0-2.0-24.0-0.0","battery-v0.2","","""event"",""trial"",""time""
""fullscreenenter"",""1"",""3800""
","
","
","""event"",""trial"",""time""
""fullscreenenter"",""1"",""3800""
","
","","","22109.600000023842","[""True""]","0","12","5252","3285","","","","","","","","","","","","","","","","","","",""
"pit-instructions","112","928780","0.0-2.0-24.0-1.0","battery-v0.2","","""event"",""trial"",""time""
""fullscreenenter"",""1"",""3800""
","
","
","""event"",""trial"",""time""
""fullscreenenter"",""1"",""3800""
","
","","[{""page_index"":0,""viewing_time"":1753.7999999523163}]","1754.5","","","","","","","","","","","","","","","","","","","","","","","",""
"pit-comprehension","113","937230","0.0-2.0-25.0-0.0","battery-v0.2","","""event"",""trial"",""time""
""fullscreenenter"",""1"",""3800""
","
","
","""event"",""trial"",""time""
""fullscreenenter"",""1"",""3800""
","
","","","8445","[""True""]","0","12","5252","3285","","","","","","","","","","","","","","","","","","",""
"pit-instructions","114","939130","0.0-2.0-25.0-1.0","battery-v0.2","","""event"",""trial"",""time""
""fullscreenenter"",""1"",""3800""
","
","
","""event"",""trial"",""time""
""fullscreenenter"",""1"",""3800""
","
","","[{""page_index"":0,""viewing_time"":1830.2999999523163}]","1830.6999999284744","","","","","","","","","","","","","","","","","","","","","","","",""
"pit-comprehension","115","945710","0.0-2.0-26.0-0.0","battery-v0.2","","""event"",""trial"",""time""
""fullscreenenter"",""1"",""3800""
","
","
","""event"",""trial"",""time""
""fullscreenenter"",""1"",""3800""
","
","","","6577.200000047684","[""False""]","0","12","5252","3285","","","","","","","","","","","","","","","","","","",""
"pit-instructions","116","947950","0.0-2.0-26.0-1.0","battery-v0.2","","""event"",""trial"",""time""
""fullscreenenter"",""1"",""3800""
","
","
","""event"",""trial"",""time""
""fullscreenenter"",""1"",""3800""
","
","","[{""page_index"":0,""viewing_time"":2166.6999999284744}]","2167.0999999046326","","","","","","","","","","","","","","","","","","","","","","","",""
"pit-instructions","117","967006","0.0-3.0","battery-v0.2","","""event"",""trial"",""time""
""fullscreenenter"",""1"",""3800""
","
","
","""event"",""trial"",""time""
""fullscreenenter"",""1"",""3800""
","
","","[{""page_index"":0,""viewing_time"":4195.699999928474},{""page_index"":1,""viewing_time"":6343.899999976158},{""page_index"":2,""viewing_time"":8514}]","19054.099999904633","","","","","","","","","","","","","","","","","","","","","","","",""
"pit-trial","118","970811","0.0-4.0","battery-v0.2","","""event"",""trial"",""time""
""fullscreenenter"",""1"",""3800""
","
","
","""event"",""trial"",""time""
""fullscreenenter"",""1"",""3800""
","
","","","924.7000000476837","","","12","5252","3285","&#9728;","elianto","#f73b6a7A","-1"," ","0","-10","[1790.3000000715256]","1","1","","","5252","1","0","4","lose","no-go","0"
"pit-trial","119","974513","0.0-5.0","battery-v0.2","","""event"",""trial"",""time""
""fullscreenenter"",""1"",""3800""
","
","
","""event"",""trial"",""time""
""fullscreenenter"",""1"",""3800""
","
","","","831.1000000238419","","","12","5252","3285","&#9733;","elianto","#3366ff99","-1"," ","0","0","[1686.7999999523163]","1","1","","","5252","2","2","2","win","no-go","0"
"pit-trial","120","978463","0.0-6.0","battery-v0.2","","""event"",""trial"",""time""
""fullscreenenter"",""1"",""3800""
","
","
","""event"",""trial"",""time""
""fullscreenenter"",""1"",""3800""
","
","","","1077.3000000715256","","","12","5252","3285","&#9752;","elianto","#f73b6a7A"," "," ","1","0","[1935.7000000476837]","1","1","","","5252","3","3","3","lose","go","0"
"pit-trial","121","982272","0.0-7.0","battery-v0.2","","""event"",""trial"",""time""
""fullscreenenter"",""1"",""3800""
","
","
","""event"",""trial"",""time""
""fullscreenenter"",""1"",""3800""
","
","","","929.2999999523163","","","12","5252","3285","&#9730;","elianto","#3366ff99"," "," ","1","0","[1787.7000000476837]","1","1","","","5252","4","1","1","win","go","1"
"pit-trial","122","986183","0.0-8.0","battery-v0.2","","""event"",""trial"",""time""
""fullscreenenter"",""1"",""3800""
","
","
","""event"",""trial"",""time""
""fullscreenenter"",""1"",""3800""
","
","","","1043.5","","","12","5252","3285","&#9728;","elianto","#f73b6a7A","-1"," ","0","-10","[1898]","1","1","","","5252","5","0","4","lose","no-go","0"
"pit-trial","123","989891","0.0-9.0","battery-v0.2","","""event"",""trial"",""time""
""fullscreenenter"",""1"",""3800""
","
","
","""event"",""trial"",""time""
""fullscreenenter"",""1"",""3800""
","
","","","830.3000000715256","","","12","5252","3285","&#9733;","elianto","#3366ff99","-1"," ","0","0","[1684.7000000476837]","1","1","","","5252","6","2","2","win","no-go","0"
"pit-trial","124","993676","0.0-10.0","battery-v0.2","","""event"",""trial"",""time""
""fullscreenenter"",""1"",""3800""
","
","
","""event"",""trial"",""time""
""fullscreenenter"",""1"",""3800""
","
","","","927.2000000476837","","","12","5252","3285","&#9752;","elianto","#f73b6a7A"," "," ","1","0","[1778.6000000238419]","1","1","","","5252","7","3","3","lose","go","0"
"pit-trial","125","997388","0.0-11.0","battery-v0.2","","""event"",""trial"",""time""
""fullscreenenter"",""1"",""3800""
","
","
","""event"",""trial"",""time""
""fullscreenenter"",""1"",""3800""
","
","","","847.3999999761581","","","12","5252","3285","&#9730;","elianto","#3366ff99"," "," ","1","0","[1701.5]","1","1","","","5252","8","1","1","win","go","1"
"pit-trial","126","1002251","0.0-12.0","battery-v0.2","","""event"",""trial"",""time""
""fullscreenenter"",""1"",""3800""
","
","
","""event"",""trial"",""time""
""fullscreenenter"",""1"",""3800""
","
","","","-1","","","12","5252","3285","&#9752;","elianto","#f73b6a7A"," ","-1","0","-10","[]","0","1","","","5252","9","3","3","lose","go","0"
"pit-trial","127","1005971","0.0-13.0","battery-v0.2","","""event"",""trial"",""time""
""fullscreenenter"",""1"",""3800""
","
","
","""event"",""trial"",""time""
""fullscreenenter"",""1"",""3800""
","
","","","858.5","","","12","5252","3285","&#9733;","elianto","#3366ff99","-1"," ","0","0","[1710.6999999284744]","1","1","","","5252","10","2","2","win","no-go","0"
"pit-trial","128","1010835","0.0-14.0","battery-v0.2","","""event"",""trial"",""time""
""fullscreenenter"",""1"",""3800""
","
","
","""event"",""trial"",""time""
""fullscreenenter"",""1"",""3800""
","
","","","-1","","","12","5252","3285","&#9728;","elianto","#f73b6a7A","-1","-1","1","-10","[]","0","1","","","5252","11","0","4","lose","no-go","1"
"pit-trial","129","1014443","0.0-15.0","battery-v0.2","","""event"",""trial"",""time""
""fullscreenenter"",""1"",""3800""
","
","
","""event"",""trial"",""time""
""fullscreenenter"",""1"",""3800""
","
","","","746.1000000238419","","","12","5252","3285","&#9730;","elianto","#3366ff99"," "," ","1","+10","[1600.1000000238419]","1","1","","","5252","12","1","1","win","go","0"
"pit-trial","130","1019308","0.0-16.0","battery-v0.2","","""event"",""trial"",""time""
""fullscreenenter"",""1"",""3800""
","
","
","""event"",""trial"",""time""
""fullscreenenter"",""1"",""3800""
","
","","","-1","","","12","5252","3285","&#9752;","elianto","#f73b6a7A"," ","-1","0","-10","[]","0","1","","","5252","13","3","3","lose","go","0"
"pit-trial","131","1024084","0.0-17.0","battery-v0.2","","""event"",""trial"",""time""
""fullscreenenter"",""1"",""3800""
","
","
","""event"",""trial"",""time""
""fullscreenenter"",""1"",""3800""
","
","","","1918.2999999523163","","","12","5252","3285","&#9728;","elianto","#f73b6a7A","-1"," ","0","0","[2771.7000000476837,4103.300000071526]","2","1","","","5252","14","0","4","lose","no-go","1"
"pit-trial","132","1027660","0.0-18.0","battery-v0.2","","""event"",""trial"",""time""
""fullscreenenter"",""1"",""3800""
","
","
","""event"",""trial"",""time""
""fullscreenenter"",""1"",""3800""
","
","","","714.2000000476837","","","12","5252","3285","&#9730;","elianto","#3366ff99"," "," ","1","+10","[1568.5]","1","1","","","5252","15","1","1","win","go","0"
"pit-trial","133","1031444","0.0-19.0","battery-v0.2","","""event"",""trial"",""time""
""fullscreenenter"",""1"",""3800""
","
","
","""event"",""trial"",""time""
""fullscreenenter"",""1"",""3800""
","
","","","925.7000000476837","","","12","5252","3285","&#9733;","elianto","#3366ff99","-1"," ","0","0","[1779.9000000953674]","1","1","","","5252","16","2","2","win","no-go","0"
"pit-trial","134","1036212","0.0-20.0","battery-v0.2","","""event"",""trial"",""time""
""fullscreenenter"",""1"",""3800""
","
","
","""event"",""trial"",""time""
""fullscreenenter"",""1"",""3800""
","
","","","1903.8999999761581","","","12","5252","3285","&#9752;","elianto","#f73b6a7A"," "," ","1","0","[2758.2000000476837]","1","1","","","5252","17","3","3","lose","go","0"
"pit-trial","135","1039972","0.0-21.0","battery-v0.2","","""event"",""trial"",""time""
""fullscreenenter"",""1"",""3800""
","
","
","""event"",""trial"",""time""
""fullscreenenter"",""1"",""3800""
","
","","","901.6000000238419","","","12","5252","3285","&#9728;","elianto","#f73b6a7A","-1"," ","0","-10","[1754.7999999523163]","1","1","","","5252","18","0","4","lose","no-go","0"
"pit-trial","136","1044827","0.0-22.0","battery-v0.2","","""event"",""trial"",""time""
""fullscreenenter"",""1"",""3800""
","
","
","""event"",""trial"",""time""
""fullscreenenter"",""1"",""3800""
","
","","","-1","","","12","5252","3285","&#9733;","elianto","#3366ff99","-1","-1","1","+10","[3811.8000000715256]","1","1","","","5252","19","2","2","win","no-go","0"
"pit-trial","137","1048404","0.0-23.0","battery-v0.2","","""event"",""trial"",""time""
""fullscreenenter"",""1"",""3800""
","
","
","""event"",""trial"",""time""
""fullscreenenter"",""1"",""3800""
","
","","","715.6000000238419","","","12","5252","3285","&#9730;","elianto","#3366ff99"," "," ","1","0","[1570.5999999046326]","1","1","","","5252","20","1","1","win","go","1"
"pit-instructions","138","1062826","0.0-24.0","battery-v0.2","","""event"",""trial"",""time""
""fullscreenenter"",""1"",""3800""
","
","
","""event"",""trial"",""time""
""fullscreenenter"",""1"",""3800""
","
","","[{""page_index"":0,""viewing_time"":6783.100000023842},{""page_index"":1,""viewing_time"":7636.399999976158}]","14420","","","","","","","","","","","","","","","","","","","","","","","",""
"pit-trial","139","1067212","0.0-25.0","battery-v0.2","","""event"",""trial"",""time""
""fullscreenenter"",""1"",""3800""
","
","
","""event"",""trial"",""time""
""fullscreenenter"",""1"",""3800""
","
","","","1515.1000000238419","","","12","5252","3285","u","elianto","#f73b6a7A","-1"," ","0","-10","[2377.2999999523163]","1","2","","","5252","21","0","4","lose","no-go","0"
"pit-trial","140","1071426","0.0-26.0","battery-v0.2","","""event"",""trial"",""time""
""fullscreenenter"",""1"",""3800""
","
","
","""event"",""trial"",""time""
""fullscreenenter"",""1"",""3800""
","
","","","1349.2000000476837","","","12","5252","3285","a","elianto","#f73b6a7A","-1"," ","0","-10","[2199.7000000476837]","1","2","","","5252","22","2","4","lose","no-go","0"
"pit-trial","141","1076303","0.0-27.0","battery-v0.2","","""event"",""trial"",""time""
""fullscreenenter"",""1"",""3800""
","
","
","""event"",""trial"",""time""
""fullscreenenter"",""1"",""3800""
","
","","","-1","","","12","5252","3285","g","elianto","#f73b6a7A"," ","-1","0","-10","[]","0","2","","","5252","23","3","3","lose","go","0"
"pit-trial","142","1080531","0.0-28.0","battery-v0.2","","""event"",""trial"",""time""
""fullscreenenter"",""1"",""3800""
","
","
","""event"",""trial"",""time""
""fullscreenenter"",""1"",""3800""
","
","","","1343.6000000238419","","","12","5252","3285","l","elianto","#3366ff99"," "," ","1","+10","[2214.4000000953674]","1","2","","","5252","24","1","1","win","go","0"
"pit-trial","143","1085304","0.0-29.0","battery-v0.2","","""event"",""trial"",""time""
""fullscreenenter"",""1"",""3800""
","
","
","""event"",""trial"",""time""
""fullscreenenter"",""1"",""3800""
","
","","","1901.6000000238419","","","12","5252","3285","g","elianto","#f73b6a7A"," "," ","1","0","[2752.399999976158]","1","2","","","5252","25","3","3","lose","go","0"
"pit-trial","144","1090181","0.0-30.0","battery-v0.2","","""event"",""trial"",""time""
""fullscreenenter"",""1"",""3800""
","
","
","""event"",""trial"",""time""
""fullscreenenter"",""1"",""3800""
","
","","","-1","","","12","5252","3285","a","elianto","#f73b6a7A","-1","-1","1","0","[]","0","2","","","5252","26","2","4","lose","no-go","0"
"pit-trial","145","1094844","0.0-31.0","battery-v0.2","","""event"",""trial"",""time""
""fullscreenenter"",""1"",""3800""
","
","
","""event"",""trial"",""time""
""fullscreenenter"",""1"",""3800""
","
","","","1806.1000000238419","","","12","5252","3285","l","elianto","#3366ff99"," "," ","1","+10","[2657.7999999523163]","1","2","","","5252","27","1","1","win","go","0"
"pit-trial","146","1099708","0.0-32.0","battery-v0.2","","""event"",""trial"",""time""
""fullscreenenter"",""1"",""3800""
","
","
","""event"",""trial"",""time""
""fullscreenenter"",""1"",""3800""
","
","","","-1","","","12","5252","3285","u","elianto","#f73b6a7A","-1","-1","1","-10","[]","0","2","","","5252","28","0","4","lose","no-go","1"
"pit-trial","147","1103981","0.0-33.0","battery-v0.2","","""event"",""trial"",""time""
""fullscreenenter"",""1"",""3800""
","
","
","""event"",""trial"",""time""
""fullscreenenter"",""1"",""3800""
","
","","","1409.5","","","12","5252","3285","a","elianto","#f73b6a7A","-1"," ","0","0","[2264.2000000476837]","1","2","","","5252","29","2","4","lose","no-go","1"
"pit-trial","148","1108844","0.0-34.0","battery-v0.2","","""event"",""trial"",""time""
""fullscreenenter"",""1"",""3800""
","
","
","""event"",""trial"",""time""
""fullscreenenter"",""1"",""3800""
","
","","","-1","","","12","5252","3285","g","elianto","#f73b6a7A"," ","-1","0","-10","[2975.399999976158]","1","2","","","5252","30","3","3","lose","go","0"
"pit-trial","149","1112372","0.0-35.0","battery-v0.2","","""event"",""trial"",""time""
""fullscreenenter"",""1"",""3800""
","
","
","""event"",""trial"",""time""
""fullscreenenter"",""1"",""3800""
","
","","","668.6000000238419","","","12","5252","3285","l","elianto","#3366ff99"," "," ","1","+10","[1522.8000000715256]","1","2","","","5252","31","1","1","win","go","0"
"pit-trial","150","1115995","0.0-36.0","battery-v0.2","","""event"",""trial"",""time""
""fullscreenenter"",""1"",""3800""
","
","
","""event"",""trial"",""time""
""fullscreenenter"",""1"",""3800""
","
","","","760.2999999523163","","","12","5252","3285","u","elianto","#f73b6a7A","-1"," ","0","-10","[1613.6000000238419,2678.3000000715256,3013.600000023842,3302.100000023842]","4","2","","","5252","32","0","4","lose","no-go","0"
"pit-trial","151","1120859","0.0-37.0","battery-v0.2","","""event"",""trial"",""time""
""fullscreenenter"",""1"",""3800""
","
","
","""event"",""trial"",""time""
""fullscreenenter"",""1"",""3800""
","
","","","-1","","","12","5252","3285","g","elianto","#f73b6a7A"," ","-1","0","-10","[0.20000004768371582,314.8000000715256]","2","2","","","5252","33","3","3","lose","go","0"
"pit-trial","152","1125735","0.0-38.0","battery-v0.2","","""event"",""trial"",""time""
""fullscreenenter"",""1"",""3800""
","
","
","""event"",""trial"",""time""
""fullscreenenter"",""1"",""3800""
","
","","","-1","","","12","5252","3285","u","elianto","#f73b6a7A","-1","-1","1","0","[]","0","2","","","5252","34","0","4","lose","no-go","0"
"pit-trial","153","1130596","0.0-39.0","battery-v0.2","","""event"",""trial"",""time""
""fullscreenenter"",""1"",""3800""
","
","
","""event"",""trial"",""time""
""fullscreenenter"",""1"",""3800""
","
","","","-1","","","12","5252","3285","a","elianto","#f73b6a7A","-1","-1","1","0","[]","0","2","","","5252","35","2","4","lose","no-go","0"
"pit-trial","154","1134276","0.0-40.0","battery-v0.2","","""event"",""trial"",""time""
""fullscreenenter"",""1"",""3800""
","
","
","""event"",""trial"",""time""
""fullscreenenter"",""1"",""3800""
","
","","","816.1999999284744","","","12","5252","3285","l","elianto","#3366ff99"," "," ","1","+10","[1669.6000000238419]","1","2","","","5252","36","1","1","win","go","0"
"pit-trial","155","1139139","0.0-41.0","battery-v0.2","","""event"",""trial"",""time""
""fullscreenenter"",""1"",""3800""
","
","
","""event"",""trial"",""time""
""fullscreenenter"",""1"",""3800""
","
","","","-1","","","12","5252","3285","u","elianto","#f73b6a7A","-1","-1","1","-10","[]","0","2","","","5252","37","0","4","lose","no-go","1"
"pit-trial","156","1144004","0.0-42.0","battery-v0.2","","""event"",""trial"",""time""
""fullscreenenter"",""1"",""3800""
","
","
","""event"",""trial"",""time""
""fullscreenenter"",""1"",""3800""
","
","","","-1","","","12","5252","3285","a","elianto","#f73b6a7A","-1","-1","1","0","[]","0","2","","","5252","38","2","4","lose","no-go","0"
"pit-trial","157","1147565","0.0-43.0","battery-v0.2","","""event"",""trial"",""time""
""fullscreenenter"",""1"",""3800""
","
","
","""event"",""trial"",""time""
""fullscreenenter"",""1"",""3800""
","
","","","700.1000000238419","","","12","5252","3285","l","elianto","#3366ff99"," "," ","1","+10","[1551.5]","1","2","","","5252","39","1","1","win","go","0"
"pit-trial","158","1152428","0.0-44.0","battery-v0.2","","""event"",""trial"",""time""
""fullscreenenter"",""1"",""3800""
","
","
","""event"",""trial"",""time""
""fullscreenenter"",""1"",""3800""
","
","","","-1","","","12","5252","3285","g","elianto","#f73b6a7A"," ","-1","0","-10","[]","0","2","","","5252","40","3","3","lose","go","0"
"pit-trial","159","1157292","0.0-45.0","battery-v0.2","","""event"",""trial"",""time""
""fullscreenenter"",""1"",""3800""
","
","
","""event"",""trial"",""time""
""fullscreenenter"",""1"",""3800""
","
","","","-1","","","12","5252","3285","g","elianto","#f73b6a7A"," ","-1","0","-10","[]","0","2","","","5252","41","3","3","lose","go","0"
"pit-trial","160","1162155","0.0-46.0","battery-v0.2","","""event"",""trial"",""time""
""fullscreenenter"",""1"",""3800""
","
","
","""event"",""trial"",""time""
""fullscreenenter"",""1"",""3800""
","
","","","-1","","","12","5252","3285","a","elianto","#f73b6a7A","-1","-1","1","0","[3160.1999999284744]","1","2","","","5252","42","2","4","lose","no-go","0"
"pit-trial","161","1165780","0.0-47.0","battery-v0.2","","""event"",""trial"",""time""
""fullscreenenter"",""1"",""3800""
","
","
","""event"",""trial"",""time""
""fullscreenenter"",""1"",""3800""
","
","","","766.5999999046326","","","12","5252","3285","u","elianto","#f73b6a7A","-1"," ","0","0","[1620.5]","1","2","","","5252","43","0","4","lose","no-go","1"
"pit-trial","162","1169403","0.0-48.0","battery-v0.2","","""event"",""trial"",""time""
""fullscreenenter"",""1"",""3800""
","
","
","""event"",""trial"",""time""
""fullscreenenter"",""1"",""3800""
","
","","","763.7000000476837","","","12","5252","3285","l","elianto","#3366ff99"," "," ","1","+10","[1617.1000000238419]","1","2","","","5252","44","1","1","win","go","0"
"pit-trial","163","1173915","0.0-49.0","battery-v0.2","","""event"",""trial"",""time""
""fullscreenenter"",""1"",""3800""
","
","
","""event"",""trial"",""time""
""fullscreenenter"",""1"",""3800""
","
","","","1647.5","","","12","5252","3285","g","elianto","#f73b6a7A"," "," ","1","0","[2503]","1","2","","","5252","45","3","3","lose","go","0"
"pit-trial","164","1178685","0.0-50.0","battery-v0.2","","""event"",""trial"",""time""
""fullscreenenter"",""1"",""3800""
","
","
","""event"",""trial"",""time""
""fullscreenenter"",""1"",""3800""
","
","","","1908.1000000238419","","","12","5252","3285","a","elianto","#f73b6a7A","-1"," ","0","-10","[2762.399999976158]","1","2","","","5252","46","2","4","lose","no-go","0"
"pit-trial","165","1183235","0.0-51.0","battery-v0.2","","""event"",""trial"",""time""
""fullscreenenter"",""1"",""3800""
","
","
","""event"",""trial"",""time""
""fullscreenenter"",""1"",""3800""
","
","","","1691.7999999523163","","","12","5252","3285","p","elianto","#3366ff99","-1"," ","0","0","[2543.5]","1","2","","","5252","47","4","2","win","no-go","0"
"pit-trial","166","1188100","0.0-52.0","battery-v0.2","","""event"",""trial"",""time""
""fullscreenenter"",""1"",""3800""
","
","
","""event"",""trial"",""time""
""fullscreenenter"",""1"",""3800""
","
","","","2003","","","12","5252","3285","u","elianto","#f73b6a7A","-1"," ","0","-10","[2853.8000000715256,3885.7000000476837]","2","2","","","5252","48","0","4","lose","no-go","0"
"pit-trial","167","1192484","0.0-53.0","battery-v0.2","","""event"",""trial"",""time""
""fullscreenenter"",""1"",""3800""
","
","
","""event"",""trial"",""time""
""fullscreenenter"",""1"",""3800""
","
","","","1522.6000000238419","","","12","5252","3285","g","elianto","#f73b6a7A"," "," ","1","0","[2373.5]","1","2","","","5252","49","3","3","lose","go","0"
"pit-trial","168","1196524","0.0-54.0","battery-v0.2","","""event"",""trial"",""time""
""fullscreenenter"",""1"",""3800""
","
","
","""event"",""trial"",""time""
""fullscreenenter"",""1"",""3800""
","
","","","1179.8999999761581","","","12","5252","3285","p","elianto","#3366ff99","-1"," ","0","0","[2033.8999999761581,3025.7999999523163,3237.6999999284744,3698.399999976158]","4","2","","","5252","50","4","2","win","no-go","0"
"pit-trial","169","1200372","0.0-55.0","battery-v0.2","","""event"",""trial"",""time""
""fullscreenenter"",""1"",""3800""
","
","
","""event"",""trial"",""time""
""fullscreenenter"",""1"",""3800""
","
","","","983.3999999761581","","","12","5252","3285","l","elianto","#3366ff99"," "," ","1","0","[1838.6000000238419]","1","2","","","5252","51","1","1","win","go","1"
"pit-trial","170","1204242","0.0-56.0","battery-v0.2","","""event"",""trial"",""time""
""fullscreenenter"",""1"",""3800""
","
","
","""event"",""trial"",""time""
""fullscreenenter"",""1"",""3800""
","
","","","998.8999999761581","","","12","5252","3285","u","elianto","#f73b6a7A","-1"," ","0","0","[1853.2000000476837]","1","2","","","5252","52","0","4","lose","no-go","1"
"pit-trial","171","1207932","0.0-57.0","battery-v0.2","","""event"",""trial"",""time""
""fullscreenenter"",""1"",""3800""
","
","
","""event"",""trial"",""time""
""fullscreenenter"",""1"",""3800""
","
","","","831.2999999523163","","","12","5252","3285","l","elianto","#3366ff99"," "," ","1","0","[1686.7000000476837,2455.9000000953674,2743.7000000476837,3241.7000000476837]","4","2","","","5252","53","1","1","win","go","1"
"pit-trial","172","1211668","0.0-58.0","battery-v0.2","","""event"",""trial"",""time""
""fullscreenenter"",""1"",""3800""
","
","
","""event"",""trial"",""time""
""fullscreenenter"",""1"",""3800""
","
","","","873.8999999761581","","","12","5252","3285","p","elianto","#3366ff99","-1"," ","0","0","[1727.7999999523163]","1","2","","","5252","54","4","2","win","no-go","0"
"pit-trial","173","1215580","0.0-59.0","battery-v0.2","","""event"",""trial"",""time""
""fullscreenenter"",""1"",""3800""
","
","
","""event"",""trial"",""time""
""fullscreenenter"",""1"",""3800""
","
","","","1050.3999999761581","","","12","5252","3285","a","elianto","#f73b6a7A","-1"," ","0","0","[1901.3999999761581]","1","2","","","5252","55","2","4","lose","no-go","1"
"pit-trial","174","1219236","0.0-60.0","battery-v0.2","","""event"",""trial"",""time""
""fullscreenenter"",""1"",""3800""
","
","
","""event"",""trial"",""time""
""fullscreenenter"",""1"",""3800""
","
","","","792.2999999523163","","","12","5252","3285","u","elianto","#f73b6a7A","-1"," ","0","-10","[1646.5]","1","2","","","5252","56","0","4","lose","no-go","0"
"pit-trial","175","1222884","0.0-61.0","battery-v0.2","","""event"",""trial"",""time""
""fullscreenenter"",""1"",""3800""
","
","
","""event"",""trial"",""time""
""fullscreenenter"",""1"",""3800""
","
","","","787.3000000715256","","","12","5252","3285","l","elianto","#3366ff99"," "," ","1","+10","[1642.8000000715256]","1","2","","","5252","57","1","1","win","go","0"
"pit-trial","176","1227747","0.0-62.0","battery-v0.2","","""event"",""trial"",""time""
""fullscreenenter"",""1"",""3800""
","
","
","""event"",""trial"",""time""
""fullscreenenter"",""1"",""3800""
","
","","","-1","","","12","5252","3285","g","elianto","#f73b6a7A"," ","-1","0","-10","[]","0","2","","","5252","58","3","3","lose","go","0"
"pit-trial","177","1231428","0.0-63.0","battery-v0.2","","""event"",""trial"",""time""
""fullscreenenter"",""1"",""3800""
","
","
","""event"",""trial"",""time""
""fullscreenenter"",""1"",""3800""
","
","","","822.6000000238419","","","12","5252","3285","p","elianto","#3366ff99","-1"," ","0","0","[1676.8999999761581]","1","2","","","5252","59","4","2","win","no-go","0"
"pit-trial","178","1236292","0.0-64.0","battery-v0.2","","""event"",""trial"",""time""
""fullscreenenter"",""1"",""3800""
","
","
","""event"",""trial"",""time""
""fullscreenenter"",""1"",""3800""
","
","","","-1","","","12","5252","3285","u","elianto","#f73b6a7A","-1","-1","1","0","[]","0","2","","","5252","60","0","4","lose","no-go","0"
"pit-trial","179","1241169","0.0-65.0","battery-v0.2","","""event"",""trial"",""time""
""fullscreenenter"",""1"",""3800""
","
","
","""event"",""trial"",""time""
""fullscreenenter"",""1"",""3800""
","
","","","-1","","","12","5252","3285","g","elianto","#f73b6a7A"," ","-1","0","0","[]","0","2","","","5252","61","3","3","lose","go","1"
"pit-trial","180","1244963","0.0-66.0","battery-v0.2","","""event"",""trial"",""time""
""fullscreenenter"",""1"",""3800""
","
","
","""event"",""trial"",""time""
""fullscreenenter"",""1"",""3800""
","
","","","934.3999999761581","","","12","5252","3285","l","elianto","#3366ff99"," "," ","1","+10","[1791.8000000715256]","1","2","","","5252","62","1","1","win","go","0"
"pit-trial","181","1248563","0.0-67.0","battery-v0.2","","""event"",""trial"",""time""
""fullscreenenter"",""1"",""3800""
","
","
","""event"",""trial"",""time""
""fullscreenenter"",""1"",""3800""
","
","","","739.2000000476837","","","12","5252","3285","p","elianto","#3366ff99","-1"," ","0","0","[1594.3000000715256]","1","2","","","5252","63","4","2","win","no-go","0"
"pit-trial","182","1253196","0.0-68.0","battery-v0.2","","""event"",""trial"",""time""
""fullscreenenter"",""1"",""3800""
","
","
","""event"",""trial"",""time""
""fullscreenenter"",""1"",""3800""
","
","","","1773.7999999523163","","","12","5252","3285","a","elianto","#f73b6a7A","-1"," ","0","0","[2629]","1","2","","","5252","64","2","4","lose","no-go","1"
"pit-trial","183","1258060","0.0-69.0","battery-v0.2","","""event"",""trial"",""time""
""fullscreenenter"",""1"",""3800""
","
","
","""event"",""trial"",""time""
""fullscreenenter"",""1"",""3800""
","
","","","-1","","","12","5252","3285","g","elianto","#f73b6a7A"," ","-1","0","-10","[]","0","2","","","5252","65","3","3","lose","go","0"
"pit-trial","184","1262924","0.0-70.0","battery-v0.2","","""event"",""trial"",""time""
""fullscreenenter"",""1"",""3800""
","
","
","""event"",""trial"",""time""
""fullscreenenter"",""1"",""3800""
","
","","","-1","","","12","5252","3285","a","elianto","#f73b6a7A","-1","-1","1","0","[]","0","2","","","5252","66","2","4","lose","no-go","0"
"pit-trial","185","1266572","0.0-71.0","battery-v0.2","","""event"",""trial"",""time""
""fullscreenenter"",""1"",""3800""
","
","
","""event"",""trial"",""time""
""fullscreenenter"",""1"",""3800""
","
","","","786","","","12","5252","3285","l","elianto","#3366ff99"," "," ","1","+10","[1639.7999999523163]","1","2","","","5252","67","1","1","win","go","0"
"pit-trial","186","1271253","0.0-72.0","battery-v0.2","","""event"",""trial"",""time""
""fullscreenenter"",""1"",""3800""
","
","
","""event"",""trial"",""time""
""fullscreenenter"",""1"",""3800""
","
","","","1823.0999999046326","","","12","5252","3285","p","elianto","#3366ff99","-1"," ","0","0","[2674.1999999284744]","1","2","","","5252","68","4","2","win","no-go","0"
"pit-trial","187","1274355","0.0-73.0","battery-v0.2","","""event"",""trial"",""time""
""fullscreenenter"",""1"",""3800""
","
","
","""event"",""trial"",""time""
""fullscreenenter"",""1"",""3800""
","
","","","247.60000002384186","","","12","5252","3285","g","elianto","#f73b6a7A"," "," ","1","0","[1098.6999999284744]","1","2","","","5252","69","3","3","lose","go","0"
"pit-trial","188","1278267","0.0-74.0","battery-v0.2","","""event"",""trial"",""time""
""fullscreenenter"",""1"",""3800""
","
","
","""event"",""trial"",""time""
""fullscreenenter"",""1"",""3800""
","
","","","1054.5","","","12","5252","3285","l","elianto","#3366ff99"," "," ","1","0","[1908.8999999761581]","1","2","","","5252","70","1","1","win","go","1"
"pit-trial","189","1281892","0.0-75.0","battery-v0.2","","""event"",""trial"",""time""
""fullscreenenter"",""1"",""3800""
","
","
","""event"",""trial"",""time""
""fullscreenenter"",""1"",""3800""
","
","","","760.1000000238419","","","12","5252","3285","s","elianto","#3366ff99"," "," ","1","+10","[1614.3000000715256]","1","2","","","5252","71","5","1","win","go","0"
"pit-trial","190","1286164","0.0-76.0","battery-v0.2","","""event"",""trial"",""time""
""fullscreenenter"",""1"",""3800""
","
","
","""event"",""trial"",""time""
""fullscreenenter"",""1"",""3800""
","
","","","1412.6999999284744","","","12","5252","3285","p","elianto","#3366ff99","-1"," ","0","0","[2267,3715.5999999046326,4177.399999976158]","3","2","","","5252","72","4","2","win","no-go","0"
"pit-trial","191","1291028","0.0-77.0","battery-v0.2","","""event"",""trial"",""time""
""fullscreenenter"",""1"",""3800""
","
","
","""event"",""trial"",""time""
""fullscreenenter"",""1"",""3800""
","
","","","-1","","","12","5252","3285","p","elianto","#3366ff99","-1","-1","1","+10","[3278.6999999284744]","1","2","","","5252","73","4","2","win","no-go","0"
"pit-trial","192","1294892","0.0-78.0","battery-v0.2","","""event"",""trial"",""time""
""fullscreenenter"",""1"",""3800""
","
","
","""event"",""trial"",""time""
""fullscreenenter"",""1"",""3800""
","
","","","999.6000000238419","","","12","5252","3285","g","elianto","#f73b6a7A"," "," ","1","0","[1853.5]","1","2","","","5252","74","3","3","lose","go","0"
"pit-trial","193","1298452","0.0-79.0","battery-v0.2","","""event"",""trial"",""time""
""fullscreenenter"",""1"",""3800""
","
","
","""event"",""trial"",""time""
""fullscreenenter"",""1"",""3800""
","
","","","699.2999999523163","","","12","5252","3285","s","elianto","#3366ff99"," "," ","1","+10","[1549.6000000238419]","1","2","","","5252","75","5","1","win","go","0"
"pit-trial","194","1302285","0.0-80.0","battery-v0.2","","""event"",""trial"",""time""
""fullscreenenter"",""1"",""3800""
","
","
","""event"",""trial"",""time""
""fullscreenenter"",""1"",""3800""
","
","","","970.2999999523163","","","12","5252","3285","l","elianto","#3366ff99"," "," ","1","+10","[1823.7999999523163]","1","2","","","5252","76","1","1","win","go","0"
"pit-trial","195","1306532","0.0-81.0","battery-v0.2","","""event"",""trial"",""time""
""fullscreenenter"",""1"",""3800""
","
","
","""event"",""trial"",""time""
""fullscreenenter"",""1"",""3800""
","
","","","1392.1999999284744","","","12","5252","3285","g","elianto","#f73b6a7A"," "," ","1","0","[2243.2999999523163]","1","2","","","5252","77","3","3","lose","go","0"
"pit-trial","196","1310325","0.0-82.0","battery-v0.2","","""event"",""trial"",""time""
""fullscreenenter"",""1"",""3800""
","
","
","""event"",""trial"",""time""
""fullscreenenter"",""1"",""3800""
","
","","","931.6000000238419","","","12","5252","3285","s","elianto","#3366ff99"," "," ","1","0","[1783.6000000238419]","1","2","","","5252","78","5","1","win","go","1"
"pit-trial","197","1315187","0.0-83.0","battery-v0.2","","""event"",""trial"",""time""
""fullscreenenter"",""1"",""3800""
","
","
","""event"",""trial"",""time""
""fullscreenenter"",""1"",""3800""
","
","","","-1","","","12","5252","3285","w","elianto","#f73b6a7A","-1","-1","1","0","[3787]","1","2","","","5252","79","6","4","lose","no-go","0"
"pit-trial","198","1319244","0.0-84.0","battery-v0.2","","""event"",""trial"",""time""
""fullscreenenter"",""1"",""3800""
","
","
","""event"",""trial"",""time""
""fullscreenenter"",""1"",""3800""
","
","","","1200.7000000476837","","","12","5252","3285","p","elianto","#3366ff99","-1"," ","0","0","[2050.7999999523163]","1","2","","","5252","80","4","2","win","no-go","0"
"pit-trial","199","1324052","0.0-85.0","battery-v0.2","","""event"",""trial"",""time""
""fullscreenenter"",""1"",""3800""
","
","
","""event"",""trial"",""time""
""fullscreenenter"",""1"",""3800""
","
","","","1950.3999999761581","","","12","5252","3285","w","elianto","#f73b6a7A","-1"," ","0","-10","[2801.7000000476837]","1","2","","","5252","81","6","4","lose","no-go","0"
"pit-trial","200","1327837","0.0-86.0","battery-v0.2","","""event"",""trial"",""time""
""fullscreenenter"",""1"",""3800""
","
","
","""event"",""trial"",""time""
""fullscreenenter"",""1"",""3800""
","
","","","928","","","12","5252","3285","s","elianto","#3366ff99"," "," ","1","0","[1781.8999999761581]","1","2","","","5252","82","5","1","win","go","1"
"pit-trial","201","1332299","0.0-87.0","battery-v0.2","","""event"",""trial"",""time""
""fullscreenenter"",""1"",""3800""
","
","
","""event"",""trial"",""time""
""fullscreenenter"",""1"",""3800""
","
","","","1601.1000000238419","","","12","5252","3285","p","elianto","#3366ff99","-1"," ","0","0","[2454.5]","1","2","","","5252","83","4","2","win","no-go","0"
"pit-trial","202","1336811","0.0-88.0","battery-v0.2","","""event"",""trial"",""time""
""fullscreenenter"",""1"",""3800""
","
","
","""event"",""trial"",""time""
""fullscreenenter"",""1"",""3800""
","
","","","1650.5","","","12","5252","3285","e","elianto","#f73b6a7A"," "," ","1","0","[2502.5]","1","2","","","5252","84","7","3","lose","go","0"
"pit-trial","203","1340885","0.0-89.0","battery-v0.2","","""event"",""trial"",""time""
""fullscreenenter"",""1"",""3800""
","
","
","""event"",""trial"",""time""
""fullscreenenter"",""1"",""3800""
","
","","","1211.7999999523163","","","12","5252","3285","s","elianto","#3366ff99"," "," ","1","+10","[2066.899999976158]","1","2","","","5252","85","5","1","win","go","0"
"pit-trial","204","1344980","0.0-90.0","battery-v0.2","","""event"",""trial"",""time""
""fullscreenenter"",""1"",""3800""
","
","
","""event"",""trial"",""time""
""fullscreenenter"",""1"",""3800""
","
","","","1236","","","12","5252","3285","w","elianto","#f73b6a7A","-1"," ","0","-10","[2089.2000000476837]","1","2","","","5252","86","6","4","lose","no-go","0"
"pit-trial","205","1349844","0.0-91.0","battery-v0.2","","""event"",""trial"",""time""
""fullscreenenter"",""1"",""3800""
","
","
","""event"",""trial"",""time""
""fullscreenenter"",""1"",""3800""
","
","","","-1","","","12","5252","3285","e","elianto","#f73b6a7A"," ","-1","0","0","[]","0","2","","","5252","87","7","3","lose","go","1"
"pit-trial","206","1353251","0.0-92.0","battery-v0.2","","""event"",""trial"",""time""
""fullscreenenter"",""1"",""3800""
","
","
","""event"",""trial"",""time""
""fullscreenenter"",""1"",""3800""
","
","","","548.8999999761581","","","12","5252","3285","p","elianto","#3366ff99","-1"," ","0","0","[1403]","1","2","","","5252","88","4","2","win","no-go","0"
"pit-trial","207","1357555","0.0-93.0","battery-v0.2","","""event"",""trial"",""time""
""fullscreenenter"",""1"",""3800""
","
","
","""event"",""trial"",""time""
""fullscreenenter"",""1"",""3800""
","
","","","1449.2000000476837","","","12","5252","3285","s","elianto","#3366ff99"," "," ","1","+10","[2300.9000000953674]","1","2","","","5252","89","5","1","win","go","0"
"pit-trial","208","1361661","0.0-94.0","battery-v0.2","","""event"",""trial"",""time""
""fullscreenenter"",""1"",""3800""
","
","
","""event"",""trial"",""time""
""fullscreenenter"",""1"",""3800""
","
","","","1248.1000000238419","","","12","5252","3285","e","elianto","#f73b6a7A"," "," ","1","0","[2099.5]","1","2","","","5252","90","7","3","lose","go","0"
"pit-trial","209","1366523","0.0-95.0","battery-v0.2","","""event"",""trial"",""time""
""fullscreenenter"",""1"",""3800""
","
","
","""event"",""trial"",""time""
""fullscreenenter"",""1"",""3800""
","
","","","-1","","","12","5252","3285","w","elianto","#f73b6a7A","-1","-1","1","0","[]","0","2","","","5252","91","6","4","lose","no-go","0"
"pit-trial","210","1370236","0.0-96.0","battery-v0.2","","""event"",""trial"",""time""
""fullscreenenter"",""1"",""3800""
","
","
","""event"",""trial"",""time""
""fullscreenenter"",""1"",""3800""
","
","","","853.5","","","12","5252","3285","p","elianto","#3366ff99","-1"," ","0","0","[1704.7999999523163]","1","2","","","5252","92","4","2","win","no-go","0"
"pit-trial","211","1374693","0.0-97.0","battery-v0.2","","""event"",""trial"",""time""
""fullscreenenter"",""1"",""3800""
","
","
","""event"",""trial"",""time""
""fullscreenenter"",""1"",""3800""
","
","","","1598.3999999761581","","","12","5252","3285","e","elianto","#f73b6a7A"," "," ","1","0","[2452.600000023842]","1","2","","","5252","93","7","3","lose","go","0"
"pit-trial","212","1378789","0.0-98.0","battery-v0.2","","""event"",""trial"",""time""
""fullscreenenter"",""1"",""3800""
","
","
","""event"",""trial"",""time""
""fullscreenenter"",""1"",""3800""
","
","","","1235.7000000476837","","","12","5252","3285","d","elianto","#3366ff99","-1"," ","0","0","[2089]","1","2","","","5252","94","8","2","win","no-go","0"
"pit-trial","213","1383652","0.0-99.0","battery-v0.2","","""event"",""trial"",""time""
""fullscreenenter"",""1"",""3800""
","
","
","""event"",""trial"",""time""
""fullscreenenter"",""1"",""3800""
","
","","","-1","","","12","5252","3285","w","elianto","#f73b6a7A","-1","-1","1","0","[]","0","2","","","5252","95","6","4","lose","no-go","0"
"pit-trial","214","1387293","0.0-100.0","battery-v0.2","","""event"",""trial"",""time""
""fullscreenenter"",""1"",""3800""
","
","
","""event"",""trial"",""time""
""fullscreenenter"",""1"",""3800""
","
","","","776.2999999523163","","","12","5252","3285","s","elianto","#3366ff99"," "," ","1","+10","[1630.5]","1","2","","","5252","96","5","1","win","go","0"
"pit-trial","215","1392157","0.0-101.0","battery-v0.2","","""event"",""trial"",""time""
""fullscreenenter"",""1"",""3800""
","
","
","""event"",""trial"",""time""
""fullscreenenter"",""1"",""3800""
","
","","","-1","","","12","5252","3285","w","elianto","#f73b6a7A","-1","-1","1","-10","[]","0","2","","","5252","97","6","4","lose","no-go","1"
"pit-trial","216","1396056","0.0-102.0","battery-v0.2","","""event"",""trial"",""time""
""fullscreenenter"",""1"",""3800""
","
","
","""event"",""trial"",""time""
""fullscreenenter"",""1"",""3800""
","
","","","1027.2999999523163","","","12","5252","3285","d","elianto","#3366ff99","-1"," ","0","0","[1880.9000000953674]","1","2","","","5252","98","8","2","win","no-go","0"
"pit-trial","217","1400925","0.0-103.0","battery-v0.2","","""event"",""trial"",""time""
""fullscreenenter"",""1"",""3800""
","
","
","""event"",""trial"",""time""
""fullscreenenter"",""1"",""3800""
","
","","","-1","","","12","5252","3285","s","elianto","#3366ff99"," ","-1","0","0","[3829.3000000715256]","1","2","","","5252","99","5","1","win","go","0"
"pit-trial","218","1405788","0.0-104.0","battery-v0.2","","""event"",""trial"",""time""
""fullscreenenter"",""1"",""3800""
","
","
","""event"",""trial"",""time""
""fullscreenenter"",""1"",""3800""
","
","","","-1","","","12","5252","3285","e","elianto","#f73b6a7A"," ","-1","0","0","[68.89999997615814,667.6000000238419]","2","2","","","5252","100","7","3","lose","go","1"
"pit-trial","219","1410647","0.0-105.0","battery-v0.2","","""event"",""trial"",""time""
""fullscreenenter"",""1"",""3800""
","
","
","""event"",""trial"",""time""
""fullscreenenter"",""1"",""3800""
","
","","","-1","","","12","5252","3285","d","elianto","#3366ff99","-1","-1","1","+10","[264.2999999523163,2902.2000000476837]","2","2","","","5252","101","8","2","win","no-go","0"
"pit-trial","220","1415242","0.0-106.0","battery-v0.2","","""event"",""trial"",""time""
""fullscreenenter"",""1"",""3800""
","
","
","""event"",""trial"",""time""
""fullscreenenter"",""1"",""3800""
","
","","","1730.7000000476837","","","12","5252","3285","s","elianto","#3366ff99"," "," ","1","+10","[2582.899999976158,2842.5]","2","2","","","5252","102","5","1","win","go","0"
"pit-trial","221","1420092","0.0-107.0","battery-v0.2","","""event"",""trial"",""time""
""fullscreenenter"",""1"",""3800""
","
","
","""event"",""trial"",""time""
""fullscreenenter"",""1"",""3800""
","
","","","1989.1000000238419","","","12","5252","3285","w","elianto","#f73b6a7A","-1"," ","0","-10","[2839.3000000715256]","1","2","","","5252","103","6","4","lose","no-go","0"
"pit-trial","222","1424957","0.0-108.0","battery-v0.2","","""event"",""trial"",""time""
""fullscreenenter"",""1"",""3800""
","
","
","""event"",""trial"",""time""
""fullscreenenter"",""1"",""3800""
","
","","","-1","","","12","5252","3285","j","elianto","#3366ff99","-1","-1","1","+10","[2894.5]","1","2","","","5252","104","9","2","win","no-go","0"
"pit-trial","223","1428772","0.0-109.0","battery-v0.2","","""event"",""trial"",""time""
""fullscreenenter"",""1"",""3800""
","
","
","""event"",""trial"",""time""
""fullscreenenter"",""1"",""3800""
","
","","","956.1000000238419","","","12","5252","3285","j","elianto","#3366ff99","-1"," ","0","0","[1806.6000000238419]","1","2","","","5252","105","9","2","win","no-go","0"
"pit-trial","224","1432764","0.0-110.0","battery-v0.2","","""event"",""trial"",""time""
""fullscreenenter"",""1"",""3800""
","
","
","""event"",""trial"",""time""
""fullscreenenter"",""1"",""3800""
","
","","","1127.6000000238419","","","12","5252","3285","w","elianto","#f73b6a7A","-1"," ","0","-10","[1981.8999999761581]","1","2","","","5252","106","6","4","lose","no-go","0"
"pit-trial","225","1436308","0.0-111.0","battery-v0.2","","""event"",""trial"",""time""
""fullscreenenter"",""1"",""3800""
","
","
","""event"",""trial"",""time""
""fullscreenenter"",""1"",""3800""
","
","","","681.6000000238419","","","12","5252","3285","s","elianto","#3366ff99"," "," ","1","+10","[1535.7000000476837]","1","2","","","5252","107","5","1","win","go","0"
"pit-trial","226","1439939","0.0-112.0","battery-v0.2","","""event"",""trial"",""time""
""fullscreenenter"",""1"",""3800""
","
","
","""event"",""trial"",""time""
""fullscreenenter"",""1"",""3800""
","
","","","768.5","","","12","5252","3285","d","elianto","#3366ff99","-1"," ","0","+10","[1622.2999999523163]","1","2","","","5252","108","8","2","win","no-go","1"
"pit-trial","227","1444815","0.0-113.0","battery-v0.2","","""event"",""trial"",""time""
""fullscreenenter"",""1"",""3800""
","
","
","""event"",""trial"",""time""
""fullscreenenter"",""1"",""3800""
","
","","","-1","","","12","5252","3285","w","elianto","#f73b6a7A","-1","-1","1","0","[2964.100000023842,4704.5]","2","2","","","5252","109","6","4","lose","no-go","0"
"pit-trial","228","1448707","0.0-114.0","battery-v0.2","","""event"",""trial"",""time""
""fullscreenenter"",""1"",""3800""
","
","
","""event"",""trial"",""time""
""fullscreenenter"",""1"",""3800""
","
","","","1032.2000000476837","","","12","5252","3285","j","elianto","#3366ff99","-1"," ","0","0","[1883]","1","2","","","5252","110","9","2","win","no-go","0"
"pit-trial","229","1453572","0.0-115.0","battery-v0.2","","""event"",""trial"",""time""
""fullscreenenter"",""1"",""3800""
","
","
","""event"",""trial"",""time""
""fullscreenenter"",""1"",""3800""
","
","","","-1","","","12","5252","3285","s","elianto","#3366ff99"," ","-1","0","0","[3306.2999999523163,3672.1999999284744,3940.100000023842]","3","2","","","5252","111","5","1","win","go","0"
"pit-trial","230","1457276","0.0-116.0","battery-v0.2","","""event"",""trial"",""time""
""fullscreenenter"",""1"",""3800""
","
","
","""event"",""trial"",""time""
""fullscreenenter"",""1"",""3800""
","
","","","838.8999999761581","","","12","5252","3285","d","elianto","#3366ff99","-1"," ","0","0","[46.39999997615814,1696.1000000238419,2348.399999976158,2748.2000000476837,3084.399999976158]","5","2","","","5252","112","8","2","win","no-go","0"
"pit-trial","231","1461292","0.0-117.0","battery-v0.2","","""event"",""trial"",""time""
""fullscreenenter"",""1"",""3800""
","
","
","""event"",""trial"",""time""
""fullscreenenter"",""1"",""3800""
","
","","","1152","","","12","5252","3285","d","elianto","#3366ff99","-1"," ","0","0","[93.30000007152557,2005.9000000953674]","2","2","","","5252","113","8","2","win","no-go","0"
"pit-trial","232","1465452","0.0-118.0","battery-v0.2","","""event"",""trial"",""time""
""fullscreenenter"",""1"",""3800""
","
","
","""event"",""trial"",""time""
""fullscreenenter"",""1"",""3800""
","
","","","1297.4000000953674","","","12","5252","3285","s","elianto","#3366ff99"," "," ","1","+10","[2152.8000000715256]","1","2","","","5252","114","5","1","win","go","0"
"pit-trial","233","1469764","0.0-119.0","battery-v0.2","","""event"",""trial"",""time""
""fullscreenenter"",""1"",""3800""
","
","
","""event"",""trial"",""time""
""fullscreenenter"",""1"",""3800""
","
","","","1453","","","12","5252","3285","e","elianto","#f73b6a7A"," "," ","1","0","[2308]","1","2","","","5252","115","7","3","lose","go","0"
"pit-trial","234","1474067","0.0-120.0","battery-v0.2","","""event"",""trial"",""time""
""fullscreenenter"",""1"",""3800""
","
","
","""event"",""trial"",""time""
""fullscreenenter"",""1"",""3800""
","
","","","1445","","","12","5252","3285","j","elianto","#3366ff99","-1"," ","0","0","[2300.5]","1","2","","","5252","116","9","2","win","no-go","0"
"pit-trial","235","1477940","0.0-121.0","battery-v0.2","","""event"",""trial"",""time""
""fullscreenenter"",""1"",""3800""
","
","
","""event"",""trial"",""time""
""fullscreenenter"",""1"",""3800""
","
","","","1012.7000000476837","","","12","5252","3285","w","elianto","#f73b6a7A","-1"," ","0","-10","[1864.8999999761581]","1","2","","","5252","117","6","4","lose","no-go","0"
"pit-trial","236","1481372","0.0-122.0","battery-v0.2","","""event"",""trial"",""time""
""fullscreenenter"",""1"",""3800""
","
","
","""event"",""trial"",""time""
""fullscreenenter"",""1"",""3800""
","
","","","574.6000000238419","","","12","5252","3285","j","elianto","#3366ff99","-1"," ","0","+10","[1427.5]","1","2","","","5252","118","9","2","win","no-go","1"
"pit-trial","237","1485683","0.0-123.0","battery-v0.2","","""event"",""trial"",""time""
""fullscreenenter"",""1"",""3800""
","
","
","""event"",""trial"",""time""
""fullscreenenter"",""1"",""3800""
","
","","","1456.8000000715256","","","12","5252","3285","d","elianto","#3366ff99","-1"," ","0","0","[2307.899999976158]","1","2","","","5252","119","8","2","win","no-go","0"
"pit-trial","238","1489948","0.0-124.0","battery-v0.2","","""event"",""trial"",""time""
""fullscreenenter"",""1"",""3800""
","
","
","""event"",""trial"",""time""
""fullscreenenter"",""1"",""3800""
","
","","","1404.2999999523163","","","12","5252","3285","s","elianto","#3366ff99"," "," ","1","0","[2258.5999999046326]","1","2","","","5252","120","5","1","win","go","1"
"pit-trial","239","1493723","0.0-125.0","battery-v0.2","","""event"",""trial"",""time""
""fullscreenenter"",""1"",""3800""
","
","
","""event"",""trial"",""time""
""fullscreenenter"",""1"",""3800""
","
","","","914","","","12","5252","3285","d","elianto","#3366ff99","-1"," ","0","0","[1765.6000000238419]","1","2","","","5252","121","8","2","win","no-go","0"
"pit-trial","240","1498587","0.0-126.0","battery-v0.2","","""event"",""trial"",""time""
""fullscreenenter"",""1"",""3800""
","
","
","""event"",""trial"",""time""
""fullscreenenter"",""1"",""3800""
","
","","","-1","","","12","5252","3285","e","elianto","#f73b6a7A"," ","-1","0","0","[]","0","2","","","5252","122","7","3","lose","go","1"
"pit-trial","241","1503164","0.0-127.0","battery-v0.2","","""event"",""trial"",""time""
""fullscreenenter"",""1"",""3800""
","
","
","""event"",""trial"",""time""
""fullscreenenter"",""1"",""3800""
","
","","","1714.1999999284744","","","12","5252","3285","j","elianto","#3366ff99","-1"," ","0","0","[2568.899999976158]","1","2","","","5252","123","9","2","win","no-go","0"
"pit-trial","242","1506884","0.0-128.0","battery-v0.2","","""event"",""trial"",""time""
""fullscreenenter"",""1"",""3800""
","
","
","""event"",""trial"",""time""
""fullscreenenter"",""1"",""3800""
","
","","","862.7000000476837","","","12","5252","3285","s","elianto","#3366ff99"," "," ","1","+10","[1716.1000000238419]","1","2","","","5252","124","5","1","win","go","0"
"pit-trial","243","1511747","0.0-129.0","battery-v0.2","","""event"",""trial"",""time""
""fullscreenenter"",""1"",""3800""
","
","
","""event"",""trial"",""time""
""fullscreenenter"",""1"",""3800""
","
","","","-1","","","12","5252","3285","e","elianto","#f73b6a7A"," ","-1","0","-10","[]","0","2","","","5252","125","7","3","lose","go","0"
"pit-trial","244","1516060","0.0-130.0","battery-v0.2","","""event"",""trial"",""time""
""fullscreenenter"",""1"",""3800""
","
","
","""event"",""trial"",""time""
""fullscreenenter"",""1"",""3800""
","
","","","1451.8999999761581","","","12","5252","3285","d","elianto","#3366ff99","-1"," ","0","0","[2306.899999976158]","1","2","","","5252","126","8","2","win","no-go","0"
"pit-trial","245","1519933","0.0-131.0","battery-v0.2","","""event"",""trial"",""time""
""fullscreenenter"",""1"",""3800""
","
","
","""event"",""trial"",""time""
""fullscreenenter"",""1"",""3800""
","
","","","1014.2999999523163","","","12","5252","3285","j","elianto","#3366ff99","-1"," ","0","0","[1868.1999999284744]","1","2","","","5252","127","9","2","win","no-go","0"
"pit-trial","246","1524810","0.0-132.0","battery-v0.2","","""event"",""trial"",""time""
""fullscreenenter"",""1"",""3800""
","
","
","""event"",""trial"",""time""
""fullscreenenter"",""1"",""3800""
","
","","","-1","","","12","5252","3285","w","elianto","#f73b6a7A","-1","-1","1","0","[2993.2000000476837]","1","2","","","5252","128","6","4","lose","no-go","0"
"pit-trial","247","1529677","0.0-133.0","battery-v0.2","","""event"",""trial"",""time""
""fullscreenenter"",""1"",""3800""
","
","
","""event"",""trial"",""time""
""fullscreenenter"",""1"",""3800""
","
","","","-1","","","12","5252","3285","j","elianto","#3366ff99","-1","-1","1","+10","[3296.5]","1","2","","","5252","129","9","2","win","no-go","0"
"pit-trial","248","1533764","0.0-134.0","battery-v0.2","","""event"",""trial"",""time""
""fullscreenenter"",""1"",""3800""
","
","
","""event"",""trial"",""time""
""fullscreenenter"",""1"",""3800""
","
","","","1227.2000000476837","","","12","5252","3285","d","elianto","#3366ff99","-1"," ","0","0","[2081.8000000715256]","1","2","","","5252","130","8","2","win","no-go","0"
"pit-trial","249","1538628","0.0-135.0","battery-v0.2","","""event"",""trial"",""time""
""fullscreenenter"",""1"",""3800""
","
","
","""event"",""trial"",""time""
""fullscreenenter"",""1"",""3800""
","
","","","-1","","","12","5252","3285","w","elianto","#f73b6a7A","-1","-1","1","-10","[]","0","2","","","5252","131","6","4","lose","no-go","1"
"pit-trial","250","1542373","0.0-136.0","battery-v0.2","","""event"",""trial"",""time""
""fullscreenenter"",""1"",""3800""
","
","
","""event"",""trial"",""time""
""fullscreenenter"",""1"",""3800""
","
","","","883.3999999761581","","","12","5252","3285","e","elianto","#f73b6a7A"," "," ","1","0","[1736.8999999761581]","1","2","","","5252","132","7","3","lose","go","0"
"pit-trial","251","1547101","0.0-137.0","battery-v0.2","","""event"",""trial"",""time""
""fullscreenenter"",""1"",""3800""
","
","
","""event"",""trial"",""time""
""fullscreenenter"",""1"",""3800""
","
","","","1869.6999999284744","","","12","5252","3285","e","elianto","#f73b6a7A"," "," ","1","0","[2724.2999999523163]","1","2","","","5252","133","7","3","lose","go","0"
"pit-trial","252","1551533","0.0-138.0","battery-v0.2","","""event"",""trial"",""time""
""fullscreenenter"",""1"",""3800""
","
","
","""event"",""trial"",""time""
""fullscreenenter"",""1"",""3800""
","
","","","1574.2999999523163","","","12","5252","3285","j","elianto","#3366ff99","-1"," ","0","0","[2428.1999999284744]","1","2","","","5252","134","9","2","win","no-go","0"
"pit-trial","253","1555924","0.0-139.0","battery-v0.2","","""event"",""trial"",""time""
""fullscreenenter"",""1"",""3800""
","
","
","""event"",""trial"",""time""
""fullscreenenter"",""1"",""3800""
","
","","","1529.8999999761581","","","12","5252","3285","w","elianto","#f73b6a7A","-1"," ","0","-10","[2384.100000023842,2569.8000000715256]","2","2","","","5252","135","6","4","lose","no-go","0"
"pit-trial","254","1559957","0.0-140.0","battery-v0.2","","""event"",""trial"",""time""
""fullscreenenter"",""1"",""3800""
","
","
","""event"",""trial"",""time""
""fullscreenenter"",""1"",""3800""
","
","","","1170.6999999284744","","","12","5252","3285","d","elianto","#3366ff99","-1"," ","0","0","[2024.6999999284744]","1","2","","","5252","136","8","2","win","no-go","0"
"pit-trial","255","1564821","0.0-141.0","battery-v0.2","","""event"",""trial"",""time""
""fullscreenenter"",""1"",""3800""
","
","
","""event"",""trial"",""time""
""fullscreenenter"",""1"",""3800""
","
","","","-1","","","12","5252","3285","e","elianto","#f73b6a7A"," ","-1","0","-10","[]","0","2","","","5252","137","7","3","lose","go","0"
"pit-trial","256","1569069","0.0-142.0","battery-v0.2","","""event"",""trial"",""time""
""fullscreenenter"",""1"",""3800""
","
","
","""event"",""trial"",""time""
""fullscreenenter"",""1"",""3800""
","
","","","1388.2999999523163","","","12","5252","3285","j","elianto","#3366ff99","-1"," ","0","0","[2242.7999999523163]","1","2","","","5252","138","9","2","win","no-go","0"
"pit-trial","257","1573348","0.0-143.0","battery-v0.2","","""event"",""trial"",""time""
""fullscreenenter"",""1"",""3800""
","
","
","""event"",""trial"",""time""
""fullscreenenter"",""1"",""3800""
","
","","","1422.1000000238419","","","12","5252","3285","w","elianto","#f73b6a7A","-1"," ","0","0","[2275.600000023842]","1","2","","","5252","139","6","4","lose","no-go","1"
"pit-trial","258","1577901","0.0-144.0","battery-v0.2","","""event"",""trial"",""time""
""fullscreenenter"",""1"",""3800""
","
","
","""event"",""trial"",""time""
""fullscreenenter"",""1"",""3800""
","
","","","1693.2000000476837","","","12","5252","3285","d","elianto","#3366ff99","-1"," ","0","0","[2545.600000023842]","1","2","","","5252","140","8","2","win","no-go","0"
"pit-instructions","259","1639012","0.0-145.0","battery-v0.2","","""event"",""trial"",""time""
""fullscreenenter"",""1"",""3800""
","
","
","""event"",""trial"",""time""
""fullscreenenter"",""1"",""3800""
","
","","[{""page_index"":0,""viewing_time"":47900.39999997616},{""page_index"":1,""viewing_time"":13208.199999928474}]","61109","","","","","","","","","","","","","","","","","","","","","","","",""
"pit-trial","260","1643170","0.0-146.0","battery-v0.2","","""event"",""trial"",""time""
""fullscreenenter"",""1"",""3800""
","
","
","""event"",""trial"",""time""
""fullscreenenter"",""1"",""3800""
","
","","","1283.1000000238419","","","12","5252","3285","f","elianto","#3366ff99","-1"," ","0","0","[2145]","1","3","","","5252","141","1","2","win","no-go","0"
"pit-trial","261","1648048","0.0-147.0","battery-v0.2","","""event"",""trial"",""time""
""fullscreenenter"",""1"",""3800""
","
","
","""event"",""trial"",""time""
""fullscreenenter"",""1"",""3800""
","
","","","-1","","","12","5252","3285","b","elianto","#f73b6a7A","-1","-1","1","0","[4112.100000023842]","1","3","","","5252","142","3","4","lose","no-go","0"
"pit-trial","262","1652280","0.0-148.0","battery-v0.2","","""event"",""trial"",""time""
""fullscreenenter"",""1"",""3800""
","
","
","""event"",""trial"",""time""
""fullscreenenter"",""1"",""3800""
","
","","","1362.6999999284744","","","12","5252","3285","t","elianto","#f73b6a7A"," "," ","1","0","[2218.0999999046326]","1","3","","","5252","143","2","3","lose","go","0"
"pit-trial","263","1657147","0.0-149.0","battery-v0.2","","""event"",""trial"",""time""
""fullscreenenter"",""1"",""3800""
","
","
","""event"",""trial"",""time""
""fullscreenenter"",""1"",""3800""
","
","","","-1","","","12","5252","3285","n","elianto","#f73b6a7A"," ","-1","0","-10","[3414.100000023842]","1","3","","","5252","144","0","3","lose","go","0"
