"trial_type","trial_index","time_elapsed","internal_node_id","task_version","subject_id","interactions","blur_events","focus_events","fullscreenenter_events","fullscreenexit_events","success","view_history","rt","responses","num_errors","age","subject","participantId","rune","rune_set","hex","correct","choice","accuracy","outcome","keys","total_keys","block","practice","value","sub","trial","stimulus","robot","valence","action","sham"
"pavlovia","0","13","0.0-0.0","battery-v0.2","","""event"",""trial"",""time""
""fullscreenenter"",""1"",""5444""
","
","
","""event"",""trial"",""time""
""fullscreenenter"",""1"",""5444""
","
","","","","","","","","","","","","","","","","","","","","","","","","","","",""
"fullscreen","1","6424","0.0-1.0","battery-v0.2","","""event"",""trial"",""time""
""fullscreenenter"",""1"",""5444""
","
","
","""event"",""trial"",""time""
""fullscreenenter"",""1"",""5444""
","
","true","","","","","","","","","","","","","","","","","","","","","","","","","",""
"pit-instructions","2","11082","0.0-2.0-0.0","battery-v0.2","","""event"",""trial"",""time""
""fullscreenenter"",""1"",""5444""
","
","
","""event"",""trial"",""time""
""fullscreenenter"",""1"",""5444""
","
","","[{""page_index"":0,""viewing_time"":4655.300000190735}]","4655.900000095367","","","","","","","","","","","","","","","","","","","","","","","",""
"pit-comprehension","3","14262","0.0-2.0-1.0-0.0","battery-v0.2","","""event"",""trial"",""time""
""fullscreenenter"",""1"",""5444""
","
","
","""event"",""trial"",""time""
""fullscreenenter"",""1"",""5444""
","
","","","3176.3999996185303","[""shark""]","0","20","10161","4872","","","","","","","","","","","","","","","","","","",""
"pit-instructions","4","15784","0.0-2.0-1.0-1.0","battery-v0.2","","""event"",""trial"",""time""
""fullscreenenter"",""1"",""5444""
","
","
","""event"",""trial"",""time""
""fullscreenenter"",""1"",""5444""
","
","","[{""page_index"":0,""viewing_time"":1508.8000001907349}]","1509","","","","","","","","","","","","","","","","","","","","","","","",""
"pit-comprehension","5","19095","0.0-2.0-2.0-0.0","battery-v0.2","","""event"",""trial"",""time""
""fullscreenenter"",""1"",""5444""
","
","
","""event"",""trial"",""time""
""fullscreenenter"",""1"",""5444""
","
","","","3308.6000003814697","[""tiger""]","0","20","10161","4872","","","","","","","","","","","","","","","","","","",""
"pit-instructions","6","20487","0.0-2.0-2.0-1.0","battery-v0.2","","""event"",""trial"",""time""
""fullscreenenter"",""1"",""5444""
","
","
","""event"",""trial"",""time""
""fullscreenenter"",""1"",""5444""
","
","","[{""page_index"":0,""viewing_time"":1388.1999998092651}]","1388.5","","","","","","","","","","","","","","","","","","","","","","","",""
"pit-instructions","7","123679","0.0-2.0-3.0","battery-v0.2","","""event"",""trial"",""time""
""fullscreenenter"",""1"",""5444""
","
","
","""event"",""trial"",""time""
""fullscreenenter"",""1"",""5444""
","
","","[{""page_index"":0,""viewing_time"":12061.299999713898},{""page_index"":1,""viewing_time"":7842.800000190735},{""page_index"":2,""viewing_time"":6566.900000095367},{""page_index"":3,""viewing_time"":5684.799999713898},{""page_index"":4,""viewing_time"":6046.599999904633},{""page_index"":5,""viewing_time"":6479.10000038147},{""page_index"":6,""viewing_time"":7619.099999904633},{""page_index"":7,""viewing_time"":6688.299999713898},{""page_index"":8,""viewing_time"":8149.10000038147},{""page_index"":9,""viewing_time"":8297.099999904633},{""page_index"":10,""viewing_time"":7227},{""page_index"":11,""viewing_time"":7716.799999713898},{""page_index"":12,""viewing_time"":7069.10000038147},{""page_index"":13,""viewing_time"":5742.699999809265}]","103191.09999990463","","","","","","","","","","","","","","","","","","","","","","","",""
"pit-trial","8","127146","0.0-2.0-4.0-0.0","battery-v0.2","","""event"",""trial"",""time""
""fullscreenenter"",""1"",""5444""
","
","
","""event"",""trial"",""time""
""fullscreenenter"",""1"",""5444""
","
","","","613.6999998092651","","","20","10161","4872","&#9784;","elianto","#FFFFF080"," "," ","1","&#10004","[1464.4000000953674]","1","0","0","","","","","","","",""
"pit-trial","9","130495","0.0-2.0-4.1-0.1","battery-v0.2","","""event"",""trial"",""time""
""fullscreenenter"",""1"",""5444""
","
","
","""event"",""trial"",""time""
""fullscreenenter"",""1"",""5444""
","
","","","490.7999997138977","","","20","10161","4872","&#9784;","elianto","#FFFFF080"," "," ","1","&#10004","[1342.3999996185303]","1","0","0","","","","","","","",""
"pit-trial","10","133893","0.0-2.0-4.2-0.2","battery-v0.2","","""event"",""trial"",""time""
""fullscreenenter"",""1"",""5444""
","
","
","""event"",""trial"",""time""
""fullscreenenter"",""1"",""5444""
","
","","","543.6999998092651","","","20","10161","4872","&#9784;","elianto","#FFFFF080"," "," ","1","&#10004","[1395.1999998092651]","1","0","0","","","","","","","",""
"pit-trial","11","137272","0.0-2.0-4.3-0.3","battery-v0.2","","""event"",""trial"",""time""
""fullscreenenter"",""1"",""5444""
","
","
","""event"",""trial"",""time""
""fullscreenenter"",""1"",""5444""
","
","","","510.2000002861023","","","20","10161","4872","&#9784;","elianto","#FFFFF080"," "," ","1","&#10004","[1363.7000002861023]","1","0","0","","","","","","","",""
"pit-trial","12","140610","0.0-2.0-4.4-0.4","battery-v0.2","","""event"",""trial"",""time""
""fullscreenenter"",""1"",""5444""
","
","
","""event"",""trial"",""time""
""fullscreenenter"",""1"",""5444""
","
","","","472.5","","","20","10161","4872","&#9784;","elianto","#FFFFF080"," "," ","1","&#10004","[1323]","1","0","0","","","","","","","",""
"pit-instructions","13","161381","0.0-2.0-5.0","battery-v0.2","","""event"",""trial"",""time""
""fullscreenenter"",""1"",""5444""
","
","
","""event"",""trial"",""time""
""fullscreenenter"",""1"",""5444""
","
","","[{""page_index"":0,""viewing_time"":4947.199999809265},{""page_index"":1,""viewing_time"":5548.699999809265},{""page_index"":2,""viewing_time"":4936.400000095367},{""page_index"":3,""viewing_time"":5336.800000190735}]","20769.5","","","","","","","","","","","","","","","","","","","","","","","",""
"pit-trial","14","166242","0.0-2.0-6.0-0.0","battery-v0.2","","""event"",""trial"",""time""
""fullscreenenter"",""1"",""5444""
","
","
","""event"",""trial"",""time""
""fullscreenenter"",""1"",""5444""
","
","","","-1","","","20","10161","4872","&#9854;","elianto","#FFFFF080","-1","-1","1","&#10004","[]","0","0","1","","","","","","","",""
"pit-trial","15","171116","0.0-2.0-6.1-0.1","battery-v0.2","","""event"",""trial"",""time""
""fullscreenenter"",""1"",""5444""
","
","
","""event"",""trial"",""time""
""fullscreenenter"",""1"",""5444""
","
","","","-1","","","20","10161","4872","&#9854;","elianto","#FFFFF080","-1","-1","1","&#10004","[]","0","0","1","","","","","","","",""
"pit-trial","16","175987","0.0-2.0-6.2-0.2","battery-v0.2","","""event"",""trial"",""time""
""fullscreenenter"",""1"",""5444""
","
","
","""event"",""trial"",""time""
""fullscreenenter"",""1"",""5444""
","
","","","-1","","","20","10161","4872","&#9854;","elianto","#FFFFF080","-1","-1","1","&#10004","[]","0","0","1","","","","","","","",""
"pit-trial","17","180868","0.0-2.0-6.3-0.3","battery-v0.2","","""event"",""trial"",""time""
""fullscreenenter"",""1"",""5444""
","
","
","""event"",""trial"",""time""
""fullscreenenter"",""1"",""5444""
","
","","","-1","","","20","10161","4872","&#9854;","elianto","#FFFFF080","-1","-1","1","&#10004","[]","0","0","1","","","","","","","",""
"pit-trial","18","185737","0.0-2.0-6.4-0.4","battery-v0.2","","""event"",""trial"",""time""
""fullscreenenter"",""1"",""5444""
","
","
","""event"",""trial"",""time""
""fullscreenenter"",""1"",""5444""
","
","","","-1","","","20","10161","4872","&#9854;","elianto","#FFFFF080","-1","-1","1","&#10004","[]","0","0","1","","","","","","","",""
"pit-instructions","19","315943","0.0-2.0-7.0","battery-v0.2","","""event"",""trial"",""time""
""fullscreenenter"",""1"",""5444""
","
","
","""event"",""trial"",""time""
""fullscreenenter"",""1"",""5444""
","
","","[{""page_index"":0,""viewing_time"":11933},{""page_index"":1,""viewing_time"":9058.900000095367},{""page_index"":2,""viewing_time"":7661.099999904633},{""page_index"":3,""viewing_time"":6958.699999809265},{""page_index"":4,""viewing_time"":6202.800000190735},{""page_index"":5,""viewing_time"":6382.800000190735},{""page_index"":6,""viewing_time"":5064.89999961853},{""page_index"":7,""viewing_time"":8150.900000095367},{""page_index"":8,""viewing_time"":7434.700000286102},{""page_index"":9,""viewing_time"":6920.89999961853},{""page_index"":10,""viewing_time"":6800.700000286102},{""page_index"":11,""viewing_time"":4835},{""page_index"":12,""viewing_time"":7162.799999713898},{""page_index"":13,""viewing_time"":7038.700000286102},{""page_index"":14,""viewing_time"":7721.099999904633},{""page_index"":15,""viewing_time"":6796.699999809265},{""page_index"":16,""viewing_time"":6560.800000190735},{""page_index"":17,""viewing_time"":7518.900000095367}]","130203.59999990463","","","","","","","","","","","","","","","","","","","","","","","",""
"pit-trial","20","319309","0.0-2.0-8.0-0.0","battery-v0.2","","""event"",""trial"",""time""
""fullscreenenter"",""1"",""5444""
","
","
","""event"",""trial"",""time""
""fullscreenenter"",""1"",""5444""
","
","","","501.09999990463257","","","20","10161","4872","&#9776;","elianto","#3366ff99"," "," ","1","+10","[1355.9000000953674]","1","0","1","","","","","","","",""
"pit-trial","21","322580","0.0-2.0-8.0-1.0","battery-v0.2","","""event"",""trial"",""time""
""fullscreenenter"",""1"",""5444""
","
","
","""event"",""trial"",""time""
""fullscreenenter"",""1"",""5444""
","
","","","415","","","20","10161","4872","&#9776;","elianto","#3366ff99"," "," ","1","+10","[1269.4000000953674]","1","0","1","","","","","","","",""
"pit-trial","22","325915","0.0-2.0-8.0-2.0","battery-v0.2","","""event"",""trial"",""time""
""fullscreenenter"",""1"",""5444""
","
","
","""event"",""trial"",""time""
""fullscreenenter"",""1"",""5444""
","
","","","474.30000019073486","","","20","10161","4872","&#9776;","elianto","#3366ff99"," "," ","1","+10","[1324.4000000953674]","1","0","1","","","","","","","",""
"pit-trial","23","329205","0.0-2.0-8.0-3.0","battery-v0.2","","""event"",""trial"",""time""
""fullscreenenter"",""1"",""5444""
","
","
","""event"",""trial"",""time""
""fullscreenenter"",""1"",""5444""
","
","","","425.1000003814697","","","20","10161","4872","&#9776;","elianto","#3366ff99"," "," ","1","0","[1277.6000003814697]","1","0","1","","","","","","","",""
"pit-trial","24","332464","0.0-2.0-8.0-4.0","battery-v0.2","","""event"",""trial"",""time""
""fullscreenenter"",""1"",""5444""
","
","
","""event"",""trial"",""time""
""fullscreenenter"",""1"",""5444""
","
","","","402.8999996185303","","","20","10161","4872","&#9776;","elianto","#3366ff99"," "," ","1","+10","[1253.5]","1","0","1","","","","","","","",""
"pit-trial","25","335740","0.0-2.0-8.1-0.1","battery-v0.2","","""event"",""trial"",""time""
""fullscreenenter"",""1"",""5444""
","
","
","""event"",""trial"",""time""
""fullscreenenter"",""1"",""5444""
","
","","","413","","","20","10161","4872","&#9776;","elianto","#3366ff99"," "," ","1","+10","[1265.4000000953674]","1","0","1","","","","","","","",""
"pit-trial","26","339009","0.0-2.0-8.1-1.1","battery-v0.2","","""event"",""trial"",""time""
""fullscreenenter"",""1"",""5444""
","
","
","""event"",""trial"",""time""
""fullscreenenter"",""1"",""5444""
","
","","","399.7000002861023","","","20","10161","4872","&#9776;","elianto","#3366ff99"," "," ","1","+10","[1253.5999999046326]","1","0","1","","","","","","","",""
"pit-trial","27","342304","0.0-2.0-8.1-2.1","battery-v0.2","","""event"",""trial"",""time""
""fullscreenenter"",""1"",""5444""
","
","
","""event"",""trial"",""time""
""fullscreenenter"",""1"",""5444""
","
","","","436","","","20","10161","4872","&#9776;","elianto","#3366ff99"," "," ","1","+10","[1290]","1","0","1","","","","","","","",""
"pit-trial","28","345621","0.0-2.0-8.1-3.1","battery-v0.2","","""event"",""trial"",""time""
""fullscreenenter"",""1"",""5444""
","
","
","""event"",""trial"",""time""
""fullscreenenter"",""1"",""5444""
","
","","","465","","","20","10161","4872","&#9776;","elianto","#3366ff99"," "," ","1","0","[1315.6000003814697]","1","0","1","","","","","","","",""
"pit-trial","29","348981","0.0-2.0-8.1-4.1","battery-v0.2","","""event"",""trial"",""time""
""fullscreenenter"",""1"",""5444""
","
","
","""event"",""trial"",""time""
""fullscreenenter"",""1"",""5444""
","
","","","507.2000002861023","","","20","10161","4872","&#9776;","elianto","#3366ff99"," "," ","1","+10","[1357.9000000953674]","1","0","1","","","","","","","",""
"pit-trial","30","352229","0.0-2.0-8.2-0.2","battery-v0.2","","""event"",""trial"",""time""
""fullscreenenter"",""1"",""5444""
","
","
","""event"",""trial"",""time""
""fullscreenenter"",""1"",""5444""
","
","","","394.8999996185303","","","20","10161","4872","&#9776;","elianto","#3366ff99"," "," ","1","+10","[1246.5999999046326]","1","0","1","","","","","","","",""
"pit-trial","31","355454","0.0-2.0-8.2-1.2","battery-v0.2","","""event"",""trial"",""time""
""fullscreenenter"",""1"",""5444""
","
","
","""event"",""trial"",""time""
""fullscreenenter"",""1"",""5444""
","
","","","371.69999980926514","","","20","10161","4872","&#9776;","elianto","#3366ff99"," "," ","1","+10","[1222.6999998092651]","1","0","1","","","","","","","",""
"pit-trial","32","358719","0.0-2.0-8.2-2.2","battery-v0.2","","""event"",""trial"",""time""
""fullscreenenter"",""1"",""5444""
","
","
","""event"",""trial"",""time""
""fullscreenenter"",""1"",""5444""
","
","","","412.30000019073486","","","20","10161","4872","&#9776;","elianto","#3366ff99"," "," ","1","+10","[1262.5999999046326]","1","0","1","","","","","","","",""
"pit-trial","33","361982","0.0-2.0-8.2-3.2","battery-v0.2","","""event"",""trial"",""time""
""fullscreenenter"",""1"",""5444""
","
","
","""event"",""trial"",""time""
""fullscreenenter"",""1"",""5444""
","
","","","409.09999990463257","","","20","10161","4872","&#9776;","elianto","#3366ff99"," "," ","1","0","[1262.5999999046326]","1","0","1","","","","","","","",""
"pit-trial","34","365249","0.0-2.0-8.2-4.2","battery-v0.2","","""event"",""trial"",""time""
""fullscreenenter"",""1"",""5444""
","
","
","""event"",""trial"",""time""
""fullscreenenter"",""1"",""5444""
","
","","","414.7000002861023","","","20","10161","4872","&#9776;","elianto","#3366ff99"," "," ","1","+10","[1264.8000001907349]","1","0","1","","","","","","","",""
"call-function","35","365250","0.0-2.0-9.0","battery-v0.2","","""event"",""trial"",""time""
""fullscreenenter"",""1"",""5444""
","
","
","""event"",""trial"",""time""
""fullscreenenter"",""1"",""5444""
","
","","","","","","","","","","","","","","","","","","","","","","","","","","",""
"pit-instructions","36","405308","0.0-2.0-10.0","battery-v0.2","","""event"",""trial"",""time""
""fullscreenenter"",""1"",""5444""
","
","
","""event"",""trial"",""time""
""fullscreenenter"",""1"",""5444""
","
","","[{""page_index"":0,""viewing_time"":6070.799999713898},{""page_index"":1,""viewing_time"":6862.900000095367},{""page_index"":2,""viewing_time"":9435.099999904633},{""page_index"":3,""viewing_time"":9545.300000190735},{""page_index"":4,""viewing_time"":8143.099999904633}]","40057.40000009537","","","","","","","","","","","","","","","","","","","","","","","",""
"pit-trial","37","408641","0.0-2.0-11.0-0.0","battery-v0.2","","""event"",""trial"",""time""
""fullscreenenter"",""1"",""5444""
","
","
","""event"",""trial"",""time""
""fullscreenenter"",""1"",""5444""
","
","","","471","","","20","10161","4872","&#9761;","elianto","#3366ff99","-1"," ","0","0","[1327]","1","0","2","","","","","","","",""
"pit-trial","38","411912","0.0-2.0-11.0-1.0","battery-v0.2","","""event"",""trial"",""time""
""fullscreenenter"",""1"",""5444""
","
","
","""event"",""trial"",""time""
""fullscreenenter"",""1"",""5444""
","
","","","411.2000002861023","","","20","10161","4872","&#9761;","elianto","#3366ff99","-1"," ","0","0","[1265.3000001907349]","1","0","2","","","","","","","",""
"pit-trial","39","416778","0.0-2.0-11.0-2.0","battery-v0.2","","""event"",""trial"",""time""
""fullscreenenter"",""1"",""5444""
","
","
","""event"",""trial"",""time""
""fullscreenenter"",""1"",""5444""
","
","","","-1","","","20","10161","4872","&#9761;","elianto","#3366ff99","-1","-1","1","+10","[]","0","0","2","","","","","","","",""
"pit-trial","40","421647","0.0-2.0-11.0-3.0","battery-v0.2","","""event"",""trial"",""time""
""fullscreenenter"",""1"",""5444""
","
","
","""event"",""trial"",""time""
""fullscreenenter"",""1"",""5444""
","
","","","-1","","","20","10161","4872","&#9761;","elianto","#3366ff99","-1","-1","1","0","[]","0","0","2","","","","","","","",""
"pit-trial","41","426516","0.0-2.0-11.0-4.0","battery-v0.2","","""event"",""trial"",""time""
""fullscreenenter"",""1"",""5444""
","
","
","""event"",""trial"",""time""
""fullscreenenter"",""1"",""5444""
","
","","","-1","","","20","10161","4872","&#9761;","elianto","#3366ff99","-1","-1","1","+10","[]","0","0","2","","","","","","","",""
"pit-trial","42","430200","0.0-2.0-11.1-0.1","battery-v0.2","","""event"",""trial"",""time""
""fullscreenenter"",""1"",""5444""
","
","
","""event"",""trial"",""time""
""fullscreenenter"",""1"",""5444""
","
","","","832","","","20","10161","4872","&#9761;","elianto","#3366ff99","-1"," ","0","0","[1682.1999998092651]","1","0","2","","","","","","","",""
"pit-trial","43","435053","0.0-2.0-11.1-1.1","battery-v0.2","","""event"",""trial"",""time""
""fullscreenenter"",""1"",""5444""
","
","
","""event"",""trial"",""time""
""fullscreenenter"",""1"",""5444""
","
","","","-1","","","20","10161","4872","&#9761;","elianto","#3366ff99","-1","-1","1","+10","[]","0","0","2","","","","","","","",""
"pit-trial","44","439905","0.0-2.0-11.1-2.1","battery-v0.2","","""event"",""trial"",""time""
""fullscreenenter"",""1"",""5444""
","
","
","""event"",""trial"",""time""
""fullscreenenter"",""1"",""5444""
","
","","","-1","","","20","10161","4872","&#9761;","elianto","#3366ff99","-1","-1","1","+10","[]","0","0","2","","","","","","","",""
"pit-trial","45","444758","0.0-2.0-11.1-3.1","battery-v0.2","","""event"",""trial"",""time""
""fullscreenenter"",""1"",""5444""
","
","
","""event"",""trial"",""time""
""fullscreenenter"",""1"",""5444""
","
","","","-1","","","20","10161","4872","&#9761;","elianto","#3366ff99","-1","-1","1","0","[]","0","0","2","","","","","","","",""
"pit-trial","46","449611","0.0-2.0-11.1-4.1","battery-v0.2","","""event"",""trial"",""time""
""fullscreenenter"",""1"",""5444""
","
","
","""event"",""trial"",""time""
""fullscreenenter"",""1"",""5444""
","
","","","-1","","","20","10161","4872","&#9761;","elianto","#3366ff99","-1","-1","1","+10","[]","0","0","2","","","","","","","",""
"pit-trial","47","454463","0.0-2.0-11.2-0.2","battery-v0.2","","""event"",""trial"",""time""
""fullscreenenter"",""1"",""5444""
","
","
","""event"",""trial"",""time""
""fullscreenenter"",""1"",""5444""
","
","","","-1","","","20","10161","4872","&#9761;","elianto","#3366ff99","-1","-1","1","+10","[]","0","0","2","","","","","","","",""
"pit-trial","48","459315","0.0-2.0-11.2-1.2","battery-v0.2","","""event"",""trial"",""time""
""fullscreenenter"",""1"",""5444""
","
","
","""event"",""trial"",""time""
""fullscreenenter"",""1"",""5444""
","
","","","-1","","","20","10161","4872","&#9761;","elianto","#3366ff99","-1","-1","1","+10","[]","0","0","2","","","","","","","",""
"pit-trial","49","464168","0.0-2.0-11.2-2.2","battery-v0.2","","""event"",""trial"",""time""
""fullscreenenter"",""1"",""5444""
","
","
","""event"",""trial"",""time""
""fullscreenenter"",""1"",""5444""
","
","","","-1","","","20","10161","4872","&#9761;","elianto","#3366ff99","-1","-1","1","+10","[]","0","0","2","","","","","","","",""
"pit-trial","50","469019","0.0-2.0-11.2-3.2","battery-v0.2","","""event"",""trial"",""time""
""fullscreenenter"",""1"",""5444""
","
","
","""event"",""trial"",""time""
""fullscreenenter"",""1"",""5444""
","
","","","-1","","","20","10161","4872","&#9761;","elianto","#3366ff99","-1","-1","1","0","[]","0","0","2","","","","","","","",""
"pit-trial","51","473872","0.0-2.0-11.2-4.2","battery-v0.2","","""event"",""trial"",""time""
""fullscreenenter"",""1"",""5444""
","
","
","""event"",""trial"",""time""
""fullscreenenter"",""1"",""5444""
","
","","","-1","","","20","10161","4872","&#9761;","elianto","#3366ff99","-1","-1","1","+10","[]","0","0","2","","","","","","","",""
"pit-trial","52","478725","0.0-2.0-11.3-0.3","battery-v0.2","","""event"",""trial"",""time""
""fullscreenenter"",""1"",""5444""
","
","
","""event"",""trial"",""time""
""fullscreenenter"",""1"",""5444""
","
","","","-1","","","20","10161","4872","&#9761;","elianto","#3366ff99","-1","-1","1","+10","[]","0","0","2","","","","","","","",""
"pit-trial","53","483577","0.0-2.0-11.3-1.3","battery-v0.2","","""event"",""trial"",""time""
""fullscreenenter"",""1"",""5444""
","
","
","""event"",""trial"",""time""
""fullscreenenter"",""1"",""5444""
","
","","","-1","","","20","10161","4872","&#9761;","elianto","#3366ff99","-1","-1","1","+10","[]","0","0","2","","","","","","","",""
"pit-trial","54","488430","0.0-2.0-11.3-2.3","battery-v0.2","","""event"",""trial"",""time""
""fullscreenenter"",""1"",""5444""
","
","
","""event"",""trial"",""time""
""fullscreenenter"",""1"",""5444""
","
","","","-1","","","20","10161","4872","&#9761;","elianto","#3366ff99","-1","-1","1","+10","[]","0","0","2","","","","","","","",""
"pit-trial","55","493282","0.0-2.0-11.3-3.3","battery-v0.2","","""event"",""trial"",""time""
""fullscreenenter"",""1"",""5444""
","
","
","""event"",""trial"",""time""
""fullscreenenter"",""1"",""5444""
","
","","","-1","","","20","10161","4872","&#9761;","elianto","#3366ff99","-1","-1","1","0","[]","0","0","2","","","","","","","",""
"pit-trial","56","498134","0.0-2.0-11.3-4.3","battery-v0.2","","""event"",""trial"",""time""
""fullscreenenter"",""1"",""5444""
","
","
","""event"",""trial"",""time""
""fullscreenenter"",""1"",""5444""
","
","","","-1","","","20","10161","4872","&#9761;","elianto","#3366ff99","-1","-1","1","+10","[]","0","0","2","","","","","","","",""
"call-function","57","498135","0.0-2.0-12.0","battery-v0.2","","""event"",""trial"",""time""
""fullscreenenter"",""1"",""5444""
","
","
","""event"",""trial"",""time""
""fullscreenenter"",""1"",""5444""
","
","","","","","","","","","","","","","","","","","","","","","","","","","","",""
"pit-instructions","58","530663","0.0-2.0-13.0","battery-v0.2","","""event"",""trial"",""time""
""fullscreenenter"",""1"",""5444""
","
","
","""event"",""trial"",""time""
""fullscreenenter"",""1"",""5444""
","
","","[{""page_index"":0,""viewing_time"":5327.799999713898},{""page_index"":1,""viewing_time"":7593.200000286102},{""page_index"":2,""viewing_time"":3686},{""page_index"":3,""viewing_time"":10927.199999809265},{""page_index"":4,""viewing_time"":4992.800000190735}]","32527.299999713898","","","","","","","","","","","","","","","","","","","","","","","",""
"pit-trial","59","535523","0.0-2.0-14.0-0.0","battery-v0.2","","""event"",""trial"",""time""
""fullscreenenter"",""1"",""5444""
","
","
","""event"",""trial"",""time""
""fullscreenenter"",""1"",""5444""
","
","","","-1","","","20","10161","4872","&#9826;","elianto","#f73b6a7A","-1","-1","1","0","[]","0","0","3","","","","","","","",""
"pit-trial","60","540388","0.0-2.0-14.0-1.0","battery-v0.2","","""event"",""trial"",""time""
""fullscreenenter"",""1"",""5444""
","
","
","""event"",""trial"",""time""
""fullscreenenter"",""1"",""5444""
","
","","","-1","","","20","10161","4872","&#9826;","elianto","#f73b6a7A","-1","-1","1","0","[]","0","0","3","","","","","","","",""
"pit-trial","61","545247","0.0-2.0-14.0-2.0","battery-v0.2","","""event"",""trial"",""time""
""fullscreenenter"",""1"",""5444""
","
","
","""event"",""trial"",""time""
""fullscreenenter"",""1"",""5444""
","
","","","-1","","","20","10161","4872","&#9826;","elianto","#f73b6a7A","-1","-1","1","0","[]","0","0","3","","","","","","","",""
"pit-trial","62","548909","0.0-2.0-14.0-3.0","battery-v0.2","","""event"",""trial"",""time""
""fullscreenenter"",""1"",""5444""
","
","
","""event"",""trial"",""time""
""fullscreenenter"",""1"",""5444""
","
","","","803.5","","","20","10161","4872","&#9826;","elianto","#f73b6a7A","-1"," ","0","0","[1654]","1","0","3","","","","","","","",""
"pit-trial","63","552304","0.0-2.0-14.0-4.0","battery-v0.2","","""event"",""trial"",""time""
""fullscreenenter"",""1"",""5444""
","
","
","""event"",""trial"",""time""
""fullscreenenter"",""1"",""5444""
","
","","","537.1999998092651","","","20","10161","4872","&#9826;","elianto","#f73b6a7A","-1"," ","0","-10","[1391.2999997138977]","1","0","3","","","","","","","",""
"pit-trial","64","557167","0.0-2.0-14.1-0.1","battery-v0.2","","""event"",""trial"",""time""
""fullscreenenter"",""1"",""5444""
","
","
","""event"",""trial"",""time""
""fullscreenenter"",""1"",""5444""
","
","","","-1","","","20","10161","4872","&#9826;","elianto","#f73b6a7A","-1","-1","1","0","[]","0","0","3","","","","","","","",""
"pit-trial","65","562024","0.0-2.0-14.1-1.1","battery-v0.2","","""event"",""trial"",""time""
""fullscreenenter"",""1"",""5444""
","
","
","""event"",""trial"",""time""
""fullscreenenter"",""1"",""5444""
","
","","","-1","","","20","10161","4872","&#9826;","elianto","#f73b6a7A","-1","-1","1","0","[]","0","0","3","","","","","","","",""
"pit-trial","66","566877","0.0-2.0-14.1-2.1","battery-v0.2","","""event"",""trial"",""time""
""fullscreenenter"",""1"",""5444""
","
","
","""event"",""trial"",""time""
""fullscreenenter"",""1"",""5444""
","
","","","-1","","","20","10161","4872","&#9826;","elianto","#f73b6a7A","-1","-1","1","0","[]","0","0","3","","","","","","","",""
"pit-trial","67","571728","0.0-2.0-14.1-3.1","battery-v0.2","","""event"",""trial"",""time""
""fullscreenenter"",""1"",""5444""
","
","
","""event"",""trial"",""time""
""fullscreenenter"",""1"",""5444""
","
","","","-1","","","20","10161","4872","&#9826;","elianto","#f73b6a7A","-1","-1","1","-10","[]","0","0","3","","","","","","","",""
"pit-trial","68","576581","0.0-2.0-14.1-4.1","battery-v0.2","","""event"",""trial"",""time""
""fullscreenenter"",""1"",""5444""
","
","
","""event"",""trial"",""time""
""fullscreenenter"",""1"",""5444""
","
","","","-1","","","20","10161","4872","&#9826;","elianto","#f73b6a7A","-1","-1","1","0","[]","0","0","3","","","","","","","",""
"pit-trial","69","581433","0.0-2.0-14.2-0.2","battery-v0.2","","""event"",""trial"",""time""
""fullscreenenter"",""1"",""5444""
","
","
","""event"",""trial"",""time""
""fullscreenenter"",""1"",""5444""
","
","","","-1","","","20","10161","4872","&#9826;","elianto","#f73b6a7A","-1","-1","1","0","[]","0","0","3","","","","","","","",""
"pit-trial","70","586285","0.0-2.0-14.2-1.2","battery-v0.2","","""event"",""trial"",""time""
""fullscreenenter"",""1"",""5444""
","
","
","""event"",""trial"",""time""
""fullscreenenter"",""1"",""5444""
","
","","","-1","","","20","10161","4872","&#9826;","elianto","#f73b6a7A","-1","-1","1","0","[]","0","0","3","","","","","","","",""
"pit-trial","71","591137","0.0-2.0-14.2-2.2","battery-v0.2","","""event"",""trial"",""time""
""fullscreenenter"",""1"",""5444""
","
","
","""event"",""trial"",""time""
""fullscreenenter"",""1"",""5444""
","
","","","-1","","","20","10161","4872","&#9826;","elianto","#f73b6a7A","-1","-1","1","0","[]","0","0","3","","","","","","","",""
"pit-trial","72","595990","0.0-2.0-14.2-3.2","battery-v0.2","","""event"",""trial"",""time""
""fullscreenenter"",""1"",""5444""
","
","
","""event"",""trial"",""time""
""fullscreenenter"",""1"",""5444""
","
","","","-1","","","20","10161","4872","&#9826;","elianto","#f73b6a7A","-1","-1","1","-10","[]","0","0","3","","","","","","","",""
"pit-trial","73","600842","0.0-2.0-14.2-4.2","battery-v0.2","","""event"",""trial"",""time""
""fullscreenenter"",""1"",""5444""
","
","
","""event"",""trial"",""time""
""fullscreenenter"",""1"",""5444""
","
","","","-1","","","20","10161","4872","&#9826;","elianto","#f73b6a7A","-1","-1","1","0","[]","0","0","3","","","","","","","",""
"pit-trial","74","605695","0.0-2.0-14.3-0.3","battery-v0.2","","""event"",""trial"",""time""
""fullscreenenter"",""1"",""5444""
","
","
","""event"",""trial"",""time""
""fullscreenenter"",""1"",""5444""
","
","","","-1","","","20","10161","4872","&#9826;","elianto","#f73b6a7A","-1","-1","1","0","[]","0","0","3","","","","","","","",""
"pit-trial","75","610548","0.0-2.0-14.3-1.3","battery-v0.2","","""event"",""trial"",""time""
""fullscreenenter"",""1"",""5444""
","
","
","""event"",""trial"",""time""
""fullscreenenter"",""1"",""5444""
","
","","","-1","","","20","10161","4872","&#9826;","elianto","#f73b6a7A","-1","-1","1","0","[]","0","0","3","","","","","","","",""
"pit-trial","76","615401","0.0-2.0-14.3-2.3","battery-v0.2","","""event"",""trial"",""time""
""fullscreenenter"",""1"",""5444""
","
","
","""event"",""trial"",""time""
""fullscreenenter"",""1"",""5444""
","
","","","-1","","","20","10161","4872","&#9826;","elianto","#f73b6a7A","-1","-1","1","0","[]","0","0","3","","","","","","","",""
"pit-trial","77","620253","0.0-2.0-14.3-3.3","battery-v0.2","","""event"",""trial"",""time""
""fullscreenenter"",""1"",""5444""
","
","
","""event"",""trial"",""time""
""fullscreenenter"",""1"",""5444""
","
","","","-1","","","20","10161","4872","&#9826;","elianto","#f73b6a7A","-1","-1","1","-10","[]","0","0","3","","","","","","","",""
"pit-trial","78","625106","0.0-2.0-14.3-4.3","battery-v0.2","","""event"",""trial"",""time""
""fullscreenenter"",""1"",""5444""
","
","
","""event"",""trial"",""time""
""fullscreenenter"",""1"",""5444""
","
","","","-1","","","20","10161","4872","&#9826;","elianto","#f73b6a7A","-1","-1","1","0","[]","0","0","3","","","","","","","",""
"call-function","79","625107","0.0-2.0-15.0","battery-v0.2","","""event"",""trial"",""time""
""fullscreenenter"",""1"",""5444""
","
","
","""event"",""trial"",""time""
""fullscreenenter"",""1"",""5444""
","
","","","","","","","","","","","","","","","","","","","","","","","","","","",""
"pit-instructions","80","650156","0.0-2.0-16.0","battery-v0.2","","""event"",""trial"",""time""
""fullscreenenter"",""1"",""5444""
","
","
","""event"",""trial"",""time""
""fullscreenenter"",""1"",""5444""
","
","","[{""page_index"":0,""viewing_time"":7068.300000190735},{""page_index"":1,""viewing_time"":8371},{""page_index"":2,""viewing_time"":4310.400000095367},{""page_index"":3,""viewing_time"":5298.799999713898}]","25048.700000286102","","","","","","","","","","","","","","","","","","","","","","","",""
"pit-trial","81","654068","0.0-2.0-17.0-0.0","battery-v0.2","","""event"",""trial"",""time""
""fullscreenenter"",""1"",""5444""
","
","
","""event"",""trial"",""time""
""fullscreenenter"",""1"",""5444""
","
","","","1059.0999999046326","","","20","10161","4872","&#9789;","elianto","#f73b6a7A"," "," ","1","0","[1909.2000002861023]","1","0","4","","","","","","","",""
"pit-trial","82","657521","0.0-2.0-17.0-1.0","battery-v0.2","","""event"",""trial"",""time""
""fullscreenenter"",""1"",""5444""
","
","
","""event"",""trial"",""time""
""fullscreenenter"",""1"",""5444""
","
","","","584.7000002861023","","","20","10161","4872","&#9789;","elianto","#f73b6a7A"," "," ","1","0","[1438.4000000953674]","1","0","4","","","","","","","",""
"pit-trial","83","660835","0.0-2.0-17.0-2.0","battery-v0.2","","""event"",""trial"",""time""
""fullscreenenter"",""1"",""5444""
","
","
","""event"",""trial"",""time""
""fullscreenenter"",""1"",""5444""
","
","","","455","","","20","10161","4872","&#9789;","elianto","#f73b6a7A"," "," ","1","0","[1305.2000002861023]","1","0","4","","","","","","","",""
"pit-trial","84","665702","0.0-2.0-17.0-3.0","battery-v0.2","","""event"",""trial"",""time""
""fullscreenenter"",""1"",""5444""
","
","
","""event"",""trial"",""time""
""fullscreenenter"",""1"",""5444""
","
","","","-1","","","20","10161","4872","&#9789;","elianto","#f73b6a7A"," ","-1","0","0","[]","0","0","4","","","","","","","",""
"pit-trial","85","670562","0.0-2.0-17.0-4.0","battery-v0.2","","""event"",""trial"",""time""
""fullscreenenter"",""1"",""5444""
","
","
","""event"",""trial"",""time""
""fullscreenenter"",""1"",""5444""
","
","","","-1","","","20","10161","4872","&#9789;","elianto","#f73b6a7A"," ","-1","0","-10","[]","0","0","4","","","","","","","",""
"pit-trial","86","673885","0.0-2.0-17.1-0.1","battery-v0.2","","""event"",""trial"",""time""
""fullscreenenter"",""1"",""5444""
","
","
","""event"",""trial"",""time""
""fullscreenenter"",""1"",""5444""
","
","","","465","","","20","10161","4872","&#9789;","elianto","#f73b6a7A"," "," ","1","0","[1315]","1","0","4","","","","","","","",""
"pit-trial","87","677271","0.0-2.0-17.1-1.1","battery-v0.2","","""event"",""trial"",""time""
""fullscreenenter"",""1"",""5444""
","
","
","""event"",""trial"",""time""
""fullscreenenter"",""1"",""5444""
","
","","","523.5999999046326","","","20","10161","4872","&#9789;","elianto","#f73b6a7A"," "," ","1","0","[1375.1999998092651]","1","0","4","","","","","","","",""
"pit-trial","88","680550","0.0-2.0-17.1-2.1","battery-v0.2","","""event"",""trial"",""time""
""fullscreenenter"",""1"",""5444""
","
","
","""event"",""trial"",""time""
""fullscreenenter"",""1"",""5444""
","
","","","427.40000009536743","","","20","10161","4872","&#9789;","elianto","#f73b6a7A"," "," ","1","0","[1277.5]","1","0","4","","","","","","","",""
"pit-trial","89","683799","0.0-2.0-17.1-3.1","battery-v0.2","","""event"",""trial"",""time""
""fullscreenenter"",""1"",""5444""
","
","
","""event"",""trial"",""time""
""fullscreenenter"",""1"",""5444""
","
","","","395.7000002861023","","","20","10161","4872","&#9789;","elianto","#f73b6a7A"," "," ","1","-10","[1246.2999997138977]","1","0","4","","","","","","","",""
"pit-trial","90","687007","0.0-2.0-17.1-4.1","battery-v0.2","","""event"",""trial"",""time""
""fullscreenenter"",""1"",""5444""
","
","
","""event"",""trial"",""time""
""fullscreenenter"",""1"",""5444""
","
","","","356.30000019073486","","","20","10161","4872","&#9789;","elianto","#f73b6a7A"," "," ","1","0","[1206.6000003814697]","1","0","4","","","","","","","",""
"pit-trial","91","690256","0.0-2.0-17.2-0.2","battery-v0.2","","""event"",""trial"",""time""
""fullscreenenter"",""1"",""5444""
","
","
","""event"",""trial"",""time""
""fullscreenenter"",""1"",""5444""
","
","","","396.30000019073486","","","20","10161","4872","&#9789;","elianto","#f73b6a7A"," "," ","1","0","[1246.8000001907349]","1","0","4","","","","","","","",""
"pit-trial","92","693497","0.0-2.0-17.2-1.2","battery-v0.2","","""event"",""trial"",""time""
""fullscreenenter"",""1"",""5444""
","
","
","""event"",""trial"",""time""
""fullscreenenter"",""1"",""5444""
","
","","","389.2000002861023","","","20","10161","4872","&#9789;","elianto","#f73b6a7A"," "," ","1","0","[1239.5]","1","0","4","","","","","","","",""
"pit-trial","93","696729","0.0-2.0-17.2-2.2","battery-v0.2","","""event"",""trial"",""time""
""fullscreenenter"",""1"",""5444""
","
","
","""event"",""trial"",""time""
""fullscreenenter"",""1"",""5444""
","
","","","379.2000002861023","","","20","10161","4872","&#9789;","elianto","#f73b6a7A"," "," ","1","0","[1230]","1","0","4","","","","","","","",""
"pit-trial","94","699880","0.0-2.0-17.2-3.2","battery-v0.2","","""event"",""trial"",""time""
""fullscreenenter"",""1"",""5444""
","
","
","""event"",""trial"",""time""
""fullscreenenter"",""1"",""5444""
","
","","","299.90000009536743","","","20","10161","4872","&#9789;","elianto","#f73b6a7A"," "," ","1","-10","[1150]","1","0","4","","","","","","","",""
"pit-trial","95","703056","0.0-2.0-17.2-4.2","battery-v0.2","","""event"",""trial"",""time""
""fullscreenenter"",""1"",""5444""
","
","
","""event"",""trial"",""time""
""fullscreenenter"",""1"",""5444""
","
","","","318.7999997138977","","","20","10161","4872","&#9789;","elianto","#f73b6a7A"," "," ","1","0","[1174.9000000953674]","1","0","4","","","","","","","",""
"pit-trial","96","706275","0.0-2.0-17.3-0.3","battery-v0.2","","""event"",""trial"",""time""
""fullscreenenter"",""1"",""5444""
","
","
","""event"",""trial"",""time""
""fullscreenenter"",""1"",""5444""
","
","","","364.59999990463257","","","20","10161","4872","&#9789;","elianto","#f73b6a7A"," "," ","1","0","[1215.0999999046326]","1","0","4","","","","","","","",""
"pit-trial","97","709521","0.0-2.0-17.3-1.3","battery-v0.2","","""event"",""trial"",""time""
""fullscreenenter"",""1"",""5444""
","
","
","""event"",""trial"",""time""
""fullscreenenter"",""1"",""5444""
","
","","","394","","","20","10161","4872","&#9789;","elianto","#f73b6a7A"," "," ","1","0","[1244.5]","1","0","4","","","","","","","",""
"pit-trial","98","712714","0.0-2.0-17.3-2.3","battery-v0.2","","""event"",""trial"",""time""
""fullscreenenter"",""1"",""5444""
","
","
","""event"",""trial"",""time""
""fullscreenenter"",""1"",""5444""
","
","","","340.30000019073486","","","20","10161","4872","&#9789;","elianto","#f73b6a7A"," "," ","1","0","[1191]","1","0","4","","","","","","","",""
"pit-trial","99","715810","0.0-2.0-17.3-3.3","battery-v0.2","","""event"",""trial"",""time""
""fullscreenenter"",""1"",""5444""
","
","
","""event"",""trial"",""time""
""fullscreenenter"",""1"",""5444""
","
","","","243.39999961853027","","","20","10161","4872","&#9789;","elianto","#f73b6a7A"," "," ","1","-10","[1094.6999998092651]","1","0","4","","","","","","","",""
"pit-trial","100","719082","0.0-2.0-17.3-4.3","battery-v0.2","","""event"",""trial"",""time""
""fullscreenenter"",""1"",""5444""
","
","
","""event"",""trial"",""time""
""fullscreenenter"",""1"",""5444""
","
","","","420.19999980926514","","","20","10161","4872","&#9789;","elianto","#f73b6a7A"," "," ","1","0","[1271]","1","0","4","","","","","","","",""
"call-function","101","719083","0.0-2.0-18.0","battery-v0.2","","""event"",""trial"",""time""
""fullscreenenter"",""1"",""5444""
","
","
","""event"",""trial"",""time""
""fullscreenenter"",""1"",""5444""
","
","","","","","","","","","","","","","","","","","","","","","","","","","","",""
"pit-instructions","102","794019","0.0-2.0-19.0","battery-v0.2","","""event"",""trial"",""time""
""fullscreenenter"",""1"",""5444""
","
","
","""event"",""trial"",""time""
""fullscreenenter"",""1"",""5444""
","
","","[{""page_index"":0,""viewing_time"":9686.200000286102},{""page_index"":1,""viewing_time"":6226.400000095367},{""page_index"":2,""viewing_time"":14213.799999713898},{""page_index"":3,""viewing_time"":8581.300000190735},{""page_index"":4,""viewing_time"":8924.900000095367},{""page_index"":5,""viewing_time"":8249.199999809265},{""page_index"":6,""viewing_time"":9082.900000095367},{""page_index"":7,""viewing_time"":5944.799999713898},{""page_index"":8,""viewing_time"":4026.5}]","74936.30000019073","","","","","","","","","","","","","","","","","","","","","","","",""
"pit-comprehension","103","798692","0.0-2.0-20.0-0.0","battery-v0.2","","""event"",""trial"",""time""
""fullscreenenter"",""1"",""5444""
","
","
","""event"",""trial"",""time""
""fullscreenenter"",""1"",""5444""
","
","","","4669.599999904633","[""SPACE""]","0","20","10161","4872","","","","","","","","","","","","","","","","","","",""
"pit-instructions","104","802576","0.0-2.0-20.0-1.0","battery-v0.2","","""event"",""trial"",""time""
""fullscreenenter"",""1"",""5444""
","
","
","""event"",""trial"",""time""
""fullscreenenter"",""1"",""5444""
","
","","[{""page_index"":0,""viewing_time"":3850.800000190735}]","3851","","","","","","","","","","","","","","","","","","","","","","","",""
"pit-comprehension","105","808871","0.0-2.0-21.0-0.0","battery-v0.2","","""event"",""trial"",""time""
""fullscreenenter"",""1"",""5444""
","
","
","""event"",""trial"",""time""
""fullscreenenter"",""1"",""5444""
","
","","","6292.299999713898","[""10""]","0","20","10161","4872","","","","","","","","","","","","","","","","","","",""
"pit-instructions","106","810342","0.0-2.0-21.0-1.0","battery-v0.2","","""event"",""trial"",""time""
""fullscreenenter"",""1"",""5444""
","
","
","""event"",""trial"",""time""
""fullscreenenter"",""1"",""5444""
","
","","[{""page_index"":0,""viewing_time"":1441.6999998092651}]","1441.9000000953674","","","","","","","","","","","","","","","","","","","","","","","",""
"pit-comprehension","107","817756","0.0-2.0-22.0-0.0","battery-v0.2","","""event"",""trial"",""time""
""fullscreenenter"",""1"",""5444""
","
","
","""event"",""trial"",""time""
""fullscreenenter"",""1"",""5444""
","
","","","7412.5","[""0""]","0","20","10161","4872","","","","","","","","","","","","","","","","","","",""
"pit-instructions","108","819491","0.0-2.0-22.0-1.0","battery-v0.2","","""event"",""trial"",""time""
""fullscreenenter"",""1"",""5444""
","
","
","""event"",""trial"",""time""
""fullscreenenter"",""1"",""5444""
","
","","[{""page_index"":0,""viewing_time"":1699.0999999046326}]","1699.3000001907349","","","","","","","","","","","","","","","","","","","","","","","",""
"pit-comprehension","109","828360","0.0-2.0-23.0-0.0","battery-v0.2","","""event"",""trial"",""time""
""fullscreenenter"",""1"",""5444""
","
","
","""event"",""trial"",""time""
""fullscreenenter"",""1"",""5444""
","
","","","8867.400000095367","[""True""]","0","20","10161","4872","","","","","","","","","","","","","","","","","","",""
"pit-instructions","110","829744","0.0-2.0-23.0-1.0","battery-v0.2","","""event"",""trial"",""time""
""fullscreenenter"",""1"",""5444""
","
","
","""event"",""trial"",""time""
""fullscreenenter"",""1"",""5444""
","
","","[{""page_index"":0,""viewing_time"":1354.0999999046326}]","1354.4000000953674","","","","","","","","","","","","","","","","","","","","","","","",""
"pit-comprehension","111","837191","0.0-2.0-24.0-0.0","battery-v0.2","","""event"",""trial"",""time""
""fullscreenenter"",""1"",""5444""
","
","
","""event"",""trial"",""time""
""fullscreenenter"",""1"",""5444""
","
","","","7445","[""True""]","0","20","10161","4872","","","","","","","","","","","","","","","","","","",""
"pit-instructions","112","838571","0.0-2.0-24.0-1.0","battery-v0.2","","""event"",""trial"",""time""
""fullscreenenter"",""1"",""5444""
","
","
","""event"",""trial"",""time""
""fullscreenenter"",""1"",""5444""
","
","","[{""page_index"":0,""viewing_time"":1350.3000001907349}]","1350.4000000953674","","","","","","","","","","","","","","","","","","","","","","","",""
"pit-comprehension","113","845412","0.0-2.0-25.0-0.0","battery-v0.2","","""event"",""trial"",""time""
""fullscreenenter"",""1"",""5444""
","
","
","""event"",""trial"",""time""
""fullscreenenter"",""1"",""5444""
","
","","","6839","[""True""]","0","20","10161","4872","","","","","","","","","","","","","","","","","","",""
"pit-instructions","114","847028","0.0-2.0-25.0-1.0","battery-v0.2","","""event"",""trial"",""time""
""fullscreenenter"",""1"",""5444""
","
","
","""event"",""trial"",""time""
""fullscreenenter"",""1"",""5444""
","
","","[{""page_index"":0,""viewing_time"":1580.4000000953674}]","1580.6999998092651","","","","","","","","","","","","","","","","","","","","","","","",""
"pit-comprehension","115","853767","0.0-2.0-26.0-0.0","battery-v0.2","","""event"",""trial"",""time""
""fullscreenenter"",""1"",""5444""
","
","
","""event"",""trial"",""time""
""fullscreenenter"",""1"",""5444""
","
","","","6736.60000038147","[""False""]","0","20","10161","4872","","","","","","","","","","","","","","","","","","",""
"pit-instructions","116","855177","0.0-2.0-26.0-1.0","battery-v0.2","","""event"",""trial"",""time""
""fullscreenenter"",""1"",""5444""
","
","
","""event"",""trial"",""time""
""fullscreenenter"",""1"",""5444""
","
","","[{""page_index"":0,""viewing_time"":1379.7999997138977}]","1380.0999999046326","","","","","","","","","","","","","","","","","","","","","","","",""
"pit-instructions","117","986361","0.0-3.0","battery-v0.2","","""event"",""trial"",""time""
""fullscreenenter"",""1"",""5444""
","
","
","""event"",""trial"",""time""
""fullscreenenter"",""1"",""5444""
","
","","[{""page_index"":0,""viewing_time"":4228.800000190735},{""page_index"":1,""viewing_time"":5106},{""page_index"":2,""viewing_time"":121847.09999990463}]","131182.09999990463","","","","","","","","","","","","","","","","","","","","","","","",""
"pit-trial","118","989828","0.0-4.0","battery-v0.2","","""event"",""trial"",""time""
""fullscreenenter"",""1"",""5444""
","
","
","""event"",""trial"",""time""
""fullscreenenter"",""1"",""5444""
","
","","","611.5999999046326","","","20","10161","4872","&#9752;","elianto","#f73b6a7A"," "," ","1","0","[1463]","1","1","","","10161","1","3","3","lose","go","0"
"pit-trial","119","993412","0.0-5.0","battery-v0.2","","""event"",""trial"",""time""
""fullscreenenter"",""1"",""5444""
","
","
","""event"",""trial"",""time""
""fullscreenenter"",""1"",""5444""
","
","","","730.9000000953674","","","20","10161","4872","&#9728;","elianto","#f73b6a7A","-1"," ","0","-10","[1583]","1","1","","","10161","2","0","4","lose","no-go","0"
"pit-trial","120","997062","0.0-6.0","battery-v0.2","","""event"",""trial"",""time""
""fullscreenenter"",""1"",""5444""
","
","
","""event"",""trial"",""time""
""fullscreenenter"",""1"",""5444""
","
","","","796.9000000953674","","","20","10161","4872","&#9733;","elianto","#3366ff99","-1"," ","0","0","[1647.0999999046326]","1","1","","","10161","3","2","2","win","no-go","0"
"pit-trial","121","1000573","0.0-7.0","battery-v0.2","","""event"",""trial"",""time""
""fullscreenenter"",""1"",""5444""
","
","
","""event"",""trial"",""time""
""fullscreenenter"",""1"",""5444""
","
","","","659.5","","","20","10161","4872","&#9730;","elianto","#3366ff99"," "," ","1","+10","[1510.5]","1","1","","","10161","4","1","1","win","go","0"
"pit-trial","122","1004278","0.0-8.0","battery-v0.2","","""event"",""trial"",""time""
""fullscreenenter"",""1"",""5444""
","
","
","""event"",""trial"",""time""
""fullscreenenter"",""1"",""5444""
","
","","","852.0999999046326","","","20","10161","4872","&#9730;","elianto","#3366ff99"," "," ","1","+10","[1702.7999997138977]","1","1","","","10161","5","1","1","win","go","0"
"pit-trial","123","1007982","0.0-9.0","battery-v0.2","","""event"",""trial"",""time""
""fullscreenenter"",""1"",""5444""
","
","
","""event"",""trial"",""time""
""fullscreenenter"",""1"",""5444""
","
","","","852.4000000953674","","","20","10161","4872","&#9752;","elianto","#f73b6a7A"," "," ","1","0","[1702.6000003814697]","1","1","","","10161","6","3","3","lose","go","0"
"pit-trial","124","1012834","0.0-10.0","battery-v0.2","","""event"",""trial"",""time""
""fullscreenenter"",""1"",""5444""
","
","
","""event"",""trial"",""time""
""fullscreenenter"",""1"",""5444""
","
","","","-1","","","20","10161","4872","&#9733;","elianto","#3366ff99","-1","-1","1","+10","[]","0","1","","","10161","7","2","2","win","no-go","0"
"pit-trial","125","1016562","0.0-11.0","battery-v0.2","","""event"",""trial"",""time""
""fullscreenenter"",""1"",""5444""
","
","
","""event"",""trial"",""time""
""fullscreenenter"",""1"",""5444""
","
","","","875.4000000953674","","","20","10161","4872","&#9728;","elianto","#f73b6a7A","-1"," ","0","-10","[1725.5]","1","1","","","10161","8","0","4","lose","no-go","0"
"pit-trial","126","1021414","0.0-12.0","battery-v0.2","","""event"",""trial"",""time""
""fullscreenenter"",""1"",""5444""
","
","
","""event"",""trial"",""time""
""fullscreenenter"",""1"",""5444""
","
","","","-1","","","20","10161","4872","&#9728;","elianto","#f73b6a7A","-1","-1","1","0","[]","0","1","","","10161","9","0","4","lose","no-go","0"
"pit-trial","127","1024897","0.0-13.0","battery-v0.2","","""event"",""trial"",""time""
""fullscreenenter"",""1"",""5444""
","
","
","""event"",""trial"",""time""
""fullscreenenter"",""1"",""5444""
","
","","","630.4000000953674","","","20","10161","4872","&#9752;","elianto","#f73b6a7A"," "," ","1","0","[1481.2000002861023]","1","1","","","10161","10","3","3","lose","go","0"
"pit-trial","128","1028409","0.0-14.0","battery-v0.2","","""event"",""trial"",""time""
""fullscreenenter"",""1"",""5444""
","
","
","""event"",""trial"",""time""
""fullscreenenter"",""1"",""5444""
","
","","","660","","","20","10161","4872","&#9730;","elianto","#3366ff99"," "," ","1","0","[1510.3000001907349]","1","1","","","10161","11","1","1","win","go","1"
"pit-trial","129","1033262","0.0-15.0","battery-v0.2","","""event"",""trial"",""time""
""fullscreenenter"",""1"",""5444""
","
","
","""event"",""trial"",""time""
""fullscreenenter"",""1"",""5444""
","
","","","-1","","","20","10161","4872","&#9733;","elianto","#3366ff99","-1","-1","1","+10","[]","0","1","","","10161","12","2","2","win","no-go","0"
"pit-trial","130","1036882","0.0-16.0","battery-v0.2","","""event"",""trial"",""time""
""fullscreenenter"",""1"",""5444""
","
","
","""event"",""trial"",""time""
""fullscreenenter"",""1"",""5444""
","
","","","767.9000000953674","","","20","10161","4872","&#9730;","elianto","#3366ff99"," "," ","1","+10","[1618]","1","1","","","10161","13","1","1","win","go","0"
"pit-trial","131","1041735","0.0-17.0","battery-v0.2","","""event"",""trial"",""time""
""fullscreenenter"",""1"",""5444""
","
","
","""event"",""trial"",""time""
""fullscreenenter"",""1"",""5444""
","
","","","-1","","","20","10161","4872","&#9733;","elianto","#3366ff99","-1","-1","1","+10","[]","0","1","","","10161","14","2","2","win","no-go","0"
"pit-trial","132","1045235","0.0-18.0","battery-v0.2","","""event"",""trial"",""time""
""fullscreenenter"",""1"",""5444""
","
","
","""event"",""trial"",""time""
""fullscreenenter"",""1"",""5444""
","
","","","647.4000000953674","","","20","10161","4872","&#9752;","elianto","#f73b6a7A"," "," ","1","0","[1498.2999997138977]","1","1","","","10161","15","3","3","lose","go","0"
"pit-trial","133","1050089","0.0-19.0","battery-v0.2","","""event"",""trial"",""time""
""fullscreenenter"",""1"",""5444""
","
","
","""event"",""trial"",""time""
""fullscreenenter"",""1"",""5444""
","
","","","-1","","","20","10161","4872","&#9728;","elianto","#f73b6a7A","-1","-1","1","0","[]","0","1","","","10161","16","0","4","lose","no-go","0"
"pit-trial","134","1054940","0.0-20.0","battery-v0.2","","""event"",""trial"",""time""
""fullscreenenter"",""1"",""5444""
","
","
","""event"",""trial"",""time""
""fullscreenenter"",""1"",""5444""
","
","","","-1","","","20","10161","4872","&#9728;","elianto","#f73b6a7A","-1","-1","1","-10","[]","0","1","","","10161","17","0","4","lose","no-go","1"
"pit-trial","135","1058437","0.0-21.0","battery-v0.2","","""event"",""trial"",""time""
""fullscreenenter"",""1"",""5444""
","
","
","""event"",""trial"",""time""
""fullscreenenter"",""1"",""5444""
","
","","","644.1999998092651","","","20","10161","4872","&#9730;","elianto","#3366ff99"," "," ","1","+10","[1494.5]","1","1","","","10161","18","1","1","win","go","0"
"pit-trial","136","1061999","0.0-22.0","battery-v0.2","","""event"",""trial"",""time""
""fullscreenenter"",""1"",""5444""
","
","
","""event"",""trial"",""time""
""fullscreenenter"",""1"",""5444""
","
","","","708.2999997138977","","","20","10161","4872","&#9752;","elianto","#f73b6a7A"," "," ","1","0","[1560.0999999046326]","1","1","","","10161","19","3","3","lose","go","0"
"pit-trial","137","1066851","0.0-23.0","battery-v0.2","","""event"",""trial"",""time""
""fullscreenenter"",""1"",""5444""
","
","
","""event"",""trial"",""time""
""fullscreenenter"",""1"",""5444""
","
","","","-1","","","20","10161","4872","&#9733;","elianto","#3366ff99","-1","-1","1","0","[]","0","1","","","10161","20","2","2","win","no-go","1"
"pit-instructions","138","1138718","0.0-24.0","battery-v0.2","","""event"",""trial"",""time""
""fullscreenenter"",""1"",""5444""
","
","
","""event"",""trial"",""time""
""fullscreenenter"",""1"",""5444""
","
","","[{""page_index"":0,""viewing_time"":6404.400000095367},{""page_index"":1,""viewing_time"":65461.699999809265}]","71866.30000019073","","","","","","","","","","","","","","","","","","","","","","","",""
"pit-trial","139","1143572","0.0-25.0","battery-v0.2","","""event"",""trial"",""time""
""fullscreenenter"",""1"",""5444""
","
","
","""event"",""trial"",""time""
""fullscreenenter"",""1"",""5444""
","
","","","-1","","","20","10161","4872","n","elianto","#f73b6a7A"," ","-1","0","-10","[]","0","2","","","10161","21","0","3","lose","go","0"
"pit-trial","140","1147210","0.0-26.0","battery-v0.2","","""event"",""trial"",""time""
""fullscreenenter"",""1"",""5444""
","
","
","""event"",""trial"",""time""
""fullscreenenter"",""1"",""5444""
","
","","","785.9000000953674","","","20","10161","4872","f","elianto","#3366ff99","-1"," ","0","0","[1636.6999998092651]","1","2","","","10161","22","1","2","win","no-go","0"
"pit-trial","141","1152063","0.0-27.0","battery-v0.2","","""event"",""trial"",""time""
""fullscreenenter"",""1"",""5444""
","
","
","""event"",""trial"",""time""
""fullscreenenter"",""1"",""5444""
","
","","","-1","","","20","10161","4872","t","elianto","#f73b6a7A"," ","-1","0","-10","[]","0","2","","","10161","23","2","3","lose","go","0"
"pit-trial","142","1156915","0.0-28.0","battery-v0.2","","""event"",""trial"",""time""
""fullscreenenter"",""1"",""5444""
","
","
","""event"",""trial"",""time""
""fullscreenenter"",""1"",""5444""
","
","","","-1","","","20","10161","4872","b","elianto","#f73b6a7A","-1","-1","1","0","[]","0","2","","","10161","24","3","4","lose","no-go","0"
"pit-trial","143","1160474","0.0-29.0","battery-v0.2","","""event"",""trial"",""time""
""fullscreenenter"",""1"",""5444""
","
","
","""event"",""trial"",""time""
""fullscreenenter"",""1"",""5444""
","
","","","705.2000002861023","","","20","10161","4872","t","elianto","#f73b6a7A"," "," ","1","0","[1556.3000001907349]","1","2","","","10161","25","2","3","lose","go","0"
"pit-trial","144","1165327","0.0-30.0","battery-v0.2","","""event"",""trial"",""time""
""fullscreenenter"",""1"",""5444""
","
","
","""event"",""trial"",""time""
""fullscreenenter"",""1"",""5444""
","
","","","-1","","","20","10161","4872","f","elianto","#3366ff99","-1","-1","1","+10","[]","0","2","","","10161","26","1","2","win","no-go","0"
"pit-trial","145","1169259","0.0-31.0","battery-v0.2","","""event"",""trial"",""time""
""fullscreenenter"",""1"",""5444""
","
","
","""event"",""trial"",""time""
""fullscreenenter"",""1"",""5444""
","
","","","1078.7999997138977","","","20","10161","4872","n","elianto","#f73b6a7A"," "," ","1","0","[1930.1999998092651]","1","2","","","10161","27","0","3","lose","go","0"
"pit-trial","146","1173262","0.0-32.0","battery-v0.2","","""event"",""trial"",""time""
""fullscreenenter"",""1"",""5444""
","
","
","""event"",""trial"",""time""
""fullscreenenter"",""1"",""5444""
","
","","","1148.7000002861023","","","20","10161","4872","b","elianto","#f73b6a7A","-1"," ","0","0","[1999.9000000953674]","1","2","","","10161","28","3","4","lose","no-go","1"
"pit-trial","147","1177101","0.0-33.0","battery-v0.2","","""event"",""trial"",""time""
""fullscreenenter"",""1"",""5444""
","
","
","""event"",""trial"",""time""
""fullscreenenter"",""1"",""5444""
","
","","","985.0999999046326","","","20","10161","4872","b","elianto","#f73b6a7A","-1"," ","0","-10","[1835.4000000953674]","1","2","","","10161","29","3","4","lose","no-go","0"
"pit-trial","148","1181312","0.0-34.0","battery-v0.2","","""event"",""trial"",""time""
""fullscreenenter"",""1"",""5444""
","
","
","""event"",""trial"",""time""
""fullscreenenter"",""1"",""5444""
","
","","","1358.3000001907349","","","20","10161","4872","f","elianto","#3366ff99","-1"," ","0","0","[2208.6000003814697]","1","2","","","10161","30","1","2","win","no-go","0"
"pit-trial","149","1186166","0.0-35.0","battery-v0.2","","""event"",""trial"",""time""
""fullscreenenter"",""1"",""5444""
","
","
","""event"",""trial"",""time""
""fullscreenenter"",""1"",""5444""
","
","","","-1","","","20","10161","4872","n","elianto","#f73b6a7A"," ","-1","0","-10","[]","0","2","","","10161","31","0","3","lose","go","0"
"pit-trial","150","1190085","0.0-36.0","battery-v0.2","","""event"",""trial"",""time""
""fullscreenenter"",""1"",""5444""
","
","
","""event"",""trial"",""time""
""fullscreenenter"",""1"",""5444""
","
","","","1066.4000000953674","","","20","10161","4872","t","elianto","#f73b6a7A"," "," ","1","0","[1917.4000000953674]","1","2","","","10161","32","2","3","lose","go","0"
"pit-trial","151","1194939","0.0-37.0","battery-v0.2","","""event"",""trial"",""time""
""fullscreenenter"",""1"",""5444""
","
","
","""event"",""trial"",""time""
""fullscreenenter"",""1"",""5444""
","
","","","-1","","","20","10161","4872","b","elianto","#f73b6a7A","-1","-1","1","0","[]","0","2","","","10161","33","3","4","lose","no-go","0"
"pit-trial","152","1198670","0.0-38.0","battery-v0.2","","""event"",""trial"",""time""
""fullscreenenter"",""1"",""5444""
","
","
","""event"",""trial"",""time""
""fullscreenenter"",""1"",""5444""
","
","","","878.8000001907349","","","20","10161","4872","t","elianto","#f73b6a7A"," "," ","1","-10","[1729.6999998092651]","1","2","","","10161","34","2","3","lose","go","1"
"pit-trial","153","1203238","0.0-39.0","battery-v0.2","","""event"",""trial"",""time""
""fullscreenenter"",""1"",""5444""
","
","
","""event"",""trial"",""time""
""fullscreenenter"",""1"",""5444""
","
","","","1716.3000001907349","","","20","10161","4872","f","elianto","#3366ff99","-1"," ","0","0","[2566.5]","1","2","","","10161","35","1","2","win","no-go","0"
"pit-trial","154","1207262","0.0-40.0","battery-v0.2","","""event"",""trial"",""time""
""fullscreenenter"",""1"",""5444""
","
","
","""event"",""trial"",""time""
""fullscreenenter"",""1"",""5444""
","
","","","1171.8000001907349","","","20","10161","4872","n","elianto","#f73b6a7A"," "," ","1","0","[2022.5999999046326]","1","2","","","10161","36","0","3","lose","go","0"
"pit-trial","155","1210911","0.0-41.0","battery-v0.2","","""event"",""trial"",""time""
""fullscreenenter"",""1"",""5444""
","
","
","""event"",""trial"",""time""
""fullscreenenter"",""1"",""5444""
","
","","","796.9000000953674","","","20","10161","4872","n","elianto","#f73b6a7A"," "," ","1","0","[1647.4000000953674]","1","2","","","10161","37","0","3","lose","go","0"
"pit-trial","156","1215764","0.0-42.0","battery-v0.2","","""event"",""trial"",""time""
""fullscreenenter"",""1"",""5444""
","
","
","""event"",""trial"",""time""
""fullscreenenter"",""1"",""5444""
","
","","","-1","","","20","10161","4872","b","elianto","#f73b6a7A","-1","-1","1","-10","[]","0","2","","","10161","38","3","4","lose","no-go","1"
"pit-trial","157","1220616","0.0-43.0","battery-v0.2","","""event"",""trial"",""time""
""fullscreenenter"",""1"",""5444""
","
","
","""event"",""trial"",""time""
""fullscreenenter"",""1"",""5444""
","
","","","-1","","","20","10161","4872","f","elianto","#3366ff99","-1","-1","1","0","[]","0","2","","","10161","39","1","2","win","no-go","1"
"pit-trial","158","1224554","0.0-44.0","battery-v0.2","","""event"",""trial"",""time""
""fullscreenenter"",""1"",""5444""
","
","
","""event"",""trial"",""time""
""fullscreenenter"",""1"",""5444""
","
","","","1084.6999998092651","","","20","10161","4872","t","elianto","#f73b6a7A"," "," ","1","0","[1935.4000000953674]","1","2","","","10161","40","2","3","lose","go","0"
"pit-trial","159","1229408","0.0-45.0","battery-v0.2","","""event"",""trial"",""time""
""fullscreenenter"",""1"",""5444""
","
","
","""event"",""trial"",""time""
""fullscreenenter"",""1"",""5444""
","
","","","-1","","","20","10161","4872","f","elianto","#3366ff99","-1","-1","1","+10","[]","0","2","","","10161","41","1","2","win","no-go","0"
"pit-trial","160","1233026","0.0-46.0","battery-v0.2","","""event"",""trial"",""time""
""fullscreenenter"",""1"",""5444""
","
","
","""event"",""trial"",""time""
""fullscreenenter"",""1"",""5444""
","
","","","766.2999997138977","","","20","10161","4872","n","elianto","#f73b6a7A"," "," ","1","-10","[1616.4000000953674]","1","2","","","10161","42","0","3","lose","go","1"
"pit-trial","161","1236973","0.0-47.0","battery-v0.2","","""event"",""trial"",""time""
""fullscreenenter"",""1"",""5444""
","
","
","""event"",""trial"",""time""
""fullscreenenter"",""1"",""5444""
","
","","","1094.5","","","20","10161","4872","t","elianto","#f73b6a7A"," "," ","1","0","[1944.6999998092651]","1","2","","","10161","43","2","3","lose","go","0"
"pit-trial","162","1241831","0.0-48.0","battery-v0.2","","""event"",""trial"",""time""
""fullscreenenter"",""1"",""5444""
","
","
","""event"",""trial"",""time""
""fullscreenenter"",""1"",""5444""
","
","","","-1","","","20","10161","4872","b","elianto","#f73b6a7A","-1","-1","1","-10","[]","0","2","","","10161","44","3","4","lose","no-go","1"
"pit-trial","163","1245620","0.0-49.0","battery-v0.2","","""event"",""trial"",""time""
""fullscreenenter"",""1"",""5444""
","
","
","""event"",""trial"",""time""
""fullscreenenter"",""1"",""5444""
","
","","","936.2999997138977","","","20","10161","4872","t","elianto","#f73b6a7A"," "," ","1","0","[1786.5]","1","2","","","10161","45","2","3","lose","go","0"
"pit-trial","164","1249207","0.0-50.0","battery-v0.2","","""event"",""trial"",""time""
""fullscreenenter"",""1"",""5444""
","
","
","""event"",""trial"",""time""
""fullscreenenter"",""1"",""5444""
","
","","","734.1000003814697","","","20","10161","4872","b","elianto","#f73b6a7A","-1"," ","0","0","[1584.0999999046326]","1","2","","","10161","46","3","4","lose","no-go","1"
"pit-trial","165","1252756","0.0-51.0","battery-v0.2","","""event"",""trial"",""time""
""fullscreenenter"",""1"",""5444""
","
","
","""event"",""trial"",""time""
""fullscreenenter"",""1"",""5444""
","
","","","697.5999999046326","","","20","10161","4872","n","elianto","#f73b6a7A"," "," ","1","0","[1548.1999998092651]","1","2","","","10161","47","0","3","lose","go","0"
"pit-trial","166","1257221","0.0-52.0","battery-v0.2","","""event"",""trial"",""time""
""fullscreenenter"",""1"",""5444""
","
","
","""event"",""trial"",""time""
""fullscreenenter"",""1"",""5444""
","
","","","1612.5","","","20","10161","4872","f","elianto","#3366ff99","-1"," ","0","0","[2463.0999999046326]","1","2","","","10161","48","1","2","win","no-go","0"
"pit-trial","167","1262073","0.0-53.0","battery-v0.2","","""event"",""trial"",""time""
""fullscreenenter"",""1"",""5444""
","
","
","""event"",""trial"",""time""
""fullscreenenter"",""1"",""5444""
","
","","","-1","","","20","10161","4872","f","elianto","#3366ff99","-1","-1","1","+10","[]","0","2","","","10161","49","1","2","win","no-go","0"
"pit-trial","168","1265727","0.0-54.0","battery-v0.2","","""event"",""trial"",""time""
""fullscreenenter"",""1"",""5444""
","
","
","""event"",""trial"",""time""
""fullscreenenter"",""1"",""5444""
","
","","","801","","","20","10161","4872","n","elianto","#f73b6a7A"," "," ","1","0","[1651.1999998092651]","1","2","","","10161","50","0","3","lose","go","0"
"pit-trial","169","1269255","0.0-55.0","battery-v0.2","","""event"",""trial"",""time""
""fullscreenenter"",""1"",""5444""
","
","
","""event"",""trial"",""time""
""fullscreenenter"",""1"",""5444""
","
","","","675.5","","","20","10161","4872","t","elianto","#f73b6a7A"," "," ","1","0","[1525.8000001907349]","1","2","","","10161","51","2","3","lose","go","0"
"pit-trial","170","1272673","0.0-56.0","battery-v0.2","","""event"",""trial"",""time""
""fullscreenenter"",""1"",""5444""
","
","
","""event"",""trial"",""time""
""fullscreenenter"",""1"",""5444""
","
","","","565.0999999046326","","","20","10161","4872","b","elianto","#f73b6a7A","-1"," ","0","-10","[1415.2000002861023]","1","2","","","10161","52","3","4","lose","no-go","0"
"pit-trial","171","1276281","0.0-57.0","battery-v0.2","","""event"",""trial"",""time""
""fullscreenenter"",""1"",""5444""
","
","
","""event"",""trial"",""time""
""fullscreenenter"",""1"",""5444""
","
","","","755.2999997138977","","","20","10161","4872","t","elianto","#f73b6a7A"," "," ","1","0","[1606.1999998092651]","1","2","","","10161","53","2","3","lose","go","0"
"pit-trial","172","1279872","0.0-58.0","battery-v0.2","","""event"",""trial"",""time""
""fullscreenenter"",""1"",""5444""
","
","
","""event"",""trial"",""time""
""fullscreenenter"",""1"",""5444""
","
","","","738","","","20","10161","4872","b","elianto","#f73b6a7A","-1"," ","0","-10","[1588.4000000953674]","1","2","","","10161","54","3","4","lose","no-go","0"
"pit-trial","173","1283368","0.0-59.0","battery-v0.2","","""event"",""trial"",""time""
""fullscreenenter"",""1"",""5444""
","
","
","""event"",""trial"",""time""
""fullscreenenter"",""1"",""5444""
","
","","","643.5","","","20","10161","4872","n","elianto","#f73b6a7A"," "," ","1","0","[1494.2000002861023]","1","2","","","10161","55","0","3","lose","go","0"
"pit-trial","174","1288220","0.0-60.0","battery-v0.2","","""event"",""trial"",""time""
""fullscreenenter"",""1"",""5444""
","
","
","""event"",""trial"",""time""
""fullscreenenter"",""1"",""5444""
","
","","","-1","","","20","10161","4872","f","elianto","#3366ff99","-1","-1","1","+10","[]","0","2","","","10161","56","1","2","win","no-go","0"
"pit-trial","175","1291826","0.0-61.0","battery-v0.2","","""event"",""trial"",""time""
""fullscreenenter"",""1"",""5444""
","
","
","""event"",""trial"",""time""
""fullscreenenter"",""1"",""5444""
","
","","","752.2999997138977","","","20","10161","4872","t","elianto","#f73b6a7A"," "," ","1","0","[1603]","1","2","","","10161","57","2","3","lose","go","0"
"pit-trial","176","1295697","0.0-62.0","battery-v0.2","","""event"",""trial"",""time""
""fullscreenenter"",""1"",""5444""
","
","
","""event"",""trial"",""time""
""fullscreenenter"",""1"",""5444""
","
","","","1019.8000001907349","","","20","10161","4872","c","elianto","#3366ff99"," "," ","1","+10","[1869.9000000953674]","1","2","","","10161","58","4","1","win","go","0"
"pit-trial","177","1300551","0.0-63.0","battery-v0.2","","""event"",""trial"",""time""
""fullscreenenter"",""1"",""5444""
","
","
","""event"",""trial"",""time""
""fullscreenenter"",""1"",""5444""
","
","","","-1","","","20","10161","4872","b","elianto","#f73b6a7A","-1","-1","1","0","[]","0","2","","","10161","59","3","4","lose","no-go","0"
"pit-trial","178","1304227","0.0-64.0","battery-v0.2","","""event"",""trial"",""time""
""fullscreenenter"",""1"",""5444""
","
","
","""event"",""trial"",""time""
""fullscreenenter"",""1"",""5444""
","
","","","823.8000001907349","","","20","10161","4872","n","elianto","#f73b6a7A"," "," ","1","0","[1673.9000000953674]","1","2","","","10161","60","0","3","lose","go","0"
"pit-trial","179","1309080","0.0-65.0","battery-v0.2","","""event"",""trial"",""time""
""fullscreenenter"",""1"",""5444""
","
","
","""event"",""trial"",""time""
""fullscreenenter"",""1"",""5444""
","
","","","-1","","","20","10161","4872","b","elianto","#f73b6a7A","-1","-1","1","0","[]","0","2","","","10161","61","3","4","lose","no-go","0"
"pit-trial","180","1312700","0.0-66.0","battery-v0.2","","""event"",""trial"",""time""
""fullscreenenter"",""1"",""5444""
","
","
","""event"",""trial"",""time""
""fullscreenenter"",""1"",""5444""
","
","","","767.2000002861023","","","20","10161","4872","t","elianto","#f73b6a7A"," "," ","1","0","[1617.5999999046326]","1","2","","","10161","62","2","3","lose","go","0"
"pit-trial","181","1316228","0.0-67.0","battery-v0.2","","""event"",""trial"",""time""
""fullscreenenter"",""1"",""5444""
","
","
","""event"",""trial"",""time""
""fullscreenenter"",""1"",""5444""
","
","","","675.5","","","20","10161","4872","c","elianto","#3366ff99"," "," ","1","+10","[1526.3000001907349]","1","2","","","10161","63","4","1","win","go","0"
"pit-trial","182","1321081","0.0-68.0","battery-v0.2","","""event"",""trial"",""time""
""fullscreenenter"",""1"",""5444""
","
","
","""event"",""trial"",""time""
""fullscreenenter"",""1"",""5444""
","
","","","-1","","","20","10161","4872","f","elianto","#3366ff99","-1","-1","1","0","[]","0","2","","","10161","64","1","2","win","no-go","1"
"pit-trial","183","1324661","0.0-69.0","battery-v0.2","","""event"",""trial"",""time""
""fullscreenenter"",""1"",""5444""
","
","
","""event"",""trial"",""time""
""fullscreenenter"",""1"",""5444""
","
","","","728.2000002861023","","","20","10161","4872","z","elianto","#3366ff99","-1"," ","0","0","[1578.3000001907349]","1","2","","","10161","65","5","2","win","no-go","0"
"pit-trial","184","1328254","0.0-70.0","battery-v0.2","","""event"",""trial"",""time""
""fullscreenenter"",""1"",""5444""
","
","
","""event"",""trial"",""time""
""fullscreenenter"",""1"",""5444""
","
","","","740.9000000953674","","","20","10161","4872","c","elianto","#3366ff99"," "," ","1","+10","[1590.9000000953674]","1","2","","","10161","66","4","1","win","go","0"
"pit-trial","185","1333107","0.0-71.0","battery-v0.2","","""event"",""trial"",""time""
""fullscreenenter"",""1"",""5444""
","
","
","""event"",""trial"",""time""
""fullscreenenter"",""1"",""5444""
","
","","","-1","","","20","10161","4872","b","elianto","#f73b6a7A","-1","-1","1","0","[]","0","2","","","10161","67","3","4","lose","no-go","0"
"pit-trial","186","1337959","0.0-72.0","battery-v0.2","","""event"",""trial"",""time""
""fullscreenenter"",""1"",""5444""
","
","
","""event"",""trial"",""time""
""fullscreenenter"",""1"",""5444""
","
","","","-1","","","20","10161","4872","f","elianto","#3366ff99","-1","-1","1","+10","[]","0","2","","","10161","68","1","2","win","no-go","0"
"pit-trial","187","1342812","0.0-73.0","battery-v0.2","","""event"",""trial"",""time""
""fullscreenenter"",""1"",""5444""
","
","
","""event"",""trial"",""time""
""fullscreenenter"",""1"",""5444""
","
","","","-1","","","20","10161","4872","f","elianto","#3366ff99","-1","-1","1","+10","[]","0","2","","","10161","69","1","2","win","no-go","0"
"pit-trial","188","1346584","0.0-74.0","battery-v0.2","","""event"",""trial"",""time""
""fullscreenenter"",""1"",""5444""
","
","
","""event"",""trial"",""time""
""fullscreenenter"",""1"",""5444""
","
","","","919.5","","","20","10161","4872","t","elianto","#f73b6a7A"," "," ","1","0","[1770.2000002861023]","1","2","","","10161","70","2","3","lose","go","0"
"pit-trial","189","1350497","0.0-75.0","battery-v0.2","","""event"",""trial"",""time""
""fullscreenenter"",""1"",""5444""
","
","
","""event"",""trial"",""time""
""fullscreenenter"",""1"",""5444""
","
","","","1059.7999997138977","","","20","10161","4872","z","elianto","#3366ff99","-1"," ","0","+10","[1910.7999997138977]","1","2","","","10161","71","5","2","win","no-go","1"
"pit-trial","190","1353945","0.0-76.0","battery-v0.2","","""event"",""trial"",""time""
""fullscreenenter"",""1"",""5444""
","
","
","""event"",""trial"",""time""
""fullscreenenter"",""1"",""5444""
","
","","","596.5","","","20","10161","4872","c","elianto","#3366ff99"," "," ","1","+10","[1446.5]","1","2","","","10161","72","4","1","win","go","0"
"pit-trial","191","1357837","0.0-77.0","battery-v0.2","","""event"",""trial"",""time""
""fullscreenenter"",""1"",""5444""
","
","
","""event"",""trial"",""time""
""fullscreenenter"",""1"",""5444""
","
","","","1038.4000000953674","","","20","10161","4872","z","elianto","#3366ff99","-1"," ","0","0","[1889.3000001907349]","1","2","","","10161","73","5","2","win","no-go","0"
"pit-trial","192","1361562","0.0-78.0","battery-v0.2","","""event"",""trial"",""time""
""fullscreenenter"",""1"",""5444""
","
","
","""event"",""trial"",""time""
""fullscreenenter"",""1"",""5444""
","
","","","873.2000002861023","","","20","10161","4872","c","elianto","#3366ff99"," "," ","1","+10","[1723.7000002861023]","1","2","","","10161","74","4","1","win","go","0"
"pit-trial","193","1366415","0.0-79.0","battery-v0.2","","""event"",""trial"",""time""
""fullscreenenter"",""1"",""5444""
","
","
","""event"",""trial"",""time""
""fullscreenenter"",""1"",""5444""
","
","","","-1","","","20","10161","4872","f","elianto","#3366ff99","-1","-1","1","+10","[]","0","2","","","10161","75","1","2","win","no-go","0"
"pit-trial","194","1371267","0.0-80.0","battery-v0.2","","""event"",""trial"",""time""
""fullscreenenter"",""1"",""5444""
","
","
","""event"",""trial"",""time""
""fullscreenenter"",""1"",""5444""
","
","","","-1","","","20","10161","4872","b","elianto","#f73b6a7A","-1","-1","1","0","[]","0","2","","","10161","76","3","4","lose","no-go","0"
"pit-trial","195","1376130","0.0-81.0","battery-v0.2","","""event"",""trial"",""time""
""fullscreenenter"",""1"",""5444""
","
","
","""event"",""trial"",""time""
""fullscreenenter"",""1"",""5444""
","
","","","-1","","","20","10161","4872","b","elianto","#f73b6a7A","-1","-1","1","0","[]","0","2","","","10161","77","3","4","lose","no-go","0"
"pit-trial","196","1379644","0.0-82.0","battery-v0.2","","""event"",""trial"",""time""
""fullscreenenter"",""1"",""5444""
","
","
","""event"",""trial"",""time""
""fullscreenenter"",""1"",""5444""
","
","","","662.4000000953674","","","20","10161","4872","c","elianto","#3366ff99"," "," ","1","0","[1513.1000003814697]","1","2","","","10161","78","4","1","win","go","1"
"pit-trial","197","1384496","0.0-83.0","battery-v0.2","","""event"",""trial"",""time""
""fullscreenenter"",""1"",""5444""
","
","
","""event"",""trial"",""time""
""fullscreenenter"",""1"",""5444""
","
","","","-1","","","20","10161","4872","z","elianto","#3366ff99","-1","-1","1","+10","[]","0","2","","","10161","79","5","2","win","no-go","0"
"pit-trial","198","1388208","0.0-84.0","battery-v0.2","","""event"",""trial"",""time""
""fullscreenenter"",""1"",""5444""
","
","
","""event"",""trial"",""time""
""fullscreenenter"",""1"",""5444""
","
","","","859.1999998092651","","","20","10161","4872","c","elianto","#3366ff99"," "," ","1","+10","[1709.5999999046326]","1","2","","","10161","80","4","1","win","go","0"
"pit-trial","199","1393060","0.0-85.0","battery-v0.2","","""event"",""trial"",""time""
""fullscreenenter"",""1"",""5444""
","
","
","""event"",""trial"",""time""
""fullscreenenter"",""1"",""5444""
","
","","","-1","","","20","10161","4872","z","elianto","#3366ff99","-1","-1","1","+10","[]","0","2","","","10161","81","5","2","win","no-go","0"
"pit-trial","200","1396561","0.0-86.0","battery-v0.2","","""event"",""trial"",""time""
""fullscreenenter"",""1"",""5444""
","
","
","""event"",""trial"",""time""
""fullscreenenter"",""1"",""5444""
","
","","","648.9000000953674","","","20","10161","4872","c","elianto","#3366ff99"," "," ","1","+10","[1499.7000002861023]","1","2","","","10161","82","4","1","win","go","0"
"pit-trial","201","1401415","0.0-87.0","battery-v0.2","","""event"",""trial"",""time""
""fullscreenenter"",""1"",""5444""
","
","
","""event"",""trial"",""time""
""fullscreenenter"",""1"",""5444""
","
","","","-1","","","20","10161","4872","b","elianto","#f73b6a7A","-1","-1","1","-10","[]","0","2","","","10161","83","3","4","lose","no-go","1"
"pit-trial","202","1405071","0.0-88.0","battery-v0.2","","""event"",""trial"",""time""
""fullscreenenter"",""1"",""5444""
","
","
","""event"",""trial"",""time""
""fullscreenenter"",""1"",""5444""
","
","","","803.6000003814697","","","20","10161","4872","y","elianto","#f73b6a7A","-1"," ","0","-10","[1654.4000000953674]","1","2","","","10161","84","7","4","lose","no-go","0"
"pit-trial","203","1409925","0.0-89.0","battery-v0.2","","""event"",""trial"",""time""
""fullscreenenter"",""1"",""5444""
","
","
","""event"",""trial"",""time""
""fullscreenenter"",""1"",""5444""
","
","","","-1","","","20","10161","4872","z","elianto","#3366ff99","-1","-1","1","0","[]","0","2","","","10161","85","5","2","win","no-go","1"
"pit-trial","204","1413434","0.0-90.0","battery-v0.2","","""event"",""trial"",""time""
""fullscreenenter"",""1"",""5444""
","
","
","""event"",""trial"",""time""
""fullscreenenter"",""1"",""5444""
","
","","","654.8000001907349","","","20","10161","4872","c","elianto","#3366ff99"," "," ","1","+10","[1505.3000001907349]","1","2","","","10161","86","4","1","win","go","0"
"pit-trial","205","1418287","0.0-91.0","battery-v0.2","","""event"",""trial"",""time""
""fullscreenenter"",""1"",""5444""
","
","
","""event"",""trial"",""time""
""fullscreenenter"",""1"",""5444""
","
","","","-1","","","20","10161","4872","y","elianto","#f73b6a7A","-1","-1","1","0","[]","0","2","","","10161","87","7","4","lose","no-go","0"
"pit-trial","206","1422397","0.0-92.0","battery-v0.2","","""event"",""trial"",""time""
""fullscreenenter"",""1"",""5444""
","
","
","""event"",""trial"",""time""
""fullscreenenter"",""1"",""5444""
","
","","","1257.3000001907349","","","20","10161","4872","h","elianto","#f73b6a7A"," "," ","1","0","[2107.6000003814697]","1","2","","","10161","88","6","3","lose","go","0"
"pit-trial","207","1426011","0.0-93.0","battery-v0.2","","""event"",""trial"",""time""
""fullscreenenter"",""1"",""5444""
","
","
","""event"",""trial"",""time""
""fullscreenenter"",""1"",""5444""
","
","","","761","","","20","10161","4872","c","elianto","#3366ff99"," "," ","1","+10","[1611.5999999046326]","1","2","","","10161","89","4","1","win","go","0"
"pit-trial","208","1430863","0.0-94.0","battery-v0.2","","""event"",""trial"",""time""
""fullscreenenter"",""1"",""5444""
","
","
","""event"",""trial"",""time""
""fullscreenenter"",""1"",""5444""
","
","","","-1","","","20","10161","4872","h","elianto","#f73b6a7A"," ","-1","0","-10","[]","0","2","","","10161","90","6","3","lose","go","0"
"pit-trial","209","1435718","0.0-95.0","battery-v0.2","","""event"",""trial"",""time""
""fullscreenenter"",""1"",""5444""
","
","
","""event"",""trial"",""time""
""fullscreenenter"",""1"",""5444""
","
","","","-1","","","20","10161","4872","y","elianto","#f73b6a7A","-1","-1","1","0","[]","0","2","","","10161","91","7","4","lose","no-go","0"
"pit-trial","210","1440570","0.0-96.0","battery-v0.2","","""event"",""trial"",""time""
""fullscreenenter"",""1"",""5444""
","
","
","""event"",""trial"",""time""
""fullscreenenter"",""1"",""5444""
","
","","","-1","","","20","10161","4872","z","elianto","#3366ff99","-1","-1","1","+10","[]","0","2","","","10161","92","5","2","win","no-go","0"
"pit-trial","211","1445424","0.0-97.0","battery-v0.2","","""event"",""trial"",""time""
""fullscreenenter"",""1"",""5444""
","
","
","""event"",""trial"",""time""
""fullscreenenter"",""1"",""5444""
","
","","","-1","","","20","10161","4872","y","elianto","#f73b6a7A","-1","-1","1","0","[]","0","2","","","10161","93","7","4","lose","no-go","0"
"pit-trial","212","1450277","0.0-98.0","battery-v0.2","","""event"",""trial"",""time""
""fullscreenenter"",""1"",""5444""
","
","
","""event"",""trial"",""time""
""fullscreenenter"",""1"",""5444""
","
","","","-1","","","20","10161","4872","z","elianto","#3366ff99","-1","-1","1","+10","[]","0","2","","","10161","94","5","2","win","no-go","0"
"pit-trial","213","1454287","0.0-99.0","battery-v0.2","","""event"",""trial"",""time""
""fullscreenenter"",""1"",""5444""
","
","
","""event"",""trial"",""time""
""fullscreenenter"",""1"",""5444""
","
","","","1156.6999998092651","","","20","10161","4872","r","elianto","#3366ff99"," "," ","1","0","[2007.2999997138977]","1","2","","","10161","95","8","1","win","go","1"
"pit-trial","214","1457950","0.0-100.0","battery-v0.2","","""event"",""trial"",""time""
""fullscreenenter"",""1"",""5444""
","
","
","""event"",""trial"",""time""
""fullscreenenter"",""1"",""5444""
","
","","","810.7999997138977","","","20","10161","4872","h","elianto","#f73b6a7A"," "," ","1","0","[1661.6999998092651]","1","2","","","10161","96","6","3","lose","go","0"
"pit-trial","215","1461614","0.0-101.0","battery-v0.2","","""event"",""trial"",""time""
""fullscreenenter"",""1"",""5444""
","
","
","""event"",""trial"",""time""
""fullscreenenter"",""1"",""5444""
","
","","","811.8999996185303","","","20","10161","4872","r","elianto","#3366ff99"," "," ","1","+10","[1662.5999999046326]","1","2","","","10161","97","8","1","win","go","0"
"pit-trial","216","1466467","0.0-102.0","battery-v0.2","","""event"",""trial"",""time""
""fullscreenenter"",""1"",""5444""
","
","
","""event"",""trial"",""time""
""fullscreenenter"",""1"",""5444""
","
","","","-1","","","20","10161","4872","y","elianto","#f73b6a7A","-1","-1","1","0","[]","0","2","","","10161","98","7","4","lose","no-go","0"
"pit-trial","217","1470240","0.0-103.0","battery-v0.2","","""event"",""trial"",""time""
""fullscreenenter"",""1"",""5444""
","
","
","""event"",""trial"",""time""
""fullscreenenter"",""1"",""5444""
","
","","","920.2999997138977","","","20","10161","4872","h","elianto","#f73b6a7A"," "," ","1","0","[1770.5]","1","2","","","10161","99","6","3","lose","go","0"
"pit-trial","218","1475093","0.0-104.0","battery-v0.2","","""event"",""trial"",""time""
""fullscreenenter"",""1"",""5444""
","
","
","""event"",""trial"",""time""
""fullscreenenter"",""1"",""5444""
","
","","","-1","","","20","10161","4872","z","elianto","#3366ff99","-1","-1","1","+10","[]","0","2","","","10161","100","5","2","win","no-go","0"
"pit-trial","219","1479185","0.0-105.0","battery-v0.2","","""event"",""trial"",""time""
""fullscreenenter"",""1"",""5444""
","
","
","""event"",""trial"",""time""
""fullscreenenter"",""1"",""5444""
","
","","","1240.2000002861023","","","20","10161","4872","m","elianto","#3366ff99"," "," ","1","+10","[2090.7000002861023]","1","2","","","10161","101","9","1","win","go","0"
"pit-trial","220","1483250","0.0-106.0","battery-v0.2","","""event"",""trial"",""time""
""fullscreenenter"",""1"",""5444""
","
","
","""event"",""trial"",""time""
""fullscreenenter"",""1"",""5444""
","
","","","1213.1000003814697","","","20","10161","4872","r","elianto","#3366ff99"," "," ","1","+10","[2063.5]","1","2","","","10161","102","8","1","win","go","0"
"pit-trial","221","1488103","0.0-107.0","battery-v0.2","","""event"",""trial"",""time""
""fullscreenenter"",""1"",""5444""
","
","
","""event"",""trial"",""time""
""fullscreenenter"",""1"",""5444""
","
","","","-1","","","20","10161","4872","y","elianto","#f73b6a7A","-1","-1","1","0","[]","0","2","","","10161","103","7","4","lose","no-go","0"
"pit-trial","222","1492955","0.0-108.0","battery-v0.2","","""event"",""trial"",""time""
""fullscreenenter"",""1"",""5444""
","
","
","""event"",""trial"",""time""
""fullscreenenter"",""1"",""5444""
","
","","","-1","","","20","10161","4872","z","elianto","#3366ff99","-1","-1","1","0","[]","0","2","","","10161","104","5","2","win","no-go","1"
"pit-trial","223","1496683","0.0-109.0","battery-v0.2","","""event"",""trial"",""time""
""fullscreenenter"",""1"",""5444""
","
","
","""event"",""trial"",""time""
""fullscreenenter"",""1"",""5444""
","
","","","875.7999997138977","","","20","10161","4872","h","elianto","#f73b6a7A"," "," ","1","0","[1726.2999997138977]","1","2","","","10161","105","6","3","lose","go","0"
"pit-trial","224","1500467","0.0-110.0","battery-v0.2","","""event"",""trial"",""time""
""fullscreenenter"",""1"",""5444""
","
","
","""event"",""trial"",""time""
""fullscreenenter"",""1"",""5444""
","
","","","931.7999997138977","","","20","10161","4872","m","elianto","#3366ff99"," "," ","1","+10","[1782.5]","1","2","","","10161","106","9","1","win","go","0"
"pit-trial","225","1504111","0.0-111.0","battery-v0.2","","""event"",""trial"",""time""
""fullscreenenter"",""1"",""5444""
","
","
","""event"",""trial"",""time""
""fullscreenenter"",""1"",""5444""
","
","","","792.1000003814697","","","20","10161","4872","c","elianto","#3366ff99"," "," ","1","+10","[1642.5]","1","2","","","10161","107","4","1","win","go","0"
"pit-trial","226","1508100","0.0-112.0","battery-v0.2","","""event"",""trial"",""time""
""fullscreenenter"",""1"",""5444""
","
","
","""event"",""trial"",""time""
""fullscreenenter"",""1"",""5444""
","
","","","1137.6000003814697","","","20","10161","4872","r","elianto","#3366ff99"," "," ","1","+10","[1987.5]","1","2","","","10161","108","8","1","win","go","0"
"pit-trial","227","1512954","0.0-113.0","battery-v0.2","","""event"",""trial"",""time""
""fullscreenenter"",""1"",""5444""
","
","
","""event"",""trial"",""time""
""fullscreenenter"",""1"",""5444""
","
","","","-1","","","20","10161","4872","z","elianto","#3366ff99","-1","-1","1","+10","[]","0","2","","","10161","109","5","2","win","no-go","0"
"pit-trial","228","1516621","0.0-114.0","battery-v0.2","","""event"",""trial"",""time""
""fullscreenenter"",""1"",""5444""
","
","
","""event"",""trial"",""time""
""fullscreenenter"",""1"",""5444""
","
","","","815","","","20","10161","4872","h","elianto","#f73b6a7A"," "," ","1","0","[1665.5999999046326]","1","2","","","10161","110","6","3","lose","go","0"
"pit-trial","229","1520401","0.0-115.0","battery-v0.2","","""event"",""trial"",""time""
""fullscreenenter"",""1"",""5444""
","
","
","""event"",""trial"",""time""
""fullscreenenter"",""1"",""5444""
","
","","","927.5","","","20","10161","4872","r","elianto","#3366ff99"," "," ","1","0","[1778.1000003814697]","1","2","","","10161","111","8","1","win","go","1"
"pit-trial","230","1524070","0.0-116.0","battery-v0.2","","""event"",""trial"",""time""
""fullscreenenter"",""1"",""5444""
","
","
","""event"",""trial"",""time""
""fullscreenenter"",""1"",""5444""
","
","","","816.9000000953674","","","20","10161","4872","m","elianto","#3366ff99"," "," ","1","+10","[1667.0999999046326]","1","2","","","10161","112","9","1","win","go","0"
"pit-trial","231","1527677","0.0-117.0","battery-v0.2","","""event"",""trial"",""time""
""fullscreenenter"",""1"",""5444""
","
","
","""event"",""trial"",""time""
""fullscreenenter"",""1"",""5444""
","
","","","740.0999999046326","","","20","10161","4872","r","elianto","#3366ff99"," "," ","1","+10","[1590.6999998092651]","1","2","","","10161","113","8","1","win","go","0"
"pit-trial","232","1531226","0.0-118.0","battery-v0.2","","""event"",""trial"",""time""
""fullscreenenter"",""1"",""5444""
","
","
","""event"",""trial"",""time""
""fullscreenenter"",""1"",""5444""
","
","","","696.4000000953674","","","20","10161","4872","m","elianto","#3366ff99"," "," ","1","+10","[1546.7000002861023]","1","2","","","10161","114","9","1","win","go","0"
"pit-trial","233","1536078","0.0-119.0","battery-v0.2","","""event"",""trial"",""time""
""fullscreenenter"",""1"",""5444""
","
","
","""event"",""trial"",""time""
""fullscreenenter"",""1"",""5444""
","
","","","-1","","","20","10161","4872","z","elianto","#3366ff99","-1","-1","1","+10","[]","0","2","","","10161","115","5","2","win","no-go","0"
"pit-trial","234","1539625","0.0-120.0","battery-v0.2","","""event"",""trial"",""time""
""fullscreenenter"",""1"",""5444""
","
","
","""event"",""trial"",""time""
""fullscreenenter"",""1"",""5444""
","
","","","693.0999999046326","","","20","10161","4872","h","elianto","#f73b6a7A"," "," ","1","0","[1543.7999997138977]","1","2","","","10161","116","6","3","lose","go","0"
"pit-trial","235","1543105","0.0-121.0","battery-v0.2","","""event"",""trial"",""time""
""fullscreenenter"",""1"",""5444""
","
","
","""event"",""trial"",""time""
""fullscreenenter"",""1"",""5444""
","
","","","627.3000001907349","","","20","10161","4872","h","elianto","#f73b6a7A"," "," ","1","0","[1477.5]","1","2","","","10161","117","6","3","lose","go","0"
"pit-trial","236","1546578","0.0-122.0","battery-v0.2","","""event"",""trial"",""time""
""fullscreenenter"",""1"",""5444""
","
","
","""event"",""trial"",""time""
""fullscreenenter"",""1"",""5444""
","
","","","618.8000001907349","","","20","10161","4872","r","elianto","#3366ff99"," "," ","1","0","[1470.1999998092651]","1","2","","","10161","118","8","1","win","go","1"
"pit-trial","237","1549957","0.0-123.0","battery-v0.2","","""event"",""trial"",""time""
""fullscreenenter"",""1"",""5444""
","
","
","""event"",""trial"",""time""
""fullscreenenter"",""1"",""5444""
","
","","","525.7000002861023","","","20","10161","4872","m","elianto","#3366ff99"," "," ","1","0","[1376.5]","1","2","","","10161","119","9","1","win","go","1"
"pit-trial","238","1554809","0.0-124.0","battery-v0.2","","""event"",""trial"",""time""
""fullscreenenter"",""1"",""5444""
","
","
","""event"",""trial"",""time""
""fullscreenenter"",""1"",""5444""
","
","","","-1","","","20","10161","4872","z","elianto","#3366ff99","-1","-1","1","+10","[]","0","2","","","10161","120","5","2","win","no-go","0"
"pit-trial","239","1558332","0.0-125.0","battery-v0.2","","""event"",""trial"",""time""
""fullscreenenter"",""1"",""5444""
","
","
","""event"",""trial"",""time""
""fullscreenenter"",""1"",""5444""
","
","","","670.9000000953674","","","20","10161","4872","h","elianto","#f73b6a7A"," "," ","1","0","[1521.4000000953674]","1","2","","","10161","121","6","3","lose","go","0"
"pit-trial","240","1563185","0.0-126.0","battery-v0.2","","""event"",""trial"",""time""
""fullscreenenter"",""1"",""5444""
","
","
","""event"",""trial"",""time""
""fullscreenenter"",""1"",""5444""
","
","","","-1","","","20","10161","4872","r","elianto","#3366ff99"," ","-1","0","0","[]","0","2","","","10161","122","8","1","win","go","0"
"pit-trial","241","1566594","0.0-127.0","battery-v0.2","","""event"",""trial"",""time""
""fullscreenenter"",""1"",""5444""
","
","
","""event"",""trial"",""time""
""fullscreenenter"",""1"",""5444""
","
","","","557.0999999046326","","","20","10161","4872","m","elianto","#3366ff99"," "," ","1","+10","[1408.8000001907349]","1","2","","","10161","123","9","1","win","go","0"
"pit-trial","242","1571448","0.0-128.0","battery-v0.2","","""event"",""trial"",""time""
""fullscreenenter"",""1"",""5444""
","
","
","""event"",""trial"",""time""
""fullscreenenter"",""1"",""5444""
","
","","","-1","","","20","10161","4872","y","elianto","#f73b6a7A","-1","-1","1","0","[]","0","2","","","10161","124","7","4","lose","no-go","0"
"pit-trial","243","1575012","0.0-129.0","battery-v0.2","","""event"",""trial"",""time""
""fullscreenenter"",""1"",""5444""
","
","
","""event"",""trial"",""time""
""fullscreenenter"",""1"",""5444""
","
","","","712.6999998092651","","","20","10161","4872","m","elianto","#3366ff99"," "," ","1","0","[1562.8000001907349]","1","2","","","10161","125","9","1","win","go","1"
"pit-trial","244","1578788","0.0-130.0","battery-v0.2","","""event"",""trial"",""time""
""fullscreenenter"",""1"",""5444""
","
","
","""event"",""trial"",""time""
""fullscreenenter"",""1"",""5444""
","
","","","924.1000003814697","","","20","10161","4872","h","elianto","#f73b6a7A"," "," ","1","0","[1774.3000001907349]","1","2","","","10161","126","6","3","lose","go","0"
"pit-trial","245","1582509","0.0-131.0","battery-v0.2","","""event"",""trial"",""time""
""fullscreenenter"",""1"",""5444""
","
","
","""event"",""trial"",""time""
""fullscreenenter"",""1"",""5444""
","
","","","868.1999998092651","","","20","10161","4872","r","elianto","#3366ff99"," "," ","1","+10","[1718.5]","1","2","","","10161","127","8","1","win","go","0"
"pit-trial","246","1587361","0.0-132.0","battery-v0.2","","""event"",""trial"",""time""
""fullscreenenter"",""1"",""5444""
","
","
","""event"",""trial"",""time""
""fullscreenenter"",""1"",""5444""
","
","","","-1","","","20","10161","4872","y","elianto","#f73b6a7A","-1","-1","1","0","[]","0","2","","","10161","128","7","4","lose","no-go","0"
"pit-trial","247","1592214","0.0-133.0","battery-v0.2","","""event"",""trial"",""time""
""fullscreenenter"",""1"",""5444""
","
","
","""event"",""trial"",""time""
""fullscreenenter"",""1"",""5444""
","
","","","-1","","","20","10161","4872","y","elianto","#f73b6a7A","-1","-1","1","0","[]","0","2","","","10161","129","7","4","lose","no-go","0"
"pit-trial","248","1595933","0.0-134.0","battery-v0.2","","""event"",""trial"",""time""
""fullscreenenter"",""1"",""5444""
","
","
","""event"",""trial"",""time""
""fullscreenenter"",""1"",""5444""
","
","","","852.1000003814697","","","20","10161","4872","r","elianto","#3366ff99"," "," ","1","+10","[1702.8999996185303]","1","2","","","10161","130","8","1","win","go","0"
"pit-trial","249","1599584","0.0-135.0","battery-v0.2","","""event"",""trial"",""time""
""fullscreenenter"",""1"",""5444""
","
","
","""event"",""trial"",""time""
""fullscreenenter"",""1"",""5444""
","
","","","797.5","","","20","10161","4872","h","elianto","#f73b6a7A"," "," ","1","-10","[1647.8999996185303]","1","2","","","10161","131","6","3","lose","go","1"
"pit-trial","250","1603135","0.0-136.0","battery-v0.2","","""event"",""trial"",""time""
""fullscreenenter"",""1"",""5444""
","
","
","""event"",""trial"",""time""
""fullscreenenter"",""1"",""5444""
","
","","","699.5","","","20","10161","4872","m","elianto","#3366ff99"," "," ","1","+10","[1549.5999999046326]","1","2","","","10161","132","9","1","win","go","0"
"pit-trial","251","1607987","0.0-137.0","battery-v0.2","","""event"",""trial"",""time""
""fullscreenenter"",""1"",""5444""
","
","
","""event"",""trial"",""time""
""fullscreenenter"",""1"",""5444""
","
","","","-1","","","20","10161","4872","y","elianto","#f73b6a7A","-1","-1","1","0","[]","0","2","","","10161","133","7","4","lose","no-go","0"
"pit-trial","252","1611473","0.0-138.0","battery-v0.2","","""event"",""trial"",""time""
""fullscreenenter"",""1"",""5444""
","
","
","""event"",""trial"",""time""
""fullscreenenter"",""1"",""5444""
","
","","","632.0999999046326","","","20","10161","4872","h","elianto","#f73b6a7A"," "," ","1","0","[1483]","1","2","","","10161","134","6","3","lose","go","0"
"pit-trial","253","1614984","0.0-139.0","battery-v0.2","","""event"",""trial"",""time""
""fullscreenenter"",""1"",""5444""
","
","
","""event"",""trial"",""time""
""fullscreenenter"",""1"",""5444""
","
","","","658.2999997138977","","","20","10161","4872","m","elianto","#3366ff99"," "," ","1","+10","[1510.1999998092651]","1","2","","","10161","135","9","1","win","go","0"
"pit-trial","254","1618593","0.0-140.0","battery-v0.2","","""event"",""trial"",""time""
""fullscreenenter"",""1"",""5444""
","
","
","""event"",""trial"",""time""
""fullscreenenter"",""1"",""5444""
","
","","","755.5","","","20","10161","4872","r","elianto","#3366ff99"," "," ","1","+10","[1607.5]","1","2","","","10161","136","8","1","win","go","0"
"pit-trial","255","1622090","0.0-141.0","battery-v0.2","","""event"",""trial"",""time""
""fullscreenenter"",""1"",""5444""
","
","
","""event"",""trial"",""time""
""fullscreenenter"",""1"",""5444""
","
","","","643.8999996185303","","","20","10161","4872","m","elianto","#3366ff99"," "," ","1","+10","[1495.1999998092651]","1","2","","","10161","137","9","1","win","go","0"
"pit-trial","256","1625634","0.0-142.0","battery-v0.2","","""event"",""trial"",""time""
""fullscreenenter"",""1"",""5444""
","
","
","""event"",""trial"",""time""
""fullscreenenter"",""1"",""5444""
","
","","","691.2000002861023","","","20","10161","4872","h","elianto","#f73b6a7A"," "," ","1","0","[1541.7000002861023]","1","2","","","10161","138","6","3","lose","go","0"
"pit-trial","257","1629190","0.0-143.0","battery-v0.2","","""event"",""trial"",""time""
""fullscreenenter"",""1"",""5444""
","
","
","""event"",""trial"",""time""
""fullscreenenter"",""1"",""5444""
","
","","","702","","","20","10161","4872","r","elianto","#3366ff99"," "," ","1","+10","[1552.9000000953674]","1","2","","","10161","139","8","1","win","go","0"
"pit-trial","258","1634044","0.0-144.0","battery-v0.2","","""event"",""trial"",""time""
""fullscreenenter"",""1"",""5444""
","
","
","""event"",""trial"",""time""
""fullscreenenter"",""1"",""5444""
","
","","","-1","","","20","10161","4872","y","elianto","#f73b6a7A","-1","-1","1","0","[]","0","2","","","10161","140","7","4","lose","no-go","0"
"pit-instructions","259","1688397","0.0-145.0","battery-v0.2","","""event"",""trial"",""time""
""fullscreenenter"",""1"",""5444""
","
","
","""event"",""trial"",""time""
""fullscreenenter"",""1"",""5444""
","
","","[{""page_index"":0,""viewing_time"":36312.60000038147},{""page_index"":1,""viewing_time"":18040}]","54352.90000009537","","","","","","","","","","","","","","","","","","","","","","","",""
"pit-trial","260","1692082","0.0-146.0","battery-v0.2","","""event"",""trial"",""time""
""fullscreenenter"",""1"",""5444""
","
","
","""event"",""trial"",""time""
""fullscreenenter"",""1"",""5444""
","
","","","814.1999998092651","","","20","10161","4872","a","elianto","#f73b6a7A","-1"," ","0","-10","[1664.7999997138977]","1","3","","","10161","141","2","4","lose","no-go","0"
"pit-trial","261","1695630","0.0-147.0","battery-v0.2","","""event"",""trial"",""time""
""fullscreenenter"",""1"",""5444""
","
","
","""event"",""trial"",""time""
""fullscreenenter"",""1"",""5444""
","
","","","694.0999999046326","","","20","10161","4872","g","elianto","#f73b6a7A"," "," ","1","0","[1544.9000000953674]","1","3","","","10161","142","3","3","lose","go","0"
"pit-trial","262","1699171","0.0-148.0","battery-v0.2","","""event"",""trial"",""time""
""fullscreenenter"",""1"",""5444""
","
","
","""event"",""trial"",""time""
""fullscreenenter"",""1"",""5444""
","
","","","678.9000000953674","","","20","10161","4872","u","elianto","#f73b6a7A","-1"," ","0","-10","[1531.5999999046326]","1","3","","","10161","143","0","4","lose","no-go","0"
"pit-trial","263","1702728","0.0-149.0","battery-v0.2","","""event"",""trial"",""time""
""fullscreenenter"",""1"",""5444""
","
","
","""event"",""trial"",""time""
""fullscreenenter"",""1"",""5444""
","
","","","699.2000002861023","","","20","10161","4872","l","elianto","#3366ff99"," "," ","1","0","[1551.1000003814697]","1","3","","","10161","144","1","1","win","go","1"
"pit-trial","264","1707595","0.0-150.0","battery-v0.2","","""event"",""trial"",""time""
""fullscreenenter"",""1"",""5444""
","
","
","""event"",""trial"",""time""
""fullscreenenter"",""1"",""5444""
","
","","","-1","","","20","10161","4872","g","elianto","#f73b6a7A"," ","-1","0","-10","[]","0","3","","","10161","145","3","3","lose","go","0"
"pit-trial","265","1712450","0.0-151.0","battery-v0.2","","""event"",""trial"",""time""
""fullscreenenter"",""1"",""5444""
","
","
","""event"",""trial"",""time""
""fullscreenenter"",""1"",""5444""
","
","","","-1","","","20","10161","4872","a","elianto","#f73b6a7A","-1","-1","1","0","[]","0","3","","","10161","146","2","4","lose","no-go","0"
"pit-trial","266","1716617","0.0-152.0","battery-v0.2","","""event"",""trial"",""time""
""fullscreenenter"",""1"",""5444""
","
","
","""event"",""trial"",""time""
