"trial_type","trial_index","time_elapsed","internal_node_id","task_version","subject_id","interactions","blur_events","focus_events","fullscreenenter_events","fullscreenexit_events","success","view_history","rt","responses","num_errors","age","subject","participantId","rune","rune_set","hex","correct","choice","accuracy","outcome","keys","total_keys","block","practice","value","sub","trial","stimulus","robot","valence","action","sham"
"pavlovia","0","18","0.0-0.0","battery-v0.2","","""event"",""trial"",""time""
""fullscreenenter"",""1"",""1605""
","
","
","""event"",""trial"",""time""
""fullscreenenter"",""1"",""1605""
","
","","","","","","","","","","","","","","","","","","","","","","","","","","",""
"fullscreen","1","2568","0.0-1.0","battery-v0.2","","""event"",""trial"",""time""
""fullscreenenter"",""1"",""1605""
","
","
","""event"",""trial"",""time""
""fullscreenenter"",""1"",""1605""
","
","true","","","","","","","","","","","","","","","","","","","","","","","","","",""
"pit-instructions","2","8789","0.0-2.0-0.0","battery-v0.2","","""event"",""trial"",""time""
""fullscreenenter"",""1"",""1605""
","
","
","""event"",""trial"",""time""
""fullscreenenter"",""1"",""1605""
","
","","[{""page_index"":0,""viewing_time"":6216.199999988079}]","6216.699999988079","","","","","","","","","","","","","","","","","","","","","","","",""
"pit-comprehension","3","12154","0.0-2.0-1.0-0.0","battery-v0.2","","""event"",""trial"",""time""
""fullscreenenter"",""1"",""1605""
","
","
","""event"",""trial"",""time""
""fullscreenenter"",""1"",""1605""
","
","","","3355.5","[""shark""]","0","17","3037","2062","","","","","","","","","","","","","","","","","","",""
"pit-instructions","4","13946","0.0-2.0-1.0-1.0","battery-v0.2","","""event"",""trial"",""time""
""fullscreenenter"",""1"",""1605""
","
","
","""event"",""trial"",""time""
""fullscreenenter"",""1"",""1605""
","
","","[{""page_index"":0,""viewing_time"":1770}]","1770.5999999642372","","","","","","","","","","","","","","","","","","","","","","","",""
"pit-comprehension","5","16397","0.0-2.0-2.0-0.0","battery-v0.2","","""event"",""trial"",""time""
""fullscreenenter"",""1"",""1605""
","
","
","""event"",""trial"",""time""
""fullscreenenter"",""1"",""1605""
","
","","","2430.199999988079","[""tiger""]","0","17","3037","2062","","","","","","","","","","","","","","","","","","",""
"pit-instructions","6","17756","0.0-2.0-2.0-1.0","battery-v0.2","","""event"",""trial"",""time""
""fullscreenenter"",""1"",""1605""
","
","
","""event"",""trial"",""time""
""fullscreenenter"",""1"",""1605""
","
","","[{""page_index"":0,""viewing_time"":1341.1000000238419}]","1341.9000000357628","","","","","","","","","","","","","","","","","","","","","","","",""
"pit-instructions","7","128605","0.0-2.0-3.0","battery-v0.2","","""event"",""trial"",""time""
""fullscreenenter"",""1"",""1605""
","
","
","""event"",""trial"",""time""
""fullscreenenter"",""1"",""1605""
","
","","[{""page_index"":0,""viewing_time"":9304.5},{""page_index"":1,""viewing_time"":7517},{""page_index"":2,""viewing_time"":6226.699999988079},{""page_index"":3,""viewing_time"":5890.5},{""page_index"":4,""viewing_time"":6499.600000023842},{""page_index"":5,""viewing_time"":5381.5},{""page_index"":6,""viewing_time"":6820.699999988079},{""page_index"":7,""viewing_time"":9306.100000023842},{""page_index"":8,""viewing_time"":7288.899999976158},{""page_index"":9,""viewing_time"":2848.100000023842},{""page_index"":8,""viewing_time"":4935.800000011921},{""page_index"":9,""viewing_time"":8039.799999952316},{""page_index"":10,""viewing_time"":9026.900000035763},{""page_index"":11,""viewing_time"":9047.699999988079},{""page_index"":12,""viewing_time"":6811.800000011921},{""page_index"":13,""viewing_time"":5883.199999988079}]","110829.5","","","","","","","","","","","","","","","","","","","","","","","",""
"pit-trial","8","132314","0.0-2.0-4.0-0.0","battery-v0.2","","""event"",""trial"",""time""
""fullscreenenter"",""1"",""1605""
","
","
","""event"",""trial"",""time""
""fullscreenenter"",""1"",""1605""
","
","","","843.6000000238419","","","17","3037","2062","&#9784;","elianto","#FFFFF080"," "," ","1","&#10004","[1697.5]","1","0","0","","","","","","","",""
"pit-trial","9","135654","0.0-2.0-4.1-0.1","battery-v0.2","","""event"",""trial"",""time""
""fullscreenenter"",""1"",""1605""
","
","
","""event"",""trial"",""time""
""fullscreenenter"",""1"",""1605""
","
","","","459.89999997615814","","","17","3037","2062","&#9784;","elianto","#FFFFF080"," "," ","1","&#10004","[1311.5]","1","0","0","","","","","","","",""
"pit-trial","10","138893","0.0-2.0-4.2-0.2","battery-v0.2","","""event"",""trial"",""time""
""fullscreenenter"",""1"",""1605""
","
","
","""event"",""trial"",""time""
""fullscreenenter"",""1"",""1605""
","
","","","359","","","17","3037","2062","&#9784;","elianto","#FFFFF080"," "," ","1","&#10004","[1210.5]","1","0","0","","","","","","","",""
"pit-trial","11","142293","0.0-2.0-4.3-0.3","battery-v0.2","","""event"",""trial"",""time""
""fullscreenenter"",""1"",""1605""
","
","
","""event"",""trial"",""time""
""fullscreenenter"",""1"",""1605""
","
","","","519.5","","","17","3037","2062","&#9784;","elianto","#FFFFF080"," "," ","1","&#10004","[1370.8999999761581]","1","0","0","","","","","","","",""
"pit-trial","12","145654","0.0-2.0-4.4-0.4","battery-v0.2","","""event"",""trial"",""time""
""fullscreenenter"",""1"",""1605""
","
","
","""event"",""trial"",""time""
""fullscreenenter"",""1"",""1605""
","
","","","484.19999998807907","","","17","3037","2062","&#9784;","elianto","#FFFFF080"," "," ","1","&#10004","[1335.6000000238419]","1","0","0","","","","","","","",""
"pit-instructions","13","170062","0.0-2.0-5.0","battery-v0.2","","""event"",""trial"",""time""
""fullscreenenter"",""1"",""1605""
","
","
","""event"",""trial"",""time""
""fullscreenenter"",""1"",""1605""
","
","","[{""page_index"":0,""viewing_time"":6077.400000035763},{""page_index"":1,""viewing_time"":7017.099999964237},{""page_index"":2,""viewing_time"":6130.400000035763},{""page_index"":3,""viewing_time"":5166.599999964237}]","24392.400000035763","","","","","","","","","","","","","","","","","","","","","","","",""
"pit-trial","14","174954","0.0-2.0-6.0-0.0","battery-v0.2","","""event"",""trial"",""time""
""fullscreenenter"",""1"",""1605""
","
","
","""event"",""trial"",""time""
""fullscreenenter"",""1"",""1605""
","
","","","-1","","","17","3037","2062","&#9854;","elianto","#FFFFF080","-1","-1","1","&#10004","[]","0","0","1","","","","","","","",""
"pit-trial","15","179844","0.0-2.0-6.1-0.1","battery-v0.2","","""event"",""trial"",""time""
""fullscreenenter"",""1"",""1605""
","
","
","""event"",""trial"",""time""
""fullscreenenter"",""1"",""1605""
","
","","","-1","","","17","3037","2062","&#9854;","elianto","#FFFFF080","-1","-1","1","&#10004","[]","0","0","1","","","","","","","",""
"pit-trial","16","184729","0.0-2.0-6.2-0.2","battery-v0.2","","""event"",""trial"",""time""
""fullscreenenter"",""1"",""1605""
","
","
","""event"",""trial"",""time""
""fullscreenenter"",""1"",""1605""
","
","","","-1","","","17","3037","2062","&#9854;","elianto","#FFFFF080","-1","-1","1","&#10004","[]","0","0","1","","","","","","","",""
"pit-trial","17","189609","0.0-2.0-6.3-0.3","battery-v0.2","","""event"",""trial"",""time""
""fullscreenenter"",""1"",""1605""
","
","
","""event"",""trial"",""time""
""fullscreenenter"",""1"",""1605""
","
","","","-1","","","17","3037","2062","&#9854;","elianto","#FFFFF080","-1","-1","1","&#10004","[]","0","0","1","","","","","","","",""
"pit-trial","18","194503","0.0-2.0-6.4-0.4","battery-v0.2","","""event"",""trial"",""time""
""fullscreenenter"",""1"",""1605""
","
","
","""event"",""trial"",""time""
""fullscreenenter"",""1"",""1605""
","
","","","-1","","","17","3037","2062","&#9854;","elianto","#FFFFF080","-1","-1","1","&#10004","[]","0","0","1","","","","","","","",""
"pit-instructions","19","318414","0.0-2.0-7.0","battery-v0.2","","""event"",""trial"",""time""
""fullscreenenter"",""1"",""1605""
","
","
","""event"",""trial"",""time""
""fullscreenenter"",""1"",""1605""
","
","","[{""page_index"":0,""viewing_time"":5650},{""page_index"":1,""viewing_time"":6289},{""page_index"":2,""viewing_time"":6379.600000023842},{""page_index"":3,""viewing_time"":6883.5},{""page_index"":4,""viewing_time"":7801.099999964237},{""page_index"":5,""viewing_time"":6172.900000035763},{""page_index"":6,""viewing_time"":4614.800000011921},{""page_index"":7,""viewing_time"":9325.199999988079},{""page_index"":8,""viewing_time"":7110.899999976158},{""page_index"":9,""viewing_time"":6109.300000011921},{""page_index"":10,""viewing_time"":7322.100000023842},{""page_index"":11,""viewing_time"":5557.5},{""page_index"":12,""viewing_time"":9096.799999952316},{""page_index"":13,""viewing_time"":8293.200000047684},{""page_index"":14,""viewing_time"":6861.399999976158},{""page_index"":15,""viewing_time"":6968.199999988079},{""page_index"":16,""viewing_time"":6366.699999988079},{""page_index"":17,""viewing_time"":7092}]","123895.10000002384","","","","","","","","","","","","","","","","","","","","","","","",""
"pit-trial","20","321814","0.0-2.0-8.0-0.0","battery-v0.2","","""event"",""trial"",""time""
""fullscreenenter"",""1"",""1605""
","
","
","""event"",""trial"",""time""
""fullscreenenter"",""1"",""1605""
","
","","","528.3000000119209","","","17","3037","2062","&#9776;","elianto","#3366ff99"," "," ","1","+10","[1378.5]","1","0","1","","","","","","","",""
"pit-trial","21","325314","0.0-2.0-8.0-1.0","battery-v0.2","","""event"",""trial"",""time""
""fullscreenenter"",""1"",""1605""
","
","
","""event"",""trial"",""time""
""fullscreenenter"",""1"",""1605""
","
","","","629.3999999761581","","","17","3037","2062","&#9776;","elianto","#3366ff99"," "," ","1","+10","[1481.7000000476837]","1","0","1","","","","","","","",""
"pit-trial","22","328714","0.0-2.0-8.0-2.0","battery-v0.2","","""event"",""trial"",""time""
""fullscreenenter"",""1"",""1605""
","
","
","""event"",""trial"",""time""
""fullscreenenter"",""1"",""1605""
","
","","","532.1000000238419","","","17","3037","2062","&#9776;","elianto","#3366ff99"," "," ","1","+10","[1383.4000000357628]","1","0","1","","","","","","","",""
"pit-trial","23","332064","0.0-2.0-8.0-3.0","battery-v0.2","","""event"",""trial"",""time""
""fullscreenenter"",""1"",""1605""
","
","
","""event"",""trial"",""time""
""fullscreenenter"",""1"",""1605""
","
","","","467.9000000357628","","","17","3037","2062","&#9776;","elianto","#3366ff99"," "," ","1","0","[1320.800000011921]","1","0","1","","","","","","","",""
"pit-trial","24","335323","0.0-2.0-8.0-4.0","battery-v0.2","","""event"",""trial"",""time""
""fullscreenenter"",""1"",""1605""
","
","
","""event"",""trial"",""time""
""fullscreenenter"",""1"",""1605""
","
","","","383.39999997615814","","","17","3037","2062","&#9776;","elianto","#3366ff99"," "," ","1","+10","[1236.6000000238419]","1","0","1","","","","","","","",""
"call-function","25","335332","0.0-2.0-9.0","battery-v0.2","","""event"",""trial"",""time""
""fullscreenenter"",""1"",""1605""
","
","
","""event"",""trial"",""time""
""fullscreenenter"",""1"",""1605""
","
","","","","","","","","","","","","","","","","","","","","","","","","","","",""
"pit-instructions","26","386793","0.0-2.0-10.0","battery-v0.2","","""event"",""trial"",""time""
""fullscreenenter"",""1"",""1605""
","
","
","""event"",""trial"",""time""
""fullscreenenter"",""1"",""1605""
","
","","[{""page_index"":0,""viewing_time"":6005.600000023842},{""page_index"":1,""viewing_time"":7182.100000023842},{""page_index"":2,""viewing_time"":13828.699999988079},{""page_index"":3,""viewing_time"":12657},{""page_index"":4,""viewing_time"":11786.300000011921}]","51460.40000003576","","","","","","","","","","","","","","","","","","","","","","","",""
"pit-trial","27","390283","0.0-2.0-11.0-0.0","battery-v0.2","","""event"",""trial"",""time""
""fullscreenenter"",""1"",""1605""
","
","
","""event"",""trial"",""time""
""fullscreenenter"",""1"",""1605""
","
","","","614","","","17","3037","2062","&#9761;","elianto","#3366ff99","-1"," ","0","0","[1464.7000000476837]","1","0","2","","","","","","","",""
"pit-trial","28","394623","0.0-2.0-11.0-1.0","battery-v0.2","","""event"",""trial"",""time""
""fullscreenenter"",""1"",""1605""
","
","
","""event"",""trial"",""time""
""fullscreenenter"",""1"",""1605""
","
","","","1452.300000011921","","","17","3037","2062","&#9761;","elianto","#3366ff99","-1"," ","0","0","[2306.2999999523163]","1","0","2","","","","","","","",""
"pit-trial","29","399503","0.0-2.0-11.0-2.0","battery-v0.2","","""event"",""trial"",""time""
""fullscreenenter"",""1"",""1605""
","
","
","""event"",""trial"",""time""
""fullscreenenter"",""1"",""1605""
","
","","","-1","","","17","3037","2062","&#9761;","elianto","#3366ff99","-1","-1","1","+10","[]","0","0","2","","","","","","","",""
"pit-trial","30","404393","0.0-2.0-11.0-3.0","battery-v0.2","","""event"",""trial"",""time""
""fullscreenenter"",""1"",""1605""
","
","
","""event"",""trial"",""time""
""fullscreenenter"",""1"",""1605""
","
","","","-1","","","17","3037","2062","&#9761;","elianto","#3366ff99","-1","-1","1","0","[]","0","0","2","","","","","","","",""
"pit-trial","31","408144","0.0-2.0-11.0-4.0","battery-v0.2","","""event"",""trial"",""time""
""fullscreenenter"",""1"",""1605""
","
","
","""event"",""trial"",""time""
""fullscreenenter"",""1"",""1605""
","
","","","866.5","","","17","3037","2062","&#9761;","elianto","#3366ff99","-1"," ","0","0","[1717.2999999523163]","1","0","2","","","","","","","",""
"pit-trial","32","413015","0.0-2.0-11.1-0.1","battery-v0.2","","""event"",""trial"",""time""
""fullscreenenter"",""1"",""1605""
","
","
","""event"",""trial"",""time""
""fullscreenenter"",""1"",""1605""
","
","","","-1","","","17","3037","2062","&#9761;","elianto","#3366ff99","-1","-1","1","+10","[]","0","0","2","","","","","","","",""
"pit-trial","33","416648","0.0-2.0-11.1-1.1","battery-v0.2","","""event"",""trial"",""time""
""fullscreenenter"",""1"",""1605""
","
","
","""event"",""trial"",""time""
""fullscreenenter"",""1"",""1605""
","
","","","768.6999999880791","","","17","3037","2062","&#9761;","elianto","#3366ff99","-1"," ","0","0","[1619.5]","1","0","2","","","","","","","",""
"pit-trial","34","421512","0.0-2.0-11.1-2.1","battery-v0.2","","""event"",""trial"",""time""
""fullscreenenter"",""1"",""1605""
","
","
","""event"",""trial"",""time""
""fullscreenenter"",""1"",""1605""
","
","","","-1","","","17","3037","2062","&#9761;","elianto","#3366ff99","-1","-1","1","+10","[]","0","0","2","","","","","","","",""
"pit-trial","35","425300","0.0-2.0-11.1-3.1","battery-v0.2","","""event"",""trial"",""time""
""fullscreenenter"",""1"",""1605""
","
","
","""event"",""trial"",""time""
""fullscreenenter"",""1"",""1605""
","
","","","922.3000000119209","","","17","3037","2062","&#9761;","elianto","#3366ff99","-1"," ","0","+10","[1774.199999988079]","1","0","2","","","","","","","",""
"pit-trial","36","430165","0.0-2.0-11.1-4.1","battery-v0.2","","""event"",""trial"",""time""
""fullscreenenter"",""1"",""1605""
","
","
","""event"",""trial"",""time""
""fullscreenenter"",""1"",""1605""
","
","","","-1","","","17","3037","2062","&#9761;","elianto","#3366ff99","-1","-1","1","+10","[]","0","0","2","","","","","","","",""
"pit-trial","37","433869","0.0-2.0-11.2-0.2","battery-v0.2","","""event"",""trial"",""time""
""fullscreenenter"",""1"",""1605""
","
","
","""event"",""trial"",""time""
""fullscreenenter"",""1"",""1605""
","
","","","838.7000000476837","","","17","3037","2062","&#9761;","elianto","#3366ff99","-1"," ","0","0","[1689.6000000238419]","1","0","2","","","","","","","",""
"pit-trial","38","438735","0.0-2.0-11.2-1.2","battery-v0.2","","""event"",""trial"",""time""
""fullscreenenter"",""1"",""1605""
","
","
","""event"",""trial"",""time""
""fullscreenenter"",""1"",""1605""
","
","","","-1","","","17","3037","2062","&#9761;","elianto","#3366ff99","-1","-1","1","+10","[]","0","0","2","","","","","","","",""
"pit-trial","39","442602","0.0-2.0-11.2-2.2","battery-v0.2","","""event"",""trial"",""time""
""fullscreenenter"",""1"",""1605""
","
","
","""event"",""trial"",""time""
""fullscreenenter"",""1"",""1605""
","
","","","1001.8999999761581","","","17","3037","2062","&#9761;","elianto","#3366ff99","-1"," ","0","0","[1853.2999999523163]","1","0","2","","","","","","","",""
"pit-trial","40","447468","0.0-2.0-11.2-3.2","battery-v0.2","","""event"",""trial"",""time""
""fullscreenenter"",""1"",""1605""
","
","
","""event"",""trial"",""time""
""fullscreenenter"",""1"",""1605""
","
","","","-1","","","17","3037","2062","&#9761;","elianto","#3366ff99","-1","-1","1","0","[]","0","0","2","","","","","","","",""
"pit-trial","41","451283","0.0-2.0-11.2-4.2","battery-v0.2","","""event"",""trial"",""time""
""fullscreenenter"",""1"",""1605""
","
","
","""event"",""trial"",""time""
""fullscreenenter"",""1"",""1605""
","
","","","948.3999999761581","","","17","3037","2062","&#9761;","elianto","#3366ff99","-1"," ","0","0","[1799.6000000238419]","1","0","2","","","","","","","",""
"pit-trial","42","454837","0.0-2.0-11.3-0.3","battery-v0.2","","""event"",""trial"",""time""
""fullscreenenter"",""1"",""1605""
","
","
","""event"",""trial"",""time""
""fullscreenenter"",""1"",""1605""
","
","","","690.6999999880791","","","17","3037","2062","&#9761;","elianto","#3366ff99","-1"," ","0","0","[1540.800000011921]","1","0","2","","","","","","","",""
"pit-trial","43","458230","0.0-2.0-11.3-1.3","battery-v0.2","","""event"",""trial"",""time""
""fullscreenenter"",""1"",""1605""
","
","
","""event"",""trial"",""time""
""fullscreenenter"",""1"",""1605""
","
","","","528.4000000357628","","","17","3037","2062","&#9761;","elianto","#3366ff99","-1"," ","0","0","[1378.5]","1","0","2","","","","","","","",""
"pit-trial","44","461743","0.0-2.0-11.3-2.3","battery-v0.2","","""event"",""trial"",""time""
""fullscreenenter"",""1"",""1605""
","
","
","""event"",""trial"",""time""
""fullscreenenter"",""1"",""1605""
","
","","","646.2999999523163","","","17","3037","2062","&#9761;","elianto","#3366ff99","-1"," ","0","0","[1497.6000000238419]","1","0","2","","","","","","","",""
"pit-trial","45","466608","0.0-2.0-11.3-3.3","battery-v0.2","","""event"",""trial"",""time""
""fullscreenenter"",""1"",""1605""
","
","
","""event"",""trial"",""time""
""fullscreenenter"",""1"",""1605""
","
","","","-1","","","17","3037","2062","&#9761;","elianto","#3366ff99","-1","-1","1","0","[]","0","0","2","","","","","","","",""
"pit-trial","46","470260","0.0-2.0-11.3-4.3","battery-v0.2","","""event"",""trial"",""time""
""fullscreenenter"",""1"",""1605""
","
","
","""event"",""trial"",""time""
""fullscreenenter"",""1"",""1605""
","
","","","789","","","17","3037","2062","&#9761;","elianto","#3366ff99","-1"," ","0","0","[1639.7000000476837]","1","0","2","","","","","","","",""
"pit-trial","47","474045","0.0-2.0-11.4-0.4","battery-v0.2","","""event"",""trial"",""time""
""fullscreenenter"",""1"",""1605""
","
","
","""event"",""trial"",""time""
""fullscreenenter"",""1"",""1605""
","
","","","918.5","","","17","3037","2062","&#9761;","elianto","#3366ff99","-1"," ","0","0","[1770]","1","0","2","","","","","","","",""
"pit-trial","48","478909","0.0-2.0-11.4-1.4","battery-v0.2","","""event"",""trial"",""time""
""fullscreenenter"",""1"",""1605""
","
","
","""event"",""trial"",""time""
""fullscreenenter"",""1"",""1605""
","
","","","-1","","","17","3037","2062","&#9761;","elianto","#3366ff99","-1","-1","1","+10","[3094]","1","0","2","","","","","","","",""
"pit-trial","49","483775","0.0-2.0-11.4-2.4","battery-v0.2","","""event"",""trial"",""time""
""fullscreenenter"",""1"",""1605""
","
","
","""event"",""trial"",""time""
""fullscreenenter"",""1"",""1605""
","
","","","-1","","","17","3037","2062","&#9761;","elianto","#3366ff99","-1","-1","1","+10","[]","0","0","2","","","","","","","",""
"pit-trial","50","488641","0.0-2.0-11.4-3.4","battery-v0.2","","""event"",""trial"",""time""
""fullscreenenter"",""1"",""1605""
","
","
","""event"",""trial"",""time""
""fullscreenenter"",""1"",""1605""
","
","","","-1","","","17","3037","2062","&#9761;","elianto","#3366ff99","-1","-1","1","0","[]","0","0","2","","","","","","","",""
"pit-trial","51","493502","0.0-2.0-11.4-4.4","battery-v0.2","","""event"",""trial"",""time""
""fullscreenenter"",""1"",""1605""
","
","
","""event"",""trial"",""time""
""fullscreenenter"",""1"",""1605""
","
","","","-1","","","17","3037","2062","&#9761;","elianto","#3366ff99","-1","-1","1","+10","[]","0","0","2","","","","","","","",""
"pit-instructions","52","515127","0.0-2.0-11.4-5.4-0.4","battery-v0.2","","""event"",""trial"",""time""
""fullscreenenter"",""1"",""1605""
","
","
","""event"",""trial"",""time""
""fullscreenenter"",""1"",""1605""
","
","","[{""page_index"":0,""viewing_time"":6835.800000011921},{""page_index"":1,""viewing_time"":6177.599999964237},{""page_index"":2,""viewing_time"":8599.199999988079}]","21613.19999998808","","","","","","","","","","","","","","","","","","","","","","","",""
"call-function","53","515134","0.0-2.0-12.0","battery-v0.2","","""event"",""trial"",""time""
""fullscreenenter"",""1"",""1605""
","
","
","""event"",""trial"",""time""
""fullscreenenter"",""1"",""1605""
","
","","","","","","","","","","","","","","","","","","","","","","","","","","",""
"pit-instructions","54","554359","0.0-2.0-13.0","battery-v0.2","","""event"",""trial"",""time""
""fullscreenenter"",""1"",""1605""
","
","
","""event"",""trial"",""time""
""fullscreenenter"",""1"",""1605""
","
","","[{""page_index"":0,""viewing_time"":5024.800000011921},{""page_index"":1,""viewing_time"":8544.900000035763},{""page_index"":2,""viewing_time"":3623},{""page_index"":3,""viewing_time"":13446},{""page_index"":4,""viewing_time"":8585.699999988079}]","39224.90000003576","","","","","","","","","","","","","","","","","","","","","","","",""
"pit-trial","55","557958","0.0-2.0-14.0-0.0","battery-v0.2","","""event"",""trial"",""time""
""fullscreenenter"",""1"",""1605""
","
","
","""event"",""trial"",""time""
""fullscreenenter"",""1"",""1605""
","
","","","729.1999999880791","","","17","3037","2062","&#9826;","elianto","#f73b6a7A","-1"," ","0","-10","[1584.4000000357628]","1","0","3","","","","","","","",""
"pit-trial","56","562848","0.0-2.0-14.0-1.0","battery-v0.2","","""event"",""trial"",""time""
""fullscreenenter"",""1"",""1605""
","
","
","""event"",""trial"",""time""
""fullscreenenter"",""1"",""1605""
","
","","","-1","","","17","3037","2062","&#9826;","elianto","#f73b6a7A","-1","-1","1","0","[]","0","0","3","","","","","","","",""
"pit-trial","57","567724","0.0-2.0-14.0-2.0","battery-v0.2","","""event"",""trial"",""time""
""fullscreenenter"",""1"",""1605""
","
","
","""event"",""trial"",""time""
""fullscreenenter"",""1"",""1605""
","
","","","-1","","","17","3037","2062","&#9826;","elianto","#f73b6a7A","-1","-1","1","0","[]","0","0","3","","","","","","","",""
"pit-trial","58","572618","0.0-2.0-14.0-3.0","battery-v0.2","","""event"",""trial"",""time""
""fullscreenenter"",""1"",""1605""
","
","
","""event"",""trial"",""time""
""fullscreenenter"",""1"",""1605""
","
","","","-1","","","17","3037","2062","&#9826;","elianto","#f73b6a7A","-1","-1","1","-10","[]","0","0","3","","","","","","","",""
"pit-trial","59","576258","0.0-2.0-14.0-4.0","battery-v0.2","","""event"",""trial"",""time""
""fullscreenenter"",""1"",""1605""
","
","
","""event"",""trial"",""time""
""fullscreenenter"",""1"",""1605""
","
","","","764.8000000119209","","","17","3037","2062","&#9826;","elianto","#f73b6a7A","-1"," ","0","-10","[1619.800000011921]","1","0","3","","","","","","","",""
"pit-trial","60","579809","0.0-2.0-14.1-0.1","battery-v0.2","","""event"",""trial"",""time""
""fullscreenenter"",""1"",""1605""
","
","
","""event"",""trial"",""time""
""fullscreenenter"",""1"",""1605""
","
","","","675.6999999880791","","","17","3037","2062","&#9826;","elianto","#f73b6a7A","-1"," ","0","-10","[1526.2000000476837]","1","0","3","","","","","","","",""
"pit-trial","61","584674","0.0-2.0-14.1-1.1","battery-v0.2","","""event"",""trial"",""time""
""fullscreenenter"",""1"",""1605""
","
","
","""event"",""trial"",""time""
""fullscreenenter"",""1"",""1605""
","
","","","-1","","","17","3037","2062","&#9826;","elianto","#f73b6a7A","-1","-1","1","0","[]","0","0","3","","","","","","","",""
"pit-trial","62","589537","0.0-2.0-14.1-2.1","battery-v0.2","","""event"",""trial"",""time""
""fullscreenenter"",""1"",""1605""
","
","
","""event"",""trial"",""time""
""fullscreenenter"",""1"",""1605""
","
","","","-1","","","17","3037","2062","&#9826;","elianto","#f73b6a7A","-1","-1","1","0","[]","0","0","3","","","","","","","",""
"pit-trial","63","594403","0.0-2.0-14.1-3.1","battery-v0.2","","""event"",""trial"",""time""
""fullscreenenter"",""1"",""1605""
","
","
","""event"",""trial"",""time""
""fullscreenenter"",""1"",""1605""
","
","","","-1","","","17","3037","2062","&#9826;","elianto","#f73b6a7A","-1","-1","1","-10","[]","0","0","3","","","","","","","",""
"pit-trial","64","599267","0.0-2.0-14.1-4.1","battery-v0.2","","""event"",""trial"",""time""
""fullscreenenter"",""1"",""1605""
","
","
","""event"",""trial"",""time""
""fullscreenenter"",""1"",""1605""
","
","","","-1","","","17","3037","2062","&#9826;","elianto","#f73b6a7A","-1","-1","1","0","[]","0","0","3","","","","","","","",""
"call-function","65","599279","0.0-2.0-15.0","battery-v0.2","","""event"",""trial"",""time""
""fullscreenenter"",""1"",""1605""
","
","
","""event"",""trial"",""time""
""fullscreenenter"",""1"",""1605""
","
","","","","","","","","","","","","","","","","","","","","","","","","","","",""
"pit-instructions","66","650938","0.0-2.0-16.0","battery-v0.2","","""event"",""trial"",""time""
""fullscreenenter"",""1"",""1605""
","
","
","""event"",""trial"",""time""
""fullscreenenter"",""1"",""1605""
","
","","[{""page_index"":0,""viewing_time"":12895.5},{""page_index"":1,""viewing_time"":25258.399999976158},{""page_index"":2,""viewing_time"":5654.800000011921},{""page_index"":3,""viewing_time"":7848.300000011921}]","51657.80000001192","","","","","","","","","","","","","","","","","","","","","","","",""
"pit-trial","67","654776","0.0-2.0-17.0-0.0","battery-v0.2","","""event"",""trial"",""time""
""fullscreenenter"",""1"",""1605""
","
","
","""event"",""trial"",""time""
""fullscreenenter"",""1"",""1605""
","
","","","977.1999999880791","","","17","3037","2062","&#9789;","elianto","#f73b6a7A"," "," ","1","0","[1830.5]","1","0","4","","","","","","","",""
"pit-trial","68","658477","0.0-2.0-17.0-1.0","battery-v0.2","","""event"",""trial"",""time""
""fullscreenenter"",""1"",""1605""
","
","
","""event"",""trial"",""time""
""fullscreenenter"",""1"",""1605""
","
","","","821.8999999761581","","","17","3037","2062","&#9789;","elianto","#f73b6a7A"," "," ","1","0","[1674]","1","0","4","","","","","","","",""
"pit-trial","69","661928","0.0-2.0-17.0-2.0","battery-v0.2","","""event"",""trial"",""time""
""fullscreenenter"",""1"",""1605""
","
","
","""event"",""trial"",""time""
""fullscreenenter"",""1"",""1605""
","
","","","570.7000000476837","","","17","3037","2062","&#9789;","elianto","#f73b6a7A"," "," ","1","0","[1423.199999988079]","1","0","4","","","","","","","",""
"pit-trial","70","665386","0.0-2.0-17.0-3.0","battery-v0.2","","""event"",""trial"",""time""
""fullscreenenter"",""1"",""1605""
","
","
","""event"",""trial"",""time""
""fullscreenenter"",""1"",""1605""
","
","","","589.5","","","17","3037","2062","&#9789;","elianto","#f73b6a7A"," "," ","1","-10","[1440.300000011921]","1","0","4","","","","","","","",""
"pit-trial","71","670256","0.0-2.0-17.0-4.0","battery-v0.2","","""event"",""trial"",""time""
""fullscreenenter"",""1"",""1605""
","
","
","""event"",""trial"",""time""
""fullscreenenter"",""1"",""1605""
","
","","","-1","","","17","3037","2062","&#9789;","elianto","#f73b6a7A"," ","-1","0","-10","[]","0","0","4","","","","","","","",""
"pit-trial","72","673957","0.0-2.0-17.1-0.1","battery-v0.2","","""event"",""trial"",""time""
""fullscreenenter"",""1"",""1605""
","
","
","""event"",""trial"",""time""
""fullscreenenter"",""1"",""1605""
","
","","","837.1999999880791","","","17","3037","2062","&#9789;","elianto","#f73b6a7A"," "," ","1","0","[1687.8999999761581]","1","0","4","","","","","","","",""
"pit-trial","73","677597","0.0-2.0-17.1-1.1","battery-v0.2","","""event"",""trial"",""time""
""fullscreenenter"",""1"",""1605""
","
","
","""event"",""trial"",""time""
""fullscreenenter"",""1"",""1605""
","
","","","767.5999999642372","","","17","3037","2062","&#9789;","elianto","#f73b6a7A"," "," ","1","0","[1620.300000011921]","1","0","4","","","","","","","",""
"pit-trial","74","680837","0.0-2.0-17.1-2.1","battery-v0.2","","""event"",""trial"",""time""
""fullscreenenter"",""1"",""1605""
","
","
","""event"",""trial"",""time""
""fullscreenenter"",""1"",""1605""
","
","","","382.10000002384186","","","17","3037","2062","&#9789;","elianto","#f73b6a7A"," "," ","1","0","[1233]","1","0","4","","","","","","","",""
"pit-trial","75","684235","0.0-2.0-17.1-3.1","battery-v0.2","","""event"",""trial"",""time""
""fullscreenenter"",""1"",""1605""
","
","
","""event"",""trial"",""time""
""fullscreenenter"",""1"",""1605""
","
","","","534.3000000119209","","","17","3037","2062","&#9789;","elianto","#f73b6a7A"," "," ","1","-10","[1384.5]","1","0","4","","","","","","","",""
"pit-trial","76","689099","0.0-2.0-17.1-4.1","battery-v0.2","","""event"",""trial"",""time""
""fullscreenenter"",""1"",""1605""
","
","
","""event"",""trial"",""time""
""fullscreenenter"",""1"",""1605""
","
","","","-1","","","17","3037","2062","&#9789;","elianto","#f73b6a7A"," ","-1","0","-10","[]","0","0","4","","","","","","","",""
"pit-trial","77","692494","0.0-2.0-17.2-0.2","battery-v0.2","","""event"",""trial"",""time""
""fullscreenenter"",""1"",""1605""
","
","
","""event"",""trial"",""time""
""fullscreenenter"",""1"",""1605""
","
","","","529.5999999642372","","","17","3037","2062","&#9789;","elianto","#f73b6a7A"," "," ","1","0","[1381.300000011921]","1","0","4","","","","","","","",""
"pit-trial","78","695918","0.0-2.0-17.2-1.2","battery-v0.2","","""event"",""trial"",""time""
""fullscreenenter"",""1"",""1605""
","
","
","""event"",""trial"",""time""
""fullscreenenter"",""1"",""1605""
","
","","","557.5","","","17","3037","2062","&#9789;","elianto","#f73b6a7A"," "," ","1","0","[1408.1000000238419]","1","0","4","","","","","","","",""
"pit-trial","79","699259","0.0-2.0-17.2-2.2","battery-v0.2","","""event"",""trial"",""time""
""fullscreenenter"",""1"",""1605""
","
","
","""event"",""trial"",""time""
""fullscreenenter"",""1"",""1605""
","
","","","474.69999998807907","","","17","3037","2062","&#9789;","elianto","#f73b6a7A"," "," ","1","0","[1324.9000000357628]","1","0","4","","","","","","","",""
"pit-trial","80","702656","0.0-2.0-17.2-3.2","battery-v0.2","","""event"",""trial"",""time""
""fullscreenenter"",""1"",""1605""
","
","
","""event"",""trial"",""time""
""fullscreenenter"",""1"",""1605""
","
","","","532.4000000357628","","","17","3037","2062","&#9789;","elianto","#f73b6a7A"," "," ","1","-10","[1382.800000011921]","1","0","4","","","","","","","",""
"pit-trial","81","706870","0.0-2.0-17.2-4.2","battery-v0.2","","""event"",""trial"",""time""
""fullscreenenter"",""1"",""1605""
","
","
","""event"",""trial"",""time""
""fullscreenenter"",""1"",""1605""
","
","","","1349.4000000357628","","","17","3037","2062","&#9789;","elianto","#f73b6a7A"," "," ","1","0","[2200]","1","0","4","","","","","","","",""
"call-function","82","706881","0.0-2.0-18.0","battery-v0.2","","""event"",""trial"",""time""
""fullscreenenter"",""1"",""1605""
","
","
","""event"",""trial"",""time""
""fullscreenenter"",""1"",""1605""
","
","","","","","","","","","","","","","","","","","","","","","","","","","","",""
"pit-instructions","83","783934","0.0-2.0-19.0","battery-v0.2","","""event"",""trial"",""time""
""fullscreenenter"",""1"",""1605""
","
","
","""event"",""trial"",""time""
""fullscreenenter"",""1"",""1605""
","
","","[{""page_index"":0,""viewing_time"":6645.899999976158},{""page_index"":1,""viewing_time"":6194},{""page_index"":2,""viewing_time"":20046.400000035763},{""page_index"":3,""viewing_time"":7582.199999988079},{""page_index"":4,""viewing_time"":9720.800000011921},{""page_index"":5,""viewing_time"":8091.299999952316},{""page_index"":6,""viewing_time"":8563.100000023842},{""page_index"":7,""viewing_time"":6331.300000011921},{""page_index"":8,""viewing_time"":3875.699999988079}]","77051.59999996424","","","","","","","","","","","","","","","","","","","","","","","",""
"pit-comprehension","84","789173","0.0-2.0-20.0-0.0","battery-v0.2","","""event"",""trial"",""time""
""fullscreenenter"",""1"",""1605""
","
","
","""event"",""trial"",""time""
""fullscreenenter"",""1"",""1605""
","
","","","5217.699999988079","[""SPACE""]","0","17","3037","2062","","","","","","","","","","","","","","","","","","",""
"pit-instructions","85","792160","0.0-2.0-20.0-1.0","battery-v0.2","","""event"",""trial"",""time""
""fullscreenenter"",""1"",""1605""
","
","
","""event"",""trial"",""time""
""fullscreenenter"",""1"",""1605""
","
","","[{""page_index"":0,""viewing_time"":2903.599999964237}]","2904.2999999523163","","","","","","","","","","","","","","","","","","","","","","","",""
"pit-comprehension","86","798664","0.0-2.0-21.0-0.0","battery-v0.2","","""event"",""trial"",""time""
""fullscreenenter"",""1"",""1605""
","
","
","""event"",""trial"",""time""
""fullscreenenter"",""1"",""1605""
","
","","","6485.399999976158","[""10""]","0","17","3037","2062","","","","","","","","","","","","","","","","","","",""
"pit-instructions","87","800326","0.0-2.0-21.0-1.0","battery-v0.2","","""event"",""trial"",""time""
""fullscreenenter"",""1"",""1605""
","
","
","""event"",""trial"",""time""
""fullscreenenter"",""1"",""1605""
","
","","[{""page_index"":0,""viewing_time"":1594.800000011921}]","1595.800000011921","","","","","","","","","","","","","","","","","","","","","","","",""
"pit-comprehension","88","808154","0.0-2.0-22.0-0.0","battery-v0.2","","""event"",""trial"",""time""
""fullscreenenter"",""1"",""1605""
","
","
","""event"",""trial"",""time""
""fullscreenenter"",""1"",""1605""
","
","","","7810.600000023842","[""-10""]","1","17","3037","2062","","","","","","","","","","","","","","","","","","",""
"pit-instructions","89","810459","0.0-2.0-22.0-1.0","battery-v0.2","","""event"",""trial"",""time""
""fullscreenenter"",""1"",""1605""
","
","
","""event"",""trial"",""time""
""fullscreenenter"",""1"",""1605""
","
","","[{""page_index"":0,""viewing_time"":2228.800000011921}]","2229.600000023842","","","","","","","","","","","","","","","","","","","","","","","",""
"pit-instructions","90","811556","0.0-2.0-22.0-2.0-0.0","battery-v0.2","","""event"",""trial"",""time""
""fullscreenenter"",""1"",""1605""
","
","
","""event"",""trial"",""time""
""fullscreenenter"",""1"",""1605""
","
","","[{""page_index"":0,""viewing_time"":1083}]","1083.699999988079","","","","","","","","","","","","","","","","","","","","","","","",""
"pit-comprehension","91","817977","0.0-2.0-22.1-0.1","battery-v0.2","","""event"",""trial"",""time""
""fullscreenenter"",""1"",""1605""
","
","
","""event"",""trial"",""time""
""fullscreenenter"",""1"",""1605""
","
","","","6404.5","[""0""]","0","17","3037","2062","","","","","","","","","","","","","","","","","","",""
"pit-instructions","92","819099","0.0-2.0-22.1-1.1","battery-v0.2","","""event"",""trial"",""time""
""fullscreenenter"",""1"",""1605""
","
","
","""event"",""trial"",""time""
""fullscreenenter"",""1"",""1605""
","
","","[{""page_index"":0,""viewing_time"":1038.6000000238419}]","1039.1000000238419","","","","","","","","","","","","","","","","","","","","","","","",""
"pit-comprehension","93","829439","0.0-2.0-23.0-0.0","battery-v0.2","","""event"",""trial"",""time""
""fullscreenenter"",""1"",""1605""
","
","
","""event"",""trial"",""time""
""fullscreenenter"",""1"",""1605""
","
","","","10322.399999976158","[""True""]","0","17","3037","2062","","","","","","","","","","","","","","","","","","",""
"pit-instructions","94","831184","0.0-2.0-23.0-1.0","battery-v0.2","","""event"",""trial"",""time""
""fullscreenenter"",""1"",""1605""
","
","
","""event"",""trial"",""time""
""fullscreenenter"",""1"",""1605""
","
","","[{""page_index"":0,""viewing_time"":1654.1000000238419}]","1654.9000000357628","","","","","","","","","","","","","","","","","","","","","","","",""
"pit-comprehension","95","844170","0.0-2.0-24.0-0.0","battery-v0.2","","""event"",""trial"",""time""
""fullscreenenter"",""1"",""1605""
","
","
","""event"",""trial"",""time""
""fullscreenenter"",""1"",""1605""
","
","","","12969.700000047684","[""True""]","0","17","3037","2062","","","","","","","","","","","","","","","","","","",""
"pit-instructions","96","845544","0.0-2.0-24.0-1.0","battery-v0.2","","""event"",""trial"",""time""
""fullscreenenter"",""1"",""1605""
","
","
","""event"",""trial"",""time""
""fullscreenenter"",""1"",""1605""
","
","","[{""page_index"":0,""viewing_time"":1292.3999999761581}]","1292.800000011921","","","","","","","","","","","","","","","","","","","","","","","",""
"pit-comprehension","97","853041","0.0-2.0-25.0-0.0","battery-v0.2","","""event"",""trial"",""time""
""fullscreenenter"",""1"",""1605""
","
","
","""event"",""trial"",""time""
""fullscreenenter"",""1"",""1605""
","
","","","7487.399999976158","[""True""]","0","17","3037","2062","","","","","","","","","","","","","","","","","","",""
"pit-instructions","98","854584","0.0-2.0-25.0-1.0","battery-v0.2","","""event"",""trial"",""time""
""fullscreenenter"",""1"",""1605""
","
","
","""event"",""trial"",""time""
""fullscreenenter"",""1"",""1605""
","
","","[{""page_index"":0,""viewing_time"":1446.800000011921}]","1447.3999999761581","","","","","","","","","","","","","","","","","","","","","","","",""
"pit-comprehension","99","859727","0.0-2.0-26.0-0.0","battery-v0.2","","""event"",""trial"",""time""
""fullscreenenter"",""1"",""1605""
","
","
","""event"",""trial"",""time""
""fullscreenenter"",""1"",""1605""
","
","","","5133.099999964237","[""False""]","0","17","3037","2062","","","","","","","","","","","","","","","","","","",""
"pit-instructions","100","861408","0.0-2.0-26.0-1.0","battery-v0.2","","""event"",""trial"",""time""
""fullscreenenter"",""1"",""1605""
","
","
","""event"",""trial"",""time""
""fullscreenenter"",""1"",""1605""
","
","","[{""page_index"":0,""viewing_time"":1557.800000011921}]","1558.699999988079","","","","","","","","","","","","","","","","","","","","","","","",""
"pit-instructions","101","877844","0.0-3.0","battery-v0.2","","""event"",""trial"",""time""
""fullscreenenter"",""1"",""1605""
","
","
","""event"",""trial"",""time""
""fullscreenenter"",""1"",""1605""
","
","","[{""page_index"":0,""viewing_time"":3544.5},{""page_index"":1,""viewing_time"":5386.199999988079},{""page_index"":2,""viewing_time"":7488.5}]","16420.100000023842","","","","","","","","","","","","","","","","","","","","","","","",""
"pit-trial","102","881894","0.0-4.0","battery-v0.2","","""event"",""trial"",""time""
""fullscreenenter"",""1"",""1605""
","
","
","""event"",""trial"",""time""
""fullscreenenter"",""1"",""1605""
","
","","","1167.4000000357628","","","17","3037","2062","&#9728;","elianto","#f73b6a7A","-1"," ","0","0","[2019.800000011921]","1","1","","","3037","1","0","4","lose","no-go","1"
"pit-trial","103","886498","0.0-5.0","battery-v0.2","","""event"",""trial"",""time""
""fullscreenenter"",""1"",""1605""
","
","
","""event"",""trial"",""time""
""fullscreenenter"",""1"",""1605""
","
","","","1732.7999999523163","","","17","3037","2062","&#9730;","elianto","#3366ff99"," "," ","1","0","[2586.2999999523163]","1","1","","","3037","2","1","1","win","go","1"
"pit-trial","104","891378","0.0-6.0","battery-v0.2","","""event"",""trial"",""time""
""fullscreenenter"",""1"",""1605""
","
","
","""event"",""trial"",""time""
""fullscreenenter"",""1"",""1605""
","
","","","-1","","","17","3037","2062","&#9752;","elianto","#f73b6a7A"," ","-1","0","-10","[]","0","1","","","3037","3","3","3","lose","go","0"
"pit-trial","105","894976","0.0-7.0","battery-v0.2","","""event"",""trial"",""time""
""fullscreenenter"",""1"",""1605""
","
","
","""event"",""trial"",""time""
""fullscreenenter"",""1"",""1605""
","
","","","733.0999999642372","","","17","3037","2062","&#9733;","elianto","#3366ff99","-1"," ","0","0","[1583.5999999642372]","1","1","","","3037","4","2","2","win","no-go","0"
"pit-trial","106","898766","0.0-8.0","battery-v0.2","","""event"",""trial"",""time""
""fullscreenenter"",""1"",""1605""
","
","
","""event"",""trial"",""time""
""fullscreenenter"",""1"",""1605""
","
","","","923.8000000119209","","","17","3037","2062","&#9733;","elianto","#3366ff99","-1"," ","0","0","[1774]","1","1","","","3037","5","2","2","win","no-go","0"
"pit-trial","107","902816","0.0-9.0","battery-v0.2","","""event"",""trial"",""time""
""fullscreenenter"",""1"",""1605""
","
","
","""event"",""trial"",""time""
""fullscreenenter"",""1"",""1605""
","
","","","1178.6000000238419","","","17","3037","2062","&#9728;","elianto","#f73b6a7A","-1"," ","0","-10","[2029.5999999642372]","1","1","","","3037","6","0","4","lose","no-go","0"
"pit-trial","108","907686","0.0-10.0","battery-v0.2","","""event"",""trial"",""time""
""fullscreenenter"",""1"",""1605""
","
","
","""event"",""trial"",""time""
""fullscreenenter"",""1"",""1605""
","
","","","-1","","","17","3037","2062","&#9752;","elianto","#f73b6a7A"," ","-1","0","-10","[]","0","1","","","3037","7","3","3","lose","go","0"
"pit-trial","109","912545","0.0-11.0","battery-v0.2","","""event"",""trial"",""time""
""fullscreenenter"",""1"",""1605""
","
","
","""event"",""trial"",""time""
""fullscreenenter"",""1"",""1605""
","
","","","-1","","","17","3037","2062","&#9730;","elianto","#3366ff99"," ","-1","0","0","[]","0","1","","","3037","8","1","1","win","go","0"
"pit-trial","110","916483","0.0-12.0","battery-v0.2","","""event"",""trial"",""time""
""fullscreenenter"",""1"",""1605""
","
","
","""event"",""trial"",""time""
""fullscreenenter"",""1"",""1605""
","
","","","1071.5","","","17","3037","2062","&#9752;","elianto","#f73b6a7A"," "," ","1","0","[1924.5999999642372]","1","1","","","3037","9","3","3","lose","go","0"
"pit-trial","111","920084","0.0-13.0","battery-v0.2","","""event"",""trial"",""time""
""fullscreenenter"",""1"",""1605""
","
","
","""event"",""trial"",""time""
""fullscreenenter"",""1"",""1605""
","
","","","736.9000000357628","","","17","3037","2062","&#9728;","elianto","#f73b6a7A","-1"," ","0","0","[1587]","1","1","","","3037","10","0","4","lose","no-go","1"
"pit-trial","112","924950","0.0-14.0","battery-v0.2","","""event"",""trial"",""time""
""fullscreenenter"",""1"",""1605""
","
","
","""event"",""trial"",""time""
""fullscreenenter"",""1"",""1605""
","
","","","-1","","","17","3037","2062","&#9733;","elianto","#3366ff99","-1","-1","1","+10","[]","0","1","","","3037","11","2","2","win","no-go","0"
"pit-trial","113","929814","0.0-15.0","battery-v0.2","","""event"",""trial"",""time""
""fullscreenenter"",""1"",""1605""
","
","
","""event"",""trial"",""time""
""fullscreenenter"",""1"",""1605""
","
","","","-1","","","17","3037","2062","&#9730;","elianto","#3366ff99"," ","-1","0","0","[4293.099999964237]","1","1","","","3037","12","1","1","win","go","0"
"pit-trial","114","933918","0.0-16.0","battery-v0.2","","""event"",""trial"",""time""
""fullscreenenter"",""1"",""1605""
","
","
","""event"",""trial"",""time""
""fullscreenenter"",""1"",""1605""
","
","","","1240.5","","","17","3037","2062","&#9730;","elianto","#3366ff99"," "," ","1","+10","[2090.599999964237]","1","1","","","3037","13","1","1","win","go","0"
"pit-trial","115","938784","0.0-17.0","battery-v0.2","","""event"",""trial"",""time""
""fullscreenenter"",""1"",""1605""
","
","
","""event"",""trial"",""time""
""fullscreenenter"",""1"",""1605""
","
","","","-1","","","17","3037","2062","&#9733;","elianto","#3366ff99","-1","-1","1","+10","[2930.800000011921]","1","1","","","3037","14","2","2","win","no-go","0"
"pit-trial","116","943648","0.0-18.0","battery-v0.2","","""event"",""trial"",""time""
""fullscreenenter"",""1"",""1605""
","
","
","""event"",""trial"",""time""
""fullscreenenter"",""1"",""1605""
","
","","","-1","","","17","3037","2062","&#9752;","elianto","#f73b6a7A"," ","-1","0","0","[]","0","1","","","3037","15","3","3","lose","go","1"
"pit-trial","117","947704","0.0-19.0","battery-v0.2","","""event"",""trial"",""time""
""fullscreenenter"",""1"",""1605""
","
","
","""event"",""trial"",""time""
""fullscreenenter"",""1"",""1605""
","
","","","1187.6000000238419","","","17","3037","2062","&#9728;","elianto","#f73b6a7A","-1"," ","0","-10","[2039.1000000238419]","1","1","","","3037","16","0","4","lose","no-go","0"
"pit-trial","118","951990","0.0-20.0","battery-v0.2","","""event"",""trial"",""time""
""fullscreenenter"",""1"",""1605""
","
","
","""event"",""trial"",""time""
""fullscreenenter"",""1"",""1605""
","
","","","1421.5999999642372","","","17","3037","2062","&#9730;","elianto","#3366ff99"," "," ","1","+10","[2272]","1","1","","","3037","17","1","1","win","go","0"
"pit-trial","119","956854","0.0-21.0","battery-v0.2","","""event"",""trial"",""time""
""fullscreenenter"",""1"",""1605""
","
","
","""event"",""trial"",""time""
""fullscreenenter"",""1"",""1605""
","
","","","-1","","","17","3037","2062","&#9728;","elianto","#f73b6a7A","-1","-1","1","0","[]","0","1","","","3037","18","0","4","lose","no-go","0"
"pit-trial","120","961122","0.0-22.0","battery-v0.2","","""event"",""trial"",""time""
""fullscreenenter"",""1"",""1605""
","
","
","""event"",""trial"",""time""
""fullscreenenter"",""1"",""1605""
","
","","","1406.5","","","17","3037","2062","&#9733;","elianto","#3366ff99","-1"," ","0","0","[2258.699999988079]","1","1","","","3037","19","2","2","win","no-go","0"
"pit-trial","121","965357","0.0-23.0","battery-v0.2","","""event"",""trial"",""time""
""fullscreenenter"",""1"",""1605""
","
","
","""event"",""trial"",""time""
""fullscreenenter"",""1"",""1605""
","
","","","1370","","","17","3037","2062","&#9752;","elianto","#f73b6a7A"," "," ","1","0","[2220.100000023842]","1","1","","","3037","20","3","3","lose","go","0"
"pit-instructions","122","984139","0.0-24.0","battery-v0.2","","""event"",""trial"",""time""
""fullscreenenter"",""1"",""1605""
","
","
","""event"",""trial"",""time""
""fullscreenenter"",""1"",""1605""
","
","","[{""page_index"":0,""viewing_time"":6891.400000035763},{""page_index"":1,""viewing_time"":11875.599999964237}]","18767.80000001192","","","","","","","","","","","","","","","","","","","","","","","",""
"pit-trial","123","988204","0.0-25.0","battery-v0.2","","""event"",""trial"",""time""
""fullscreenenter"",""1"",""1605""
","
","
","""event"",""trial"",""time""
""fullscreenenter"",""1"",""1605""
","
","","","1189.2999999523163","","","17","3037","2062","l","elianto","#3366ff99","-1"," ","0","0","[2040.4000000357628]","1","2","","","3037","21","1","2","win","no-go","0"
"pit-trial","124","993088","0.0-26.0","battery-v0.2","","""event"",""trial"",""time""
""fullscreenenter"",""1"",""1605""
","
","
","""event"",""trial"",""time""
""fullscreenenter"",""1"",""1605""
","
","","","-1","","","17","3037","2062","u","elianto","#f73b6a7A"," ","-1","0","-10","[]","0","2","","","3037","22","0","3","lose","go","0"
"pit-trial","125","996982","0.0-27.0","battery-v0.2","","""event"",""trial"",""time""
""fullscreenenter"",""1"",""1605""
","
","
","""event"",""trial"",""time""
""fullscreenenter"",""1"",""1605""
","
","","","1010.1000000238419","","","17","3037","2062","g","elianto","#f73b6a7A","-1"," ","0","-10","[1863.800000011921]","1","2","","","3037","23","3","4","lose","no-go","0"
"pit-trial","126","1000571","0.0-28.0","battery-v0.2","","""event"",""trial"",""time""
""fullscreenenter"",""1"",""1605""
","
","
","""event"",""trial"",""time""
""fullscreenenter"",""1"",""1605""
","
","","","722.8000000119209","","","17","3037","2062","a","elianto","#f73b6a7A"," "," ","1","0","[1575.199999988079]","1","2","","","3037","24","2","3","lose","go","0"
"pit-trial","127","1005462","0.0-29.0","battery-v0.2","","""event"",""trial"",""time""
""fullscreenenter"",""1"",""1605""
","
","
","""event"",""trial"",""time""
""fullscreenenter"",""1"",""1605""
","
","","","-1","","","17","3037","2062","g","elianto","#f73b6a7A","-1","-1","1","0","[]","0","2","","","3037","25","3","4","lose","no-go","0"
"pit-trial","128","1009764","0.0-30.0","battery-v0.2","","""event"",""trial"",""time""
""fullscreenenter"",""1"",""1605""
","
","
","""event"",""trial"",""time""
""fullscreenenter"",""1"",""1605""
","
","","","1436.3999999761581","","","17","3037","2062","a","elianto","#f73b6a7A"," "," ","1","0","[2288.5]","1","2","","","3037","26","2","3","lose","go","0"
"pit-trial","129","1014419","0.0-31.0","battery-v0.2","","""event"",""trial"",""time""
""fullscreenenter"",""1"",""1605""
","
","
","""event"",""trial"",""time""
""fullscreenenter"",""1"",""1605""
","
","","","1790.800000011921","","","17","3037","2062","l","elianto","#3366ff99","-1"," ","0","+10","[2641.5]","1","2","","","3037","27","1","2","win","no-go","1"
"pit-trial","130","1019286","0.0-32.0","battery-v0.2","","""event"",""trial"",""time""
""fullscreenenter"",""1"",""1605""
","
","
","""event"",""trial"",""time""
""fullscreenenter"",""1"",""1605""
","
","","","-1","","","17","3037","2062","u","elianto","#f73b6a7A"," ","-1","0","-10","[]","0","2","","","3037","28","0","3","lose","go","0"
"pit-trial","131","1023139","0.0-33.0","battery-v0.2","","""event"",""trial"",""time""
""fullscreenenter"",""1"",""1605""
","
","
","""event"",""trial"",""time""
""fullscreenenter"",""1"",""1605""
","
","","","987.1000000238419","","","17","3037","2062","u","elianto","#f73b6a7A"," "," ","1","0","[1837.300000011921]","1","2","","","3037","29","0","3","lose","go","0"
"pit-trial","132","1028003","0.0-34.0","battery-v0.2","","""event"",""trial"",""time""
""fullscreenenter"",""1"",""1605""
","
","
","""event"",""trial"",""time""
""fullscreenenter"",""1"",""1605""
","
","","","-1","","","17","3037","2062","l","elianto","#3366ff99","-1","-1","1","0","[3713.300000011921]","1","2","","","3037","30","1","2","win","no-go","1"
"pit-trial","133","1031616","0.0-35.0","battery-v0.2","","""event"",""trial"",""time""
""fullscreenenter"",""1"",""1605""
","
","
","""event"",""trial"",""time""
""fullscreenenter"",""1"",""1605""
","
","","","746.1000000238419","","","17","3037","2062","a","elianto","#f73b6a7A"," "," ","1","0","[1599.8999999761581]","1","2","","","3037","31","2","3","lose","go","0"
"pit-trial","134","1036481","0.0-36.0","battery-v0.2","","""event"",""trial"",""time""
""fullscreenenter"",""1"",""1605""
","
","
","""event"",""trial"",""time""
""fullscreenenter"",""1"",""1605""
","
","","","-1","","","17","3037","2062","g","elianto","#f73b6a7A","-1","-1","1","0","[]","0","2","","","3037","32","3","4","lose","no-go","0"
"pit-trial","135","1039939","0.0-37.0","battery-v0.2","","""event"",""trial"",""time""
""fullscreenenter"",""1"",""1605""
","
","
","""event"",""trial"",""time""
""fullscreenenter"",""1"",""1605""
","
","","","597.5999999642372","","","17","3037","2062","l","elianto","#3366ff99","-1"," ","0","0","[1448.699999988079]","1","2","","","3037","33","1","2","win","no-go","0"
"pit-trial","136","1044805","0.0-38.0","battery-v0.2","","""event"",""trial"",""time""
""fullscreenenter"",""1"",""1605""
","
","
","""event"",""trial"",""time""
""fullscreenenter"",""1"",""1605""
","
","","","-1","","","17","3037","2062","g","elianto","#f73b6a7A","-1","-1","1","0","[]","0","2","","","3037","34","3","4","lose","no-go","0"
"pit-trial","137","1048930","0.0-39.0","battery-v0.2","","""event"",""trial"",""time""
""fullscreenenter"",""1"",""1605""
","
","
","""event"",""trial"",""time""
""fullscreenenter"",""1"",""1605""
","
","","","1257.300000011921","","","17","3037","2062","a","elianto","#f73b6a7A"," "," ","1","0","[2108.699999988079]","1","2","","","3037","35","2","3","lose","go","0"
"pit-trial","138","1053795","0.0-40.0","battery-v0.2","","""event"",""trial"",""time""
""fullscreenenter"",""1"",""1605""
","
","
","""event"",""trial"",""time""
""fullscreenenter"",""1"",""1605""
","
","","","-1","","","17","3037","2062","u","elianto","#f73b6a7A"," ","-1","0","-10","[]","0","2","","","3037","36","0","3","lose","go","0"
"pit-trial","139","1057260","0.0-41.0","battery-v0.2","","""event"",""trial"",""time""
""fullscreenenter"",""1"",""1605""
","
","
","""event"",""trial"",""time""
""fullscreenenter"",""1"",""1605""
","
","","","593.5","","","17","3037","2062","l","elianto","#3366ff99","-1"," ","0","0","[1449.800000011921]","1","2","","","3037","37","1","2","win","no-go","0"
"pit-trial","140","1060803","0.0-42.0","battery-v0.2","","""event"",""trial"",""time""
""fullscreenenter"",""1"",""1605""
","
","
","""event"",""trial"",""time""
""fullscreenenter"",""1"",""1605""
","
","","","677.5","","","17","3037","2062","u","elianto","#f73b6a7A"," "," ","1","-10","[1529.3999999761581]","1","2","","","3037","38","0","3","lose","go","1"
"pit-trial","141","1065667","0.0-43.0","battery-v0.2","","""event"",""trial"",""time""
""fullscreenenter"",""1"",""1605""
","
","
","""event"",""trial"",""time""
""fullscreenenter"",""1"",""1605""
","
","","","-1","","","17","3037","2062","g","elianto","#f73b6a7A","-1","-1","1","0","[]","0","2","","","3037","39","3","4","lose","no-go","0"
"pit-trial","142","1070536","0.0-44.0","battery-v0.2","","""event"",""trial"",""time""
""fullscreenenter"",""1"",""1605""
","
","
","""event"",""trial"",""time""
""fullscreenenter"",""1"",""1605""
","
","","","-1","","","17","3037","2062","a","elianto","#f73b6a7A"," ","-1","0","-10","[]","0","2","","","3037","40","2","3","lose","go","0"
"pit-trial","143","1074206","0.0-45.0","battery-v0.2","","""event"",""trial"",""time""
""fullscreenenter"",""1"",""1605""
","
","
","""event"",""trial"",""time""
""fullscreenenter"",""1"",""1605""
","
","","","805.6999999880791","","","17","3037","2062","u","elianto","#f73b6a7A"," "," ","1","-10","[1656.199999988079]","1","2","","","3037","41","0","3","lose","go","1"
"pit-trial","144","1077496","0.0-46.0","battery-v0.2","","""event"",""trial"",""time""
""fullscreenenter"",""1"",""1605""
","
","
","""event"",""trial"",""time""
""fullscreenenter"",""1"",""1605""
","
","","","420.60000002384186","","","17","3037","2062","a","elianto","#f73b6a7A"," "," ","1","0","[1273.199999988079]","1","2","","","3037","42","2","3","lose","go","0"
"pit-trial","145","1081143","0.0-47.0","battery-v0.2","","""event"",""trial"",""time""
""fullscreenenter"",""1"",""1605""
","
","
","""event"",""trial"",""time""
""fullscreenenter"",""1"",""1605""
","
","","","782.5","","","17","3037","2062","g","elianto","#f73b6a7A","-1"," ","0","0","[1633.8999999761581]","1","2","","","3037","43","3","4","lose","no-go","1"
"pit-trial","146","1084958","0.0-48.0","battery-v0.2","","""event"",""trial"",""time""
""fullscreenenter"",""1"",""1605""
","
","
","""event"",""trial"",""time""
""fullscreenenter"",""1"",""1605""
","
","","","950.1000000238419","","","17","3037","2062","l","elianto","#3366ff99","-1"," ","0","0","[1801.2999999523163]","1","2","","","3037","44","1","2","win","no-go","0"
"pit-trial","147","1088886","0.0-49.0","battery-v0.2","","""event"",""trial"",""time""
""fullscreenenter"",""1"",""1605""
","
","
","""event"",""trial"",""time""
""fullscreenenter"",""1"",""1605""
","
","","","1061.5","","","17","3037","2062","l","elianto","#3366ff99","-1"," ","0","0","[1913.5]","1","2","","","3037","45","1","2","win","no-go","0"
"pit-trial","148","1093751","0.0-50.0","battery-v0.2","","""event"",""trial"",""time""
""fullscreenenter"",""1"",""1605""
","
","
","""event"",""trial"",""time""
""fullscreenenter"",""1"",""1605""
","
","","","-1","","","17","3037","2062","u","elianto","#f73b6a7A"," ","-1","0","-10","[]","0","2","","","3037","46","0","3","lose","go","0"
"pit-trial","149","1098618","0.0-51.0","battery-v0.2","","""event"",""trial"",""time""
""fullscreenenter"",""1"",""1605""
","
","
","""event"",""trial"",""time""
""fullscreenenter"",""1"",""1605""
","
","","","-1","","","17","3037","2062","g","elianto","#f73b6a7A","-1","-1","1","-10","[]","0","2","","","3037","47","3","4","lose","no-go","1"
"pit-trial","150","1102094","0.0-52.0","battery-v0.2","","""event"",""trial"",""time""
""fullscreenenter"",""1"",""1605""
","
","
","""event"",""trial"",""time""
""fullscreenenter"",""1"",""1605""
","
","","","611.3000000119209","","","17","3037","2062","a","elianto","#f73b6a7A"," "," ","1","0","[1461.699999988079]","1","2","","","3037","48","2","3","lose","go","0"
"pit-trial","151","1106019","0.0-53.0","battery-v0.2","","""event"",""trial"",""time""
""fullscreenenter"",""1"",""1605""
","
","
","""event"",""trial"",""time""
""fullscreenenter"",""1"",""1605""
","
","","","1059.699999988079","","","17","3037","2062","g","elianto","#f73b6a7A","-1"," ","0","-10","[1910.1000000238419]","1","2","","","3037","49","3","4","lose","no-go","0"
"pit-trial","152","1110881","0.0-54.0","battery-v0.2","","""event"",""trial"",""time""
""fullscreenenter"",""1"",""1605""
","
","
","""event"",""trial"",""time""
""fullscreenenter"",""1"",""1605""
","
","","","-1","","","17","3037","2062","a","elianto","#f73b6a7A"," ","-1","0","-10","[3156.099999964237]","1","2","","","3037","50","2","3","lose","go","0"
"pit-trial","153","1115746","0.0-55.0","battery-v0.2","","""event"",""trial"",""time""
""fullscreenenter"",""1"",""1605""
","
","
","""event"",""trial"",""time""
""fullscreenenter"",""1"",""1605""
","
","","","-1","","","17","3037","2062","u","elianto","#f73b6a7A"," ","-1","0","0","[]","0","2","","","3037","51","0","3","lose","go","1"
"pit-trial","154","1119506","0.0-56.0","battery-v0.2","","""event"",""trial"",""time""
""fullscreenenter"",""1"",""1605""
","
","
","""event"",""trial"",""time""
""fullscreenenter"",""1"",""1605""
","
","","","890.2000000476837","","","17","3037","2062","l","elianto","#3366ff99","-1"," ","0","0","[1741.5]","1","2","","","3037","52","1","2","win","no-go","0"
"pit-trial","155","1124371","0.0-57.0","battery-v0.2","","""event"",""trial"",""time""
""fullscreenenter"",""1"",""1605""
","
","
","""event"",""trial"",""time""
""fullscreenenter"",""1"",""1605""
","
","","","-1","","","17","3037","2062","g","elianto","#f73b6a7A","-1","-1","1","0","[]","0","2","","","3037","53","3","4","lose","no-go","0"
"pit-trial","156","1128050","0.0-58.0","battery-v0.2","","""event"",""trial"",""time""
""fullscreenenter"",""1"",""1605""
","
","
","""event"",""trial"",""time""
""fullscreenenter"",""1"",""1605""
","
","","","812.1000000238419","","","17","3037","2062","a","elianto","#f73b6a7A"," "," ","1","-10","[1663.5]","1","2","","","3037","54","2","3","lose","go","1"
"pit-trial","157","1131540","0.0-59.0","battery-v0.2","","""event"",""trial"",""time""
""fullscreenenter"",""1"",""1605""
","
","
","""event"",""trial"",""time""
""fullscreenenter"",""1"",""1605""
","
","","","622.8000000119209","","","17","3037","2062","u","elianto","#f73b6a7A"," "," ","1","0","[1473.4000000357628]","1","2","","","3037","55","0","3","lose","go","0"
"pit-trial","158","1135140","0.0-60.0","battery-v0.2","","""event"",""trial"",""time""
""fullscreenenter"",""1"",""1605""
","
","
","""event"",""trial"",""time""
""fullscreenenter"",""1"",""1605""
","
","","","735.3999999761581","","","17","3037","2062","l","elianto","#3366ff99","-1"," ","0","0","[1586.3999999761581]","1","2","","","3037","56","1","2","win","no-go","0"
"pit-trial","159","1140007","0.0-61.0","battery-v0.2","","""event"",""trial"",""time""
""fullscreenenter"",""1"",""1605""
","
","
","""event"",""trial"",""time""
""fullscreenenter"",""1"",""1605""
","
","","","-1","","","17","3037","2062","u","elianto","#f73b6a7A"," ","-1","0","-10","[]","0","2","","","3037","57","0","3","lose","go","0"
"pit-trial","160","1144871","0.0-62.0","battery-v0.2","","""event"",""trial"",""time""
""fullscreenenter"",""1"",""1605""
","
","
","""event"",""trial"",""time""
""fullscreenenter"",""1"",""1605""
","
","","","-1","","","17","3037","2062","p","elianto","#3366ff99"," ","-1","0","0","[3656.5]","1","2","","","3037","58","4","1","win","go","0"
"pit-trial","161","1148666","0.0-63.0","battery-v0.2","","""event"",""trial"",""time""
""fullscreenenter"",""1"",""1605""
","
","
","""event"",""trial"",""time""
""fullscreenenter"",""1"",""1605""
","
","","","927.6999999880791","","","17","3037","2062","a","elianto","#f73b6a7A"," "," ","1","-10","[1778.0999999642372]","1","2","","","3037","59","2","3","lose","go","1"
"pit-trial","162","1153531","0.0-64.0","battery-v0.2","","""event"",""trial"",""time""
""fullscreenenter"",""1"",""1605""
","
","
","""event"",""trial"",""time""
""fullscreenenter"",""1"",""1605""
","
","","","-1","","","17","3037","2062","g","elianto","#f73b6a7A","-1","-1","1","0","[]","0","2","","","3037","60","3","4","lose","no-go","0"
"pit-trial","163","1158000","0.0-65.0","battery-v0.2","","""event"",""trial"",""time""
""fullscreenenter"",""1"",""1605""
","
","
","""event"",""trial"",""time""
""fullscreenenter"",""1"",""1605""
","
","","","1598.9000000357628","","","17","3037","2062","p","elianto","#3366ff99"," "," ","1","0","[2450.600000023842]","1","2","","","3037","61","4","1","win","go","1"
"pit-trial","164","1162865","0.0-66.0","battery-v0.2","","""event"",""trial"",""time""
""fullscreenenter"",""1"",""1605""
","
","
","""event"",""trial"",""time""
""fullscreenenter"",""1"",""1605""
","
","","","-1","","","17","3037","2062","a","elianto","#f73b6a7A"," ","-1","0","-10","[]","0","2","","","3037","62","2","3","lose","go","0"
"pit-trial","165","1166473","0.0-67.0","battery-v0.2","","""event"",""trial"",""time""
""fullscreenenter"",""1"",""1605""
","
","
","""event"",""trial"",""time""
""fullscreenenter"",""1"",""1605""
","
","","","744.3000000119209","","","17","3037","2062","g","elianto","#f73b6a7A","-1"," ","0","0","[1595.300000011921]","1","2","","","3037","63","3","4","lose","no-go","1"
"pit-trial","166","1170571","0.0-68.0","battery-v0.2","","""event"",""trial"",""time""
""fullscreenenter"",""1"",""1605""
","
","
","""event"",""trial"",""time""
""fullscreenenter"",""1"",""1605""
","
","","","1231.0999999642372","","","17","3037","2062","l","elianto","#3366ff99","-1"," ","0","+10","[2081.899999976158]","1","2","","","3037","64","1","2","win","no-go","1"
"pit-trial","167","1175437","0.0-69.0","battery-v0.2","","""event"",""trial"",""time""
""fullscreenenter"",""1"",""1605""
","
","
","""event"",""trial"",""time""
""fullscreenenter"",""1"",""1605""
","
","","","-1","","","17","3037","2062","p","elianto","#3366ff99"," ","-1","0","0","[3363.099999964237]","1","2","","","3037","65","4","1","win","go","0"
"pit-trial","168","1180009","0.0-70.0","battery-v0.2","","""event"",""trial"",""time""
""fullscreenenter"",""1"",""1605""
","
","
","""event"",""trial"",""time""
""fullscreenenter"",""1"",""1605""
","
","","","1705.800000011921","","","17","3037","2062","s","elianto","#3366ff99","-1"," ","0","0","[2556.800000011921]","1","2","","","3037","66","5","2","win","no-go","0"
"pit-trial","169","1184874","0.0-71.0","battery-v0.2","","""event"",""trial"",""time""
""fullscreenenter"",""1"",""1605""
","
","
","""event"",""trial"",""time""
""fullscreenenter"",""1"",""1605""
","
","","","-1","","","17","3037","2062","g","elianto","#f73b6a7A","-1","-1","1","0","[]","0","2","","","3037","67","3","4","lose","no-go","0"
"pit-trial","170","1189514","0.0-72.0","battery-v0.2","","""event"",""trial"",""time""
""fullscreenenter"",""1"",""1605""
","
","
","""event"",""trial"",""time""
""fullscreenenter"",""1"",""1605""
","
","","","1775.199999988079","","","17","3037","2062","l","elianto","#3366ff99","-1"," ","0","0","[2626]","1","2","","","3037","68","1","2","win","no-go","0"
"pit-trial","171","1194379","0.0-73.0","battery-v0.2","","""event"",""trial"",""time""
""fullscreenenter"",""1"",""1605""
","
","
","""event"",""trial"",""time""
""fullscreenenter"",""1"",""1605""
","
","","","-1","","","17","3037","2062","a","elianto","#f73b6a7A"," ","-1","0","-10","[]","0","2","","","3037","69","2","3","lose","go","0"
"pit-trial","172","1199244","0.0-74.0","battery-v0.2","","""event"",""trial"",""time""
""fullscreenenter"",""1"",""1605""
","
","
","""event"",""trial"",""time""
""fullscreenenter"",""1"",""1605""
","
","","","-1","","","17","3037","2062","s","elianto","#3366ff99","-1","-1","1","+10","[]","0","2","","","3037","70","5","2","win","no-go","0"
"pit-trial","173","1203464","0.0-75.0","battery-v0.2","","""event"",""trial"",""time""
""fullscreenenter"",""1"",""1605""
","
","
","""event"",""trial"",""time""
""fullscreenenter"",""1"",""1605""
","
","","","1353","","","17","3037","2062","p","elianto","#3366ff99"," "," ","1","+10","[2204.600000023842]","1","2","","","3037","71","4","1","win","go","0"
"pit-trial","174","1207491","0.0-76.0","battery-v0.2","","""event"",""trial"",""time""
""fullscreenenter"",""1"",""1605""
","
","
","""event"",""trial"",""time""
""fullscreenenter"",""1"",""1605""
","
","","","1157.800000011921","","","17","3037","2062","l","elianto","#3366ff99","-1"," ","0","+10","[2009.2000000476837]","1","2","","","3037","72","1","2","win","no-go","1"
"pit-trial","175","1211732","0.0-77.0","battery-v0.2","","""event"",""trial"",""time""
""fullscreenenter"",""1"",""1605""
","
","
","""event"",""trial"",""time""
""fullscreenenter"",""1"",""1605""
","
","","","1377.4000000357628","","","17","3037","2062","l","elianto","#3366ff99","-1"," ","0","0","[2228.400000035763]","1","2","","","3037","73","1","2","win","no-go","0"
"pit-trial","176","1216597","0.0-78.0","battery-v0.2","","""event"",""trial"",""time""
""fullscreenenter"",""1"",""1605""
","
","
","""event"",""trial"",""time""
""fullscreenenter"",""1"",""1605""
","
","","","-1","","","17","3037","2062","p","elianto","#3366ff99"," ","-1","0","0","[2887.800000011921]","1","2","","","3037","74","4","1","win","go","0"
"pit-trial","177","1220622","0.0-79.0","battery-v0.2","","""event"",""trial"",""time""
""fullscreenenter"",""1"",""1605""
","
","
","""event"",""trial"",""time""
""fullscreenenter"",""1"",""1605""
","
","","","1161.699999988079","","","17","3037","2062","s","elianto","#3366ff99","-1"," ","0","0","[2012.300000011921]","1","2","","","3037","75","5","2","win","no-go","0"
"pit-trial","178","1225487","0.0-80.0","battery-v0.2","","""event"",""trial"",""time""
""fullscreenenter"",""1"",""1605""
","
","
","""event"",""trial"",""time""
""fullscreenenter"",""1"",""1605""
","
","","","-1","","","17","3037","2062","g","elianto","#f73b6a7A","-1","-1","1","0","[]","0","2","","","3037","76","3","4","lose","no-go","0"
"pit-trial","179","1230351","0.0-81.0","battery-v0.2","","""event"",""trial"",""time""
""fullscreenenter"",""1"",""1605""
","
","
","""event"",""trial"",""time""
""fullscreenenter"",""1"",""1605""
","
","","","-1","","","17","3037","2062","s","elianto","#3366ff99","-1","-1","1","+10","[]","0","2","","","3037","77","5","2","win","no-go","0"
"pit-trial","180","1235215","0.0-82.0","battery-v0.2","","""event"",""trial"",""time""
""fullscreenenter"",""1"",""1605""
","
","
","""event"",""trial"",""time""
""fullscreenenter"",""1"",""1605""
","
","","","-1","","","17","3037","2062","p","elianto","#3366ff99"," ","-1","0","0","[]","0","2","","","3037","78","4","1","win","go","0"
"pit-trial","181","1238616","0.0-83.0","battery-v0.2","","""event"",""trial"",""time""
""fullscreenenter"",""1"",""1605""
","
","
","""event"",""trial"",""time""
""fullscreenenter"",""1"",""1605""
","
","","","542.3999999761581","","","17","3037","2062","p","elianto","#3366ff99"," "," ","1","+10","[256.9000000357628,1393]","2","2","","","3037","79","4","1","win","go","0"
"pit-trial","182","1243480","0.0-84.0","battery-v0.2","","""event"",""trial"",""time""
""fullscreenenter"",""1"",""1605""
","
","
","""event"",""trial"",""time""
""fullscreenenter"",""1"",""1605""
","
","","","-1","","","17","3037","2062","g","elianto","#f73b6a7A","-1","-1","1","0","[]","0","2","","","3037","80","3","4","lose","no-go","0"
"pit-trial","183","1248347","0.0-85.0","battery-v0.2","","""event"",""trial"",""time""
""fullscreenenter"",""1"",""1605""
","
","
","""event"",""trial"",""time""
""fullscreenenter"",""1"",""1605""
","
","","","-1","","","17","3037","2062","e","elianto","#f73b6a7A","-1","-1","1","0","[]","0","2","","","3037","81","7","4","lose","no-go","0"
"pit-trial","184","1253215","0.0-86.0","battery-v0.2","","""event"",""trial"",""time""
""fullscreenenter"",""1"",""1605""
","
","
","""event"",""trial"",""time""
""fullscreenenter"",""1"",""1605""
","
","","","-1","","","17","3037","2062","p","elianto","#3366ff99"," ","-1","0","0","[]","0","2","","","3037","82","4","1","win","go","0"
"pit-trial","185","1256601","0.0-87.0","battery-v0.2","","""event"",""trial"",""time""
""fullscreenenter"",""1"",""1605""
","
","
","""event"",""trial"",""time""
""fullscreenenter"",""1"",""1605""
","
","","","522","","","17","3037","2062","s","elianto","#3366ff99","-1"," ","0","0","[1372.2000000476837]","1","2","","","3037","83","5","2","win","no-go","0"
"pit-trial","186","1261467","0.0-88.0","battery-v0.2","","""event"",""trial"",""time""
""fullscreenenter"",""1"",""1605""
","
","
","""event"",""trial"",""time""
""fullscreenenter"",""1"",""1605""
","
","","","-1","","","17","3037","2062","g","elianto","#f73b6a7A","-1","-1","1","0","[]","0","2","","","3037","84","3","4","lose","no-go","0"
"pit-trial","187","1266332","0.0-89.0","battery-v0.2","","""event"",""trial"",""time""
""fullscreenenter"",""1"",""1605""
","
","
","""event"",""trial"",""time""
""fullscreenenter"",""1"",""1605""
","
","","","-1","","","17","3037","2062","e","elianto","#f73b6a7A","-1","-1","1","-10","[]","0","2","","","3037","85","7","4","lose","no-go","1"
"pit-trial","188","1271197","0.0-90.0","battery-v0.2","","""event"",""trial"",""time""
""fullscreenenter"",""1"",""1605""
","
","
","""event"",""trial"",""time""
""fullscreenenter"",""1"",""1605""
","
","","","-1","","","17","3037","2062","p","elianto","#3366ff99"," ","-1","0","0","[]","0","2","","","3037","86","4","1","win","go","0"
"pit-trial","189","1274090","0.0-91.0","battery-v0.2","","""event"",""trial"",""time""
""fullscreenenter"",""1"",""1605""
","
","
","""event"",""trial"",""time""
""fullscreenenter"",""1"",""1605""
","
","","","25.80000001192093","","","17","3037","2062","s","elianto","#3366ff99","-1"," ","0","0","[876.6999999880791]","1","2","","","3037","87","5","2","win","no-go","0"
"pit-trial","190","1278956","0.0-92.0","battery-v0.2","","""event"",""trial"",""time""
""fullscreenenter"",""1"",""1605""
","
","
","""event"",""trial"",""time""
""fullscreenenter"",""1"",""1605""
","
","","","-1","","","17","3037","2062","w","elianto","#f73b6a7A"," ","-1","0","-10","[]","0","2","","","3037","88","6","3","lose","go","0"
"pit-trial","191","1283825","0.0-93.0","battery-v0.2","","""event"",""trial"",""time""
""fullscreenenter"",""1"",""1605""
","
","
","""event"",""trial"",""time""
""fullscreenenter"",""1"",""1605""
","
","","","-1","","","17","3037","2062","w","elianto","#f73b6a7A"," ","-1","0","0","[]","0","2","","","3037","89","6","3","lose","go","1"
"pit-trial","192","1288690","0.0-94.0","battery-v0.2","","""event"",""trial"",""time""
""fullscreenenter"",""1"",""1605""
","
","
","""event"",""trial"",""time""
""fullscreenenter"",""1"",""1605""
","
","","","-1","","","17","3037","2062","p","elianto","#3366ff99"," ","-1","0","0","[]","0","2","","","3037","90","4","1","win","go","0"
"pit-trial","193","1293556","0.0-95.0","battery-v0.2","","""event"",""trial"",""time""
""fullscreenenter"",""1"",""1605""
","
","
","""event"",""trial"",""time""
""fullscreenenter"",""1"",""1605""
","
","","","-1","","","17","3037","2062","e","elianto","#f73b6a7A","-1","-1","1","0","[]","0","2","","","3037","91","7","4","lose","no-go","0"
"pit-trial","194","1298420","0.0-96.0","battery-v0.2","","""event"",""trial"",""time""
""fullscreenenter"",""1"",""1605""
","
","
","""event"",""trial"",""time""
""fullscreenenter"",""1"",""1605""
","
","","","-1","","","17","3037","2062","s","elianto","#3366ff99","-1","-1","1","0","[]","0","2","","","3037","92","5","2","win","no-go","1"
"pit-trial","195","1303289","0.0-97.0","battery-v0.2","","""event"",""trial"",""time""
""fullscreenenter"",""1"",""1605""
","
","
","""event"",""trial"",""time""
""fullscreenenter"",""1"",""1605""
","
","","","-1","","","17","3037","2062","e","elianto","#f73b6a7A","-1","-1","1","0","[]","0","2","","","3037","93","7","4","lose","no-go","0"
"pit-trial","196","1308153","0.0-98.0","battery-v0.2","","""event"",""trial"",""time""
""fullscreenenter"",""1"",""1605""
","
","
","""event"",""trial"",""time""
""fullscreenenter"",""1"",""1605""
","
","","","-1","","","17","3037","2062","d","elianto","#3366ff99"," ","-1","0","0","[]","0","2","","","3037","94","8","1","win","go","0"
"pit-trial","197","1313019","0.0-99.0","battery-v0.2","","""event"",""trial"",""time""
""fullscreenenter"",""1"",""1605""
","
","
","""event"",""trial"",""time""
""fullscreenenter"",""1"",""1605""
","
","","","-1","","","17","3037","2062","s","elianto","#3366ff99","-1","-1","1","+10","[]","0","2","","","3037","95","5","2","win","no-go","0"
"pit-trial","198","1317883","0.0-100.0","battery-v0.2","","""event"",""trial"",""time""
""fullscreenenter"",""1"",""1605""
","
","
","""event"",""trial"",""time""
""fullscreenenter"",""1"",""1605""
","
","","","-1","","","17","3037","2062","w","elianto","#f73b6a7A"," ","-1","0","-10","[]","0","2","","","3037","96","6","3","lose","go","0"
"pit-trial","199","1322748","0.0-101.0","battery-v0.2","","""event"",""trial"",""time""
""fullscreenenter"",""1"",""1605""
","
","
","""event"",""trial"",""time""
""fullscreenenter"",""1"",""1605""
","
","","","-1","","","17","3037","2062","w","elianto","#f73b6a7A"," ","-1","0","-10","[]","0","2","","","3037","97","6","3","lose","go","0"
"pit-trial","200","1327612","0.0-102.0","battery-v0.2","","""event"",""trial"",""time""
""fullscreenenter"",""1"",""1605""
","
","
","""event"",""trial"",""time""
""fullscreenenter"",""1"",""1605""
","
","","","-1","","","17","3037","2062","s","elianto","#3366ff99","-1","-1","1","+10","[]","0","2","","","3037","98","5","2","win","no-go","0"
"pit-trial","201","1332477","0.0-103.0","battery-v0.2","","""event"",""trial"",""time""
""fullscreenenter"",""1"",""1605""
","
","
","""event"",""trial"",""time""
""fullscreenenter"",""1"",""1605""
","
","","","-1","","","17","3037","2062","d","elianto","#3366ff99"," ","-1","0","0","[]","0","2","","","3037","99","8","1","win","go","0"
"pit-trial","202","1337342","0.0-104.0","battery-v0.2","","""event"",""trial"",""time""
""fullscreenenter"",""1"",""1605""
","
","
","""event"",""trial"",""time""
""fullscreenenter"",""1"",""1605""
","
","","","-1","","","17","3037","2062","e","elianto","#f73b6a7A","-1","-1","1","-10","[]","0","2","","","3037","100","7","4","lose","no-go","1"
"pit-trial","203","1342207","0.0-105.0","battery-v0.2","","""event"",""trial"",""time""
""fullscreenenter"",""1"",""1605""
","
","
","""event"",""trial"",""time""
""fullscreenenter"",""1"",""1605""
","
","","","-1","","","17","3037","2062","j","elianto","#3366ff99"," ","-1","0","0","[]","0","2","","","3037","101","9","1","win","go","0"
"pit-trial","204","1347071","0.0-106.0","battery-v0.2","","""event"",""trial"",""time""
""fullscreenenter"",""1"",""1605""
","
","
","""event"",""trial"",""time""
""fullscreenenter"",""1"",""1605""
","
","","","-1","","","17","3037","2062","d","elianto","#3366ff99"," ","-1","0","0","[]","0","2","","","3037","102","8","1","win","go","0"
"pit-trial","205","1351937","0.0-107.0","battery-v0.2","","""event"",""trial"",""time""
""fullscreenenter"",""1"",""1605""
","
","
","""event"",""trial"",""time""
""fullscreenenter"",""1"",""1605""
","
","","","-1","","","17","3037","2062","e","elianto","#f73b6a7A","-1","-1","1","0","[]","0","2","","","3037","103","7","4","lose","no-go","0"
"pit-trial","206","1355936","0.0-108.0","battery-v0.2","","""event"",""trial"",""time""
""fullscreenenter"",""1"",""1605""
","
","
","""event"",""trial"",""time""
""fullscreenenter"",""1"",""1605""
","
","","","1131.6000000238419","","","17","3037","2062","s","elianto","#3366ff99","-1"," ","0","0","[1982.800000011921]","1","2","","","3037","104","5","2","win","no-go","0"
"pit-trial","207","1359168","0.0-109.0","battery-v0.2","","""event"",""trial"",""time""
""fullscreenenter"",""1"",""1605""
","
","
","""event"",""trial"",""time""
""fullscreenenter"",""1"",""1605""
","
","","","364.69999998807907","","","17","3037","2062","d","elianto","#3366ff99"," "," ","1","0","[1214.8999999761581]","1","2","","","3037","105","8","1","win","go","1"
"pit-trial","208","1362378","0.0-110.0","battery-v0.2","","""event"",""trial"",""time""
""fullscreenenter"",""1"",""1605""
","
","
","""event"",""trial"",""time""
""fullscreenenter"",""1"",""1605""
","
","","","344.4000000357628","","","17","3037","2062","p","elianto","#3366ff99"," "," ","1","0","[1194.9000000357628]","1","2","","","3037","106","4","1","win","go","1"
"pit-trial","209","1366064","0.0-111.0","battery-v0.2","","""event"",""trial"",""time""
""fullscreenenter"",""1"",""1605""
","
","
","""event"",""trial"",""time""
""fullscreenenter"",""1"",""1605""
","
","","","819.3999999761581","","","17","3037","2062","j","elianto","#3366ff99"," "," ","1","+10","[1671.8999999761581]","1","2","","","3037","107","9","1","win","go","0"
"pit-trial","210","1370930","0.0-112.0","battery-v0.2","","""event"",""trial"",""time""
""fullscreenenter"",""1"",""1605""
","
","
","""event"",""trial"",""time""
""fullscreenenter"",""1"",""1605""
","
","","","-1","","","17","3037","2062","w","elianto","#f73b6a7A"," ","-1","0","-10","[]","0","2","","","3037","108","6","3","lose","go","0"
"pit-trial","211","1374368","0.0-113.0","battery-v0.2","","""event"",""trial"",""time""
""fullscreenenter"",""1"",""1605""
","
","
","""event"",""trial"",""time""
""fullscreenenter"",""1"",""1605""
","
","","","573.8000000119209","","","17","3037","2062","j","elianto","#3366ff99"," "," ","1","0","[1424.800000011921]","1","2","","","3037","109","9","1","win","go","1"
"pit-trial","212","1379234","0.0-114.0","battery-v0.2","","""event"",""trial"",""time""
""fullscreenenter"",""1"",""1605""
","
","
","""event"",""trial"",""time""
""fullscreenenter"",""1"",""1605""
","
","","","-1","","","17","3037","2062","d","elianto","#3366ff99"," ","-1","0","0","[]","0","2","","","3037","110","8","1","win","go","0"
"pit-trial","213","1384099","0.0-115.0","battery-v0.2","","""event"",""trial"",""time""
""fullscreenenter"",""1"",""1605""
","
","
","""event"",""trial"",""time""
""fullscreenenter"",""1"",""1605""
","
","","","-1","","","17","3037","2062","w","elianto","#f73b6a7A"," ","-1","0","-10","[]","0","2","","","3037","111","6","3","lose","go","0"
"pit-trial","214","1388971","0.0-116.0","battery-v0.2","","""event"",""trial"",""time""
""fullscreenenter"",""1"",""1605""
","
","
","""event"",""trial"",""time""
""fullscreenenter"",""1"",""1605""
","
","","","-1","","","17","3037","2062","s","elianto","#3366ff99","-1","-1","1","0","[]","0","2","","","3037","112","5","2","win","no-go","1"
"pit-trial","215","1393838","0.0-117.0","battery-v0.2","","""event"",""trial"",""time""
""fullscreenenter"",""1"",""1605""
","
","
","""event"",""trial"",""time""
""fullscreenenter"",""1"",""1605""
","
","","","-1","","","17","3037","2062","w","elianto","#f73b6a7A"," ","-1","0","-10","[]","0","2","","","3037","113","6","3","lose","go","0"
"pit-trial","216","1398704","0.0-118.0","battery-v0.2","","""event"",""trial"",""time""
""fullscreenenter"",""1"",""1605""
","
","
","""event"",""trial"",""time""
""fullscreenenter"",""1"",""1605""
","
","","","-1","","","17","3037","2062","s","elianto","#3366ff99","-1","-1","1","+10","[]","0","2","","","3037","114","5","2","win","no-go","0"
"pit-trial","217","1403568","0.0-119.0","battery-v0.2","","""event"",""trial"",""time""
""fullscreenenter"",""1"",""1605""
","
","
","""event"",""trial"",""time""
""fullscreenenter"",""1"",""1605""
","
","","","-1","","","17","3037","2062","j","elianto","#3366ff99"," ","-1","0","0","[]","0","2","","","3037","115","9","1","win","go","0"
"pit-trial","218","1408433","0.0-120.0","battery-v0.2","","""event"",""trial"",""time""
""fullscreenenter"",""1"",""1605""
","
","
","""event"",""trial"",""time""
""fullscreenenter"",""1"",""1605""
","
","","","-1","","","17","3037","2062","d","elianto","#3366ff99"," ","-1","0","+10","[]","0","2","","","3037","116","8","1","win","go","1"
"pit-trial","219","1413299","0.0-121.0","battery-v0.2","","""event"",""trial"",""time""
""fullscreenenter"",""1"",""1605""
","
","
","""event"",""trial"",""time""
""fullscreenenter"",""1"",""1605""
","
","","","-1","","","17","3037","2062","j","elianto","#3366ff99"," ","-1","0","+10","[]","0","2","","","3037","117","9","1","win","go","1"
"pit-trial","220","1416802","0.0-122.0","battery-v0.2","","""event"",""trial"",""time""
""fullscreenenter"",""1"",""1605""
","
","
","""event"",""trial"",""time""
""fullscreenenter"",""1"",""1605""
","
","","","635.6999999880791","","","17","3037","2062","s","elianto","#3366ff99","-1"," ","0","0","[1488.699999988079]","1","2","","","3037","118","5","2","win","no-go","0"
"pit-trial","221","1421667","0.0-123.0","battery-v0.2","","""event"",""trial"",""time""
""fullscreenenter"",""1"",""1605""
","
","
","""event"",""trial"",""time""
""fullscreenenter"",""1"",""1605""
","
","","","-1","","","17","3037","2062","d","elianto","#3366ff99"," ","-1","0","0","[]","0","2","","","3037","119","8","1","win","go","0"
"pit-trial","222","1426533","0.0-124.0","battery-v0.2","","""event"",""trial"",""time""
""fullscreenenter"",""1"",""1605""
","
","
","""event"",""trial"",""time""
""fullscreenenter"",""1"",""1605""
","
","","","-1","","","17","3037","2062","w","elianto","#f73b6a7A"," ","-1","0","-10","[]","0","2","","","3037","120","6","3","lose","go","0"
"pit-trial","223","1431398","0.0-125.0","battery-v0.2","","""event"",""trial"",""time""
""fullscreenenter"",""1"",""1605""
","
","
","""event"",""trial"",""time""
""fullscreenenter"",""1"",""1605""
","
","","","-1","","","17","3037","2062","j","elianto","#3366ff99"," ","-1","0","0","[]","0","2","","","3037","121","9","1","win","go","0"
"pit-trial","224","1436258","0.0-126.0","battery-v0.2","","""event"",""trial"",""time""
""fullscreenenter"",""1"",""1605""
","
","
","""event"",""trial"",""time""
""fullscreenenter"",""1"",""1605""
","
","","","-1","","","17","3037","2062","e","elianto","#f73b6a7A","-1","-1","1","0","[]","0","2","","","3037","122","7","4","lose","no-go","0"
"pit-trial","225","1441124","0.0-127.0","battery-v0.2","","""event"",""trial"",""time""
""fullscreenenter"",""1"",""1605""
","
","
","""event"",""trial"",""time""
""fullscreenenter"",""1"",""1605""
","
","","","-1","","","17","3037","2062","w","elianto","#f73b6a7A"," ","-1","0","0","[]","0","2","","","3037","123","6","3","lose","go","1"
"pit-trial","226","1445991","0.0-128.0","battery-v0.2","","""event"",""trial"",""time""
""fullscreenenter"",""1"",""1605""
","
","
","""event"",""trial"",""time""
""fullscreenenter"",""1"",""1605""
","
","","","-1","","","17","3037","2062","d","elianto","#3366ff99"," ","-1","0","+10","[]","0","2","","","3037","124","8","1","win","go","1"
"pit-trial","227","1450857","0.0-129.0","battery-v0.2","","""event"",""trial"",""time""
""fullscreenenter"",""1"",""1605""
","
","
","""event"",""trial"",""time""
""fullscreenenter"",""1"",""1605""
","
","","","-1","","","17","3037","2062","d","elianto","#3366ff99"," ","-1","0","0","[]","0","2","","","3037","125","8","1","win","go","0"
"pit-trial","228","1455723","0.0-130.0","battery-v0.2","","""event"",""trial"",""time""
""fullscreenenter"",""1"",""1605""
","
","
","""event"",""trial"",""time""
""fullscreenenter"",""1"",""1605""
","
","","","-1","","","17","3037","2062","j","elianto","#3366ff99"," ","-1","0","0","[]","0","2","","","3037","126","9","1","win","go","0"
"pit-trial","229","1460588","0.0-131.0","battery-v0.2","","""event"",""trial"",""time""
""fullscreenenter"",""1"",""1605""
","
","
","""event"",""trial"",""time""
""fullscreenenter"",""1"",""1605""
","
","","","-1","","","17","3037","2062","w","elianto","#f73b6a7A"," ","-1","0","0","[]","0","2","","","3037","127","6","3","lose","go","1"
"pit-trial","230","1465456","0.0-132.0","battery-v0.2","","""event"",""trial"",""time""
""fullscreenenter"",""1"",""1605""
","
","
","""event"",""trial"",""time""
""fullscreenenter"",""1"",""1605""
","
","","","-1","","","17","3037","2062","e","elianto","#f73b6a7A","-1","-1","1","0","[]","0","2","","","3037","128","7","4","lose","no-go","0"
"pit-trial","231","1470321","0.0-133.0","battery-v0.2","","""event"",""trial"",""time""
""fullscreenenter"",""1"",""1605""
","
","
","""event"",""trial"",""time""
""fullscreenenter"",""1"",""1605""
","
","","","-1","","","17","3037","2062","w","elianto","#f73b6a7A"," ","-1","0","0","[]","0","2","","","3037","129","6","3","lose","go","1"
"pit-trial","232","1475190","0.0-134.0","battery-v0.2","","""event"",""trial"",""time""
""fullscreenenter"",""1"",""1605""
","
","
","""event"",""trial"",""time""
""fullscreenenter"",""1"",""1605""
","
","","","-1","","","17","3037","2062","j","elianto","#3366ff99"," ","-1","0","0","[]","0","2","","","3037","130","9","1","win","go","0"
"pit-trial","233","1480055","0.0-135.0","battery-v0.2","","""event"",""trial"",""time""
""fullscreenenter"",""1"",""1605""
","
","
","""event"",""trial"",""time""
""fullscreenenter"",""1"",""1605""
","
","","","-1","","","17","3037","2062","e","elianto","#f73b6a7A","-1","-1","1","0","[]","0","2","","","3037","131","7","4","lose","no-go","0"
"pit-trial","234","1484920","0.0-136.0","battery-v0.2","","""event"",""trial"",""time""
""fullscreenenter"",""1"",""1605""
","
","
","""event"",""trial"",""time""
""fullscreenenter"",""1"",""1605""
","
","","","-1","","","17","3037","2062","d","elianto","#3366ff99"," ","-1","0","+10","[]","0","2","","","3037","132","8","1","win","go","1"
"pit-trial","235","1489787","0.0-137.0","battery-v0.2","","""event"",""trial"",""time""
""fullscreenenter"",""1"",""1605""
","
","
","""event"",""trial"",""time""
""fullscreenenter"",""1"",""1605""
","
","","","-1","","","17","3037","2062","e","elianto","#f73b6a7A","-1","-1","1","-10","[]","0","2","","","3037","133","7","4","lose","no-go","1"
"pit-trial","236","1494651","0.0-138.0","battery-v0.2","","""event"",""trial"",""time""
""fullscreenenter"",""1"",""1605""
","
","
","""event"",""trial"",""time""
""fullscreenenter"",""1"",""1605""
","
","","","-1","","","17","3037","2062","d","elianto","#3366ff99"," ","-1","0","0","[]","0","2","","","3037","134","8","1","win","go","0"
"pit-trial","237","1499521","0.0-139.0","battery-v0.2","","""event"",""trial"",""time""
""fullscreenenter"",""1"",""1605""
","
","
","""event"",""trial"",""time""
""fullscreenenter"",""1"",""1605""
","
","","","-1","","","17","3037","2062","w","elianto","#f73b6a7A"," ","-1","0","-10","[]","0","2","","","3037","135","6","3","lose","go","0"
"pit-trial","238","1504388","0.0-140.0","battery-v0.2","","""event"",""trial"",""time""
""fullscreenenter"",""1"",""1605""
","
","
","""event"",""trial"",""time""
""fullscreenenter"",""1"",""1605""
","
","","","-1","","","17","3037","2062","j","elianto","#3366ff99"," ","-1","0","0","[]","0","2","","","3037","136","9","1","win","go","0"
"pit-trial","239","1509256","0.0-141.0","battery-v0.2","","""event"",""trial"",""time""
""fullscreenenter"",""1"",""1605""
","
","
","""event"",""trial"",""time""
""fullscreenenter"",""1"",""1605""
","
","","","-1","","","17","3037","2062","j","elianto","#3366ff99"," ","-1","0","0","[]","0","2","","","3037","137","9","1","win","go","0"
"pit-trial","240","1514121","0.0-142.0","battery-v0.2","","""event"",""trial"",""time""
""fullscreenenter"",""1"",""1605""
","
","
","""event"",""trial"",""time""
""fullscreenenter"",""1"",""1605""
","
","","","-1","","","17","3037","2062","w","elianto","#f73b6a7A"," ","-1","0","0","[]","0","2","","","3037","138","6","3","lose","go","1"
"pit-trial","241","1518988","0.0-143.0","battery-v0.2","","""event"",""trial"",""time""
""fullscreenenter"",""1"",""1605""
","
","
","""event"",""trial"",""time""
""fullscreenenter"",""1"",""1605""
","
","","","-1","","","17","3037","2062","e","elianto","#f73b6a7A","-1","-1","1","0","[]","0","2","","","3037","139","7","4","lose","no-go","0"
"pit-trial","242","1523854","0.0-144.0","battery-v0.2","","""event"",""trial"",""time""
""fullscreenenter"",""1"",""1605""
","
","
","""event"",""trial"",""time""
""fullscreenenter"",""1"",""1605""
","
","","","-1","","","17","3037","2062","d","elianto","#3366ff99"," ","-1","0","+10","[]","0","2","","","3037","140","8","1","win","go","1"
"pit-instructions","243","2019354","0.0-145.0","battery-v0.2","","""event"",""trial"",""time""
""fullscreenenter"",""1"",""1605""
","
","
","""event"",""trial"",""time""
""fullscreenenter"",""1"",""1605""
","
","","[{""page_index"":0,""viewing_time"":483027.5},{""page_index"":1,""viewing_time"":12456.400000035763}]","495484.1999999881","","","","","","","","","","","","","","","","","","","","","","","",""
"pit-trial","244","2024253","0.0-146.0","battery-v0.2","","""event"",""trial"",""time""
""fullscreenenter"",""1"",""1605""
","
","
","""event"",""trial"",""time""
""fullscreenenter"",""1"",""1605""
","
","","","-1","","","17","3037","2062","m","elianto","#f73b6a7A","-1","-1","1","0","[]","0","3","","","3037","141","0","4","lose","no-go","0"
"pit-trial","245","2029123","0.0-147.0","battery-v0.2","","""event"",""trial"",""time""
""fullscreenenter"",""1"",""1605""
","
","
","""event"",""trial"",""time""
""fullscreenenter"",""1"",""1605""
","
","","","-1","","","17","3037","2062","h","elianto","#f73b6a7A"," ","-1","0","-10","[]","0","3","","","3037","142","3","3","lose","go","0"
"pit-trial","246","2032712","0.0-148.0","battery-v0.2","","""event"",""trial"",""time""
""fullscreenenter"",""1"",""1605""
","
","
","""event"",""trial"",""time""
""fullscreenenter"",""1"",""1605""
","
","","","708.6000000238419","","","17","3037","2062","r","elianto","#3366ff99"," "," ","1","+10","[1570.800000011921]","1","3","","","3037","143","1","1","win","go","0"
"pit-trial","247","2037603","0.0-149.0","battery-v0.2","","""event"",""trial"",""time""
""fullscreenenter"",""1"",""1605""
","
","
","""event"",""trial"",""time""
""fullscreenenter"",""1"",""1605""
","
","","","-1","","","17","3037","2062","y","elianto","#f73b6a7A","-1","-1","1","0","[]","0","3","","","3037","144","2","4","lose","no-go","0"
"pit-trial","248","2042482","0.0-150.0","battery-v0.2","","""event"",""trial"",""time""
""fullscreenenter"",""1"",""1605""
","
","
","""event"",""trial"",""time""
""fullscreenenter"",""1"",""1605""
","
","","","-1","","","17","3037","2062","h","elianto","#f73b6a7A"," ","-1","0","0","[]","0","3","","","3037","145","3","3","lose","go","1"
"pit-trial","249","2047343","0.0-151.0","battery-v0.2","","""event"",""trial"",""time""
""fullscreenenter"",""1"",""1605""
","
","
","""event"",""trial"",""time""
""fullscreenenter"",""1"",""1605""
","
","","","-1","","","17","3037","2062","y","elianto","#f73b6a7A","-1","-1","1","-10","[]","0","3","","","3037","146","2","4","lose","no-go","1"
"pit-trial","250","2051197","0.0-152.0","battery-v0.2","","""event"",""trial"",""time""
""fullscreenenter"",""1"",""1605""
","
","
","""event"",""trial"",""time""
""fullscreenenter"",""1"",""1605""
","
","","","988.8999999761581","","","17","3037","2062","r","elianto","#3366ff99"," "," ","1","+10","[1838.9000000357628]","1","3","","","3037","147","1","1","win","go","0"
"pit-trial","251","2055575","0.0-153.0","battery-v0.2","","""event"",""trial"",""time""
""fullscreenenter"",""1"",""1605""
","
","
","""event"",""trial"",""time""
""fullscreenenter"",""1"",""1605""
","
","","","1516.9000000357628","","","17","3037","2062","m","elianto","#f73b6a7A","-1"," ","0","-10","[2368]","1","3","","","3037","148","0","4","lose","no-go","0"
"pit-trial","252","2060440","0.0-154.0","battery-v0.2","","""event"",""trial"",""time""
""fullscreenenter"",""1"",""1605""
","
","
","""event"",""trial"",""time""
""fullscreenenter"",""1"",""1605""
","
","","","-1","","","17","3037","2062","h","elianto","#f73b6a7A"," ","-1","0","-10","[]","0","3","","","3037","149","3","3","lose","go","0"
"pit-trial","253","2064119","0.0-155.0","battery-v0.2","","""event"",""trial"",""time""
""fullscreenenter"",""1"",""1605""
","
","
","""event"",""trial"",""time""
""fullscreenenter"",""1"",""1605""
","
","","","814.5","","","17","3037","2062","m","elianto","#f73b6a7A","-1"," ","0","-10","[1665.300000011921]","1","3","","","3037","150","0","4","lose","no-go","0"
"pit-trial","254","2068985","0.0-156.0","battery-v0.2","","""event"",""trial"",""time""
""fullscreenenter"",""1"",""1605""
","
","
","""event"",""trial"",""time""
""fullscreenenter"",""1"",""1605""
","
","","","-1","","","17","3037","2062","y","elianto","#f73b6a7A","-1","-1","1","0","[]","0","3","","","3037","151","2","4","lose","no-go","0"
"pit-trial","255","2073020","0.0-157.0","battery-v0.2","","""event"",""trial"",""time""
""fullscreenenter"",""1"",""1605""
","
","
","""event"",""trial"",""time""
""fullscreenenter"",""1"",""1605""
","
","","","1168.0999999642372","","","17","3037","2062","r","elianto","#3366ff99"," "," ","1","+10","[2018.5]","1","3","","","3037","152","1","1","win","go","0"
"pit-trial","256","2077887","0.0-158.0","battery-v0.2","","""event"",""trial"",""time""
""fullscreenenter"",""1"",""1605""
","
","
","""event"",""trial"",""time""
""fullscreenenter"",""1"",""1605""
","
","","","-1","","","17","3037","2062","r","elianto","#3366ff99"," ","-1","0","+10","[]","0","3","","","3037","153","1","1","win","go","1"
"pit-trial","257","2082754","0.0-159.0","battery-v0.2","","""event"",""trial"",""time""
""fullscreenenter"",""1"",""1605""
","
","
","""event"",""trial"",""time""
""fullscreenenter"",""1"",""1605""
","
","","","-1","","","17","3037","2062","h","elianto","#f73b6a7A"," ","-1","0","-10","[]","0","3","","","3037","154","3","3","lose","go","0"
"pit-trial","258","2086969","0.0-160.0","battery-v0.2","","""event"",""trial"",""time""
""fullscreenenter"",""1"",""1605""
","
","
","""event"",""trial"",""time""
""fullscreenenter"",""1"",""1605""
","
","","","1352.6000000238419","","","17","3037","2062","y","elianto","#f73b6a7A","-1"," ","0","-10","[2203.099999964237]","1","3","","","3037","155","2","4","lose","no-go","0"
"pit-trial","259","2090711","0.0-161.0","battery-v0.2","","""event"",""trial"",""time""
""fullscreenenter"",""1"",""1605""
","
","
","""event"",""trial"",""time""
""fullscreenenter"",""1"",""1605""
","
","","","880","","","17","3037","2062","m","elianto","#f73b6a7A","-1"," ","0","-10","[838.3999999761581,1733.3999999761581]","2","3","","","3037","156","0","4","lose","no-go","0"
"pit-trial","260","2094309","0.0-162.0","battery-v0.2","","""event"",""trial"",""time""
""fullscreenenter"",""1"",""1605""
","
","
","""event"",""trial"",""time""
""fullscreenenter"",""1"",""1605""
","
","","","732.8000000119209","","","17","3037","2062","m","elianto","#f73b6a7A","-1"," ","0","-10","[1583.8999999761581]","1","3","","","3037","157","0","4","lose","no-go","0"
"pit-trial","261","2099168","0.0-163.0","battery-v0.2","","""event"",""trial"",""time""
""fullscreenenter"",""1"",""1605""
","
","
","""event"",""trial"",""time""
""fullscreenenter"",""1"",""1605""
","
","","","-1","","","17","3037","2062","h","elianto","#f73b6a7A"," ","-1","0","0","[]","0","3","","","3037","158","3","3","lose","go","1"
"pit-trial","262","2104034","0.0-164.0","battery-v0.2","","""event"",""trial"",""time""
""fullscreenenter"",""1"",""1605""
","
","
","""event"",""trial"",""time""
""fullscreenenter"",""1"",""1605""
","
","","","-1","","","17","3037","2062","y","elianto","#f73b6a7A","-1","-1","1","0","[]","0","3","","","3037","159","2","4","lose","no-go","0"
"pit-trial","263","2107696","0.0-165.0","battery-v0.2","","""event"",""trial"",""time""
""fullscreenenter"",""1"",""1605""
","
","
","""event"",""trial"",""time""
""fullscreenenter"",""1"",""1605""
","
","","","797.8999999761581","","","17","3037","2062","r","elianto","#3366ff99"," "," ","1","+10","[1648.5999999642372]","1","3","","","3037","160","1","1","win","go","0"
"pit-trial","264","2112378","0.0-166.0","battery-v0.2","","""event"",""trial"",""time""
""fullscreenenter"",""1"",""1605""
","
","
","""event"",""trial"",""time""
""fullscreenenter"",""1"",""1605""
","
","","","1812.5","","","17","3037","2062","r","elianto","#3366ff99"," "," ","1","+10","[2663.600000023842]","1","3","","","3037","161","1","1","win","go","0"
"pit-trial","265","2116376","0.0-167.0","battery-v0.2","","""event"",""trial"",""time""
""fullscreenenter"",""1"",""1605""
","
","
","""event"",""trial"",""time""
""fullscreenenter"",""1"",""1605""
","
","","","1133.7999999523163","","","17","3037","2062","y","elianto","#f73b6a7A","-1"," ","0","-10","[1984]","1","3","","","3037","162","2","4","lose","no-go","0"
"pit-trial","266","2120646","0.0-168.0","battery-v0.2","","""event"",""trial"",""time""
""fullscreenenter"",""1"",""1605""
","
","
","""event"",""trial"",""time""
""fullscreenenter"",""1"",""1605""
","
","","","1405.199999988079","","","17","3037","2062","h","elianto","#f73b6a7A"," "," ","1","0","[2255.600000023842,4165.300000011921]","2","3","","","3037","163","3","3","lose","go","0"
"pit-trial","267","2124071","0.0-169.0","battery-v0.2","","""event"",""trial"",""time""
""fullscreenenter"",""1"",""1605""
","
","
","""event"",""trial"",""time""
""fullscreenenter"",""1"",""1605""
","
","","","561.1999999880791","","","17","3037","2062","m","elianto","#f73b6a7A","-1"," ","0","-10","[1411.5999999642372]","1","3","","","3037","164","0","4","lose","no-go","0"
"pit-trial","268","2127690","0.0-170.0","battery-v0.2","","""event"",""trial"",""time""
""fullscreenenter"",""1"",""1605""
","
","
","""event"",""trial"",""time""
""fullscreenenter"",""1"",""1605""
","
