"trial_type","trial_index","time_elapsed","internal_node_id","task_version","subject_id","interactions","blur_events","focus_events","fullscreenenter_events","fullscreenexit_events","success","view_history","rt","responses","num_errors","age","subject","participantId","rune","rune_set","hex","correct","choice","accuracy","outcome","keys","total_keys","block","practice","value"
"pavlovia","0","35","0.0-0.0","battery-v0.2","","""event"",""trial"",""time""
""fullscreenenter"",""1"",""2189""
","
","
","""event"",""trial"",""time""
""fullscreenenter"",""1"",""2189""
","
","","","","","","","","","","","","","","","","","","","",""
"fullscreen","1","3153","0.0-1.0","battery-v0.2","","""event"",""trial"",""time""
""fullscreenenter"",""1"",""2189""
","
","
","""event"",""trial"",""time""
""fullscreenenter"",""1"",""2189""
","
","true","","","","","","","","","","","","","","","","","","",""
"pit-instructions","2","8443","0.0-2.0-0.0","battery-v0.2","","""event"",""trial"",""time""
""fullscreenenter"",""1"",""2189""
","
","
","""event"",""trial"",""time""
""fullscreenenter"",""1"",""2189""
","
","","[{""page_index"":0,""viewing_time"":5278.799999952316}]","5280.399999976158","","","","","","","","","","","","","","","","",""
"pit-comprehension","3","13904","0.0-2.0-1.0-0.0","battery-v0.2","","""event"",""trial"",""time""
""fullscreenenter"",""1"",""2189""
","
","
","""event"",""trial"",""time""
""fullscreenenter"",""1"",""2189""
","
","","","5452.100000023842","[""shark""]","0","10","3241","1206","","","","","","","","","","","",""
"pit-instructions","4","17019","0.0-2.0-1.0-1.0","battery-v0.2","","""event"",""trial"",""time""
""fullscreenenter"",""1"",""2189""
","
","
","""event"",""trial"",""time""
""fullscreenenter"",""1"",""2189""
","
","","[{""page_index"":0,""viewing_time"":3075.399999976158}]","3076.2000000476837","","","","","","","","","","","","","","","","",""
"pit-comprehension","5","21749","0.0-2.0-2.0-0.0","battery-v0.2","","""event"",""trial"",""time""
""fullscreenenter"",""1"",""2189""
","
","
","""event"",""trial"",""time""
""fullscreenenter"",""1"",""2189""
","
","","","4718.899999976158","[""tiger""]","0","10","3241","1206","","","","","","","","","","","",""
"pit-instructions","6","24538","0.0-2.0-2.0-1.0","battery-v0.2","","""event"",""trial"",""time""
""fullscreenenter"",""1"",""2189""
","
","
","""event"",""trial"",""time""
""fullscreenenter"",""1"",""2189""
","
","","[{""page_index"":0,""viewing_time"":2780.399999976158}]","2780.899999976158","","","","","","","","","","","","","","","","",""
"pit-instructions","7","143502","0.0-2.0-3.0","battery-v0.2","","""event"",""trial"",""time""
""fullscreenenter"",""1"",""2189""
","
","
","""event"",""trial"",""time""
""fullscreenenter"",""1"",""2189""
","
","","[{""page_index"":0,""viewing_time"":8687.200000047684},{""page_index"":1,""viewing_time"":16984.799999952316},{""page_index"":2,""viewing_time"":7524.5},{""page_index"":3,""viewing_time"":5188.899999976158},{""page_index"":4,""viewing_time"":6579.300000071526},{""page_index"":5,""viewing_time"":5340.399999976158},{""page_index"":6,""viewing_time"":6922},{""page_index"":7,""viewing_time"":8048.200000047684},{""page_index"":8,""viewing_time"":7472.099999904633},{""page_index"":9,""viewing_time"":10604.800000071526},{""page_index"":10,""viewing_time"":10172.5},{""page_index"":11,""viewing_time"":13162.799999952316},{""page_index"":12,""viewing_time"":7964.800000071526},{""page_index"":13,""viewing_time"":4302.599999904633}]","118955.70000004768","","","","","","","","","","","","","","","","",""
"pit-trial","8","146492","0.0-2.0-4.0-0.0","battery-v0.2","","""event"",""trial"",""time""
""fullscreenenter"",""1"",""2189""
","
","
","""event"",""trial"",""time""
""fullscreenenter"",""1"",""2189""
","
","","","133","","","10","3241","1206","&#9784;","elianto","#FFFFF080"," "," ","1","&#10004","[983.7999999523163]","1","0","0",""
"pit-trial","9","150187","0.0-2.0-4.1-0.1","battery-v0.2","","""event"",""trial"",""time""
""fullscreenenter"",""1"",""2189""
","
","
","""event"",""trial"",""time""
""fullscreenenter"",""1"",""2189""
","
","","","836","","","10","3241","1206","&#9784;","elianto","#FFFFF080"," "," ","1","&#10004","[1686.5]","1","0","0",""
"pit-trial","10","154033","0.0-2.0-4.2-0.2","battery-v0.2","","""event"",""trial"",""time""
""fullscreenenter"",""1"",""2189""
","
","
","""event"",""trial"",""time""
""fullscreenenter"",""1"",""2189""
","
","","","982.8000000715256","","","10","3241","1206","&#9784;","elianto","#FFFFF080"," "," ","1","&#10004","[1833.1000000238419]","1","0","0",""
"pit-trial","11","157773","0.0-2.0-4.3-0.3","battery-v0.2","","""event"",""trial"",""time""
""fullscreenenter"",""1"",""2189""
","
","
","""event"",""trial"",""time""
""fullscreenenter"",""1"",""2189""
","
","","","876.1000000238419","","","10","3241","1206","&#9784;","elianto","#FFFFF080"," "," ","1","&#10004","[65.20000004768372,1726.2000000476837]","2","0","0",""
"pit-trial","12","161492","0.0-2.0-4.4-0.4","battery-v0.2","","""event"",""trial"",""time""
""fullscreenenter"",""1"",""2189""
","
","
","""event"",""trial"",""time""
""fullscreenenter"",""1"",""2189""
","
","","","857.7999999523163","","","10","3241","1206","&#9784;","elianto","#FFFFF080"," "," ","1","&#10004","[1713.3000000715256]","1","0","0",""
"pit-instructions","13","184312","0.0-2.0-5.0","battery-v0.2","","""event"",""trial"",""time""
""fullscreenenter"",""1"",""2189""
","
","
","""event"",""trial"",""time""
""fullscreenenter"",""1"",""2189""
","
","","[{""page_index"":0,""viewing_time"":4897.899999976158},{""page_index"":1,""viewing_time"":6398.399999976158},{""page_index"":2,""viewing_time"":5449.399999976158},{""page_index"":3,""viewing_time"":6067.899999976158}]","22814.5","","","","","","","","","","","","","","","","",""
"pit-trial","14","189182","0.0-2.0-6.0-0.0","battery-v0.2","","""event"",""trial"",""time""
""fullscreenenter"",""1"",""2189""
","
","
","""event"",""trial"",""time""
""fullscreenenter"",""1"",""2189""
","
","","","-1","","","10","3241","1206","&#9854;","elianto","#FFFFF080","-1","-1","1","&#10004","[]","0","0","1",""
"pit-trial","15","194050","0.0-2.0-6.1-0.1","battery-v0.2","","""event"",""trial"",""time""
""fullscreenenter"",""1"",""2189""
","
","
","""event"",""trial"",""time""
""fullscreenenter"",""1"",""2189""
","
","","","-1","","","10","3241","1206","&#9854;","elianto","#FFFFF080","-1","-1","1","&#10004","[]","0","0","1",""
"pit-trial","16","198923","0.0-2.0-6.2-0.2","battery-v0.2","","""event"",""trial"",""time""
""fullscreenenter"",""1"",""2189""
","
","
","""event"",""trial"",""time""
""fullscreenenter"",""1"",""2189""
","
","","","-1","","","10","3241","1206","&#9854;","elianto","#FFFFF080","-1","-1","1","&#10004","[]","0","0","1",""
"pit-trial","17","203790","0.0-2.0-6.3-0.3","battery-v0.2","","""event"",""trial"",""time""
""fullscreenenter"",""1"",""2189""
","
","
","""event"",""trial"",""time""
""fullscreenenter"",""1"",""2189""
","
","","","-1","","","10","3241","1206","&#9854;","elianto","#FFFFF080","-1","-1","1","&#10004","[]","0","0","1",""
"pit-trial","18","208652","0.0-2.0-6.4-0.4","battery-v0.2","","""event"",""trial"",""time""
""fullscreenenter"",""1"",""2189""
","
","
","""event"",""trial"",""time""
""fullscreenenter"",""1"",""2189""
","
","","","-1","","","10","3241","1206","&#9854;","elianto","#FFFFF080","-1","-1","1","&#10004","[]","0","0","1",""
"pit-instructions","19","324700","0.0-2.0-7.0","battery-v0.2","","""event"",""trial"",""time""
""fullscreenenter"",""1"",""2189""
","
","
","""event"",""trial"",""time""
""fullscreenenter"",""1"",""2189""
","
","","[{""page_index"":0,""viewing_time"":5669},{""page_index"":1,""viewing_time"":8326.199999928474},{""page_index"":2,""viewing_time"":7297.700000047684},{""page_index"":3,""viewing_time"":6840.200000047684},{""page_index"":4,""viewing_time"":5983.099999904633},{""page_index"":5,""viewing_time"":5628},{""page_index"":6,""viewing_time"":4221.600000023842},{""page_index"":7,""viewing_time"":7298.399999976158},{""page_index"":8,""viewing_time"":6620.300000071526},{""page_index"":9,""viewing_time"":5390},{""page_index"":10,""viewing_time"":6630.5},{""page_index"":11,""viewing_time"":4320.100000023842},{""page_index"":12,""viewing_time"":6415.699999928474},{""page_index"":13,""viewing_time"":7811.399999976158},{""page_index"":14,""viewing_time"":7252.400000095367},{""page_index"":15,""viewing_time"":6525.399999976158},{""page_index"":16,""viewing_time"":6643.799999952316},{""page_index"":17,""viewing_time"":7169.300000071526}]","116043.79999995232","","","","","","","","","","","","","","","","",""
"pit-trial","20","328309","0.0-2.0-8.0-0.0","battery-v0.2","","""event"",""trial"",""time""
""fullscreenenter"",""1"",""2189""
","
","
","""event"",""trial"",""time""
""fullscreenenter"",""1"",""2189""
","
","","","749.6000000238419","","","10","3241","1206","&#9776;","elianto","#3366ff99"," "," ","1","+10","[1605]","1","0","1",""
"pit-trial","21","331668","0.0-2.0-8.0-1.0","battery-v0.2","","""event"",""trial"",""time""
""fullscreenenter"",""1"",""2189""
","
","
","""event"",""trial"",""time""
""fullscreenenter"",""1"",""2189""
","
","","","502.10000002384186","","","10","3241","1206","&#9776;","elianto","#3366ff99"," "," ","1","+10","[1352.5]","1","0","1",""
"pit-trial","22","335008","0.0-2.0-8.0-2.0","battery-v0.2","","""event"",""trial"",""time""
""fullscreenenter"",""1"",""2189""
","
","
","""event"",""trial"",""time""
""fullscreenenter"",""1"",""2189""
","
","","","475.60000002384186","","","10","3241","1206","&#9776;","elianto","#3366ff99"," "," ","1","+10","[1329.8999999761581,3291.399999976158]","2","0","1",""
"pit-trial","23","338537","0.0-2.0-8.0-3.0","battery-v0.2","","""event"",""trial"",""time""
""fullscreenenter"",""1"",""2189""
","
","
","""event"",""trial"",""time""
""fullscreenenter"",""1"",""2189""
","
","","","670.1000000238419","","","10","3241","1206","&#9776;","elianto","#3366ff99"," "," ","1","0","[1524]","1","0","1",""
"pit-trial","24","342213","0.0-2.0-8.0-4.0","battery-v0.2","","""event"",""trial"",""time""
""fullscreenenter"",""1"",""2189""
","
","
","""event"",""trial"",""time""
""fullscreenenter"",""1"",""2189""
","
","","","813.4000000953674","","","10","3241","1206","&#9776;","elianto","#3366ff99"," "," ","1","+10","[1667.2000000476837]","1","0","1",""
"call-function","25","342215","0.0-2.0-9.0","battery-v0.2","","""event"",""trial"",""time""
""fullscreenenter"",""1"",""2189""
","
","
","""event"",""trial"",""time""
""fullscreenenter"",""1"",""2189""
","
","","","","","","","","","","","","","","","","","","","",""
"pit-instructions","26","378880","0.0-2.0-10.0","battery-v0.2","","""event"",""trial"",""time""
""fullscreenenter"",""1"",""2189""
","
","
","""event"",""trial"",""time""
""fullscreenenter"",""1"",""2189""
","
","","[{""page_index"":0,""viewing_time"":5994.100000023842},{""page_index"":1,""viewing_time"":6049.699999928474},{""page_index"":2,""viewing_time"":9069.5},{""page_index"":3,""viewing_time"":8330.899999976158},{""page_index"":4,""viewing_time"":7216.100000023842}]","36660.799999952316","","","","","","","","","","","","","","","","",""
"pit-trial","27","383394","0.0-2.0-11.0-0.0","battery-v0.2","","""event"",""trial"",""time""
""fullscreenenter"",""1"",""2189""
","
","
","""event"",""trial"",""time""
""fullscreenenter"",""1"",""2189""
","
","","","1645.2000000476837","","","10","3241","1206","&#9761;","elianto","#3366ff99","-1"," ","0","0","[2497.5]","1","0","2",""
"pit-trial","28","387180","0.0-2.0-11.0-1.0","battery-v0.2","","""event"",""trial"",""time""
""fullscreenenter"",""1"",""2189""
","
","
","""event"",""trial"",""time""
""fullscreenenter"",""1"",""2189""
","
","","","923.7000000476837","","","10","3241","1206","&#9761;","elianto","#3366ff99","-1"," ","0","0","[1778.1000000238419]","1","0","2",""
"pit-trial","29","390403","0.0-2.0-11.0-2.0","battery-v0.2","","""event"",""trial"",""time""
""fullscreenenter"",""1"",""2189""
","
","
","""event"",""trial"",""time""
""fullscreenenter"",""1"",""2189""
","
","","","357.6999999284744","","","10","3241","1206","&#9761;","elianto","#3366ff99","-1"," ","0","0","[1208.1999999284744,3074.0999999046326]","2","0","2",""
"pit-trial","30","393939","0.0-2.0-11.0-3.0","battery-v0.2","","""event"",""trial"",""time""
""fullscreenenter"",""1"",""2189""
","
","
","""event"",""trial"",""time""
""fullscreenenter"",""1"",""2189""
","
","","","672.3999999761581","","","10","3241","1206","&#9761;","elianto","#3366ff99","-1"," ","0","+10","[1525.1999999284744]","1","0","2",""
"pit-trial","31","397340","0.0-2.0-11.0-4.0","battery-v0.2","","""event"",""trial"",""time""
""fullscreenenter"",""1"",""2189""
","
","
","""event"",""trial"",""time""
""fullscreenenter"",""1"",""2189""
","
","","","536.1999999284744","","","10","3241","1206","&#9761;","elianto","#3366ff99","-1"," ","0","0","[1387.7999999523163]","1","0","2",""
"pit-trial","32","400342","0.0-2.0-11.1-0.1","battery-v0.2","","""event"",""trial"",""time""
""fullscreenenter"",""1"",""2189""
","
","
","""event"",""trial"",""time""
""fullscreenenter"",""1"",""2189""
","
","","","145.5","","","10","3241","1206","&#9761;","elianto","#3366ff99","-1"," ","0","0","[733,994.8999999761581,1577.1999999284744]","3","0","2",""
"pit-trial","33","403222","0.0-2.0-11.1-1.1","battery-v0.2","","""event"",""trial"",""time""
""fullscreenenter"",""1"",""2189""
","
","
","""event"",""trial"",""time""
""fullscreenenter"",""1"",""2189""
","
","","","14.100000023841858","","","10","3241","1206","&#9761;","elianto","#3366ff99","-1"," ","0","0","[864.3000000715256]","1","0","2",""
"pit-trial","34","407278","0.0-2.0-11.1-2.1","battery-v0.2","","""event"",""trial"",""time""
""fullscreenenter"",""1"",""2189""
","
","
","""event"",""trial"",""time""
""fullscreenenter"",""1"",""2189""
","
","","","1191.5","","","10","3241","1206","&#9761;","elianto","#3366ff99","-1"," ","0","0","[800.8000000715256,2043.8000000715256]","2","0","2",""
"pit-trial","35","410545","0.0-2.0-11.1-3.1","battery-v0.2","","""event"",""trial"",""time""
""fullscreenenter"",""1"",""2189""
","
","
","""event"",""trial"",""time""
""fullscreenenter"",""1"",""2189""
","
","","","410","","","10","3241","1206","&#9761;","elianto","#3366ff99","-1"," ","0","+10","[1262.7000000476837]","1","0","2",""
"pit-trial","36","413987","0.0-2.0-11.1-4.1","battery-v0.2","","""event"",""trial"",""time""
""fullscreenenter"",""1"",""2189""
","
","
","""event"",""trial"",""time""
""fullscreenenter"",""1"",""2189""
","
","","","582.2000000476837","","","10","3241","1206","&#9761;","elianto","#3366ff99","-1"," ","0","0","[1436.8000000715256]","1","0","2",""
"pit-trial","37","417241","0.0-2.0-11.2-0.2","battery-v0.2","","""event"",""trial"",""time""
""fullscreenenter"",""1"",""2189""
","
","
","""event"",""trial"",""time""
""fullscreenenter"",""1"",""2189""
","
","","","394.60000002384186","","","10","3241","1206","&#9761;","elianto","#3366ff99","-1"," ","0","0","[1249.8999999761581]","1","0","2",""
"pit-trial","38","420272","0.0-2.0-11.2-1.2","battery-v0.2","","""event"",""trial"",""time""
""fullscreenenter"",""1"",""2189""
","
","
","""event"",""trial"",""time""
""fullscreenenter"",""1"",""2189""
","
","","","168.10000002384186","","","10","3241","1206","&#9761;","elianto","#3366ff99","-1"," ","0","0","[1020.2000000476837]","1","0","2",""
"pit-trial","39","424149","0.0-2.0-11.2-2.2","battery-v0.2","","""event"",""trial"",""time""
""fullscreenenter"",""1"",""2189""
","
","
","""event"",""trial"",""time""
""fullscreenenter"",""1"",""2189""
","
","","","1010.7000000476837","","","10","3241","1206","&#9761;","elianto","#3366ff99","-1"," ","0","0","[815.2000000476837,1866.6000000238419]","2","0","2",""
"pit-trial","40","427113","0.0-2.0-11.2-3.2","battery-v0.2","","""event"",""trial"",""time""
""fullscreenenter"",""1"",""2189""
","
","
","""event"",""trial"",""time""
""fullscreenenter"",""1"",""2189""
","
","","","110.10000002384186","","","10","3241","1206","&#9761;","elianto","#3366ff99","-1"," ","0","+10","[961.3000000715256]","1","0","2",""
"pit-trial","41","430160","0.0-2.0-11.2-4.2","battery-v0.2","","""event"",""trial"",""time""
""fullscreenenter"",""1"",""2189""
","
","
","""event"",""trial"",""time""
""fullscreenenter"",""1"",""2189""
","
","","","180.69999992847443","","","10","3241","1206","&#9761;","elianto","#3366ff99","-1"," ","0","0","[1044.1000000238419]","1","0","2",""
"pit-trial","42","433283","0.0-2.0-11.3-0.3","battery-v0.2","","""event"",""trial"",""time""
""fullscreenenter"",""1"",""2189""
","
","
","""event"",""trial"",""time""
""fullscreenenter"",""1"",""2189""
","
","","","266.5","","","10","3241","1206","&#9761;","elianto","#3366ff99","-1"," ","0","0","[1119.5999999046326]","1","0","2",""
"pit-trial","43","436744","0.0-2.0-11.3-1.3","battery-v0.2","","""event"",""trial"",""time""
""fullscreenenter"",""1"",""2189""
","
","
","""event"",""trial"",""time""
""fullscreenenter"",""1"",""2189""
","
","","","603.7000000476837","","","10","3241","1206","&#9761;","elianto","#3366ff99","-1"," ","0","0","[1457.3999999761581]","1","0","2",""
"pit-trial","44","440004","0.0-2.0-11.3-2.3","battery-v0.2","","""event"",""trial"",""time""
""fullscreenenter"",""1"",""2189""
","
","
","""event"",""trial"",""time""
""fullscreenenter"",""1"",""2189""
","
","","","402.2999999523163","","","10","3241","1206","&#9761;","elianto","#3366ff99","-1"," ","0","0","[1253]","1","0","2",""
"pit-trial","45","443816","0.0-2.0-11.3-3.3","battery-v0.2","","""event"",""trial"",""time""
""fullscreenenter"",""1"",""2189""
","
","
","""event"",""trial"",""time""
""fullscreenenter"",""1"",""2189""
","
","","","951.2999999523163","","","10","3241","1206","&#9761;","elianto","#3366ff99","-1"," ","0","+10","[1802.0999999046326]","1","0","2",""
"pit-trial","46","447284","0.0-2.0-11.3-4.3","battery-v0.2","","""event"",""trial"",""time""
""fullscreenenter"",""1"",""2189""
","
","
","""event"",""trial"",""time""
""fullscreenenter"",""1"",""2189""
","
","","","609.3000000715256","","","10","3241","1206","&#9761;","elianto","#3366ff99","-1"," ","0","0","[1459.7000000476837]","1","0","2",""
"pit-trial","47","450579","0.0-2.0-11.4-0.4","battery-v0.2","","""event"",""trial"",""time""
""fullscreenenter"",""1"",""2189""
","
","
","""event"",""trial"",""time""
""fullscreenenter"",""1"",""2189""
","
","","","435.6999999284744","","","10","3241","1206","&#9761;","elianto","#3366ff99","-1"," ","0","0","[1289.8000000715256]","1","0","2",""
"pit-trial","48","455443","0.0-2.0-11.4-1.4","battery-v0.2","","""event"",""trial"",""time""
""fullscreenenter"",""1"",""2189""
","
","
","""event"",""trial"",""time""
""fullscreenenter"",""1"",""2189""
","
","","","-1","","","10","3241","1206","&#9761;","elianto","#3366ff99","-1","-1","1","+10","[]","0","0","2",""
"pit-trial","49","459383","0.0-2.0-11.4-2.4","battery-v0.2","","""event"",""trial"",""time""
""fullscreenenter"",""1"",""2189""
","
","
","""event"",""trial"",""time""
""fullscreenenter"",""1"",""2189""
","
","","","1082.8999999761581","","","10","3241","1206","&#9761;","elianto","#3366ff99","-1"," ","0","0","[278.89999997615814,1933.1999999284744]","2","0","2",""
"pit-trial","50","462777","0.0-2.0-11.4-3.4","battery-v0.2","","""event"",""trial"",""time""
""fullscreenenter"",""1"",""2189""
","
","
","""event"",""trial"",""time""
""fullscreenenter"",""1"",""2189""
","
","","","526.5","","","10","3241","1206","&#9761;","elianto","#3366ff99","-1"," ","0","+10","[1383.7999999523163]","1","0","2",""
"pit-trial","51","466128","0.0-2.0-11.4-4.4","battery-v0.2","","""event"",""trial"",""time""
""fullscreenenter"",""1"",""2189""
","
","
","""event"",""trial"",""time""
""fullscreenenter"",""1"",""2189""
","
","","","478.90000009536743","","","10","3241","1206","&#9761;","elianto","#3366ff99","-1"," ","0","0","[1337.1000000238419]","1","0","2",""
"pit-instructions","52","483855","0.0-2.0-11.4-5.4-0.4","battery-v0.2","","""event"",""trial"",""time""
""fullscreenenter"",""1"",""2189""
","
","
","""event"",""trial"",""time""
""fullscreenenter"",""1"",""2189""
","
","","[{""page_index"":0,""viewing_time"":5739.699999928474},{""page_index"":1,""viewing_time"":6692.800000071526},{""page_index"":2,""viewing_time"":5290.699999928474}]","17723.699999928474","","","","","","","","","","","","","","","","",""
"pit-trial","53","488728","0.0-2.0-11.5-0.5","battery-v0.2","","""event"",""trial"",""time""
""fullscreenenter"",""1"",""2189""
","
","
","""event"",""trial"",""time""
""fullscreenenter"",""1"",""2189""
","
","","","-1","","","10","3241","1206","&#9761;","elianto","#3366ff99","-1","-1","1","+10","[2998.2000000476837]","1","0","2",""
"pit-trial","54","493232","0.0-2.0-11.5-1.5","battery-v0.2","","""event"",""trial"",""time""
""fullscreenenter"",""1"",""2189""
","
","
","""event"",""trial"",""time""
""fullscreenenter"",""1"",""2189""
","
","","","1641.0999999046326","","","10","3241","1206","&#9761;","elianto","#3366ff99","-1"," ","0","0","[193.20000004768372,2492.899999976158]","2","0","2",""
"pit-trial","55","497406","0.0-2.0-11.5-2.5","battery-v0.2","","""event"",""trial"",""time""
""fullscreenenter"",""1"",""2189""
","
","
","""event"",""trial"",""time""
""fullscreenenter"",""1"",""2189""
","
","","","1301.8999999761581","","","10","3241","1206","&#9761;","elianto","#3366ff99","-1"," ","0","0","[2156.3000000715256]","1","0","2",""
"pit-trial","56","500879","0.0-2.0-11.5-3.5","battery-v0.2","","""event"",""trial"",""time""
""fullscreenenter"",""1"",""2189""
","
","
","""event"",""trial"",""time""
""fullscreenenter"",""1"",""2189""
","
","","","608.5","","","10","3241","1206","&#9761;","elianto","#3366ff99","-1"," ","0","+10","[1462,2617.600000023842]","2","0","2",""
"pit-trial","57","505744","0.0-2.0-11.5-4.5","battery-v0.2","","""event"",""trial"",""time""
""fullscreenenter"",""1"",""2189""
","
","
","""event"",""trial"",""time""
""fullscreenenter"",""1"",""2189""
","
","","","-1","","","10","3241","1206","&#9761;","elianto","#3366ff99","-1","-1","1","+10","[3456.7000000476837]","1","0","2",""
"pit-trial","58","510624","0.0-2.0-11.6-0.6","battery-v0.2","","""event"",""trial"",""time""
""fullscreenenter"",""1"",""2189""
","
","
","""event"",""trial"",""time""
""fullscreenenter"",""1"",""2189""
","
","","","-1","","","10","3241","1206","&#9761;","elianto","#3366ff99","-1","-1","1","+10","[3243.2000000476837]","1","0","2",""
"pit-trial","59","515502","0.0-2.0-11.6-1.6","battery-v0.2","","""event"",""trial"",""time""
""fullscreenenter"",""1"",""2189""
","
","
","""event"",""trial"",""time""
""fullscreenenter"",""1"",""2189""
","
","","","-1","","","10","3241","1206","&#9761;","elianto","#3366ff99","-1","-1","1","+10","[3267.600000023842]","1","0","2",""
"pit-trial","60","520366","0.0-2.0-11.6-2.6","battery-v0.2","","""event"",""trial"",""time""
""fullscreenenter"",""1"",""2189""
","
","
","""event"",""trial"",""time""
""fullscreenenter"",""1"",""2189""
","
","","","-1","","","10","3241","1206","&#9761;","elianto","#3366ff99","-1","-1","1","+10","[3301.1999999284744]","1","0","2",""
"pit-trial","61","525228","0.0-2.0-11.6-3.6","battery-v0.2","","""event"",""trial"",""time""
""fullscreenenter"",""1"",""2189""
","
","
","""event"",""trial"",""time""
""fullscreenenter"",""1"",""2189""
","
","","","-1","","","10","3241","1206","&#9761;","elianto","#3366ff99","-1","-1","1","0","[]","0","0","2",""
"pit-trial","62","530094","0.0-2.0-11.6-4.6","battery-v0.2","","""event"",""trial"",""time""
""fullscreenenter"",""1"",""2189""
","
","
","""event"",""trial"",""time""
""fullscreenenter"",""1"",""2189""
","
","","","-1","","","10","3241","1206","&#9761;","elianto","#3366ff99","-1","-1","1","+10","[3221.600000023842]","1","0","2",""
"call-function","63","530097","0.0-2.0-12.0","battery-v0.2","","""event"",""trial"",""time""
""fullscreenenter"",""1"",""2189""
","
","
","""event"",""trial"",""time""
""fullscreenenter"",""1"",""2189""
","
","","","","","","","","","","","","","","","","","","","",""
"pit-instructions","64","570266","0.0-2.0-13.0","battery-v0.2","","""event"",""trial"",""time""
""fullscreenenter"",""1"",""2189""
","
","
","""event"",""trial"",""time""
""fullscreenenter"",""1"",""2189""
","
","","[{""page_index"":0,""viewing_time"":11895.700000047684},{""page_index"":1,""viewing_time"":7478.799999952316},{""page_index"":2,""viewing_time"":3662.3000000715256},{""page_index"":3,""viewing_time"":10987.399999976158},{""page_index"":4,""viewing_time"":6143.199999928474}]","40168.39999997616","","","","","","","","","","","","","","","","",""
"pit-trial","65","575132","0.0-2.0-14.0-0.0","battery-v0.2","","""event"",""trial"",""time""
""fullscreenenter"",""1"",""2189""
","
","
","""event"",""trial"",""time""
""fullscreenenter"",""1"",""2189""
","
","","","-1","","","10","3241","1206","&#9826;","elianto","#f73b6a7A","-1","-1","1","0","[]","0","0","3",""
"pit-trial","66","580009","0.0-2.0-14.0-1.0","battery-v0.2","","""event"",""trial"",""time""
""fullscreenenter"",""1"",""2189""
","
","
","""event"",""trial"",""time""
""fullscreenenter"",""1"",""2189""
","
","","","-1","","","10","3241","1206","&#9826;","elianto","#f73b6a7A","-1","-1","1","0","[]","0","0","3",""
"pit-trial","67","584893","0.0-2.0-14.0-2.0","battery-v0.2","","""event"",""trial"",""time""
""fullscreenenter"",""1"",""2189""
","
","
","""event"",""trial"",""time""
""fullscreenenter"",""1"",""2189""
","
","","","-1","","","10","3241","1206","&#9826;","elianto","#f73b6a7A","-1","-1","1","0","[]","0","0","3",""
"pit-trial","68","589751","0.0-2.0-14.0-3.0","battery-v0.2","","""event"",""trial"",""time""
""fullscreenenter"",""1"",""2189""
","
","
","""event"",""trial"",""time""
""fullscreenenter"",""1"",""2189""
","
","","","-1","","","10","3241","1206","&#9826;","elianto","#f73b6a7A","-1","-1","1","-10","[]","0","0","3",""
"pit-trial","69","594623","0.0-2.0-14.0-4.0","battery-v0.2","","""event"",""trial"",""time""
""fullscreenenter"",""1"",""2189""
","
","
","""event"",""trial"",""time""
""fullscreenenter"",""1"",""2189""
","
","","","-1","","","10","3241","1206","&#9826;","elianto","#f73b6a7A","-1","-1","1","0","[3211.100000023842]","1","0","3",""
"call-function","70","594627","0.0-2.0-15.0","battery-v0.2","","""event"",""trial"",""time""
""fullscreenenter"",""1"",""2189""
","
","
","""event"",""trial"",""time""
""fullscreenenter"",""1"",""2189""
","
","","","","","","","","","","","","","","","","","","","",""
"pit-instructions","71","618768","0.0-2.0-16.0","battery-v0.2","","""event"",""trial"",""time""
""fullscreenenter"",""1"",""2189""
","
","
","""event"",""trial"",""time""
""fullscreenenter"",""1"",""2189""
","
","","[{""page_index"":0,""viewing_time"":6821.200000047684},{""page_index"":1,""viewing_time"":8394.399999976158},{""page_index"":2,""viewing_time"":4177.600000023842},{""page_index"":3,""viewing_time"":4740.199999928474}]","24134","","","","","","","","","","","","","","","","",""
"pit-trial","72","623639","0.0-2.0-17.0-0.0","battery-v0.2","","""event"",""trial"",""time""
""fullscreenenter"",""1"",""2189""
","
","
","""event"",""trial"",""time""
""fullscreenenter"",""1"",""2189""
","
","","","-1","","","10","3241","1206","&#9789;","elianto","#f73b6a7A"," ","-1","0","-10","[]","0","0","4",""
"pit-trial","73","628520","0.0-2.0-17.0-1.0","battery-v0.2","","""event"",""trial"",""time""
""fullscreenenter"",""1"",""2189""
","
","
","""event"",""trial"",""time""
""fullscreenenter"",""1"",""2189""
","
","","","-1","","","10","3241","1206","&#9789;","elianto","#f73b6a7A"," ","-1","0","-10","[]","0","0","4",""
"pit-trial","74","633381","0.0-2.0-17.0-2.0","battery-v0.2","","""event"",""trial"",""time""
""fullscreenenter"",""1"",""2189""
","
","
","""event"",""trial"",""time""
""fullscreenenter"",""1"",""2189""
","
","","","-1","","","10","3241","1206","&#9789;","elianto","#f73b6a7A"," ","-1","0","-10","[]","0","0","4",""
"pit-trial","75","638268","0.0-2.0-17.0-3.0","battery-v0.2","","""event"",""trial"",""time""
""fullscreenenter"",""1"",""2189""
","
","
","""event"",""trial"",""time""
""fullscreenenter"",""1"",""2189""
","
","","","-1","","","10","3241","1206","&#9789;","elianto","#f73b6a7A"," ","-1","0","0","[3389.2999999523163]","1","0","4",""
"pit-trial","76","643061","0.0-2.0-17.0-4.0","battery-v0.2","","""event"",""trial"",""time""
""fullscreenenter"",""1"",""2189""
","
","
","""event"",""trial"",""time""
""fullscreenenter"",""1"",""2189""
","
","","","1924.5","","","10","3241","1206","&#9789;","elianto","#f73b6a7A"," "," ","1","0","[2778.1999999284744]","1","0","4",""
"pit-trial","77","646198","0.0-2.0-17.1-0.1","battery-v0.2","","""event"",""trial"",""time""
""fullscreenenter"",""1"",""2189""
","
","
","""event"",""trial"",""time""
""fullscreenenter"",""1"",""2189""
","
","","","273.2999999523163","","","10","3241","1206","&#9789;","elianto","#f73b6a7A"," "," ","1","0","[1124.1000000238419]","1","0","4",""
"pit-trial","78","651073","0.0-2.0-17.1-1.1","battery-v0.2","","""event"",""trial"",""time""
""fullscreenenter"",""1"",""2189""
","
","
","""event"",""trial"",""time""
""fullscreenenter"",""1"",""2189""
","
","","","-1","","","10","3241","1206","&#9789;","elianto","#f73b6a7A"," ","-1","0","-10","[]","0","0","4",""
"pit-trial","79","655938","0.0-2.0-17.1-2.1","battery-v0.2","","""event"",""trial"",""time""
""fullscreenenter"",""1"",""2189""
","
","
","""event"",""trial"",""time""
""fullscreenenter"",""1"",""2189""
","
","","","-1","","","10","3241","1206","&#9789;","elianto","#f73b6a7A"," ","-1","0","-10","[]","0","0","4",""
"pit-trial","80","660802","0.0-2.0-17.1-3.1","battery-v0.2","","""event"",""trial"",""time""
""fullscreenenter"",""1"",""2189""
","
","
","""event"",""trial"",""time""
""fullscreenenter"",""1"",""2189""
","
","","","-1","","","10","3241","1206","&#9789;","elianto","#f73b6a7A"," ","-1","0","0","[4300.900000095367]","1","0","4",""
"pit-trial","81","665663","0.0-2.0-17.1-4.1","battery-v0.2","","""event"",""trial"",""time""
""fullscreenenter"",""1"",""2189""
","
","
","""event"",""trial"",""time""
""fullscreenenter"",""1"",""2189""
","
","","","-1","","","10","3241","1206","&#9789;","elianto","#f73b6a7A"," ","-1","0","-10","[]","0","0","4",""
"pit-trial","82","670537","0.0-2.0-17.2-0.2","battery-v0.2","","""event"",""trial"",""time""
""fullscreenenter"",""1"",""2189""
","
","
","""event"",""trial"",""time""
""fullscreenenter"",""1"",""2189""
","
","","","-1","","","10","3241","1206","&#9789;","elianto","#f73b6a7A"," ","-1","0","-10","[]","0","0","4",""
"pit-trial","83","675397","0.0-2.0-17.2-1.2","battery-v0.2","","""event"",""trial"",""time""
""fullscreenenter"",""1"",""2189""
","
","
","""event"",""trial"",""time""
""fullscreenenter"",""1"",""2189""
","
","","","-1","","","10","3241","1206","&#9789;","elianto","#f73b6a7A"," ","-1","0","-10","[657]","1","0","4",""
"pit-trial","84","680255","0.0-2.0-17.2-2.2","battery-v0.2","","""event"",""trial"",""time""
""fullscreenenter"",""1"",""2189""
","
","
","""event"",""trial"",""time""
""fullscreenenter"",""1"",""2189""
","
","","","-1","","","10","3241","1206","&#9789;","elianto","#f73b6a7A"," ","-1","0","-10","[]","0","0","4",""
"pit-trial","85","685119","0.0-2.0-17.2-3.2","battery-v0.2","","""event"",""trial"",""time""
""fullscreenenter"",""1"",""2189""
","
","
","""event"",""trial"",""time""
""fullscreenenter"",""1"",""2189""
","
","","","-1","","","10","3241","1206","&#9789;","elianto","#f73b6a7A"," ","-1","0","0","[3287.6999999284744]","1","0","4",""
"pit-trial","86","689993","0.0-2.0-17.2-4.2","battery-v0.2","","""event"",""trial"",""time""
""fullscreenenter"",""1"",""2189""
","
","
","""event"",""trial"",""time""
""fullscreenenter"",""1"",""2189""
","
","","","-1","","","10","3241","1206","&#9789;","elianto","#f73b6a7A"," ","-1","0","-10","[]","0","0","4",""
"pit-trial","87","693211","0.0-2.0-17.3-0.3","battery-v0.2","","""event"",""trial"",""time""
""fullscreenenter"",""1"",""2189""
","
","
","""event"",""trial"",""time""
""fullscreenenter"",""1"",""2189""
","
","","","355.7999999523163","","","10","3241","1206","&#9789;","elianto","#f73b6a7A"," "," ","1","0","[1208]","1","0","4",""
"pit-trial","88","698093","0.0-2.0-17.3-1.3","battery-v0.2","","""event"",""trial"",""time""
""fullscreenenter"",""1"",""2189""
","
","
","""event"",""trial"",""time""
""fullscreenenter"",""1"",""2189""
","
","","","-1","","","10","3241","1206","&#9789;","elianto","#f73b6a7A"," ","-1","0","-10","[]","0","0","4",""
"pit-trial","89","702955","0.0-2.0-17.3-2.3","battery-v0.2","","""event"",""trial"",""time""
""fullscreenenter"",""1"",""2189""
","
","
","""event"",""trial"",""time""
""fullscreenenter"",""1"",""2189""
","
","","","-1","","","10","3241","1206","&#9789;","elianto","#f73b6a7A"," ","-1","0","-10","[]","0","0","4",""
"pit-trial","90","707817","0.0-2.0-17.3-3.3","battery-v0.2","","""event"",""trial"",""time""
""fullscreenenter"",""1"",""2189""
","
","
","""event"",""trial"",""time""
""fullscreenenter"",""1"",""2189""
","
","","","-1","","","10","3241","1206","&#9789;","elianto","#f73b6a7A"," ","-1","0","0","[3446.8000000715256]","1","0","4",""
"pit-trial","91","712680","0.0-2.0-17.3-4.3","battery-v0.2","","""event"",""trial"",""time""
""fullscreenenter"",""1"",""2189""
","
","
","""event"",""trial"",""time""
""fullscreenenter"",""1"",""2189""
","
","","","-1","","","10","3241","1206","&#9789;","elianto","#f73b6a7A"," ","-1","0","-10","[]","0","0","4",""
"pit-trial","92","717544","0.0-2.0-17.4-0.4","battery-v0.2","","""event"",""trial"",""time""
""fullscreenenter"",""1"",""2189""
","
","
","""event"",""trial"",""time""
""fullscreenenter"",""1"",""2189""
","
","","","-1","","","10","3241","1206","&#9789;","elianto","#f73b6a7A"," ","-1","0","-10","[]","0","0","4",""
"pit-trial","93","722404","0.0-2.0-17.4-1.4","battery-v0.2","","""event"",""trial"",""time""
""fullscreenenter"",""1"",""2189""
","
","
","""event"",""trial"",""time""
""fullscreenenter"",""1"",""2189""
","
","","","-1","","","10","3241","1206","&#9789;","elianto","#f73b6a7A"," ","-1","0","-10","[]","0","0","4",""
"pit-trial","94","727264","0.0-2.0-17.4-2.4","battery-v0.2","","""event"",""trial"",""time""
""fullscreenenter"",""1"",""2189""
","
","
","""event"",""trial"",""time""
""fullscreenenter"",""1"",""2189""
","
","","","-1","","","10","3241","1206","&#9789;","elianto","#f73b6a7A"," ","-1","0","-10","[]","0","0","4",""
"pit-trial","95","732141","0.0-2.0-17.4-3.4","battery-v0.2","","""event"",""trial"",""time""
""fullscreenenter"",""1"",""2189""
","
","
","""event"",""trial"",""time""
""fullscreenenter"",""1"",""2189""
","
","","","-1","","","10","3241","1206","&#9789;","elianto","#f73b6a7A"," ","-1","0","0","[]","0","0","4",""
"pit-trial","96","737006","0.0-2.0-17.4-4.4","battery-v0.2","","""event"",""trial"",""time""
""fullscreenenter"",""1"",""2189""
","
","
","""event"",""trial"",""time""
""fullscreenenter"",""1"",""2189""
","
","","","-1","","","10","3241","1206","&#9789;","elianto","#f73b6a7A"," ","-1","0","-10","[]","0","0","4",""
"pit-instructions","97","759116","0.0-2.0-17.4-5.4-0.4","battery-v0.2","","""event"",""trial"",""time""
""fullscreenenter"",""1"",""2189""
","
","
","""event"",""trial"",""time""
""fullscreenenter"",""1"",""2189""
","
","","[{""page_index"":0,""viewing_time"":6660.399999976158},{""page_index"":1,""viewing_time"":6447.600000023842},{""page_index"":2,""viewing_time"":8998.5}]","22107","","","","","","","","","","","","","","","","",""
"pit-trial","98","763988","0.0-2.0-17.5-0.5","battery-v0.2","","""event"",""trial"",""time""
""fullscreenenter"",""1"",""2189""
","
","
","""event"",""trial"",""time""
""fullscreenenter"",""1"",""2189""
","
","","","-1","","","10","3241","1206","&#9789;","elianto","#f73b6a7A"," ","-1","0","-10","[]","0","0","4",""
"pit-trial","99","768855","0.0-2.0-17.5-1.5","battery-v0.2","","""event"",""trial"",""time""
""fullscreenenter"",""1"",""2189""
","
","
","""event"",""trial"",""time""
""fullscreenenter"",""1"",""2189""
","
","","","-1","","","10","3241","1206","&#9789;","elianto","#f73b6a7A"," ","-1","0","-10","[]","0","0","4",""
"pit-trial","100","773730","0.0-2.0-17.5-2.5","battery-v0.2","","""event"",""trial"",""time""
""fullscreenenter"",""1"",""2189""
","
","
","""event"",""trial"",""time""
""fullscreenenter"",""1"",""2189""
","
","","","-1","","","10","3241","1206","&#9789;","elianto","#f73b6a7A"," ","-1","0","-10","[]","0","0","4",""
"pit-trial","101","778597","0.0-2.0-17.5-3.5","battery-v0.2","","""event"",""trial"",""time""
""fullscreenenter"",""1"",""2189""
","
","
","""event"",""trial"",""time""
""fullscreenenter"",""1"",""2189""
","
","","","-1","","","10","3241","1206","&#9789;","elianto","#f73b6a7A"," ","-1","0","0","[]","0","0","4",""
"pit-trial","102","783467","0.0-2.0-17.5-4.5","battery-v0.2","","""event"",""trial"",""time""
""fullscreenenter"",""1"",""2189""
","
","
","""event"",""trial"",""time""
""fullscreenenter"",""1"",""2189""
","
","","","-1","","","10","3241","1206","&#9789;","elianto","#f73b6a7A"," ","-1","0","-10","[]","0","0","4",""
"pit-trial","103","788335","0.0-2.0-17.6-0.6","battery-v0.2","","""event"",""trial"",""time""
""fullscreenenter"",""1"",""2189""
","
","
","""event"",""trial"",""time""
""fullscreenenter"",""1"",""2189""
","
","","","-1","","","10","3241","1206","&#9789;","elianto","#f73b6a7A"," ","-1","0","-10","[]","0","0","4",""
"pit-trial","104","793207","0.0-2.0-17.6-1.6","battery-v0.2","","""event"",""trial"",""time""
""fullscreenenter"",""1"",""2189""
","
","
","""event"",""trial"",""time""
""fullscreenenter"",""1"",""2189""
","
","","","-1","","","10","3241","1206","&#9789;","elianto","#f73b6a7A"," ","-1","0","-10","[]","0","0","4",""
"pit-trial","105","798073","0.0-2.0-17.6-2.6","battery-v0.2","","""event"",""trial"",""time""
""fullscreenenter"",""1"",""2189""
","
","
","""event"",""trial"",""time""
""fullscreenenter"",""1"",""2189""
","
","","","-1","","","10","3241","1206","&#9789;","elianto","#f73b6a7A"," ","-1","0","-10","[]","0","0","4",""
"pit-trial","106","802947","0.0-2.0-17.6-3.6","battery-v0.2","","""event"",""trial"",""time""
""fullscreenenter"",""1"",""2189""
","
","
","""event"",""trial"",""time""
""fullscreenenter"",""1"",""2189""
","
","","","-1","","","10","3241","1206","&#9789;","elianto","#f73b6a7A"," ","-1","0","0","[]","0","0","4",""
"pit-trial","107","807810","0.0-2.0-17.6-4.6","battery-v0.2","","""event"",""trial"",""time""
""fullscreenenter"",""1"",""2189""
","
","
","""event"",""trial"",""time""
""fullscreenenter"",""1"",""2189""
","
","","","-1","","","10","3241","1206","&#9789;","elianto","#f73b6a7A"," ","-1","0","-10","[]","0","0","4",""
"pit-trial","108","812676","0.0-2.0-17.7-0.7","battery-v0.2","","""event"",""trial"",""time""
""fullscreenenter"",""1"",""2189""
","
","
","""event"",""trial"",""time""
""fullscreenenter"",""1"",""2189""
","
","","","-1","","","10","3241","1206","&#9789;","elianto","#f73b6a7A"," ","-1","0","-10","[]","0","0","4",""
"pit-trial","109","817545","0.0-2.0-17.7-1.7","battery-v0.2","","""event"",""trial"",""time""
""fullscreenenter"",""1"",""2189""
","
","
","""event"",""trial"",""time""
""fullscreenenter"",""1"",""2189""
","
","","","-1","","","10","3241","1206","&#9789;","elianto","#f73b6a7A"," ","-1","0","-10","[]","0","0","4",""
"pit-trial","110","822410","0.0-2.0-17.7-2.7","battery-v0.2","","""event"",""trial"",""time""
""fullscreenenter"",""1"",""2189""
","
","
","""event"",""trial"",""time""
""fullscreenenter"",""1"",""2189""
","
","","","-1","","","10","3241","1206","&#9789;","elianto","#f73b6a7A"," ","-1","0","-10","[]","0","0","4",""
"pit-trial","111","827288","0.0-2.0-17.7-3.7","battery-v0.2","","""event"",""trial"",""time""
""fullscreenenter"",""1"",""2189""
","
","
","""event"",""trial"",""time""
""fullscreenenter"",""1"",""2189""
","
","","","-1","","","10","3241","1206","&#9789;","elianto","#f73b6a7A"," ","-1","0","0","[]","0","0","4",""
"pit-trial","112","832144","0.0-2.0-17.7-4.7","battery-v0.2","","""event"",""trial"",""time""
""fullscreenenter"",""1"",""2189""
","
","
","""event"",""trial"",""time""
""fullscreenenter"",""1"",""2189""
","
","","","-1","","","10","3241","1206","&#9789;","elianto","#f73b6a7A"," ","-1","0","-10","[]","0","0","4",""
"pit-trial","113","837005","0.0-2.0-17.8-0.8","battery-v0.2","","""event"",""trial"",""time""
""fullscreenenter"",""1"",""2189""
","
","
","""event"",""trial"",""time""
""fullscreenenter"",""1"",""2189""
","
","","","-1","","","10","3241","1206","&#9789;","elianto","#f73b6a7A"," ","-1","0","-10","[]","0","0","4",""
"pit-trial","114","841870","0.0-2.0-17.8-1.8","battery-v0.2","","""event"",""trial"",""time""
""fullscreenenter"",""1"",""2189""
","
","
","""event"",""trial"",""time""
""fullscreenenter"",""1"",""2189""
","
","","","-1","","","10","3241","1206","&#9789;","elianto","#f73b6a7A"," ","-1","0","-10","[]","0","0","4",""
"pit-trial","115","846739","0.0-2.0-17.8-2.8","battery-v0.2","","""event"",""trial"",""time""
""fullscreenenter"",""1"",""2189""
","
","
","""event"",""trial"",""time""
""fullscreenenter"",""1"",""2189""
","
","","","-1","","","10","3241","1206","&#9789;","elianto","#f73b6a7A"," ","-1","0","-10","[]","0","0","4",""
"pit-trial","116","851612","0.0-2.0-17.8-3.8","battery-v0.2","","""event"",""trial"",""time""
""fullscreenenter"",""1"",""2189""
","
","
","""event"",""trial"",""time""
""fullscreenenter"",""1"",""2189""
","
","","","-1","","","10","3241","1206","&#9789;","elianto","#f73b6a7A"," ","-1","0","0","[]","0","0","4",""
"pit-trial","117","856473","0.0-2.0-17.8-4.8","battery-v0.2","","""event"",""trial"",""time""
""fullscreenenter"",""1"",""2189""
","
","
","""event"",""trial"",""time""
""fullscreenenter"",""1"",""2189""
","
","","","-1","","","10","3241","1206","&#9789;","elianto","#f73b6a7A"," ","-1","0","-10","[]","0","0","4",""
"pit-trial","118","861335","0.0-2.0-17.9-0.9","battery-v0.2","","""event"",""trial"",""time""
""fullscreenenter"",""1"",""2189""
","
","
","""event"",""trial"",""time""
""fullscreenenter"",""1"",""2189""
","
","","","-1","","","10","3241","1206","&#9789;","elianto","#f73b6a7A"," ","-1","0","-10","[]","0","0","4",""
"pit-trial","119","866194","0.0-2.0-17.9-1.9","battery-v0.2","","""event"",""trial"",""time""
""fullscreenenter"",""1"",""2189""
","
","
","""event"",""trial"",""time""
""fullscreenenter"",""1"",""2189""
","
","","","-1","","","10","3241","1206","&#9789;","elianto","#f73b6a7A"," ","-1","0","-10","[]","0","0","4",""
"pit-trial","120","871052","0.0-2.0-17.9-2.9","battery-v0.2","","""event"",""trial"",""time""
""fullscreenenter"",""1"",""2189""
","
","
","""event"",""trial"",""time""
""fullscreenenter"",""1"",""2189""
","
","","","-1","","","10","3241","1206","&#9789;","elianto","#f73b6a7A"," ","-1","0","-10","[]","0","0","4",""
"pit-trial","121","875918","0.0-2.0-17.9-3.9","battery-v0.2","","""event"",""trial"",""time""
""fullscreenenter"",""1"",""2189""
","
","
","""event"",""trial"",""time""
""fullscreenenter"",""1"",""2189""
","
","","","-1","","","10","3241","1206","&#9789;","elianto","#f73b6a7A"," ","-1","0","0","[]","0","0","4",""
"pit-trial","122","880781","0.0-2.0-17.9-4.9","battery-v0.2","","""event"",""trial"",""time""
""fullscreenenter"",""1"",""2189""
","
","
","""event"",""trial"",""time""
""fullscreenenter"",""1"",""2189""
","
","","","-1","","","10","3241","1206","&#9789;","elianto","#f73b6a7A"," ","-1","0","-10","[]","0","0","4",""
"pit-trial","123","885647","0.0-2.0-17.10-0.10","battery-v0.2","","""event"",""trial"",""time""
""fullscreenenter"",""1"",""2189""
","
","
","""event"",""trial"",""time""
""fullscreenenter"",""1"",""2189""
","
","","","-1","","","10","3241","1206","&#9789;","elianto","#f73b6a7A"," ","-1","0","-10","[]","0","0","4",""
"pit-trial","124","890516","0.0-2.0-17.10-1.10","battery-v0.2","","""event"",""trial"",""time""
""fullscreenenter"",""1"",""2189""
","
","
","""event"",""trial"",""time""
""fullscreenenter"",""1"",""2189""
","
","","","-1","","","10","3241","1206","&#9789;","elianto","#f73b6a7A"," ","-1","0","-10","[]","0","0","4",""
"pit-trial","125","895380","0.0-2.0-17.10-2.10","battery-v0.2","","""event"",""trial"",""time""
""fullscreenenter"",""1"",""2189""
","
","
","""event"",""trial"",""time""
""fullscreenenter"",""1"",""2189""
","
","","","-1","","","10","3241","1206","&#9789;","elianto","#f73b6a7A"," ","-1","0","-10","[]","0","0","4",""
"pit-trial","126","900238","0.0-2.0-17.10-3.10","battery-v0.2","","""event"",""trial"",""time""
""fullscreenenter"",""1"",""2189""
","
","
","""event"",""trial"",""time""
""fullscreenenter"",""1"",""2189""
","
","","","-1","","","10","3241","1206","&#9789;","elianto","#f73b6a7A"," ","-1","0","0","[]","0","0","4",""
"pit-trial","127","905104","0.0-2.0-17.10-4.10","battery-v0.2","","""event"",""trial"",""time""
""fullscreenenter"",""1"",""2189""
","
","
","""event"",""trial"",""time""
""fullscreenenter"",""1"",""2189""
","
","","","-1","","","10","3241","1206","&#9789;","elianto","#f73b6a7A"," ","-1","0","-10","[]","0","0","4",""
"pit-trial","128","909975","0.0-2.0-17.11-0.11","battery-v0.2","","""event"",""trial"",""time""
""fullscreenenter"",""1"",""2189""
","
","
","""event"",""trial"",""time""
""fullscreenenter"",""1"",""2189""
","
","","","-1","","","10","3241","1206","&#9789;","elianto","#f73b6a7A"," ","-1","0","-10","[]","0","0","4",""
"pit-trial","129","914850","0.0-2.0-17.11-1.11","battery-v0.2","","""event"",""trial"",""time""
""fullscreenenter"",""1"",""2189""
","
","
","""event"",""trial"",""time""
""fullscreenenter"",""1"",""2189""
","
","","","-1","","","10","3241","1206","&#9789;","elianto","#f73b6a7A"," ","-1","0","-10","[]","0","0","4",""
"pit-trial","130","919711","0.0-2.0-17.11-2.11","battery-v0.2","","""event"",""trial"",""time""
""fullscreenenter"",""1"",""2189""
","
","
","""event"",""trial"",""time""
""fullscreenenter"",""1"",""2189""
","
","","","-1","","","10","3241","1206","&#9789;","elianto","#f73b6a7A"," ","-1","0","-10","[]","0","0","4",""
"pit-trial","131","924573","0.0-2.0-17.11-3.11","battery-v0.2","","""event"",""trial"",""time""
""fullscreenenter"",""1"",""2189""
","
","
","""event"",""trial"",""time""
""fullscreenenter"",""1"",""2189""
","
","","","-1","","","10","3241","1206","&#9789;","elianto","#f73b6a7A"," ","-1","0","0","[]","0","0","4",""
"pit-trial","132","929437","0.0-2.0-17.11-4.11","battery-v0.2","","""event"",""trial"",""time""
""fullscreenenter"",""1"",""2189""
","
","
","""event"",""trial"",""time""
""fullscreenenter"",""1"",""2189""
","
","","","-1","","","10","3241","1206","&#9789;","elianto","#f73b6a7A"," ","-1","0","-10","[]","0","0","4",""
"pit-trial","133","934300","0.0-2.0-17.12-0.12","battery-v0.2","","""event"",""trial"",""time""
""fullscreenenter"",""1"",""2189""
","
","
","""event"",""trial"",""time""
""fullscreenenter"",""1"",""2189""
","
","","","-1","","","10","3241","1206","&#9789;","elianto","#f73b6a7A"," ","-1","0","-10","[]","0","0","4",""
"pit-trial","134","939159","0.0-2.0-17.12-1.12","battery-v0.2","","""event"",""trial"",""time""
""fullscreenenter"",""1"",""2189""
","
","
","""event"",""trial"",""time""
""fullscreenenter"",""1"",""2189""
","
","","","-1","","","10","3241","1206","&#9789;","elianto","#f73b6a7A"," ","-1","0","-10","[]","0","0","4",""
"pit-trial","135","944017","0.0-2.0-17.12-2.12","battery-v0.2","","""event"",""trial"",""time""
""fullscreenenter"",""1"",""2189""
","
","
","""event"",""trial"",""time""
""fullscreenenter"",""1"",""2189""
","
","","","-1","","","10","3241","1206","&#9789;","elianto","#f73b6a7A"," ","-1","0","-10","[]","0","0","4",""
"pit-trial","136","948891","0.0-2.0-17.12-3.12","battery-v0.2","","""event"",""trial"",""time""
""fullscreenenter"",""1"",""2189""
","
","
","""event"",""trial"",""time""
""fullscreenenter"",""1"",""2189""
","
","","","-1","","","10","3241","1206","&#9789;","elianto","#f73b6a7A"," ","-1","0","0","[]","0","0","4",""
"pit-trial","137","952169","0.0-2.0-17.12-4.12","battery-v0.2","","""event"",""trial"",""time""
""fullscreenenter"",""1"",""2189""
","
","
","""event"",""trial"",""time""
""fullscreenenter"",""1"",""2189""
","
","","","415.60000002384186","","","10","3241","1206","&#9789;","elianto","#f73b6a7A"," "," ","1","0","[1266.5]","1","0","4",""
"pit-trial","138","957036","0.0-2.0-17.13-0.13","battery-v0.2","","""event"",""trial"",""time""
""fullscreenenter"",""1"",""2189""
","
","
","""event"",""trial"",""time""
""fullscreenenter"",""1"",""2189""
","
","","","-1","","","10","3241","1206","&#9789;","elianto","#f73b6a7A"," ","-1","0","-10","[]","0","0","4",""
"pit-trial","139","961905","0.0-2.0-17.13-1.13","battery-v0.2","","""event"",""trial"",""time""
""fullscreenenter"",""1"",""2189""
","
","
","""event"",""trial"",""time""
""fullscreenenter"",""1"",""2189""
","
","","","-1","","","10","3241","1206","&#9789;","elianto","#f73b6a7A"," ","-1","0","-10","[]","0","0","4",""
"pit-trial","140","966761","0.0-2.0-17.13-2.13","battery-v0.2","","""event"",""trial"",""time""
""fullscreenenter"",""1"",""2189""
","
","
","""event"",""trial"",""time""
""fullscreenenter"",""1"",""2189""
","
","","","-1","","","10","3241","1206","&#9789;","elianto","#f73b6a7A"," ","-1","0","-10","[]","0","0","4",""
"pit-trial","141","971628","0.0-2.0-17.13-3.13","battery-v0.2","","""event"",""trial"",""time""
""fullscreenenter"",""1"",""2189""
","
","
","""event"",""trial"",""time""
""fullscreenenter"",""1"",""2189""
","
","","","-1","","","10","3241","1206","&#9789;","elianto","#f73b6a7A"," ","-1","0","0","[]","0","0","4",""
"pit-trial","142","976501","0.0-2.0-17.13-4.13","battery-v0.2","","""event"",""trial"",""time""
""fullscreenenter"",""1"",""2189""
","
","
","""event"",""trial"",""time""
""fullscreenenter"",""1"",""2189""
","
","","","-1","","","10","3241","1206","&#9789;","elianto","#f73b6a7A"," ","-1","0","-10","[]","0","0","4",""
"pit-trial","143","981362","0.0-2.0-17.14-0.14","battery-v0.2","","""event"",""trial"",""time""
""fullscreenenter"",""1"",""2189""
","
","
","""event"",""trial"",""time""
""fullscreenenter"",""1"",""2189""
","
","","","-1","","","10","3241","1206","&#9789;","elianto","#f73b6a7A"," ","-1","0","-10","[]","0","0","4",""
"pit-trial","144","986219","0.0-2.0-17.14-1.14","battery-v0.2","","""event"",""trial"",""time""
""fullscreenenter"",""1"",""2189""
","
","
","""event"",""trial"",""time""
""fullscreenenter"",""1"",""2189""
","
","","","-1","","","10","3241","1206","&#9789;","elianto","#f73b6a7A"," ","-1","0","-10","[]","0","0","4",""
"pit-trial","145","991091","0.0-2.0-17.14-2.14","battery-v0.2","","""event"",""trial"",""time""
""fullscreenenter"",""1"",""2189""
","
","
","""event"",""trial"",""time""
""fullscreenenter"",""1"",""2189""
","
","","","-1","","","10","3241","1206","&#9789;","elianto","#f73b6a7A"," ","-1","0","-10","[]","0","0","4",""
"pit-trial","146","995956","0.0-2.0-17.14-3.14","battery-v0.2","","""event"",""trial"",""time""
""fullscreenenter"",""1"",""2189""
","
","
","""event"",""trial"",""time""
""fullscreenenter"",""1"",""2189""
","
","","","-1","","","10","3241","1206","&#9789;","elianto","#f73b6a7A"," ","-1","0","0","[]","0","0","4",""
"pit-trial","147","1000813","0.0-2.0-17.14-4.14","battery-v0.2","","""event"",""trial"",""time""
""fullscreenenter"",""1"",""2189""
","
","
","""event"",""trial"",""time""
""fullscreenenter"",""1"",""2189""
","
","","","-1","","","10","3241","1206","&#9789;","elianto","#f73b6a7A"," ","-1","0","-10","[]","0","0","4",""
"pit-trial","148","1005684","0.0-2.0-17.15-0.15","battery-v0.2","","""event"",""trial"",""time""
""fullscreenenter"",""1"",""2189""
","
","
","""event"",""trial"",""time""
""fullscreenenter"",""1"",""2189""
","
","","","-1","","","10","3241","1206","&#9789;","elianto","#f73b6a7A"," ","-1","0","-10","[]","0","0","4",""
"pit-trial","149","1010541","0.0-2.0-17.15-1.15","battery-v0.2","","""event"",""trial"",""time""
""fullscreenenter"",""1"",""2189""
","
","
","""event"",""trial"",""time""
""fullscreenenter"",""1"",""2189""
","
","","","-1","","","10","3241","1206","&#9789;","elianto","#f73b6a7A"," ","-1","0","-10","[]","0","0","4",""
"pit-trial","150","1015407","0.0-2.0-17.15-2.15","battery-v0.2","","""event"",""trial"",""time""
""fullscreenenter"",""1"",""2189""
","
","
","""event"",""trial"",""time""
""fullscreenenter"",""1"",""2189""
","
","","","-1","","","10","3241","1206","&#9789;","elianto","#f73b6a7A"," ","-1","0","-10","[]","0","0","4",""
"pit-trial","151","1020274","0.0-2.0-17.15-3.15","battery-v0.2","","""event"",""trial"",""time""
""fullscreenenter"",""1"",""2189""
","
","
","""event"",""trial"",""time""
""fullscreenenter"",""1"",""2189""
","
","","","-1","","","10","3241","1206","&#9789;","elianto","#f73b6a7A"," ","-1","0","0","[]","0","0","4",""
"pit-trial","152","1025141","0.0-2.0-17.15-4.15","battery-v0.2","","""event"",""trial"",""time""
""fullscreenenter"",""1"",""2189""
","
","
","""event"",""trial"",""time""
""fullscreenenter"",""1"",""2189""
","
","","","-1","","","10","3241","1206","&#9789;","elianto","#f73b6a7A"," ","-1","0","-10","[]","0","0","4",""
"pit-trial","153","1030002","0.0-2.0-17.16-0.16","battery-v0.2","","""event"",""trial"",""time""
""fullscreenenter"",""1"",""2189""
","
","
","""event"",""trial"",""time""
""fullscreenenter"",""1"",""2189""
","
","","","-1","","","10","3241","1206","&#9789;","elianto","#f73b6a7A"," ","-1","0","-10","[]","0","0","4",""
"pit-trial","154","1034881","0.0-2.0-17.16-1.16","battery-v0.2","","""event"",""trial"",""time""
""fullscreenenter"",""1"",""2189""
","
","
","""event"",""trial"",""time""
""fullscreenenter"",""1"",""2189""
","
","","","-1","","","10","3241","1206","&#9789;","elianto","#f73b6a7A"," ","-1","0","-10","[]","0","0","4",""
"pit-trial","155","1039744","0.0-2.0-17.16-2.16","battery-v0.2","","""event"",""trial"",""time""
""fullscreenenter"",""1"",""2189""
","
","
","""event"",""trial"",""time""
""fullscreenenter"",""1"",""2189""
","
","","","-1","","","10","3241","1206","&#9789;","elianto","#f73b6a7A"," ","-1","0","-10","[]","0","0","4",""
"pit-trial","156","1044606","0.0-2.0-17.16-3.16","battery-v0.2","","""event"",""trial"",""time""
""fullscreenenter"",""1"",""2189""
","
","
","""event"",""trial"",""time""
""fullscreenenter"",""1"",""2189""
","
","","","-1","","","10","3241","1206","&#9789;","elianto","#f73b6a7A"," ","-1","0","0","[]","0","0","4",""
"pit-trial","157","1049479","0.0-2.0-17.16-4.16","battery-v0.2","","""event"",""trial"",""time""
""fullscreenenter"",""1"",""2189""
","
","
","""event"",""trial"",""time""
""fullscreenenter"",""1"",""2189""
","
","","","-1","","","10","3241","1206","&#9789;","elianto","#f73b6a7A"," ","-1","0","-10","[]","0","0","4",""
"pit-trial","158","1054355","0.0-2.0-17.17-0.17","battery-v0.2","","""event"",""trial"",""time""
""fullscreenenter"",""1"",""2189""
","
","
","""event"",""trial"",""time""
""fullscreenenter"",""1"",""2189""
","
","","","-1","","","10","3241","1206","&#9789;","elianto","#f73b6a7A"," ","-1","0","-10","[]","0","0","4",""
"pit-trial","159","1059217","0.0-2.0-17.17-1.17","battery-v0.2","","""event"",""trial"",""time""
""fullscreenenter"",""1"",""2189""
","
","
","""event"",""trial"",""time""
""fullscreenenter"",""1"",""2189""
","
","","","-1","","","10","3241","1206","&#9789;","elianto","#f73b6a7A"," ","-1","0","-10","[]","0","0","4",""
"pit-trial","160","1064091","0.0-2.0-17.17-2.17","battery-v0.2","","""event"",""trial"",""time""
""fullscreenenter"",""1"",""2189""
","
","
","""event"",""trial"",""time""
""fullscreenenter"",""1"",""2189""
","
","","","-1","","","10","3241","1206","&#9789;","elianto","#f73b6a7A"," ","-1","0","-10","[]","0","0","4",""
"pit-trial","161","1068958","0.0-2.0-17.17-3.17","battery-v0.2","","""event"",""trial"",""time""
""fullscreenenter"",""1"",""2189""
","
","
","""event"",""trial"",""time""
""fullscreenenter"",""1"",""2189""
","
","","","-1","","","10","3241","1206","&#9789;","elianto","#f73b6a7A"," ","-1","0","0","[]","0","0","4",""
"pit-trial","162","1073826","0.0-2.0-17.17-4.17","battery-v0.2","","""event"",""trial"",""time""
""fullscreenenter"",""1"",""2189""
","
","
","""event"",""trial"",""time""
""fullscreenenter"",""1"",""2189""
","
","","","-1","","","10","3241","1206","&#9789;","elianto","#f73b6a7A"," ","-1","0","-10","[]","0","0","4",""
"pit-trial","163","1078694","0.0-2.0-17.18-0.18","battery-v0.2","","""event"",""trial"",""time""
""fullscreenenter"",""1"",""2189""
","
","
","""event"",""trial"",""time""
""fullscreenenter"",""1"",""2189""
","
","","","-1","","","10","3241","1206","&#9789;","elianto","#f73b6a7A"," ","-1","0","-10","[]","0","0","4",""
"pit-trial","164","1083561","0.0-2.0-17.18-1.18","battery-v0.2","","""event"",""trial"",""time""
""fullscreenenter"",""1"",""2189""
","
","
","""event"",""trial"",""time""
""fullscreenenter"",""1"",""2189""
","
","","","-1","","","10","3241","1206","&#9789;","elianto","#f73b6a7A"," ","-1","0","-10","[]","0","0","4",""
"pit-trial","165","1088425","0.0-2.0-17.18-2.18","battery-v0.2","","""event"",""trial"",""time""
""fullscreenenter"",""1"",""2189""
","
","
","""event"",""trial"",""time""
""fullscreenenter"",""1"",""2189""
","
","","","-1","","","10","3241","1206","&#9789;","elianto","#f73b6a7A"," ","-1","0","-10","[]","0","0","4",""
"pit-trial","166","1093289","0.0-2.0-17.18-3.18","battery-v0.2","","""event"",""trial"",""time""
""fullscreenenter"",""1"",""2189""
","
","
","""event"",""trial"",""time""
""fullscreenenter"",""1"",""2189""
","
","","","-1","","","10","3241","1206","&#9789;","elianto","#f73b6a7A"," ","-1","0","0","[]","0","0","4",""
"pit-trial","167","1098158","0.0-2.0-17.18-4.18","battery-v0.2","","""event"",""trial"",""time""
""fullscreenenter"",""1"",""2189""
""blur"",""168"",""1114829""
""fullscreenexit"",""168"",""1114848""
""focus"",""168"",""1114866""
","""event"",""trial"",""time""
""blur"",""168"",""1114829""
","""event"",""trial"",""time""
""focus"",""168"",""1114866""
","""event"",""trial"",""time""
""fullscreenenter"",""1"",""2189""
","""event"",""trial"",""time""
""fullscreenexit"",""168"",""1114848""
","","","-1","","","10","3241","1206","&#9789;","elianto","#f73b6a7A"," ","-1","0","-10","[]","0","0","4",""
