"trial_type","trial_index","time_elapsed","internal_node_id","task_version","subject_id","interactions","blur_events","focus_events","fullscreenenter_events","fullscreenexit_events","success","view_history","rt","responses","num_errors","age","subject","participantId","rune","rune_set","hex","correct","choice","accuracy","outcome","keys","total_keys","block","practice","value","sub","trial","stimulus","robot","valence","action","sham"
"pavlovia","0","8","0.0-0.0","battery-v0.2","","""event"",""trial"",""time""
""fullscreenenter"",""1"",""3762""
","
","
","""event"",""trial"",""time""
""fullscreenenter"",""1"",""3762""
","
","","","","","","","","","","","","","","","","","","","","","","","","","","",""
"fullscreen","1","4755","0.0-1.0","battery-v0.2","","""event"",""trial"",""time""
""fullscreenenter"",""1"",""3762""
","
","
","""event"",""trial"",""time""
""fullscreenenter"",""1"",""3762""
","
","true","","","","","","","","","","","","","","","","","","","","","","","","","",""
"pit-instructions","2","15062","0.0-2.0-0.0","battery-v0.2","","""event"",""trial"",""time""
""fullscreenenter"",""1"",""3762""
","
","
","""event"",""trial"",""time""
""fullscreenenter"",""1"",""3762""
","
","","[{""page_index"":0,""viewing_time"":10303.800000011921}]","10304.099999964237","","","","","","","","","","","","","","","","","","","","","","","",""
"pit-comprehension","3","20362","0.0-2.0-1.0-0.0","battery-v0.2","","""event"",""trial"",""time""
""fullscreenenter"",""1"",""3762""
","
","
","""event"",""trial"",""time""
""fullscreenenter"",""1"",""3762""
","
","","","5297","[""shark""]","0","12","6360","2151","","","","","","","","","","","","","","","","","","",""
"pit-instructions","4","22162","0.0-2.0-1.0-1.0","battery-v0.2","","""event"",""trial"",""time""
""fullscreenenter"",""1"",""3762""
","
","
","""event"",""trial"",""time""
""fullscreenenter"",""1"",""3762""
","
","","[{""page_index"":0,""viewing_time"":1795.3999999761581}]","1795.5999999642372","","","","","","","","","","","","","","","","","","","","","","","",""
"pit-comprehension","5","29484","0.0-2.0-2.0-0.0","battery-v0.2","","""event"",""trial"",""time""
""fullscreenenter"",""1"",""3762""
","
","
","""event"",""trial"",""time""
""fullscreenenter"",""1"",""3762""
","
","","","7319","[""tiger""]","0","12","6360","2151","","","","","","","","","","","","","","","","","","",""
"pit-instructions","6","34668","0.0-2.0-2.0-1.0","battery-v0.2","","""event"",""trial"",""time""
""fullscreenenter"",""1"",""3762""
","
","
","""event"",""trial"",""time""
""fullscreenenter"",""1"",""3762""
","
","","[{""page_index"":0,""viewing_time"":5181.600000023842}]","5181.900000035763","","","","","","","","","","","","","","","","","","","","","","","",""
"pit-instructions","7","141624","0.0-2.0-3.0","battery-v0.2","","""event"",""trial"",""time""
""fullscreenenter"",""1"",""3762""
","
","
","""event"",""trial"",""time""
""fullscreenenter"",""1"",""3762""
","
","","[{""page_index"":0,""viewing_time"":10165},{""page_index"":1,""viewing_time"":7223},{""page_index"":2,""viewing_time"":7026.699999988079},{""page_index"":3,""viewing_time"":6680.899999976158},{""page_index"":4,""viewing_time"":6632.900000035763},{""page_index"":5,""viewing_time"":7043},{""page_index"":6,""viewing_time"":9482.300000011921},{""page_index"":7,""viewing_time"":6719.799999952316},{""page_index"":8,""viewing_time"":8019.300000011921},{""page_index"":9,""viewing_time"":9457},{""page_index"":10,""viewing_time"":8674.300000011921},{""page_index"":11,""viewing_time"":7715.100000023842},{""page_index"":12,""viewing_time"":6677.699999988079},{""page_index"":13,""viewing_time"":5439.800000011921}]","106957.19999998808","","","","","","","","","","","","","","","","","","","","","","","",""
"pit-trial","8","145165","0.0-2.0-4.0-0.0","battery-v0.2","","""event"",""trial"",""time""
""fullscreenenter"",""1"",""3762""
","
","
","""event"",""trial"",""time""
""fullscreenenter"",""1"",""3762""
","
","","","679","","","12","6360","2151","&#9784;","elianto","#FFFFF080"," "," ","1","&#10004","[1533.5]","1","0","0","","","","","","","",""
"pit-trial","9","148417","0.0-2.0-4.1-0.1","battery-v0.2","","""event"",""trial"",""time""
""fullscreenenter"",""1"",""3762""
","
","
","""event"",""trial"",""time""
""fullscreenenter"",""1"",""3762""
","
","","","381.19999998807907","","","12","6360","2151","&#9784;","elianto","#FFFFF080"," "," ","1","&#10004","[1237.699999988079]","1","0","0","","","","","","","",""
"pit-trial","10","151773","0.0-2.0-4.2-0.2","battery-v0.2","","""event"",""trial"",""time""
""fullscreenenter"",""1"",""3762""
","
","
","""event"",""trial"",""time""
""fullscreenenter"",""1"",""3762""
","
","","","493.80000001192093","","","12","6360","2151","&#9784;","elianto","#FFFFF080"," "," ","1","&#10004","[1351.3999999761581]","1","0","0","","","","","","","",""
"pit-trial","11","155190","0.0-2.0-4.3-0.3","battery-v0.2","","""event"",""trial"",""time""
""fullscreenenter"",""1"",""3762""
","
","
","""event"",""trial"",""time""
""fullscreenenter"",""1"",""3762""
","
","","","555.8000000119209","","","12","6360","2151","&#9784;","elianto","#FFFFF080"," "," ","1","&#10004","[1407.4000000357628]","1","0","0","","","","","","","",""
"pit-trial","12","158672","0.0-2.0-4.4-0.4","battery-v0.2","","""event"",""trial"",""time""
""fullscreenenter"",""1"",""3762""
","
","
","""event"",""trial"",""time""
""fullscreenenter"",""1"",""3762""
","
","","","616.5","","","12","6360","2151","&#9784;","elianto","#FFFFF080"," "," ","1","&#10004","[1468.0999999642372]","1","0","0","","","","","","","",""
"pit-instructions","13","181502","0.0-2.0-5.0","battery-v0.2","","""event"",""trial"",""time""
""fullscreenenter"",""1"",""3762""
","
","
","""event"",""trial"",""time""
""fullscreenenter"",""1"",""3762""
","
","","[{""page_index"":0,""viewing_time"":5768.299999952316},{""page_index"":1,""viewing_time"":5606.400000035763},{""page_index"":2,""viewing_time"":5476.899999976158},{""page_index"":3,""viewing_time"":5976.199999988079}]","22828.299999952316","","","","","","","","","","","","","","","","","","","","","","","",""
"pit-trial","14","186364","0.0-2.0-6.0-0.0","battery-v0.2","","""event"",""trial"",""time""
""fullscreenenter"",""1"",""3762""
","
","
","""event"",""trial"",""time""
""fullscreenenter"",""1"",""3762""
","
","","","-1","","","12","6360","2151","&#9854;","elianto","#FFFFF080","-1","-1","1","&#10004","[]","0","0","1","","","","","","","",""
"pit-trial","15","191228","0.0-2.0-6.1-0.1","battery-v0.2","","""event"",""trial"",""time""
""fullscreenenter"",""1"",""3762""
","
","
","""event"",""trial"",""time""
""fullscreenenter"",""1"",""3762""
","
","","","-1","","","12","6360","2151","&#9854;","elianto","#FFFFF080","-1","-1","1","&#10004","[]","0","0","1","","","","","","","",""
"pit-trial","16","196095","0.0-2.0-6.2-0.2","battery-v0.2","","""event"",""trial"",""time""
""fullscreenenter"",""1"",""3762""
","
","
","""event"",""trial"",""time""
""fullscreenenter"",""1"",""3762""
","
","","","-1","","","12","6360","2151","&#9854;","elianto","#FFFFF080","-1","-1","1","&#10004","[]","0","0","1","","","","","","","",""
"pit-trial","17","200963","0.0-2.0-6.3-0.3","battery-v0.2","","""event"",""trial"",""time""
""fullscreenenter"",""1"",""3762""
","
","
","""event"",""trial"",""time""
""fullscreenenter"",""1"",""3762""
","
","","","-1","","","12","6360","2151","&#9854;","elianto","#FFFFF080","-1","-1","1","&#10004","[]","0","0","1","","","","","","","",""
"pit-trial","18","205827","0.0-2.0-6.4-0.4","battery-v0.2","","""event"",""trial"",""time""
""fullscreenenter"",""1"",""3762""
","
","
","""event"",""trial"",""time""
""fullscreenenter"",""1"",""3762""
","
","","","-1","","","12","6360","2151","&#9854;","elianto","#FFFFF080","-1","-1","1","&#10004","[]","0","0","1","","","","","","","",""
"pit-instructions","19","336681","0.0-2.0-7.0","battery-v0.2","","""event"",""trial"",""time""
""fullscreenenter"",""1"",""3762""
","
","
","""event"",""trial"",""time""
""fullscreenenter"",""1"",""3762""
","
","","[{""page_index"":0,""viewing_time"":6646.199999988079},{""page_index"":1,""viewing_time"":7182.800000011921},{""page_index"":2,""viewing_time"":6214.199999988079},{""page_index"":3,""viewing_time"":7320.399999976158},{""page_index"":4,""viewing_time"":6290},{""page_index"":5,""viewing_time"":9828.5},{""page_index"":6,""viewing_time"":6122.200000047684},{""page_index"":7,""viewing_time"":9067.199999988079},{""page_index"":8,""viewing_time"":7970.300000011921},{""page_index"":9,""viewing_time"":6871.199999988079},{""page_index"":10,""viewing_time"":6939.099999964237},{""page_index"":11,""viewing_time"":4736.300000011921},{""page_index"":12,""viewing_time"":7637.699999988079},{""page_index"":13,""viewing_time"":7776.100000023842},{""page_index"":14,""viewing_time"":7604.800000011921},{""page_index"":15,""viewing_time"":9241.199999988079},{""page_index"":16,""viewing_time"":6559.899999976158},{""page_index"":17,""viewing_time"":6848.800000011921}]","130857.19999998808","","","","","","","","","","","","","","","","","","","","","","","",""
"pit-trial","20","340161","0.0-2.0-8.0-0.0","battery-v0.2","","""event"",""trial"",""time""
""fullscreenenter"",""1"",""3762""
","
","
","""event"",""trial"",""time""
""fullscreenenter"",""1"",""3762""
","
","","","613.7999999523163","","","12","6360","2151","&#9776;","elianto","#3366ff99"," "," ","1","+10","[1465]","1","0","1","","","","","","","",""
"pit-trial","21","343501","0.0-2.0-8.0-1.0","battery-v0.2","","""event"",""trial"",""time""
""fullscreenenter"",""1"",""3762""
","
","
","""event"",""trial"",""time""
""fullscreenenter"",""1"",""3762""
","
","","","476.5","","","12","6360","2151","&#9776;","elianto","#3366ff99"," "," ","1","+10","[1335.2999999523163]","1","0","1","","","","","","","",""
"pit-trial","22","346937","0.0-2.0-8.0-2.0","battery-v0.2","","""event"",""trial"",""time""
""fullscreenenter"",""1"",""3762""
","
","
","""event"",""trial"",""time""
""fullscreenenter"",""1"",""3762""
","
","","","569.6999999880791","","","12","6360","2151","&#9776;","elianto","#3366ff99"," "," ","1","+10","[1423.699999988079]","1","0","1","","","","","","","",""
"pit-trial","23","350389","0.0-2.0-8.0-3.0","battery-v0.2","","""event"",""trial"",""time""
""fullscreenenter"",""1"",""3762""
","
","
","""event"",""trial"",""time""
""fullscreenenter"",""1"",""3762""
","
","","","589","","","12","6360","2151","&#9776;","elianto","#3366ff99"," "," ","1","0","[1445.800000011921]","1","0","1","","","","","","","",""
"pit-trial","24","353848","0.0-2.0-8.0-4.0","battery-v0.2","","""event"",""trial"",""time""
""fullscreenenter"",""1"",""3762""
","
","
","""event"",""trial"",""time""
""fullscreenenter"",""1"",""3762""
","
","","","596.0999999642372","","","12","6360","2151","&#9776;","elianto","#3366ff99"," "," ","1","+10","[1450.3999999761581]","1","0","1","","","","","","","",""
"pit-trial","25","357384","0.0-2.0-8.1-0.1","battery-v0.2","","""event"",""trial"",""time""
""fullscreenenter"",""1"",""3762""
","
","
","""event"",""trial"",""time""
""fullscreenenter"",""1"",""3762""
","
","","","673.5","","","12","6360","2151","&#9776;","elianto","#3366ff99"," "," ","1","+10","[1523.7999999523163]","1","0","1","","","","","","","",""
"pit-trial","26","360805","0.0-2.0-8.1-1.1","battery-v0.2","","""event"",""trial"",""time""
""fullscreenenter"",""1"",""3762""
","
","
","""event"",""trial"",""time""
""fullscreenenter"",""1"",""3762""
","
","","","549.6000000238419","","","12","6360","2151","&#9776;","elianto","#3366ff99"," "," ","1","+10","[1410.3999999761581]","1","0","1","","","","","","","",""
"pit-trial","27","364216","0.0-2.0-8.1-2.1","battery-v0.2","","""event"",""trial"",""time""
""fullscreenenter"",""1"",""3762""
","
","
","""event"",""trial"",""time""
""fullscreenenter"",""1"",""3762""
","
","","","544.1000000238419","","","12","6360","2151","&#9776;","elianto","#3366ff99"," "," ","1","+10","[1396.800000011921,2841.100000023842]","2","0","1","","","","","","","",""
"pit-trial","28","367603","0.0-2.0-8.1-3.1","battery-v0.2","","""event"",""trial"",""time""
""fullscreenenter"",""1"",""3762""
","
","
","""event"",""trial"",""time""
""fullscreenenter"",""1"",""3762""
","
","","","528","","","12","6360","2151","&#9776;","elianto","#3366ff99"," "," ","1","0","[1378.800000011921]","1","0","1","","","","","","","",""
"pit-trial","29","370942","0.0-2.0-8.1-4.1","battery-v0.2","","""event"",""trial"",""time""
""fullscreenenter"",""1"",""3762""
","
","
","""event"",""trial"",""time""
""fullscreenenter"",""1"",""3762""
","
","","","469.80000001192093","","","12","6360","2151","&#9776;","elianto","#3366ff99"," "," ","1","+10","[1326.6000000238419]","1","0","1","","","","","","","",""
"pit-trial","30","374339","0.0-2.0-8.2-0.2","battery-v0.2","","""event"",""trial"",""time""
""fullscreenenter"",""1"",""3762""
","
","
","""event"",""trial"",""time""
""fullscreenenter"",""1"",""3762""
","
","","","543.3999999761581","","","12","6360","2151","&#9776;","elianto","#3366ff99"," "," ","1","+10","[1394.699999988079]","1","0","1","","","","","","","",""
"pit-trial","31","377747","0.0-2.0-8.2-1.2","battery-v0.2","","""event"",""trial"",""time""
""fullscreenenter"",""1"",""3762""
","
","
","""event"",""trial"",""time""
""fullscreenenter"",""1"",""3762""
","
","","","544.3000000119209","","","12","6360","2151","&#9776;","elianto","#3366ff99"," "," ","1","+10","[1401.199999988079]","1","0","1","","","","","","","",""
"pit-trial","32","381075","0.0-2.0-8.2-2.2","battery-v0.2","","""event"",""trial"",""time""
""fullscreenenter"",""1"",""3762""
","
","
","""event"",""trial"",""time""
""fullscreenenter"",""1"",""3762""
","
","","","467.69999998807907","","","12","6360","2151","&#9776;","elianto","#3366ff99"," "," ","1","+10","[1319.3999999761581]","1","0","1","","","","","","","",""
"pit-trial","33","384610","0.0-2.0-8.2-3.2","battery-v0.2","","""event"",""trial"",""time""
""fullscreenenter"",""1"",""3762""
","
","
","""event"",""trial"",""time""
""fullscreenenter"",""1"",""3762""
","
","","","675.2000000476837","","","12","6360","2151","&#9776;","elianto","#3366ff99"," "," ","1","0","[1531.6000000238419]","1","0","1","","","","","","","",""
"pit-trial","34","387997","0.0-2.0-8.2-4.2","battery-v0.2","","""event"",""trial"",""time""
""fullscreenenter"",""1"",""3762""
","
","
","""event"",""trial"",""time""
""fullscreenenter"",""1"",""3762""
","
","","","524.3999999761581","","","12","6360","2151","&#9776;","elianto","#3366ff99"," "," ","1","+10","[1378.6000000238419]","1","0","1","","","","","","","",""
"call-function","35","387999","0.0-2.0-9.0","battery-v0.2","","""event"",""trial"",""time""
""fullscreenenter"",""1"",""3762""
","
","
","""event"",""trial"",""time""
""fullscreenenter"",""1"",""3762""
","
","","","","","","","","","","","","","","","","","","","","","","","","","","",""
"pit-instructions","36","432222","0.0-2.0-10.0","battery-v0.2","","""event"",""trial"",""time""
""fullscreenenter"",""1"",""3762""
","
","
","""event"",""trial"",""time""
""fullscreenenter"",""1"",""3762""
","
","","[{""page_index"":0,""viewing_time"":6405},{""page_index"":1,""viewing_time"":7185.600000023842},{""page_index"":2,""viewing_time"":11834.899999976158},{""page_index"":3,""viewing_time"":10942.400000035763},{""page_index"":4,""viewing_time"":7855.699999988079}]","44224","","","","","","","","","","","","","","","","","","","","","","","",""
"pit-trial","37","435889","0.0-2.0-11.0-0.0","battery-v0.2","","""event"",""trial"",""time""
""fullscreenenter"",""1"",""3762""
","
","
","""event"",""trial"",""time""
""fullscreenenter"",""1"",""3762""
","
","","","801.6000000238419","","","12","6360","2151","&#9761;","elianto","#3366ff99","-1"," ","0","0","[1658.800000011921]","1","0","2","","","","","","","",""
"pit-trial","38","439257","0.0-2.0-11.0-1.0","battery-v0.2","","""event"",""trial"",""time""
""fullscreenenter"",""1"",""3762""
","
","
","""event"",""trial"",""time""
""fullscreenenter"",""1"",""3762""
","
","","","506.2999999523163","","","12","6360","2151","&#9761;","elianto","#3366ff99","-1"," ","0","0","[1360.3999999761581]","1","0","2","","","","","","","",""
"pit-trial","39","442529","0.0-2.0-11.0-2.0","battery-v0.2","","""event"",""trial"",""time""
""fullscreenenter"",""1"",""3762""
","
","
","""event"",""trial"",""time""
""fullscreenenter"",""1"",""3762""
","
","","","413.7999999523163","","","12","6360","2151","&#9761;","elianto","#3366ff99","-1"," ","0","0","[1267.6000000238419]","1","0","2","","","","","","","",""
"pit-trial","40","445821","0.0-2.0-11.0-3.0","battery-v0.2","","""event"",""trial"",""time""
""fullscreenenter"",""1"",""3762""
","
","
","""event"",""trial"",""time""
""fullscreenenter"",""1"",""3762""
","
","","","429.69999998807907","","","12","6360","2151","&#9761;","elianto","#3366ff99","-1"," ","0","+10","[1281.8999999761581]","1","0","2","","","","","","","",""
"pit-trial","41","449074","0.0-2.0-11.0-4.0","battery-v0.2","","""event"",""trial"",""time""
""fullscreenenter"",""1"",""3762""
","
","
","""event"",""trial"",""time""
""fullscreenenter"",""1"",""3762""
","
","","","386.5999999642372","","","12","6360","2151","&#9761;","elianto","#3366ff99","-1"," ","0","0","[1244.699999988079]","1","0","2","","","","","","","",""
"pit-trial","42","451989","0.0-2.0-11.1-0.1","battery-v0.2","","""event"",""trial"",""time""
""fullscreenenter"",""1"",""3762""
","
","
","""event"",""trial"",""time""
""fullscreenenter"",""1"",""3762""
","
","","","48.89999997615814","","","12","6360","2151","&#9761;","elianto","#3366ff99","-1"," ","0","0","[900.8000000119209]","1","0","2","","","","","","","",""
"pit-trial","43","456861","0.0-2.0-11.1-1.1","battery-v0.2","","""event"",""trial"",""time""
""fullscreenenter"",""1"",""3762""
","
","
","""event"",""trial"",""time""
""fullscreenenter"",""1"",""3762""
","
","","","-1","","","12","6360","2151","&#9761;","elianto","#3366ff99","-1","-1","1","+10","[]","0","0","2","","","","","","","",""
"pit-trial","44","460203","0.0-2.0-11.1-2.1","battery-v0.2","","""event"",""trial"",""time""
""fullscreenenter"",""1"",""3762""
","
","
","""event"",""trial"",""time""
""fullscreenenter"",""1"",""3762""
","
","","","477.80000001192093","","","12","6360","2151","&#9761;","elianto","#3366ff99","-1"," ","0","0","[1329.800000011921]","1","0","2","","","","","","","",""
"pit-trial","45","465068","0.0-2.0-11.1-3.1","battery-v0.2","","""event"",""trial"",""time""
""fullscreenenter"",""1"",""3762""
","
","
","""event"",""trial"",""time""
""fullscreenenter"",""1"",""3762""
","
","","","-1","","","12","6360","2151","&#9761;","elianto","#3366ff99","-1","-1","1","0","[]","0","0","2","","","","","","","",""
"pit-trial","46","469937","0.0-2.0-11.1-4.1","battery-v0.2","","""event"",""trial"",""time""
""fullscreenenter"",""1"",""3762""
","
","
","""event"",""trial"",""time""
""fullscreenenter"",""1"",""3762""
","
","","","-1","","","12","6360","2151","&#9761;","elianto","#3366ff99","-1","-1","1","+10","[]","0","0","2","","","","","","","",""
"pit-trial","47","474801","0.0-2.0-11.2-0.2","battery-v0.2","","""event"",""trial"",""time""
""fullscreenenter"",""1"",""3762""
","
","
","""event"",""trial"",""time""
""fullscreenenter"",""1"",""3762""
","
","","","-1","","","12","6360","2151","&#9761;","elianto","#3366ff99","-1","-1","1","+10","[]","0","0","2","","","","","","","",""
"pit-trial","48","479664","0.0-2.0-11.2-1.2","battery-v0.2","","""event"",""trial"",""time""
""fullscreenenter"",""1"",""3762""
","
","
","""event"",""trial"",""time""
""fullscreenenter"",""1"",""3762""
","
","","","-1","","","12","6360","2151","&#9761;","elianto","#3366ff99","-1","-1","1","+10","[]","0","0","2","","","","","","","",""
"pit-trial","49","483409","0.0-2.0-11.2-2.2","battery-v0.2","","""event"",""trial"",""time""
""fullscreenenter"",""1"",""3762""
","
","
","""event"",""trial"",""time""
""fullscreenenter"",""1"",""3762""
","
","","","880.7999999523163","","","12","6360","2151","&#9761;","elianto","#3366ff99","-1"," ","0","0","[1738.3999999761581]","1","0","2","","","","","","","",""
"pit-trial","50","488273","0.0-2.0-11.2-3.2","battery-v0.2","","""event"",""trial"",""time""
""fullscreenenter"",""1"",""3762""
","
","
","""event"",""trial"",""time""
""fullscreenenter"",""1"",""3762""
","
","","","-1","","","12","6360","2151","&#9761;","elianto","#3366ff99","-1","-1","1","0","[]","0","0","2","","","","","","","",""
"pit-trial","51","493136","0.0-2.0-11.2-4.2","battery-v0.2","","""event"",""trial"",""time""
""fullscreenenter"",""1"",""3762""
","
","
","""event"",""trial"",""time""
""fullscreenenter"",""1"",""3762""
","
","","","-1","","","12","6360","2151","&#9761;","elianto","#3366ff99","-1","-1","1","+10","[]","0","0","2","","","","","","","",""
"pit-trial","52","498000","0.0-2.0-11.3-0.3","battery-v0.2","","""event"",""trial"",""time""
""fullscreenenter"",""1"",""3762""
","
","
","""event"",""trial"",""time""
""fullscreenenter"",""1"",""3762""
","
","","","-1","","","12","6360","2151","&#9761;","elianto","#3366ff99","-1","-1","1","+10","[]","0","0","2","","","","","","","",""
"pit-trial","53","502862","0.0-2.0-11.3-1.3","battery-v0.2","","""event"",""trial"",""time""
""fullscreenenter"",""1"",""3762""
","
","
","""event"",""trial"",""time""
""fullscreenenter"",""1"",""3762""
","
","","","-1","","","12","6360","2151","&#9761;","elianto","#3366ff99","-1","-1","1","+10","[]","0","0","2","","","","","","","",""
"pit-trial","54","507728","0.0-2.0-11.3-2.3","battery-v0.2","","""event"",""trial"",""time""
""fullscreenenter"",""1"",""3762""
","
","
","""event"",""trial"",""time""
""fullscreenenter"",""1"",""3762""
","
","","","-1","","","12","6360","2151","&#9761;","elianto","#3366ff99","-1","-1","1","+10","[]","0","0","2","","","","","","","",""
"pit-trial","55","512592","0.0-2.0-11.3-3.3","battery-v0.2","","""event"",""trial"",""time""
""fullscreenenter"",""1"",""3762""
","
","
","""event"",""trial"",""time""
""fullscreenenter"",""1"",""3762""
","
","","","-1","","","12","6360","2151","&#9761;","elianto","#3366ff99","-1","-1","1","0","[]","0","0","2","","","","","","","",""
"pit-trial","56","517455","0.0-2.0-11.3-4.3","battery-v0.2","","""event"",""trial"",""time""
""fullscreenenter"",""1"",""3762""
","
","
","""event"",""trial"",""time""
""fullscreenenter"",""1"",""3762""
","
","","","-1","","","12","6360","2151","&#9761;","elianto","#3366ff99","-1","-1","1","+10","[]","0","0","2","","","","","","","",""
"call-function","57","517457","0.0-2.0-12.0","battery-v0.2","","""event"",""trial"",""time""
""fullscreenenter"",""1"",""3762""
","
","
","""event"",""trial"",""time""
""fullscreenenter"",""1"",""3762""
","
","","","","","","","","","","","","","","","","","","","","","","","","","","",""
"pit-instructions","58","551015","0.0-2.0-13.0","battery-v0.2","","""event"",""trial"",""time""
""fullscreenenter"",""1"",""3762""
","
","
","""event"",""trial"",""time""
""fullscreenenter"",""1"",""3762""
","
","","[{""page_index"":0,""viewing_time"":6232.5},{""page_index"":1,""viewing_time"":7088.599999964237},{""page_index"":2,""viewing_time"":3906.5},{""page_index"":3,""viewing_time"":11057.199999988079},{""page_index"":4,""viewing_time"":5273.400000035763}]","33558.5","","","","","","","","","","","","","","","","","","","","","","","",""
"pit-trial","59","555877","0.0-2.0-14.0-0.0","battery-v0.2","","""event"",""trial"",""time""
""fullscreenenter"",""1"",""3762""
","
","
","""event"",""trial"",""time""
""fullscreenenter"",""1"",""3762""
","
","","","-1","","","12","6360","2151","&#9826;","elianto","#f73b6a7A","-1","-1","1","0","[]","0","0","3","","","","","","","",""
"pit-trial","60","560744","0.0-2.0-14.0-1.0","battery-v0.2","","""event"",""trial"",""time""
""fullscreenenter"",""1"",""3762""
","
","
","""event"",""trial"",""time""
""fullscreenenter"",""1"",""3762""
","
","","","-1","","","12","6360","2151","&#9826;","elianto","#f73b6a7A","-1","-1","1","0","[]","0","0","3","","","","","","","",""
"pit-trial","61","565608","0.0-2.0-14.0-2.0","battery-v0.2","","""event"",""trial"",""time""
""fullscreenenter"",""1"",""3762""
","
","
","""event"",""trial"",""time""
""fullscreenenter"",""1"",""3762""
","
","","","-1","","","12","6360","2151","&#9826;","elianto","#f73b6a7A","-1","-1","1","0","[]","0","0","3","","","","","","","",""
"pit-trial","62","570479","0.0-2.0-14.0-3.0","battery-v0.2","","""event"",""trial"",""time""
""fullscreenenter"",""1"",""3762""
","
","
","""event"",""trial"",""time""
""fullscreenenter"",""1"",""3762""
","
","","","-1","","","12","6360","2151","&#9826;","elianto","#f73b6a7A","-1","-1","1","-10","[]","0","0","3","","","","","","","",""
"pit-trial","63","575340","0.0-2.0-14.0-4.0","battery-v0.2","","""event"",""trial"",""time""
""fullscreenenter"",""1"",""3762""
","
","
","""event"",""trial"",""time""
""fullscreenenter"",""1"",""3762""
","
","","","-1","","","12","6360","2151","&#9826;","elianto","#f73b6a7A","-1","-1","1","0","[]","0","0","3","","","","","","","",""
"pit-trial","64","580206","0.0-2.0-14.1-0.1","battery-v0.2","","""event"",""trial"",""time""
""fullscreenenter"",""1"",""3762""
","
","
","""event"",""trial"",""time""
""fullscreenenter"",""1"",""3762""
","
","","","-1","","","12","6360","2151","&#9826;","elianto","#f73b6a7A","-1","-1","1","0","[]","0","0","3","","","","","","","",""
"pit-trial","65","585067","0.0-2.0-14.1-1.1","battery-v0.2","","""event"",""trial"",""time""
""fullscreenenter"",""1"",""3762""
","
","
","""event"",""trial"",""time""
""fullscreenenter"",""1"",""3762""
","
","","","-1","","","12","6360","2151","&#9826;","elianto","#f73b6a7A","-1","-1","1","0","[]","0","0","3","","","","","","","",""
"pit-trial","66","589926","0.0-2.0-14.1-2.1","battery-v0.2","","""event"",""trial"",""time""
""fullscreenenter"",""1"",""3762""
","
","
","""event"",""trial"",""time""
""fullscreenenter"",""1"",""3762""
","
","","","-1","","","12","6360","2151","&#9826;","elianto","#f73b6a7A","-1","-1","1","0","[]","0","0","3","","","","","","","",""
"pit-trial","67","594783","0.0-2.0-14.1-3.1","battery-v0.2","","""event"",""trial"",""time""
""fullscreenenter"",""1"",""3762""
","
","
","""event"",""trial"",""time""
""fullscreenenter"",""1"",""3762""
","
","","","-1","","","12","6360","2151","&#9826;","elianto","#f73b6a7A","-1","-1","1","-10","[]","0","0","3","","","","","","","",""
"pit-trial","68","599653","0.0-2.0-14.1-4.1","battery-v0.2","","""event"",""trial"",""time""
""fullscreenenter"",""1"",""3762""
","
","
","""event"",""trial"",""time""
""fullscreenenter"",""1"",""3762""
","
","","","-1","","","12","6360","2151","&#9826;","elianto","#f73b6a7A","-1","-1","1","0","[]","0","0","3","","","","","","","",""
"pit-trial","69","604509","0.0-2.0-14.2-0.2","battery-v0.2","","""event"",""trial"",""time""
""fullscreenenter"",""1"",""3762""
","
","
","""event"",""trial"",""time""
""fullscreenenter"",""1"",""3762""
","
","","","-1","","","12","6360","2151","&#9826;","elianto","#f73b6a7A","-1","-1","1","0","[]","0","0","3","","","","","","","",""
"pit-trial","70","609370","0.0-2.0-14.2-1.2","battery-v0.2","","""event"",""trial"",""time""
""fullscreenenter"",""1"",""3762""
","
","
","""event"",""trial"",""time""
""fullscreenenter"",""1"",""3762""
","
","","","-1","","","12","6360","2151","&#9826;","elianto","#f73b6a7A","-1","-1","1","0","[]","0","0","3","","","","","","","",""
"pit-trial","71","614228","0.0-2.0-14.2-2.2","battery-v0.2","","""event"",""trial"",""time""
""fullscreenenter"",""1"",""3762""
","
","
","""event"",""trial"",""time""
""fullscreenenter"",""1"",""3762""
","
","","","-1","","","12","6360","2151","&#9826;","elianto","#f73b6a7A","-1","-1","1","0","[]","0","0","3","","","","","","","",""
"pit-trial","72","619091","0.0-2.0-14.2-3.2","battery-v0.2","","""event"",""trial"",""time""
""fullscreenenter"",""1"",""3762""
","
","
","""event"",""trial"",""time""
""fullscreenenter"",""1"",""3762""
","
","","","-1","","","12","6360","2151","&#9826;","elianto","#f73b6a7A","-1","-1","1","-10","[]","0","0","3","","","","","","","",""
"pit-trial","73","623947","0.0-2.0-14.2-4.2","battery-v0.2","","""event"",""trial"",""time""
""fullscreenenter"",""1"",""3762""
","
","
","""event"",""trial"",""time""
""fullscreenenter"",""1"",""3762""
","
","","","-1","","","12","6360","2151","&#9826;","elianto","#f73b6a7A","-1","-1","1","0","[]","0","0","3","","","","","","","",""
"pit-trial","74","628808","0.0-2.0-14.3-0.3","battery-v0.2","","""event"",""trial"",""time""
""fullscreenenter"",""1"",""3762""
","
","
","""event"",""trial"",""time""
""fullscreenenter"",""1"",""3762""
","
","","","-1","","","12","6360","2151","&#9826;","elianto","#f73b6a7A","-1","-1","1","0","[]","0","0","3","","","","","","","",""
"pit-trial","75","633673","0.0-2.0-14.3-1.3","battery-v0.2","","""event"",""trial"",""time""
""fullscreenenter"",""1"",""3762""
","
","
","""event"",""trial"",""time""
""fullscreenenter"",""1"",""3762""
","
","","","-1","","","12","6360","2151","&#9826;","elianto","#f73b6a7A","-1","-1","1","0","[]","0","0","3","","","","","","","",""
"pit-trial","76","638537","0.0-2.0-14.3-2.3","battery-v0.2","","""event"",""trial"",""time""
""fullscreenenter"",""1"",""3762""
","
","
","""event"",""trial"",""time""
""fullscreenenter"",""1"",""3762""
","
","","","-1","","","12","6360","2151","&#9826;","elianto","#f73b6a7A","-1","-1","1","0","[]","0","0","3","","","","","","","",""
"pit-trial","77","643401","0.0-2.0-14.3-3.3","battery-v0.2","","""event"",""trial"",""time""
""fullscreenenter"",""1"",""3762""
","
","
","""event"",""trial"",""time""
""fullscreenenter"",""1"",""3762""
","
","","","-1","","","12","6360","2151","&#9826;","elianto","#f73b6a7A","-1","-1","1","-10","[]","0","0","3","","","","","","","",""
"pit-trial","78","648264","0.0-2.0-14.3-4.3","battery-v0.2","","""event"",""trial"",""time""
""fullscreenenter"",""1"",""3762""
","
","
","""event"",""trial"",""time""
""fullscreenenter"",""1"",""3762""
","
","","","-1","","","12","6360","2151","&#9826;","elianto","#f73b6a7A","-1","-1","1","0","[]","0","0","3","","","","","","","",""
"call-function","79","648266","0.0-2.0-15.0","battery-v0.2","","""event"",""trial"",""time""
""fullscreenenter"",""1"",""3762""
","
","
","""event"",""trial"",""time""
""fullscreenenter"",""1"",""3762""
","
","","","","","","","","","","","","","","","","","","","","","","","","","","",""
"pit-instructions","80","684015","0.0-2.0-16.0","battery-v0.2","","""event"",""trial"",""time""
""fullscreenenter"",""1"",""3762""
","
","
","""event"",""trial"",""time""
""fullscreenenter"",""1"",""3762""
","
","","[{""page_index"":0,""viewing_time"":17282.69999998808},{""page_index"":1,""viewing_time"":8230.899999976158},{""page_index"":2,""viewing_time"":5283.700000047684},{""page_index"":3,""viewing_time"":4952.099999964237}]","35749.80000001192","","","","","","","","","","","","","","","","","","","","","","","",""
"pit-trial","81","687361","0.0-2.0-17.0-0.0","battery-v0.2","","""event"",""trial"",""time""
""fullscreenenter"",""1"",""3762""
","
","
","""event"",""trial"",""time""
""fullscreenenter"",""1"",""3762""
","
","","","484.80000001192093","","","12","6360","2151","&#9789;","elianto","#f73b6a7A"," "," ","1","0","[1339.7000000476837]","1","0","4","","","","","","","",""
"pit-trial","82","690387","0.0-2.0-17.0-1.0","battery-v0.2","","""event"",""trial"",""time""
""fullscreenenter"",""1"",""3762""
","
","
","""event"",""trial"",""time""
""fullscreenenter"",""1"",""3762""
","
","","","165.60000002384186","","","12","6360","2151","&#9789;","elianto","#f73b6a7A"," "," ","1","0","[1018.5]","1","0","4","","","","","","","",""
"pit-trial","83","693679","0.0-2.0-17.0-2.0","battery-v0.2","","""event"",""trial"",""time""
""fullscreenenter"",""1"",""3762""
","
","
","""event"",""trial"",""time""
""fullscreenenter"",""1"",""3762""
","
","","","431.4000000357628","","","12","6360","2151","&#9789;","elianto","#f73b6a7A"," "," ","1","0","[1282.5]","1","0","4","","","","","","","",""
"pit-trial","84","696937","0.0-2.0-17.0-3.0","battery-v0.2","","""event"",""trial"",""time""
""fullscreenenter"",""1"",""3762""
","
","
","""event"",""trial"",""time""
""fullscreenenter"",""1"",""3762""
","
","","","396.89999997615814","","","12","6360","2151","&#9789;","elianto","#f73b6a7A"," "," ","1","-10","[1250.3999999761581]","1","0","4","","","","","","","",""
"pit-trial","85","700015","0.0-2.0-17.0-4.0","battery-v0.2","","""event"",""trial"",""time""
""fullscreenenter"",""1"",""3762""
","
","
","""event"",""trial"",""time""
""fullscreenenter"",""1"",""3762""
","
","","","216.10000002384186","","","12","6360","2151","&#9789;","elianto","#f73b6a7A"," "," ","1","0","[1068.6000000238419]","1","0","4","","","","","","","",""
"pit-trial","86","703203","0.0-2.0-17.1-0.1","battery-v0.2","","""event"",""trial"",""time""
""fullscreenenter"",""1"",""3762""
","
","
","""event"",""trial"",""time""
""fullscreenenter"",""1"",""3762""
","
","","","318.89999997615814","","","12","6360","2151","&#9789;","elianto","#f73b6a7A"," "," ","1","0","[1174.199999988079]","1","0","4","","","","","","","",""
"pit-trial","87","706408","0.0-2.0-17.1-1.1","battery-v0.2","","""event"",""trial"",""time""
""fullscreenenter"",""1"",""3762""
","
","
","""event"",""trial"",""time""
""fullscreenenter"",""1"",""3762""
","
","","","342.30000001192093","","","12","6360","2151","&#9789;","elianto","#f73b6a7A"," "," ","1","0","[1192.699999988079]","1","0","4","","","","","","","",""
"pit-trial","88","709702","0.0-2.0-17.1-2.1","battery-v0.2","","""event"",""trial"",""time""
""fullscreenenter"",""1"",""3762""
","
","
","""event"",""trial"",""time""
""fullscreenenter"",""1"",""3762""
","
","","","432.5999999642372","","","12","6360","2151","&#9789;","elianto","#f73b6a7A"," "," ","1","0","[1289.0999999642372]","1","0","4","","","","","","","",""
"pit-trial","89","713048","0.0-2.0-17.1-3.1","battery-v0.2","","""event"",""trial"",""time""
""fullscreenenter"",""1"",""3762""
","
","
","""event"",""trial"",""time""
""fullscreenenter"",""1"",""3762""
","
","","","486","","","12","6360","2151","&#9789;","elianto","#f73b6a7A"," "," ","1","-10","[1336.9000000357628]","1","0","4","","","","","","","",""
"pit-trial","90","716366","0.0-2.0-17.1-4.1","battery-v0.2","","""event"",""trial"",""time""
""fullscreenenter"",""1"",""3762""
","
","
","""event"",""trial"",""time""
""fullscreenenter"",""1"",""3762""
","
","","","456.5","","","12","6360","2151","&#9789;","elianto","#f73b6a7A"," "," ","1","0","[1309.1000000238419]","1","0","4","","","","","","","",""
"pit-trial","91","719832","0.0-2.0-17.2-0.2","battery-v0.2","","""event"",""trial"",""time""
""fullscreenenter"",""1"",""3762""
","
","
","""event"",""trial"",""time""
""fullscreenenter"",""1"",""3762""
","
","","","600.3000000119209","","","12","6360","2151","&#9789;","elianto","#f73b6a7A"," "," ","1","0","[1453.199999988079]","1","0","4","","","","","","","",""
"pit-trial","92","723213","0.0-2.0-17.2-1.2","battery-v0.2","","""event"",""trial"",""time""
""fullscreenenter"",""1"",""3762""
","
","
","""event"",""trial"",""time""
""fullscreenenter"",""1"",""3762""
","
","","","522.1999999880791","","","12","6360","2151","&#9789;","elianto","#f73b6a7A"," "," ","1","0","[1373.2999999523163]","1","0","4","","","","","","","",""
"pit-trial","93","726536","0.0-2.0-17.2-2.2","battery-v0.2","","""event"",""trial"",""time""
""fullscreenenter"",""1"",""3762""
","
","
","""event"",""trial"",""time""
""fullscreenenter"",""1"",""3762""
","
","","","458.19999998807907","","","12","6360","2151","&#9789;","elianto","#f73b6a7A"," "," ","1","0","[1313]","1","0","4","","","","","","","",""
"pit-trial","94","729629","0.0-2.0-17.2-3.2","battery-v0.2","","""event"",""trial"",""time""
""fullscreenenter"",""1"",""3762""
","
","
","""event"",""trial"",""time""
""fullscreenenter"",""1"",""3762""
","
","","","238.5999999642372","","","12","6360","2151","&#9789;","elianto","#f73b6a7A"," "," ","1","-10","[1089.1000000238419]","1","0","4","","","","","","","",""
"pit-trial","95","734104","0.0-2.0-17.2-4.2","battery-v0.2","","""event"",""trial"",""time""
""fullscreenenter"",""1"",""3762""
","
","
","""event"",""trial"",""time""
""fullscreenenter"",""1"",""3762""
","
","","","1611.8999999761581","","","12","6360","2151","&#9789;","elianto","#f73b6a7A"," "," ","1","0","[2468.599999964237]","1","0","4","","","","","","","",""
"pit-trial","96","737604","0.0-2.0-17.3-0.3","battery-v0.2","","""event"",""trial"",""time""
""fullscreenenter"",""1"",""3762""
","
","
","""event"",""trial"",""time""
""fullscreenenter"",""1"",""3762""
","
","","","647.1000000238419","","","12","6360","2151","&#9789;","elianto","#f73b6a7A"," "," ","1","0","[1497.699999988079]","1","0","4","","","","","","","",""
"pit-trial","97","741581","0.0-2.0-17.3-1.3","battery-v0.2","","""event"",""trial"",""time""
""fullscreenenter"",""1"",""3762""
","
","
","""event"",""trial"",""time""
""fullscreenenter"",""1"",""3762""
","
","","","1118.199999988079","","","12","6360","2151","&#9789;","elianto","#f73b6a7A"," "," ","1","0","[1968.2000000476837]","1","0","4","","","","","","","",""
"pit-trial","98","744973","0.0-2.0-17.3-2.3","battery-v0.2","","""event"",""trial"",""time""
""fullscreenenter"",""1"",""3762""
","
","
","""event"",""trial"",""time""
""fullscreenenter"",""1"",""3762""
","
","","","531.3999999761581","","","12","6360","2151","&#9789;","elianto","#f73b6a7A"," "," ","1","0","[1386.5999999642372]","1","0","4","","","","","","","",""
"pit-trial","99","748236","0.0-2.0-17.3-3.3","battery-v0.2","","""event"",""trial"",""time""
""fullscreenenter"",""1"",""3762""
","
","
","""event"",""trial"",""time""
""fullscreenenter"",""1"",""3762""
","
","","","403.10000002384186","","","12","6360","2151","&#9789;","elianto","#f73b6a7A"," "," ","1","-10","[1260.199999988079]","1","0","4","","","","","","","",""
"pit-trial","100","751511","0.0-2.0-17.3-4.3","battery-v0.2","","""event"",""trial"",""time""
""fullscreenenter"",""1"",""3762""
","
","
","""event"",""trial"",""time""
""fullscreenenter"",""1"",""3762""
","
","","","415.19999998807907","","","12","6360","2151","&#9789;","elianto","#f73b6a7A"," "," ","1","0","[1265.800000011921]","1","0","4","","","","","","","",""
"call-function","101","751513","0.0-2.0-18.0","battery-v0.2","","""event"",""trial"",""time""
""fullscreenenter"",""1"",""3762""
","
","
","""event"",""trial"",""time""
""fullscreenenter"",""1"",""3762""
","
","","","","","","","","","","","","","","","","","","","","","","","","","","",""
"pit-instructions","102","829228","0.0-2.0-19.0","battery-v0.2","","""event"",""trial"",""time""
""fullscreenenter"",""1"",""3762""
","
","
","""event"",""trial"",""time""
""fullscreenenter"",""1"",""3762""
","
","","[{""page_index"":0,""viewing_time"":6748.299999952316},{""page_index"":1,""viewing_time"":6786.5},{""page_index"":2,""viewing_time"":14296},{""page_index"":3,""viewing_time"":8454.5},{""page_index"":4,""viewing_time"":8842.300000011921},{""page_index"":5,""viewing_time"":9694},{""page_index"":6,""viewing_time"":9923.400000035763},{""page_index"":7,""viewing_time"":8403.699999988079},{""page_index"":8,""viewing_time"":4568.399999976158}]","77717.59999996424","","","","","","","","","","","","","","","","","","","","","","","",""
"pit-comprehension","103","834019","0.0-2.0-20.0-0.0","battery-v0.2","","""event"",""trial"",""time""
""fullscreenenter"",""1"",""3762""
","
","
","""event"",""trial"",""time""
""fullscreenenter"",""1"",""3762""
","
","","","4787.600000023842","[""SPACE""]","0","12","6360","2151","","","","","","","","","","","","","","","","","","",""
"pit-instructions","104","836642","0.0-2.0-20.0-1.0","battery-v0.2","","""event"",""trial"",""time""
""fullscreenenter"",""1"",""3762""
","
","
","""event"",""trial"",""time""
""fullscreenenter"",""1"",""3762""
","
","","[{""page_index"":0,""viewing_time"":2589.199999988079}]","2589.5","","","","","","","","","","","","","","","","","","","","","","","",""
"pit-comprehension","105","843430","0.0-2.0-21.0-0.0","battery-v0.2","","""event"",""trial"",""time""
""fullscreenenter"",""1"",""3762""
","
","
","""event"",""trial"",""time""
""fullscreenenter"",""1"",""3762""
","
","","","6786.300000011921","[""10""]","0","12","6360","2151","","","","","","","","","","","","","","","","","","",""
"pit-instructions","106","846275","0.0-2.0-21.0-1.0","battery-v0.2","","""event"",""trial"",""time""
""fullscreenenter"",""1"",""3762""
","
","
","""event"",""trial"",""time""
""fullscreenenter"",""1"",""3762""
","
","","[{""page_index"":0,""viewing_time"":2814.300000011921}]","2814.600000023842","","","","","","","","","","","","","","","","","","","","","","","",""
"pit-comprehension","107","852859","0.0-2.0-22.0-0.0","battery-v0.2","","""event"",""trial"",""time""
""fullscreenenter"",""1"",""3762""
","
","
","""event"",""trial"",""time""
""fullscreenenter"",""1"",""3762""
","
","","","6582.199999988079","[""0""]","0","12","6360","2151","","","","","","","","","","","","","","","","","","",""
"pit-instructions","108","854367","0.0-2.0-22.0-1.0","battery-v0.2","","""event"",""trial"",""time""
""fullscreenenter"",""1"",""3762""
","
","
","""event"",""trial"",""time""
""fullscreenenter"",""1"",""3762""
","
","","[{""page_index"":0,""viewing_time"":1476.5}]","1476.800000011921","","","","","","","","","","","","","","","","","","","","","","","",""
"pit-comprehension","109","862847","0.0-2.0-23.0-0.0","battery-v0.2","","""event"",""trial"",""time""
""fullscreenenter"",""1"",""3762""
","
","
","""event"",""trial"",""time""
""fullscreenenter"",""1"",""3762""
","
","","","8478.100000023842","[""True""]","0","12","6360","2151","","","","","","","","","","","","","","","","","","",""
"pit-instructions","110","864985","0.0-2.0-23.0-1.0","battery-v0.2","","""event"",""trial"",""time""
""fullscreenenter"",""1"",""3762""
","
","
","""event"",""trial"",""time""
""fullscreenenter"",""1"",""3762""
","
","","[{""page_index"":0,""viewing_time"":2102.699999988079}]","2103","","","","","","","","","","","","","","","","","","","","","","","",""
"pit-comprehension","111","872902","0.0-2.0-24.0-0.0","battery-v0.2","","""event"",""trial"",""time""
""fullscreenenter"",""1"",""3762""
","
","
","""event"",""trial"",""time""
""fullscreenenter"",""1"",""3762""
","
","","","7915.5","[""True""]","0","12","6360","2151","","","","","","","","","","","","","","","","","","",""
"pit-instructions","112","875629","0.0-2.0-24.0-1.0","battery-v0.2","","""event"",""trial"",""time""
""fullscreenenter"",""1"",""3762""
","
","
","""event"",""trial"",""time""
""fullscreenenter"",""1"",""3762""
","
","","[{""page_index"":0,""viewing_time"":2695.599999964237}]","2695.800000011921","","","","","","","","","","","","","","","","","","","","","","","",""
"pit-comprehension","113","883073","0.0-2.0-25.0-0.0","battery-v0.2","","""event"",""trial"",""time""
""fullscreenenter"",""1"",""3762""
","
","
","""event"",""trial"",""time""
""fullscreenenter"",""1"",""3762""
","
","","","7442.400000035763","[""True""]","0","12","6360","2151","","","","","","","","","","","","","","","","","","",""
"pit-instructions","114","886024","0.0-2.0-25.0-1.0","battery-v0.2","","""event"",""trial"",""time""
""fullscreenenter"",""1"",""3762""
","
","
","""event"",""trial"",""time""
""fullscreenenter"",""1"",""3762""
","
","","[{""page_index"":0,""viewing_time"":2919.399999976158}]","2919.699999988079","","","","","","","","","","","","","","","","","","","","","","","",""
"pit-comprehension","115","891748","0.0-2.0-26.0-0.0","battery-v0.2","","""event"",""trial"",""time""
""fullscreenenter"",""1"",""3762""
","
","
","""event"",""trial"",""time""
""fullscreenenter"",""1"",""3762""
","
","","","5721.599999964237","[""False""]","0","12","6360","2151","","","","","","","","","","","","","","","","","","",""
"pit-instructions","116","893421","0.0-2.0-26.0-1.0","battery-v0.2","","""event"",""trial"",""time""
""fullscreenenter"",""1"",""3762""
","
","
","""event"",""trial"",""time""
""fullscreenenter"",""1"",""3762""
","
","","[{""page_index"":0,""viewing_time"":1641.300000011921}]","1641.5","","","","","","","","","","","","","","","","","","","","","","","",""
"pit-instructions","117","911468","0.0-3.0","battery-v0.2","","""event"",""trial"",""time""
""fullscreenenter"",""1"",""3762""
","
","
","""event"",""trial"",""time""
""fullscreenenter"",""1"",""3762""
","
","","[{""page_index"":0,""viewing_time"":4525.100000023842},{""page_index"":1,""viewing_time"":5321.899999976158},{""page_index"":2,""viewing_time"":8198.800000011921}]","18046.19999998808","","","","","","","","","","","","","","","","","","","","","","","",""
"pit-trial","118","915242","0.0-4.0","battery-v0.2","","""event"",""trial"",""time""
""fullscreenenter"",""1"",""3762""
","
","
","""event"",""trial"",""time""
""fullscreenenter"",""1"",""3762""
","
","","","901.1999999880791","","","12","6360","2151","&#9728;","elianto","#f73b6a7A","-1"," ","0","-10","[1758.300000011921]","1","1","","","6360","1","0","4","lose","no-go","0"
"pit-trial","119","918686","0.0-5.0","battery-v0.2","","""event"",""trial"",""time""
""fullscreenenter"",""1"",""3762""
","
","
","""event"",""trial"",""time""
""fullscreenenter"",""1"",""3762""
","
","","","581.4000000357628","","","12","6360","2151","&#9752;","elianto","#f73b6a7A"," "," ","1","0","[1436.5999999642372]","1","1","","","6360","2","3","3","lose","go","0"
"pit-trial","120","922006","0.0-6.0","battery-v0.2","","""event"",""trial"",""time""
""fullscreenenter"",""1"",""3762""
","
","
","""event"",""trial"",""time""
""fullscreenenter"",""1"",""3762""
","
","","","457","","","12","6360","2151","&#9733;","elianto","#3366ff99","-1"," ","0","0","[1310.199999988079]","1","1","","","6360","3","2","2","win","no-go","0"
"pit-trial","121","925377","0.0-7.0","battery-v0.2","","""event"",""trial"",""time""
""fullscreenenter"",""1"",""3762""
","
","
","""event"",""trial"",""time""
""fullscreenenter"",""1"",""3762""
","
","","","504.0999999642372","","","12","6360","2151","&#9730;","elianto","#3366ff99"," "," ","1","+10","[1359.5999999642372]","1","1","","","6360","4","1","1","win","go","0"
"pit-trial","122","929022","0.0-8.0","battery-v0.2","","""event"",""trial"",""time""
""fullscreenenter"",""1"",""3762""
","
","
","""event"",""trial"",""time""
""fullscreenenter"",""1"",""3762""
","
","","","783.1999999880791","","","12","6360","2151","&#9728;","elianto","#f73b6a7A","-1"," ","0","-10","[1635]","1","1","","","6360","5","0","4","lose","no-go","0"
"pit-trial","123","932440","0.0-9.0","battery-v0.2","","""event"",""trial"",""time""
""fullscreenenter"",""1"",""3762""
","
","
","""event"",""trial"",""time""
""fullscreenenter"",""1"",""3762""
","
","","","557.3999999761581","","","12","6360","2151","&#9733;","elianto","#3366ff99","-1"," ","0","0","[1411.199999988079]","1","1","","","6360","6","2","2","win","no-go","0"
"pit-trial","124","936065","0.0-10.0","battery-v0.2","","""event"",""trial"",""time""
""fullscreenenter"",""1"",""3762""
","
","
","""event"",""trial"",""time""
""fullscreenenter"",""1"",""3762""
","
","","","760.8999999761581","","","12","6360","2151","&#9730;","elianto","#3366ff99"," "," ","1","+10","[1612.6000000238419]","1","1","","","6360","7","1","1","win","go","0"
"pit-trial","125","939577","0.0-11.0","battery-v0.2","","""event"",""trial"",""time""
""fullscreenenter"",""1"",""3762""
","
","
","""event"",""trial"",""time""
""fullscreenenter"",""1"",""3762""
","
","","","640.6000000238419","","","12","6360","2151","&#9752;","elianto","#f73b6a7A"," "," ","1","0","[1501.9000000357628]","1","1","","","6360","8","3","3","lose","go","0"
"pit-trial","126","943134","0.0-12.0","battery-v0.2","","""event"",""trial"",""time""
""fullscreenenter"",""1"",""3762""
","
","
","""event"",""trial"",""time""
""fullscreenenter"",""1"",""3762""
","
","","","694.9000000357628","","","12","6360","2151","&#9730;","elianto","#3366ff99"," "," ","1","+10","[1545.3999999761581]","1","1","","","6360","9","1","1","win","go","0"
"pit-trial","127","947064","0.0-13.0","battery-v0.2","","""event"",""trial"",""time""
""fullscreenenter"",""1"",""3762""
","
","
","""event"",""trial"",""time""
""fullscreenenter"",""1"",""3762""
","
","","","1062","","","12","6360","2151","&#9728;","elianto","#f73b6a7A","-1"," ","0","-10","[1919]","1","1","","","6360","10","0","4","lose","no-go","0"
"pit-trial","128","950568","0.0-14.0","battery-v0.2","","""event"",""trial"",""time""
""fullscreenenter"",""1"",""3762""
","
","
","""event"",""trial"",""time""
""fullscreenenter"",""1"",""3762""
","
","","","646.3999999761581","","","12","6360","2151","&#9733;","elianto","#3366ff99","-1"," ","0","0","[1496.699999988079]","1","1","","","6360","11","2","2","win","no-go","0"
"pit-trial","129","955080","0.0-15.0","battery-v0.2","","""event"",""trial"",""time""
""fullscreenenter"",""1"",""3762""
","
","
","""event"",""trial"",""time""
""fullscreenenter"",""1"",""3762""
","
","","","1637.8999999761581","","","12","6360","2151","&#9752;","elianto","#f73b6a7A"," "," ","1","0","[2498.600000023842]","1","1","","","6360","12","3","3","lose","go","0"
"pit-trial","130","959949","0.0-16.0","battery-v0.2","","""event"",""trial"",""time""
""fullscreenenter"",""1"",""3762""
","
","
","""event"",""trial"",""time""
""fullscreenenter"",""1"",""3762""
","
","","","-1","","","12","6360","2151","&#9728;","elianto","#f73b6a7A","-1","-1","1","0","[]","0","1","","","6360","13","0","4","lose","no-go","0"
"pit-trial","131","963367","0.0-17.0","battery-v0.2","","""event"",""trial"",""time""
""fullscreenenter"",""1"",""3762""
","
","
","""event"",""trial"",""time""
""fullscreenenter"",""1"",""3762""
","
","","","559.1999999880791","","","12","6360","2151","&#9733;","elianto","#3366ff99","-1"," ","0","0","[1411.800000011921]","1","1","","","6360","14","2","2","win","no-go","0"
"pit-trial","132","967319","0.0-18.0","battery-v0.2","","""event"",""trial"",""time""
""fullscreenenter"",""1"",""3762""
","
","
","""event"",""trial"",""time""
""fullscreenenter"",""1"",""3762""
","
","","","1092.800000011921","","","12","6360","2151","&#9752;","elianto","#f73b6a7A"," "," ","1","0","[1943.3999999761581]","1","1","","","6360","15","3","3","lose","go","0"
"pit-trial","133","970876","0.0-19.0","battery-v0.2","","""event"",""trial"",""time""
""fullscreenenter"",""1"",""3762""
","
","
","""event"",""trial"",""time""
""fullscreenenter"",""1"",""3762""
","
","","","690.9000000357628","","","12","6360","2151","&#9730;","elianto","#3366ff99"," "," ","1","+10","[1548.199999988079]","1","1","","","6360","16","1","1","win","go","0"
"pit-trial","134","975148","0.0-20.0","battery-v0.2","","""event"",""trial"",""time""
""fullscreenenter"",""1"",""3762""
","
","
","""event"",""trial"",""time""
""fullscreenenter"",""1"",""3762""
","
","","","1410.3999999761581","","","12","6360","2151","&#9728;","elianto","#f73b6a7A","-1"," ","0","-10","[2261]","1","1","","","6360","17","0","4","lose","no-go","0"
"pit-trial","135","979212","0.0-21.0","battery-v0.2","","""event"",""trial"",""time""
""fullscreenenter"",""1"",""3762""
","
","
","""event"",""trial"",""time""
""fullscreenenter"",""1"",""3762""
","
","","","1207.8999999761581","","","12","6360","2151","&#9730;","elianto","#3366ff99"," "," ","1","+10","[2062.399999976158]","1","1","","","6360","18","1","1","win","go","0"
"pit-trial","136","983319","0.0-22.0","battery-v0.2","","""event"",""trial"",""time""
""fullscreenenter"",""1"",""3762""
","
","
","""event"",""trial"",""time""
""fullscreenenter"",""1"",""3762""
","
","","","1241.7000000476837","","","12","6360","2151","&#9752;","elianto","#f73b6a7A"," "," ","1","0","[2096.2000000476837]","1","1","","","6360","19","3","3","lose","go","0"
"pit-trial","137","986940","0.0-23.0","battery-v0.2","","""event"",""trial"",""time""
""fullscreenenter"",""1"",""3762""
","
","
","""event"",""trial"",""time""
""fullscreenenter"",""1"",""3762""
","
","","","756","","","12","6360","2151","&#9733;","elianto","#3366ff99","-1"," ","0","0","[1613.300000011921]","1","1","","","6360","20","2","2","win","no-go","0"
"pit-instructions","138","999780","0.0-24.0","battery-v0.2","","""event"",""trial"",""time""
""fullscreenenter"",""1"",""3762""
","
","
","""event"",""trial"",""time""
""fullscreenenter"",""1"",""3762""
","
","","[{""page_index"":0,""viewing_time"":5678.200000047684},{""page_index"":1,""viewing_time"":7160.899999976158}]","12839.5","","","","","","","","","","","","","","","","","","","","","","","",""
"pit-trial","139","1003454","0.0-25.0","battery-v0.2","","""event"",""trial"",""time""
""fullscreenenter"",""1"",""3762""
","
","
","""event"",""trial"",""time""
""fullscreenenter"",""1"",""3762""
","
","","","806.4000000357628","","","12","6360","2151","b","elianto","#f73b6a7A","-1"," ","0","-10","[1658.800000011921,2410.2000000476837]","2","2","","","6360","21","3","4","lose","no-go","0"
"pit-trial","140","1006885","0.0-26.0","battery-v0.2","","""event"",""trial"",""time""
""fullscreenenter"",""1"",""3762""
","
","
","""event"",""trial"",""time""
""fullscreenenter"",""1"",""3762""
","
","","","565.6999999880791","","","12","6360","2151","f","elianto","#3366ff99","-1"," ","0","+10","[1420]","1","2","","","6360","22","1","2","win","no-go","1"
"pit-trial","141","1010666","0.0-27.0","battery-v0.2","","""event"",""trial"",""time""
""fullscreenenter"",""1"",""3762""
","
","
","""event"",""trial"",""time""
""fullscreenenter"",""1"",""3762""
","
","","","923.5","","","12","6360","2151","n","elianto","#f73b6a7A"," "," ","1","0","[1774.300000011921]","1","2","","","6360","23","0","3","lose","go","0"
"pit-trial","142","1014274","0.0-28.0","battery-v0.2","","""event"",""trial"",""time""
""fullscreenenter"",""1"",""3762""
","
","
","""event"",""trial"",""time""
""fullscreenenter"",""1"",""3762""
","
","","","748.9000000357628","","","12","6360","2151","t","elianto","#f73b6a7A"," "," ","1","0","[1602.4000000357628]","1","2","","","6360","24","2","3","lose","go","0"
"pit-trial","143","1017684","0.0-29.0","battery-v0.2","","""event"",""trial"",""time""
""fullscreenenter"",""1"",""3762""
","
","
","""event"",""trial"",""time""
""fullscreenenter"",""1"",""3762""
","
","","","548","","","12","6360","2151","f","elianto","#3366ff99","-1"," ","0","+10","[1399.300000011921]","1","2","","","6360","25","1","2","win","no-go","1"
"pit-trial","144","1021642","0.0-30.0","battery-v0.2","","""event"",""trial"",""time""
""fullscreenenter"",""1"",""3762""
","
","
","""event"",""trial"",""time""
""fullscreenenter"",""1"",""3762""
","
","","","1099.5999999642372","","","12","6360","2151","b","elianto","#f73b6a7A","-1"," ","0","-10","[1953.8999999761581]","1","2","","","6360","26","3","4","lose","no-go","0"
"pit-trial","145","1025085","0.0-31.0","battery-v0.2","","""event"",""trial"",""time""
""fullscreenenter"",""1"",""3762""
","
","
","""event"",""trial"",""time""
""fullscreenenter"",""1"",""3762""
","
","","","579.4000000357628","","","12","6360","2151","n","elianto","#f73b6a7A"," "," ","1","0","[1431.300000011921]","1","2","","","6360","27","0","3","lose","go","0"
"pit-trial","146","1029178","0.0-32.0","battery-v0.2","","""event"",""trial"",""time""
""fullscreenenter"",""1"",""3762""
","
","
","""event"",""trial"",""time""
""fullscreenenter"",""1"",""3762""
","
","","","1237","","","12","6360","2151","t","elianto","#f73b6a7A"," "," ","1","0","[2090.399999976158]","1","2","","","6360","28","2","3","lose","go","0"
"pit-trial","147","1032986","0.0-33.0","battery-v0.2","","""event"",""trial"",""time""
""fullscreenenter"",""1"",""3762""
","
","
","""event"",""trial"",""time""
""fullscreenenter"",""1"",""3762""
","
","","","953.6999999880791","","","12","6360","2151","b","elianto","#f73b6a7A","-1"," ","0","-10","[1803.699999988079]","1","2","","","6360","29","3","4","lose","no-go","0"
"pit-trial","148","1036532","0.0-34.0","battery-v0.2","","""event"",""trial"",""time""
""fullscreenenter"",""1"",""3762""
","
","
","""event"",""trial"",""time""
""fullscreenenter"",""1"",""3762""
","
","","","679.8999999761581","","","12","6360","2151","n","elianto","#f73b6a7A"," "," ","1","0","[1533.699999988079]","1","2","","","6360","30","0","3","lose","go","0"
"pit-trial","149","1039977","0.0-35.0","battery-v0.2","","""event"",""trial"",""time""
""fullscreenenter"",""1"",""3762""
","
","
","""event"",""trial"",""time""
""fullscreenenter"",""1"",""3762""
","
","","","578.5","","","12","6360","2151","f","elianto","#3366ff99","-1"," ","0","0","[1439.5]","1","2","","","6360","31","1","2","win","no-go","0"
"pit-trial","150","1043945","0.0-36.0","battery-v0.2","","""event"",""trial"",""time""
""fullscreenenter"",""1"",""3762""
","
","
","""event"",""trial"",""time""
""fullscreenenter"",""1"",""3762""
","
","","","1107.300000011921","","","12","6360","2151","t","elianto","#f73b6a7A"," "," ","1","0","[1963.9000000357628]","1","2","","","6360","32","2","3","lose","go","0"
"pit-trial","151","1047609","0.0-37.0","battery-v0.2","","""event"",""trial"",""time""
""fullscreenenter"",""1"",""3762""
","
","
","""event"",""trial"",""time""
""fullscreenenter"",""1"",""3762""
","
","","","802.5","","","12","6360","2151","f","elianto","#3366ff99","-1"," ","0","0","[1656.699999988079]","1","2","","","6360","33","1","2","win","no-go","0"
"pit-trial","152","1052473","0.0-38.0","battery-v0.2","","""event"",""trial"",""time""
""fullscreenenter"",""1"",""3762""
","
","
","""event"",""trial"",""time""
""fullscreenenter"",""1"",""3762""
","
","","","-1","","","12","6360","2151","b","elianto","#f73b6a7A","-1","-1","1","0","[]","0","2","","","6360","34","3","4","lose","no-go","0"
"pit-trial","153","1056076","0.0-39.0","battery-v0.2","","""event"",""trial"",""time""
""fullscreenenter"",""1"",""3762""
","
","
","""event"",""trial"",""time""
""fullscreenenter"",""1"",""3762""
","
","","","746.4000000357628","","","12","6360","2151","n","elianto","#f73b6a7A"," "," ","1","0","[1598.199999988079]","1","2","","","6360","35","0","3","lose","go","0"
"pit-trial","154","1060003","0.0-40.0","battery-v0.2","","""event"",""trial"",""time""
""fullscreenenter"",""1"",""3762""
","
","
","""event"",""trial"",""time""
""fullscreenenter"",""1"",""3762""
","
","","","1062.800000011921","","","12","6360","2151","t","elianto","#f73b6a7A"," "," ","1","-10","[1913.4000000357628]","1","2","","","6360","36","2","3","lose","go","1"
"pit-trial","155","1063971","0.0-41.0","battery-v0.2","","""event"",""trial"",""time""
""fullscreenenter"",""1"",""3762""
","
","
","""event"",""trial"",""time""
""fullscreenenter"",""1"",""3762""
","
","","","1098.199999988079","","","12","6360","2151","n","elianto","#f73b6a7A"," "," ","1","0","[1953.699999988079]","1","2","","","6360","37","0","3","lose","go","0"
"pit-trial","156","1068839","0.0-42.0","battery-v0.2","","""event"",""trial"",""time""
""fullscreenenter"",""1"",""3762""
","
","
","""event"",""trial"",""time""
""fullscreenenter"",""1"",""3762""
","
","","","-1","","","12","6360","2151","b","elianto","#f73b6a7A","-1","-1","1","0","[]","0","2","","","6360","38","3","4","lose","no-go","0"
"pit-trial","157","1072642","0.0-43.0","battery-v0.2","","""event"",""trial"",""time""
""fullscreenenter"",""1"",""3762""
","
","
","""event"",""trial"",""time""
""fullscreenenter"",""1"",""3762""
","
","","","943.0999999642372","","","12","6360","2151","t","elianto","#f73b6a7A"," "," ","1","0","[1795.0999999642372]","1","2","","","6360","39","2","3","lose","go","0"
"pit-trial","158","1076067","0.0-44.0","battery-v0.2","","""event"",""trial"",""time""
""fullscreenenter"",""1"",""3762""
","
","
","""event"",""trial"",""time""
""fullscreenenter"",""1"",""3762""
","
","","","563.3999999761581","","","12","6360","2151","f","elianto","#3366ff99","-1"," ","0","0","[1414.0999999642372]","1","2","","","6360","40","1","2","win","no-go","0"
"pit-trial","159","1079848","0.0-45.0","battery-v0.2","","""event"",""trial"",""time""
""fullscreenenter"",""1"",""3762""
","
","
","""event"",""trial"",""time""
""fullscreenenter"",""1"",""3762""
","
","","","913.9000000357628","","","12","6360","2151","t","elianto","#f73b6a7A"," "," ","1","0","[1771.9000000357628]","1","2","","","6360","41","2","3","lose","go","0"
"pit-trial","160","1083384","0.0-46.0","battery-v0.2","","""event"",""trial"",""time""
""fullscreenenter"",""1"",""3762""
","
","
","""event"",""trial"",""time""
""fullscreenenter"",""1"",""3762""
","
","","","673.4000000357628","","","12","6360","2151","n","elianto","#f73b6a7A"," "," ","1","0","[1530]","1","2","","","6360","42","0","3","lose","go","0"
"pit-trial","161","1088247","0.0-47.0","battery-v0.2","","""event"",""trial"",""time""
""fullscreenenter"",""1"",""3762""
","
","
","""event"",""trial"",""time""
""fullscreenenter"",""1"",""3762""
","
","","","-1","","","12","6360","2151","b","elianto","#f73b6a7A","-1","-1","1","-10","[]","0","2","","","6360","43","3","4","lose","no-go","1"
"pit-trial","162","1091943","0.0-48.0","battery-v0.2","","""event"",""trial"",""time""
""fullscreenenter"",""1"",""3762""
","
","
","""event"",""trial"",""time""
""fullscreenenter"",""1"",""3762""
","
","","","829.6999999880791","","","12","6360","2151","f","elianto","#3366ff99","-1"," ","0","0","[1685.8999999761581]","1","2","","","6360","44","1","2","win","no-go","0"
"pit-trial","163","1096807","0.0-49.0","battery-v0.2","","""event"",""trial"",""time""
""fullscreenenter"",""1"",""3762""
","
","
","""event"",""trial"",""time""
""fullscreenenter"",""1"",""3762""
","
","","","-1","","","12","6360","2151","b","elianto","#f73b6a7A","-1","-1","1","0","[]","0","2","","","6360","45","3","4","lose","no-go","0"
"pit-trial","164","1100342","0.0-50.0","battery-v0.2","","""event"",""trial"",""time""
""fullscreenenter"",""1"",""3762""
","
","
","""event"",""trial"",""time""
""fullscreenenter"",""1"",""3762""
","
","","","678.7999999523163","","","12","6360","2151","t","elianto","#f73b6a7A"," "," ","1","0","[1529.5999999642372]","1","2","","","6360","46","2","3","lose","go","0"
"pit-trial","165","1103969","0.0-51.0","battery-v0.2","","""event"",""trial"",""time""
""fullscreenenter"",""1"",""3762""
","
","
","""event"",""trial"",""time""
""fullscreenenter"",""1"",""3762""
","
","","","758.8999999761581","","","12","6360","2151","f","elianto","#3366ff99","-1"," ","0","0","[1616.0999999642372]","1","2","","","6360","47","1","2","win","no-go","0"
"pit-trial","166","1107697","0.0-52.0","battery-v0.2","","""event"",""trial"",""time""
""fullscreenenter"",""1"",""3762""
","
","
","""event"",""trial"",""time""
""fullscreenenter"",""1"",""3762""
","
","","","863.2000000476837","","","12","6360","2151","n","elianto","#f73b6a7A"," "," ","1","0","[1715.6000000238419]","1","2","","","6360","48","0","3","lose","go","0"
"pit-trial","167","1112566","0.0-53.0","battery-v0.2","","""event"",""trial"",""time""
""fullscreenenter"",""1"",""3762""
","
","
","""event"",""trial"",""time""
""fullscreenenter"",""1"",""3762""
","
","","","-1","","","12","6360","2151","b","elianto","#f73b6a7A","-1","-1","1","0","[]","0","2","","","6360","49","3","4","lose","no-go","0"
"pit-trial","168","1116273","0.0-54.0","battery-v0.2","","""event"",""trial"",""time""
""fullscreenenter"",""1"",""3762""
","
","
","""event"",""trial"",""time""
""fullscreenenter"",""1"",""3762""
","
","","","843.3000000119209","","","12","6360","2151","n","elianto","#f73b6a7A"," "," ","1","0","[1699.7000000476837]","1","2","","","6360","50","0","3","lose","go","0"
"pit-trial","169","1121142","0.0-55.0","battery-v0.2","","""event"",""trial"",""time""
""fullscreenenter"",""1"",""3762""
","
","
","""event"",""trial"",""time""
""fullscreenenter"",""1"",""3762""
","
","","","-1","","","12","6360","2151","f","elianto","#3366ff99","-1","-1","1","+10","[]","0","2","","","6360","51","1","2","win","no-go","0"
"pit-trial","170","1124769","0.0-56.0","battery-v0.2","","""event"",""trial"",""time""
""fullscreenenter"",""1"",""3762""
","
","
","""event"",""trial"",""time""
""fullscreenenter"",""1"",""3762""
","
","","","761.3999999761581","","","12","6360","2151","t","elianto","#f73b6a7A"," "," ","1","-10","[1617.699999988079]","1","2","","","6360","52","2","3","lose","go","1"
"pit-trial","171","1128336","0.0-57.0","battery-v0.2","","""event"",""trial"",""time""
""fullscreenenter"",""1"",""3762""
","
","
","""event"",""trial"",""time""
""fullscreenenter"",""1"",""3762""
","
","","","705.1999999880791","","","12","6360","2151","b","elianto","#f73b6a7A","-1"," ","0","-10","[1558.199999988079]","1","2","","","6360","53","3","4","lose","no-go","0"
"pit-trial","172","1133206","0.0-58.0","battery-v0.2","","""event"",""trial"",""time""
""fullscreenenter"",""1"",""3762""
","
","
","""event"",""trial"",""time""
""fullscreenenter"",""1"",""3762""
","
","","","-1","","","12","6360","2151","f","elianto","#3366ff99","-1","-1","1","0","[]","0","2","","","6360","54","1","2","win","no-go","1"
"pit-trial","173","1136997","0.0-59.0","battery-v0.2","","""event"",""trial"",""time""
""fullscreenenter"",""1"",""3762""
","
","
","""event"",""trial"",""time""
""fullscreenenter"",""1"",""3762""
","
","","","933.3000000119209","","","12","6360","2151","t","elianto","#f73b6a7A"," "," ","1","0","[1784]","1","2","","","6360","55","2","3","lose","go","0"
"pit-trial","174","1140720","0.0-60.0","battery-v0.2","","""event"",""trial"",""time""
""fullscreenenter"",""1"",""3762""
","
","
","""event"",""trial"",""time""
""fullscreenenter"",""1"",""3762""
","
","","","854.5999999642372","","","12","6360","2151","n","elianto","#f73b6a7A"," "," ","1","0","[1711.3999999761581]","1","2","","","6360","56","0","3","lose","go","0"
"pit-trial","175","1144693","0.0-61.0","battery-v0.2","","""event"",""trial"",""time""
""fullscreenenter"",""1"",""3762""
","
","
","""event"",""trial"",""time""
""fullscreenenter"",""1"",""3762""
","
","","","1116.5","","","12","6360","2151","t","elianto","#f73b6a7A"," "," ","1","0","[1968]","1","2","","","6360","57","2","3","lose","go","0"
"pit-trial","176","1148453","0.0-62.0","battery-v0.2","","""event"",""trial"",""time""
""fullscreenenter"",""1"",""3762""
","
","
","""event"",""trial"",""time""
""fullscreenenter"",""1"",""3762""
","
","","","892.6999999880791","","","12","6360","2151","n","elianto","#f73b6a7A"," "," ","1","-10","[1749.2999999523163]","1","2","","","6360","58","0","3","lose","go","1"
"pit-trial","177","1153316","0.0-63.0","battery-v0.2","","""event"",""trial"",""time""
""fullscreenenter"",""1"",""3762""
","
","
","""event"",""trial"",""time""
""fullscreenenter"",""1"",""3762""
","
","","","-1","","","12","6360","2151","b","elianto","#f73b6a7A","-1","-1","1","0","[]","0","2","","","6360","59","3","4","lose","no-go","0"
"pit-trial","178","1156965","0.0-64.0","battery-v0.2","","""event"",""trial"",""time""
""fullscreenenter"",""1"",""3762""
","
","
","""event"",""trial"",""time""
""fullscreenenter"",""1"",""3762""
","
","","","785.6000000238419","","","12","6360","2151","c","elianto","#3366ff99"," "," ","1","+10","[1640.3999999761581]","1","2","","","6360","60","4","1","win","go","0"
"pit-trial","179","1160831","0.0-65.0","battery-v0.2","","""event"",""trial"",""time""
""fullscreenenter"",""1"",""3762""
","
","
","""event"",""trial"",""time""
""fullscreenenter"",""1"",""3762""
","
","","","1006.3999999761581","","","12","6360","2151","c","elianto","#3366ff99"," "," ","1","0","[1863.5999999642372]","1","2","","","6360","61","4","1","win","go","1"
"pit-trial","180","1164788","0.0-66.0","battery-v0.2","","""event"",""trial"",""time""
""fullscreenenter"",""1"",""3762""
","
","
","""event"",""trial"",""time""
""fullscreenenter"",""1"",""3762""
","
","","","1095.3999999761581","","","12","6360","2151","t","elianto","#f73b6a7A"," "," ","1","0","[1952.5999999642372]","1","2","","","6360","62","2","3","lose","go","0"
"pit-trial","181","1169652","0.0-67.0","battery-v0.2","","""event"",""trial"",""time""
""fullscreenenter"",""1"",""3762""
","
","
","""event"",""trial"",""time""
""fullscreenenter"",""1"",""3762""
","
","","","-1","","","12","6360","2151","b","elianto","#f73b6a7A","-1","-1","1","0","[]","0","2","","","6360","63","3","4","lose","no-go","0"
"pit-trial","182","1173315","0.0-68.0","battery-v0.2","","""event"",""trial"",""time""
""fullscreenenter"",""1"",""3762""
","
","
","""event"",""trial"",""time""
""fullscreenenter"",""1"",""3762""
","
","","","808.3000000119209","","","12","6360","2151","f","elianto","#3366ff99","-1"," ","0","+10","[1659.199999988079]","1","2","","","6360","64","1","2","win","no-go","1"
"pit-trial","183","1177054","0.0-69.0","battery-v0.2","","""event"",""trial"",""time""
""fullscreenenter"",""1"",""3762""
","
","
","""event"",""trial"",""time""
""fullscreenenter"",""1"",""3762""
","
","","","870.5","","","12","6360","2151","z","elianto","#3366ff99","-1"," ","0","+10","[1725.300000011921]","1","2","","","6360","65","5","2","win","no-go","1"
"pit-trial","184","1181918","0.0-70.0","battery-v0.2","","""event"",""trial"",""time""
""fullscreenenter"",""1"",""3762""
","
","
","""event"",""trial"",""time""
""fullscreenenter"",""1"",""3762""
","
","","","-1","","","12","6360","2151","f","elianto","#3366ff99","-1","-1","1","+10","[]","0","2","","","6360","66","1","2","win","no-go","0"
"pit-trial","185","1185741","0.0-71.0","battery-v0.2","","""event"",""trial"",""time""
""fullscreenenter"",""1"",""3762""
","
","
","""event"",""trial"",""time""
""fullscreenenter"",""1"",""3762""
","
","","","956.7999999523163","","","12","6360","2151","c","elianto","#3366ff99"," "," ","1","0","[1809.8999999761581]","1","2","","","6360","67","4","1","win","go","1"
"pit-trial","186","1190606","0.0-72.0","battery-v0.2","","""event"",""trial"",""time""
""fullscreenenter"",""1"",""3762""
","
","
","""event"",""trial"",""time""
""fullscreenenter"",""1"",""3762""
","
","","","-1","","","12","6360","2151","b","elianto","#f73b6a7A","-1","-1","1","-10","[]","0","2","","","6360","68","3","4","lose","no-go","1"
"pit-trial","187","1194307","0.0-73.0","battery-v0.2","","""event"",""trial"",""time""
""fullscreenenter"",""1"",""3762""
","
","
","""event"",""trial"",""time""
""fullscreenenter"",""1"",""3762""
","
","","","840.6000000238419","","","12","6360","2151","f","elianto","#3366ff99","-1"," ","0","0","[1695]","1","2","","","6360","69","1","2","win","no-go","0"
"pit-trial","188","1197987","0.0-74.0","battery-v0.2","","""event"",""trial"",""time""
""fullscreenenter"",""1"",""3762""
","
","
","""event"",""trial"",""time""
""fullscreenenter"",""1"",""3762""
","
","","","814.3000000119209","","","12","6360","2151","z","elianto","#3366ff99","-1"," ","0","0","[1671.199999988079]","1","2","","","6360","70","5","2","win","no-go","0"
"pit-trial","189","1201507","0.0-75.0","battery-v0.2","","""event"",""trial"",""time""
""fullscreenenter"",""1"",""3762""
","
","
","""event"",""trial"",""time""
""fullscreenenter"",""1"",""3762""
","
","","","663","","","12","6360","2151","c","elianto","#3366ff99"," "," ","1","+10","[1517.1000000238419]","1","2","","","6360","71","4","1","win","go","0"
"pit-trial","190","1205485","0.0-76.0","battery-v0.2","","""event"",""trial"",""time""
""fullscreenenter"",""1"",""3762""
","
","
","""event"",""trial"",""time""
""fullscreenenter"",""1"",""3762""
","
","","","1114.699999988079","","","12","6360","2151","t","elianto","#f73b6a7A"," "," ","1","0","[1971.5]","1","2","","","6360","72","2","3","lose","go","0"
"pit-trial","191","1209069","0.0-77.0","battery-v0.2","","""event"",""trial"",""time""
""fullscreenenter"",""1"",""3762""
","
","
","""event"",""trial"",""time""
""fullscreenenter"",""1"",""3762""
","
","","","721.7000000476837","","","12","6360","2151","c","elianto","#3366ff99"," "," ","1","+10","[1571.9000000357628]","1","2","","","6360","73","4","1","win","go","0"
"pit-trial","192","1213266","0.0-78.0","battery-v0.2","","""event"",""trial"",""time""
""fullscreenenter"",""1"",""3762""
","
","
","""event"",""trial"",""time""
""fullscreenenter"",""1"",""3762""
","
","","","1339","","","12","6360","2151","z","elianto","#3366ff99","-1"," ","0","0","[2189.5]","1","2","","","6360","74","5","2","win","no-go","0"
"pit-trial","193","1217250","0.0-79.0","battery-v0.2","","""event"",""trial"",""time""
""fullscreenenter"",""1"",""3762""
","
","
","""event"",""trial"",""time""
""fullscreenenter"",""1"",""3762""
","
","","","1127.699999988079","","","12","6360","2151","f","elianto","#3366ff99","-1"," ","0","0","[1979.300000011921]","1","2","","","6360","75","1","2","win","no-go","0"
"pit-trial","194","1222114","0.0-80.0","battery-v0.2","","""event"",""trial"",""time""
""fullscreenenter"",""1"",""3762""
","
","
","""event"",""trial"",""time""
""fullscreenenter"",""1"",""3762""
","
","","","-1","","","12","6360","2151","b","elianto","#f73b6a7A","-1","-1","1","-10","[]","0","2","","","6360","76","3","4","lose","no-go","1"
"pit-trial","195","1226978","0.0-81.0","battery-v0.2","","""event"",""trial"",""time""
""fullscreenenter"",""1"",""3762""
","
","
","""event"",""trial"",""time""
""fullscreenenter"",""1"",""3762""
","
","","","-1","","","12","6360","2151","b","elianto","#f73b6a7A","-1","-1","1","0","[]","0","2","","","6360","77","3","4","lose","no-go","0"
"pit-trial","196","1230395","0.0-82.0","battery-v0.2","","""event"",""trial"",""time""
""fullscreenenter"",""1"",""3762""
","
","
","""event"",""trial"",""time""
""fullscreenenter"",""1"",""3762""
","
","","","549.5999999642372","","","12","6360","2151","c","elianto","#3366ff99"," "," ","1","+10","[1404.300000011921]","1","2","","","6360","78","4","1","win","go","0"
"pit-trial","197","1233916","0.0-83.0","battery-v0.2","","""event"",""trial"",""time""
""fullscreenenter"",""1"",""3762""
","
","
","""event"",""trial"",""time""
""fullscreenenter"",""1"",""3762""
","
","","","661.1999999880791","","","12","6360","2151","z","elianto","#3366ff99","-1"," ","0","0","[1513.8999999761581]","1","2","","","6360","79","5","2","win","no-go","0"
"pit-trial","198","1237426","0.0-84.0","battery-v0.2","","""event"",""trial"",""time""
""fullscreenenter"",""1"",""3762""
","
","
","""event"",""trial"",""time""
""fullscreenenter"",""1"",""3762""
","
","","","648.5999999642372","","","12","6360","2151","c","elianto","#3366ff99"," "," ","1","0","[1498.699999988079]","1","2","","","6360","80","4","1","win","go","1"
"pit-trial","199","1242289","0.0-85.0","battery-v0.2","","""event"",""trial"",""time""
""fullscreenenter"",""1"",""3762""
","
","
","""event"",""trial"",""time""
""fullscreenenter"",""1"",""3762""
","
","","","-1","","","12","6360","2151","b","elianto","#f73b6a7A","-1","-1","1","0","[87.69999998807907]","1","2","","","6360","81","3","4","lose","no-go","0"
"pit-trial","200","1246977","0.0-86.0","battery-v0.2","","""event"",""trial"",""time""
""fullscreenenter"",""1"",""3762""
","
","
","""event"",""trial"",""time""
""fullscreenenter"",""1"",""3762""
","
","","","1824.300000011921","","","12","6360","2151","y","elianto","#f73b6a7A","-1"," ","0","-10","[2680.7999999523163]","1","2","","","6360","82","7","4","lose","no-go","0"
"pit-trial","201","1250444","0.0-87.0","battery-v0.2","","""event"",""trial"",""time""
""fullscreenenter"",""1"",""3762""
","
","
","""event"",""trial"",""time""
""fullscreenenter"",""1"",""3762""
","
","","","600.3999999761581","","","12","6360","2151","z","elianto","#3366ff99","-1"," ","0","0","[1454.7999999523163]","1","2","","","6360","83","5","2","win","no-go","0"
"pit-trial","202","1254881","0.0-88.0","battery-v0.2","","""event"",""trial"",""time""
""fullscreenenter"",""1"",""3762""
","
","
","""event"",""trial"",""time""
""fullscreenenter"",""1"",""3762""
","
","","","1571.8999999761581","","","12","6360","2151","c","elianto","#3366ff99"," "," ","1","+10","[2428.800000011921]","1","2","","","6360","84","4","1","win","go","0"
"pit-trial","203","1258897","0.0-89.0","battery-v0.2","","""event"",""trial"",""time""
""fullscreenenter"",""1"",""3762""
","
","
","""event"",""trial"",""time""
""fullscreenenter"",""1"",""3762""
","
","","","1155.3999999761581","","","12","6360","2151","h","elianto","#f73b6a7A"," "," ","1","-10","[2009.699999988079]","1","2","","","6360","85","6","3","lose","go","1"
"pit-trial","204","1262515","0.0-90.0","battery-v0.2","","""event"",""trial"",""time""
""fullscreenenter"",""1"",""3762""
","
","
","""event"",""trial"",""time""
""fullscreenenter"",""1"",""3762""
","
","","","751","","","12","6360","2151","z","elianto","#3366ff99","-1"," ","0","+10","[1606.1000000238419]","1","2","","","6360","86","5","2","win","no-go","1"
"pit-trial","205","1266464","0.0-91.0","battery-v0.2","","""event"",""trial"",""time""
""fullscreenenter"",""1"",""3762""
","
","
","""event"",""trial"",""time""
""fullscreenenter"",""1"",""3762""
","
","","","1093.699999988079","","","12","6360","2151","y","elianto","#f73b6a7A","-1"," ","0","-10","[1945]","1","2","","","6360","87","7","4","lose","no-go","0"
"pit-trial","206","1270064","0.0-92.0","battery-v0.2","","""event"",""trial"",""time""
""fullscreenenter"",""1"",""3762""
","
","
","""event"",""trial"",""time""
""fullscreenenter"",""1"",""3762""
","
","","","738.8000000119209","","","12","6360","2151","c","elianto","#3366ff99"," "," ","1","0","[1590.699999988079]","1","2","","","6360","88","4","1","win","go","1"
"pit-trial","207","1274928","0.0-93.0","battery-v0.2","","""event"",""trial"",""time""
""fullscreenenter"",""1"",""3762""
","
","
","""event"",""trial"",""time""
""fullscreenenter"",""1"",""3762""
","
","","","-1","","","12","6360","2151","y","elianto","#f73b6a7A","-1","-1","1","0","[]","0","2","","","6360","89","7","4","lose","no-go","0"
"pit-trial","208","1278671","0.0-94.0","battery-v0.2","","""event"",""trial"",""time""
""fullscreenenter"",""1"",""3762""
","
","
","""event"",""trial"",""time""
""fullscreenenter"",""1"",""3762""
","
","","","882.6000000238419","","","12","6360","2151","c","elianto","#3366ff99"," "," ","1","+10","[1737.699999988079]","1","2","","","6360","90","4","1","win","go","0"
"pit-trial","209","1282609","0.0-95.0","battery-v0.2","","""event"",""trial"",""time""
""fullscreenenter"",""1"",""3762""
","
","
","""event"",""trial"",""time""
""fullscreenenter"",""1"",""3762""
","
","","","1073.5999999642372","","","12","6360","2151","h","elianto","#f73b6a7A"," "," ","1","0","[1930.8999999761581]","1","2","","","6360","91","6","3","lose","go","0"
"pit-trial","210","1286106","0.0-96.0","battery-v0.2","","""event"",""trial"",""time""
""fullscreenenter"",""1"",""3762""
","
","
","""event"",""trial"",""time""
""fullscreenenter"",""1"",""3762""
","
","","","634.0999999642372","","","12","6360","2151","z","elianto","#3366ff99","-1"," ","0","0","[1489.2999999523163]","1","2","","","6360","92","5","2","win","no-go","0"
"pit-trial","211","1289679","0.0-97.0","battery-v0.2","","""event"",""trial"",""time""
""fullscreenenter"",""1"",""3762""
","
","
","""event"",""trial"",""time""
""fullscreenenter"",""1"",""3762""
","
","","","708.3000000119209","","","12","6360","2151","z","elianto","#3366ff99","-1"," ","0","0","[1568.300000011921]","1","2","","","6360","93","5","2","win","no-go","0"
"pit-trial","212","1293546","0.0-98.0","battery-v0.2","","""event"",""trial"",""time""
""fullscreenenter"",""1"",""3762""
","
","
","""event"",""trial"",""time""
""fullscreenenter"",""1"",""3762""
","
","","","1002","","","12","6360","2151","h","elianto","#f73b6a7A"," "," ","1","0","[1853.800000011921]","1","2","","","6360","94","6","3","lose","go","0"
"pit-trial","213","1297210","0.0-99.0","battery-v0.2","","""event"",""trial"",""time""
""fullscreenenter"",""1"",""3762""
","
","
","""event"",""trial"",""time""
""fullscreenenter"",""1"",""3762""
","
","","","799.3999999761581","","","12","6360","2151","r","elianto","#3366ff99"," "," ","1","+10","[1653.8999999761581]","1","2","","","6360","95","8","1","win","go","0"
"pit-trial","214","1301338","0.0-100.0","battery-v0.2","","""event"",""trial"",""time""
""fullscreenenter"",""1"",""3762""
","
","
","""event"",""trial"",""time""
""fullscreenenter"",""1"",""3762""
","
","","","1257.199999988079","","","12","6360","2151","y","elianto","#f73b6a7A","-1"," ","0","0","[2114.599999964237]","1","2","","","6360","96","7","4","lose","no-go","1"
"pit-trial","215","1304847","0.0-101.0","battery-v0.2","","""event"",""trial"",""time""
""fullscreenenter"",""1"",""3762""
","
","
","""event"",""trial"",""time""
""fullscreenenter"",""1"",""3762""
","
","","","637.3999999761581","","","12","6360","2151","z","elianto","#3366ff99","-1"," ","0","+10","[1498.699999988079]","1","2","","","6360","97","5","2","win","no-go","1"
"pit-trial","216","1308792","0.0-102.0","battery-v0.2","","""event"",""trial"",""time""
""fullscreenenter"",""1"",""3762""
","
","
","""event"",""trial"",""time""
""fullscreenenter"",""1"",""3762""
","
","","","1084","","","12","6360","2151","h","elianto","#f73b6a7A"," "," ","1","0","[1935.5999999642372]","1","2","","","6360","98","6","3","lose","go","0"
"pit-trial","217","1312526","0.0-103.0","battery-v0.2","","""event"",""trial"",""time""
""fullscreenenter"",""1"",""3762""
","
","
","""event"",""trial"",""time""
""fullscreenenter"",""1"",""3762""
","
","","","872.6999999880791","","","12","6360","2151","y","elianto","#f73b6a7A","-1"," ","0","0","[1725.5]","1","2","","","6360","99","7","4","lose","no-go","1"
"pit-trial","218","1315945","0.0-104.0","battery-v0.2","","""event"",""trial"",""time""
""fullscreenenter"",""1"",""3762""
","
","
","""event"",""trial"",""time""
""fullscreenenter"",""1"",""3762""
","
","","","550.3999999761581","","","12","6360","2151","r","elianto","#3366ff99"," "," ","1","+10","[1408.199999988079]","1","2","","","6360","100","8","1","win","go","0"
"pit-trial","219","1319353","0.0-105.0","battery-v0.2","","""event"",""trial"",""time""
""fullscreenenter"",""1"",""3762""
","
","
","""event"",""trial"",""time""
""fullscreenenter"",""1"",""3762""
","
","","","543","","","12","6360","2151","z","elianto","#3366ff99","-1"," ","0","0","[1396.1000000238419]","1","2","","","6360","101","5","2","win","no-go","0"
"pit-trial","220","1322926","0.0-106.0","battery-v0.2","","""event"",""trial"",""time""
""fullscreenenter"",""1"",""3762""
","
","
","""event"",""trial"",""time""
""fullscreenenter"",""1"",""3762""
","
","","","712.7999999523163","","","12","6360","2151","r","elianto","#3366ff99"," "," ","1","+10","[1564.5]","1","2","","","6360","102","8","1","win","go","0"
"pit-trial","221","1326542","0.0-107.0","battery-v0.2","","""event"",""trial"",""time""
""fullscreenenter"",""1"",""3762""
","
","
","""event"",""trial"",""time""
""fullscreenenter"",""1"",""3762""
","
","","","755.3000000119209","","","12","6360","2151","y","elianto","#f73b6a7A","-1"," ","0","-10","[1611]","1","2","","","6360","103","7","4","lose","no-go","0"
"pit-trial","222","1330238","0.0-108.0","battery-v0.2","","""event"",""trial"",""time""
""fullscreenenter"",""1"",""3762""
","
","
","""event"",""trial"",""time""
""fullscreenenter"",""1"",""3762""
","
","","","830.5999999642372","","","12","6360","2151","m","elianto","#3366ff99"," "," ","1","0","[1686.199999988079]","1","2","","","6360","104","9","1","win","go","1"
"pit-trial","223","1335102","0.0-109.0","battery-v0.2","","""event"",""trial"",""time""
""fullscreenenter"",""1"",""3762""
","
","
","""event"",""trial"",""time""
""fullscreenenter"",""1"",""3762""
","
","","","-1","","","12","6360","2151","m","elianto","#3366ff99"," ","-1","0","+10","[]","0","2","","","6360","105","9","1","win","go","1"
"pit-trial","224","1338845","0.0-110.0","battery-v0.2","","""event"",""trial"",""time""
""fullscreenenter"",""1"",""3762""
","
","
","""event"",""trial"",""time""
""fullscreenenter"",""1"",""3762""
","
","","","875.8999999761581","","","12","6360","2151","h","elianto","#f73b6a7A"," "," ","1","0","[1732.5]","1","2","","","6360","106","6","3","lose","go","0"
"pit-trial","225","1342397","0.0-111.0","battery-v0.2","","""event"",""trial"",""time""
""fullscreenenter"",""1"",""3762""
","
","
","""event"",""trial"",""time""
""fullscreenenter"",""1"",""3762""
","
","","","690.3999999761581","","","12","6360","2151","r","elianto","#3366ff99"," "," ","1","+10","[1543.800000011921]","1","2","","","6360","107","8","1","win","go","0"
"pit-trial","226","1345885","0.0-112.0","battery-v0.2","","""event"",""trial"",""time""
""fullscreenenter"",""1"",""3762""
","
","
","""event"",""trial"",""time""
""fullscreenenter"",""1"",""3762""
","
","","","627.2000000476837","","","12","6360","2151","c","elianto","#3366ff99"," "," ","1","+10","[1478.9000000357628]","1","2","","","6360","108","4","1","win","go","0"
"pit-trial","227","1349629","0.0-113.0","battery-v0.2","","""event"",""trial"",""time""
""fullscreenenter"",""1"",""3762""
","
","
","""event"",""trial"",""time""
""fullscreenenter"",""1"",""3762""
","
","","","879.8999999761581","","","12","6360","2151","z","elianto","#3366ff99","-1"," ","0","0","[1737.0999999642372]","1","2","","","6360","109","5","2","win","no-go","0"
"pit-trial","228","1353261","0.0-114.0","battery-v0.2","","""event"",""trial"",""time""
""fullscreenenter"",""1"",""3762""
","
","
","""event"",""trial"",""time""
""fullscreenenter"",""1"",""3762""
","
","","","771.3999999761581","","","12","6360","2151","r","elianto","#3366ff99"," "," ","1","+10","[1621.699999988079]","1","2","","","6360","110","8","1","win","go","0"
"pit-trial","229","1356780","0.0-115.0","battery-v0.2","","""event"",""trial"",""time""
""fullscreenenter"",""1"",""3762""
","
","
","""event"",""trial"",""time""
""fullscreenenter"",""1"",""3762""
","
","","","661.9000000357628","","","12","6360","2151","m","elianto","#3366ff99"," "," ","1","+10","[1516.2000000476837]","1","2","","","6360","111","9","1","win","go","0"
"pit-trial","230","1360595","0.0-116.0","battery-v0.2","","""event"",""trial"",""time""
""fullscreenenter"",""1"",""3762""
","
","
","""event"",""trial"",""time""
""fullscreenenter"",""1"",""3762""
","
","","","958.5","","","12","6360","2151","h","elianto","#f73b6a7A"," "," ","1","0","[1810.4000000357628]","1","2","","","6360","112","6","3","lose","go","0"
"pit-trial","231","1364076","0.0-117.0","battery-v0.2","","""event"",""trial"",""time""
""fullscreenenter"",""1"",""3762""
","
","
","""event"",""trial"",""time""
""fullscreenenter"",""1"",""3762""
","
","","","620.3000000119209","","","12","6360","2151","m","elianto","#3366ff99"," "," ","1","+10","[1473.5999999642372]","1","2","","","6360","113","9","1","win","go","0"
"pit-trial","232","1367740","0.0-118.0","battery-v0.2","","""event"",""trial"",""time""
""fullscreenenter"",""1"",""3762""
","
","
","""event"",""trial"",""time""
""fullscreenenter"",""1"",""3762""
","
","","","799.6999999880791","","","12","6360","2151","h","elianto","#f73b6a7A"," "," ","1","0","[1654.699999988079]","1","2","","","6360","114","6","3","lose","go","0"
"pit-trial","233","1371207","0.0-119.0","battery-v0.2","","""event"",""trial"",""time""
""fullscreenenter"",""1"",""3762""
","
","
","""event"",""trial"",""time""
""fullscreenenter"",""1"",""3762""
","
","","","601.8000000119209","","","12","6360","2151","z","elianto","#3366ff99","-1"," ","0","0","[1459]","1","2","","","6360","115","5","2","win","no-go","0"
"pit-trial","234","1374614","0.0-120.0","battery-v0.2","","""event"",""trial"",""time""
""fullscreenenter"",""1"",""3762""
","
","
","""event"",""trial"",""time""
""fullscreenenter"",""1"",""3762""
","
","","","542.3000000119209","","","12","6360","2151","r","elianto","#3366ff99"," "," ","1","+10","[1397.699999988079]","1","2","","","6360","116","8","1","win","go","0"
"pit-trial","235","1378364","0.0-121.0","battery-v0.2","","""event"",""trial"",""time""
""fullscreenenter"",""1"",""3762""
","
","
","""event"",""trial"",""time""
""fullscreenenter"",""1"",""3762""
","
","","","894","","","12","6360","2151","h","elianto","#f73b6a7A"," "," ","1","0","[1744.8999999761581]","1","2","","","6360","117","6","3","lose","go","0"
"pit-trial","236","1381916","0.0-122.0","battery-v0.2","","""event"",""trial"",""time""
""fullscreenenter"",""1"",""3762""
","
","
","""event"",""trial"",""time""
""fullscreenenter"",""1"",""3762""
","
","","","696.5","","","12","6360","2151","m","elianto","#3366ff99"," "," ","1","+10","[1546.9000000357628]","1","2","","","6360","118","9","1","win","go","0"
"pit-trial","237","1385382","0.0-123.0","battery-v0.2","","""event"",""trial"",""time""
""fullscreenenter"",""1"",""3762""
","
","
","""event"",""trial"",""time""
""fullscreenenter"",""1"",""3762""
","
","","","602.9000000357628","","","12","6360","2151","r","elianto","#3366ff99"," "," ","1","+10","[1459.699999988079]","1","2","","","6360","119","8","1","win","go","0"
"pit-trial","238","1390251","0.0-124.0","battery-v0.2","","""event"",""trial"",""time""
""fullscreenenter"",""1"",""3762""
","
","
","""event"",""trial"",""time""
""fullscreenenter"",""1"",""3762""
","
","","","-1","","","12","6360","2151","z","elianto","#3366ff99","-1","-1","1","0","[]","0","2","","","6360","120","5","2","win","no-go","1"
"pit-trial","239","1393878","0.0-125.0","battery-v0.2","","""event"",""trial"",""time""
""fullscreenenter"",""1"",""3762""
","
","
","""event"",""trial"",""time""
""fullscreenenter"",""1"",""3762""
","
","","","759.5","","","12","6360","2151","y","elianto","#f73b6a7A","-1"," ","0","0","[1615.9000000357628]","1","2","","","6360","121","7","4","lose","no-go","1"
"pit-trial","240","1397382","0.0-126.0","battery-v0.2","","""event"",""trial"",""time""
""fullscreenenter"",""1"",""3762""
","
","
","""event"",""trial"",""time""
""fullscreenenter"",""1"",""3762""
","
","","","645.3000000119209","","","12","6360","2151","m","elianto","#3366ff99"," "," ","1","+10","[1496.1000000238419]","1","2","","","6360","122","9","1","win","go","0"
"pit-trial","241","1401094","0.0-127.0","battery-v0.2","","""event"",""trial"",""time""
""fullscreenenter"",""1"",""3762""
","
","
","""event"",""trial"",""time""
""fullscreenenter"",""1"",""3762""
","
","","","839.5","","","12","6360","2151","h","elianto","#f73b6a7A"," "," ","1","-10","[1700.8999999761581]","1","2","","","6360","123","6","3","lose","go","1"
"pit-trial","242","1404741","0.0-128.0","battery-v0.2","","""event"",""trial"",""time""
""fullscreenenter"",""1"",""3762""
","
","
","""event"",""trial"",""time""
""fullscreenenter"",""1"",""3762""
","
","","","789","","","12","6360","2151","r","elianto","#3366ff99"," "," ","1","+10","[1640.0999999642372]","1","2","","","6360","124","8","1","win","go","0"
"pit-trial","243","1408277","0.0-129.0","battery-v0.2","","""event"",""trial"",""time""
""fullscreenenter"",""1"",""3762""
","
","
","""event"",""trial"",""time""
""fullscreenenter"",""1"",""3762""
","
","","","676.6000000238419","","","12","6360","2151","h","elianto","#f73b6a7A"," "," ","1","0","[1528.800000011921]","1","2","","","6360","125","6","3","lose","go","0"
"pit-trial","244","1411781","0.0-130.0","battery-v0.2","","""event"",""trial"",""time""
""fullscreenenter"",""1"",""3762""
","
","
","""event"",""trial"",""time""
""fullscreenenter"",""1"",""3762""
","
","","","643.6999999880791","","","12","6360","2151","m","elianto","#3366ff99"," "," ","1","+10","[1495]","1","2","","","6360","126","9","1","win","go","0"
"pit-trial","245","1415482","0.0-131.0","battery-v0.2","","""event"",""trial"",""time""
""fullscreenenter"",""1"",""3762""
","
","
","""event"",""trial"",""time""
""fullscreenenter"",""1"",""3762""
","
","","","837.4000000357628","","","12","6360","2151","y","elianto","#f73b6a7A","-1"," ","0","0","[1698.800000011921]","1","2","","","6360","127","7","4","lose","no-go","1"
"pit-trial","246","1418858","0.0-132.0","battery-v0.2","","""event"",""trial"",""time""
""fullscreenenter"",""1"",""3762""
","
","
","""event"",""trial"",""time""
""fullscreenenter"",""1"",""3762""
","
","","","508.60000002384186","","","12","6360","2151","r","elianto","#3366ff99"," "," ","1","+10","[1365.3999999761581]","1","2","","","6360","128","8","1","win","go","0"
"pit-trial","247","1422362","0.0-133.0","battery-v0.2","","""event"",""trial"",""time""
""fullscreenenter"",""1"",""3762""
","
","
","""event"",""trial"",""time""
""fullscreenenter"",""1"",""3762""
","
","","","646.9000000357628","","","12","6360","2151","y","elianto","#f73b6a7A","-1"," ","0","-10","[1499.5]","1","2","","","6360","129","7","4","lose","no-go","0"
"pit-trial","248","1425946","0.0-134.0","battery-v0.2","","""event"",""trial"",""time""
""fullscreenenter"",""1"",""3762""
","
","
","""event"",""trial"",""time""
""fullscreenenter"",""1"",""3762""
","
","","","727","","","12","6360","2151","h","elianto","#f73b6a7A"," "," ","1","0","[1578.300000011921]","1","2","","","6360","130","6","3","lose","go","0"
"pit-trial","249","1429268","0.0-135.0","battery-v0.2","","""event"",""trial"",""time""
""fullscreenenter"",""1"",""3762""
","
","
","""event"",""trial"",""time""
""fullscreenenter"",""1"",""3762""
","
","","","465.80000001192093","","","12","6360","2151","m","elianto","#3366ff99"," "," ","1","+10","[1316]","1","2","","","6360","131","9","1","win","go","0"
"pit-trial","250","1432724","0.0-136.0","battery-v0.2","","""event"",""trial"",""time""
""fullscreenenter"",""1"",""3762""
","
","
","""event"",""trial"",""time""
""fullscreenenter"",""1"",""3762""
","
","","","591.4000000357628","","","12","6360","2151","r","elianto","#3366ff99"," "," ","1","+10","[1443.300000011921]","1","2","","","6360","132","8","1","win","go","0"
"pit-trial","251","1436148","0.0-137.0","battery-v0.2","","""event"",""trial"",""time""
""fullscreenenter"",""1"",""3762""
","
","
","""event"",""trial"",""time""
""fullscreenenter"",""1"",""3762""
","
","","","563.5","","","12","6360","2151","h","elianto","#f73b6a7A"," "," ","1","0","[1417.3999999761581]","1","2","","","6360","133","6","3","lose","go","0"
"pit-trial","252","1441017","0.0-138.0","battery-v0.2","","""event"",""trial"",""time""
""fullscreenenter"",""1"",""3762""
","
","
","""event"",""trial"",""time""
""fullscreenenter"",""1"",""3762""
","
","","","-1","","","12","6360","2151","y","elianto","#f73b6a7A","-1","-1","1","0","[376.19999998807907]","1","2","","","6360","134","7","4","lose","no-go","0"
"pit-trial","253","1444372","0.0-139.0","battery-v0.2","","""event"",""trial"",""time""
""fullscreenenter"",""1"",""3762""
","
","
","""event"",""trial"",""time""
""fullscreenenter"",""1"",""3762""
","
","","","486.10000002384186","","","12","6360","2151","m","elianto","#3366ff99"," "," ","1","0","[1343.1000000238419]","1","2","","","6360","135","9","1","win","go","1"
"pit-trial","254","1447465","0.0-140.0","battery-v0.2","","""event"",""trial"",""time""
""fullscreenenter"",""1"",""3762""
","
","
","""event"",""trial"",""time""
""fullscreenenter"",""1"",""3762""
","
","","","230.9000000357628","","","12","6360","2151","r","elianto","#3366ff99"," "," ","1","0","[1085.5999999642372]","1","2","","","6360","136","8","1","win","go","1"
"pit-trial","255","1450969","0.0-141.0","battery-v0.2","","""event"",""trial"",""time""
""fullscreenenter"",""1"",""3762""
","
","
","""event"",""trial"",""time""
""fullscreenenter"",""1"",""3762""
","
","","","638.7000000476837","","","12","6360","2151","y","elianto","#f73b6a7A","-1"," ","0","0","[1495.7000000476837]","1","2","","","6360","137","7","4","lose","no-go","1"
"pit-trial","256","1454375","0.0-142.0","battery-v0.2","","""event"",""trial"",""time""
""fullscreenenter"",""1"",""3762""
","
","
","""event"",""trial"",""time""
""fullscreenenter"",""1"",""3762""
","
","","","547.9000000357628","","","12","6360","2151","r","elianto","#3366ff99"," "," ","1","+10","[1402]","1","2","","","6360","138","8","1","win","go","0"
"pit-trial","257","1457849","0.0-143.0","battery-v0.2","","""event"",""trial"",""time""
""fullscreenenter"",""1"",""3762""
","
","
","""event"",""trial"",""time""
""fullscreenenter"",""1"",""3762""
","
","","","611.3000000119209","","","12","6360","2151","m","elianto","#3366ff99"," "," ","1","+10","[1462.4000000357628]","1","2","","","6360","139","9","1","win","go","0"
"pit-trial","258","1461376","0.0-144.0","battery-v0.2","","""event"",""trial"",""time""
""fullscreenenter"",""1"",""3762""
","
","
","""event"",""trial"",""time""
""fullscreenenter"",""1"",""3762""
","
","","","666.5999999642372","","","12","6360","2151","h","elianto","#f73b6a7A"," "," ","1","0","[1523]","1","2","","","6360","140","6","3","lose","go","0"
"pit-instructions","259","1522691","0.0-145.0","battery-v0.2","","""event"",""trial"",""time""
""fullscreenenter"",""1"",""3762""
","
","
","""event"",""trial"",""time""
""fullscreenenter"",""1"",""3762""
","
","","[{""page_index"":0,""viewing_time"":51644},{""page_index"":1,""viewing_time"":9671.099999964237}]","61315.5","","","","","","","","","","","","","","","","","","","","","","","",""
"pit-trial","260","1526600","0.0-146.0","battery-v0.2","","""event"",""trial"",""time""
""fullscreenenter"",""1"",""3762""
","
","
","""event"",""trial"",""time""
""fullscreenenter"",""1"",""3762""
","
","","","1044.5","","","12","6360","2151","d","elianto","#3366ff99"," "," ","1","+10","[1897.4000000357628]","1","3","","","6360","141","1","1","win","go","0"
"pit-trial","261","1530244","0.0-147.0","battery-v0.2","","""event"",""trial"",""time""
""fullscreenenter"",""1"",""3762""
","
","
","""event"",""trial"",""time""
""fullscreenenter"",""1"",""3762""
","
","","","782.1999999880791","","","12","6360","2151","j","elianto","#f73b6a7A","-1"," ","0","-10","[1638]","1","3","","","6360","142","0","4","lose","no-go","0"
"pit-trial","262","1533789","0.0-148.0","battery-v0.2","","""event"",""trial"",""time""
""fullscreenenter"",""1"",""3762""
","
","
","""event"",""trial"",""time""
""fullscreenenter"",""1"",""3762""
","
","","","679.1000000238419","","","12","6360","2151","w","elianto","#f73b6a7A"," "," ","1","0","[1534.0999999642372]","1","3","","","6360","143","3","3","lose","go","0"
"pit-trial","263","1537669","0.0-149.0","battery-v0.2","","""event"",""trial"",""time""
""fullscreenenter"",""1"",""3762""
","
","
","""event"",""trial"",""time""
""fullscreenenter"",""1"",""3762""
","
","","","1018.2999999523163","","","12","6360","2151","e","elianto","#f73b6a7A","-1"," ","0","-10","[1870.2999999523163]","1","3","","","6360","144","2","4","lose","no-go","0"
"pit-trial","264","1541166","0.0-150.0","battery-v0.2","","""event"",""trial"",""time""
""fullscreenenter"",""1"",""3762""
","
","
","""event"",""trial"",""time""
""fullscreenenter"",""1"",""3762""
","
