"trial_type","trial_index","time_elapsed","internal_node_id","task_version","subject_id","interactions","blur_events","focus_events","fullscreenenter_events","fullscreenexit_events","success","view_history","rt","responses","num_errors","age","subject","participantId","rune","rune_set","hex","correct","choice","accuracy","outcome","keys","total_keys","block","practice","value","sub","trial","stimulus","robot","valence","action","sham"
"pavlovia","0","29","0.0-0.0","battery-v0.2","","""event"",""trial"",""time""
""fullscreenenter"",""1"",""3402""
","
","
","""event"",""trial"",""time""
""fullscreenenter"",""1"",""3402""
","
","","","","","","","","","","","","","","","","","","","","","","","","","","",""
"fullscreen","1","4387","0.0-1.0","battery-v0.2","","""event"",""trial"",""time""
""fullscreenenter"",""1"",""3402""
","
","
","""event"",""trial"",""time""
""fullscreenenter"",""1"",""3402""
","
","true","","","","","","","","","","","","","","","","","","","","","","","","","",""
"pit-instructions","2","10167","0.0-2.0-0.0","battery-v0.2","","""event"",""trial"",""time""
""fullscreenenter"",""1"",""3402""
","
","
","""event"",""trial"",""time""
""fullscreenenter"",""1"",""3402""
","
","","[{""page_index"":0,""viewing_time"":5765.699999999255}]","5767.60000000149","","","","","","","","","","","","","","","","","","","","","","","",""
"pit-comprehension","3","13277","0.0-2.0-1.0-0.0","battery-v0.2","","""event"",""trial"",""time""
""fullscreenenter"",""1"",""3402""
","
","
","""event"",""trial"",""time""
""fullscreenenter"",""1"",""3402""
","
","","","3092.10000000149","[""shark""]","0","14","10239","4842","","","","","","","","","","","","","","","","","","",""
"pit-instructions","4","15369","0.0-2.0-1.0-1.0","battery-v0.2","","""event"",""trial"",""time""
""fullscreenenter"",""1"",""3402""
","
","
","""event"",""trial"",""time""
""fullscreenenter"",""1"",""3402""
","
","","[{""page_index"":0,""viewing_time"":2062.699999999255}]","2064","","","","","","","","","","","","","","","","","","","","","","","",""
"pit-comprehension","5","18526","0.0-2.0-2.0-0.0","battery-v0.2","","""event"",""trial"",""time""
""fullscreenenter"",""1"",""3402""
","
","
","""event"",""trial"",""time""
""fullscreenenter"",""1"",""3402""
","
","","","3138.800000000745","[""tiger""]","0","14","10239","4842","","","","","","","","","","","","","","","","","","",""
"pit-instructions","6","19915","0.0-2.0-2.0-1.0","battery-v0.2","","""event"",""trial"",""time""
""fullscreenenter"",""1"",""3402""
","
","
","""event"",""trial"",""time""
""fullscreenenter"",""1"",""3402""
","
","","[{""page_index"":0,""viewing_time"":1375.5}]","1376.6000000014901","","","","","","","","","","","","","","","","","","","","","","","",""
"pit-instructions","7","131483","0.0-2.0-3.0","battery-v0.2","","""event"",""trial"",""time""
""fullscreenenter"",""1"",""3402""
","
","
","""event"",""trial"",""time""
""fullscreenenter"",""1"",""3402""
","
","","[{""page_index"":0,""viewing_time"":9187},{""page_index"":1,""viewing_time"":8728},{""page_index"":2,""viewing_time"":7380.70000000298},{""page_index"":3,""viewing_time"":6525.79999999702},{""page_index"":4,""viewing_time"":6046.900000002235},{""page_index"":5,""viewing_time"":7501.39999999851},{""page_index"":6,""viewing_time"":7731.900000002235},{""page_index"":7,""viewing_time"":7316.29999999702},{""page_index"":8,""viewing_time"":6222.900000002235},{""page_index"":9,""viewing_time"":9423.300000000745},{""page_index"":10,""viewing_time"":10343},{""page_index"":11,""viewing_time"":9523.89999999851},{""page_index"":12,""viewing_time"":7227.800000000745},{""page_index"":13,""viewing_time"":8383.5}]","111544","","","","","","","","","","","","","","","","","","","","","","","",""
"pit-trial","8","134917","0.0-2.0-4.0-0.0","battery-v0.2","","""event"",""trial"",""time""
""fullscreenenter"",""1"",""3402""
","
","
","""event"",""trial"",""time""
""fullscreenenter"",""1"",""3402""
","
","","","562.1000000014901","","","14","10239","4842","&#9784;","elianto","#FFFFF080"," "," ","1","&#10004","[1417.9000000022352]","1","0","0","","","","","","","",""
"pit-trial","9","138187","0.0-2.0-4.1-0.1","battery-v0.2","","""event"",""trial"",""time""
""fullscreenenter"",""1"",""3402""
","
","
","""event"",""trial"",""time""
""fullscreenenter"",""1"",""3402""
","
","","","403.9000000022352","","","14","10239","4842","&#9784;","elianto","#FFFFF080"," "," ","1","&#10004","[1255.5]","1","0","0","","","","","","","",""
"pit-trial","10","141475","0.0-2.0-4.2-0.2","battery-v0.2","","""event"",""trial"",""time""
""fullscreenenter"",""1"",""3402""
","
","
","""event"",""trial"",""time""
""fullscreenenter"",""1"",""3402""
","
","","","419","","","14","10239","4842","&#9784;","elianto","#FFFFF080"," "," ","1","&#10004","[1272.5]","1","0","0","","","","","","","",""
"pit-trial","11","144755","0.0-2.0-4.3-0.3","battery-v0.2","","""event"",""trial"",""time""
""fullscreenenter"",""1"",""3402""
","
","
","""event"",""trial"",""time""
""fullscreenenter"",""1"",""3402""
","
","","","409.0999999977648","","","14","10239","4842","&#9784;","elianto","#FFFFF080"," "," ","1","&#10004","[1263.5]","1","0","0","","","","","","","",""
"pit-trial","12","148059","0.0-2.0-4.4-0.4","battery-v0.2","","""event"",""trial"",""time""
""fullscreenenter"",""1"",""3402""
","
","
","""event"",""trial"",""time""
""fullscreenenter"",""1"",""3402""
","
","","","440.5999999977648","","","14","10239","4842","&#9784;","elianto","#FFFFF080"," "," ","1","&#10004","[1295.0999999977648]","1","0","0","","","","","","","",""
"pit-instructions","13","172614","0.0-2.0-5.0","battery-v0.2","","""event"",""trial"",""time""
""fullscreenenter"",""1"",""3402""
","
","
","""event"",""trial"",""time""
""fullscreenenter"",""1"",""3402""
","
","","[{""page_index"":0,""viewing_time"":7273.099999997765},{""page_index"":1,""viewing_time"":6607.199999999255},{""page_index"":2,""viewing_time"":5309.800000000745},{""page_index"":3,""viewing_time"":5346.5}]","24537.699999999255","","","","","","","","","","","","","","","","","","","","","","","",""
"pit-trial","14","177483","0.0-2.0-6.0-0.0","battery-v0.2","","""event"",""trial"",""time""
""fullscreenenter"",""1"",""3402""
","
","
","""event"",""trial"",""time""
""fullscreenenter"",""1"",""3402""
","
","","","-1","","","14","10239","4842","&#9854;","elianto","#FFFFF080","-1","-1","1","&#10004","[]","0","0","1","","","","","","","",""
"pit-trial","15","182355","0.0-2.0-6.1-0.1","battery-v0.2","","""event"",""trial"",""time""
""fullscreenenter"",""1"",""3402""
","
","
","""event"",""trial"",""time""
""fullscreenenter"",""1"",""3402""
","
","","","-1","","","14","10239","4842","&#9854;","elianto","#FFFFF080","-1","-1","1","&#10004","[]","0","0","1","","","","","","","",""
"pit-trial","16","187227","0.0-2.0-6.2-0.2","battery-v0.2","","""event"",""trial"",""time""
""fullscreenenter"",""1"",""3402""
","
","
","""event"",""trial"",""time""
""fullscreenenter"",""1"",""3402""
","
","","","-1","","","14","10239","4842","&#9854;","elianto","#FFFFF080","-1","-1","1","&#10004","[]","0","0","1","","","","","","","",""
"pit-trial","17","192099","0.0-2.0-6.3-0.3","battery-v0.2","","""event"",""trial"",""time""
""fullscreenenter"",""1"",""3402""
","
","
","""event"",""trial"",""time""
""fullscreenenter"",""1"",""3402""
","
","","","-1","","","14","10239","4842","&#9854;","elianto","#FFFFF080","-1","-1","1","&#10004","[]","0","0","1","","","","","","","",""
"pit-trial","18","196971","0.0-2.0-6.4-0.4","battery-v0.2","","""event"",""trial"",""time""
""fullscreenenter"",""1"",""3402""
","
","
","""event"",""trial"",""time""
""fullscreenenter"",""1"",""3402""
","
","","","-1","","","14","10239","4842","&#9854;","elianto","#FFFFF080","-1","-1","1","&#10004","[]","0","0","1","","","","","","","",""
"pit-instructions","19","333854","0.0-2.0-7.0","battery-v0.2","","""event"",""trial"",""time""
""fullscreenenter"",""1"",""3402""
","
","
","""event"",""trial"",""time""
""fullscreenenter"",""1"",""3402""
","
","","[{""page_index"":0,""viewing_time"":5601.5},{""page_index"":1,""viewing_time"":7449.599999997765},{""page_index"":2,""viewing_time"":5631.900000002235},{""page_index"":3,""viewing_time"":9457.699999999255},{""page_index"":4,""viewing_time"":6542.699999999255},{""page_index"":5,""viewing_time"":5935.60000000149},{""page_index"":6,""viewing_time"":5827.39999999851},{""page_index"":7,""viewing_time"":10500.10000000149},{""page_index"":8,""viewing_time"":9017.5},{""page_index"":9,""viewing_time"":7171.199999999255},{""page_index"":10,""viewing_time"":7012.39999999851},{""page_index"":11,""viewing_time"":6663.800000000745},{""page_index"":12,""viewing_time"":7055.900000002235},{""page_index"":13,""viewing_time"":7270.099999997765},{""page_index"":14,""viewing_time"":8148.800000000745},{""page_index"":15,""viewing_time"":12384.800000000745},{""page_index"":16,""viewing_time"":6862.5},{""page_index"":17,""viewing_time"":8338.39999999851}]","136873.09999999776","","","","","","","","","","","","","","","","","","","","","","","",""
"pit-trial","20","337083","0.0-2.0-8.0-0.0","battery-v0.2","","""event"",""trial"",""time""
""fullscreenenter"",""1"",""3402""
","
","
","""event"",""trial"",""time""
""fullscreenenter"",""1"",""3402""
","
","","","362.0999999977648","","","14","10239","4842","&#9776;","elianto","#3366ff99"," "," ","1","+10","[1219.199999999255]","1","0","1","","","","","","","",""
"pit-trial","21","340420","0.0-2.0-8.0-1.0","battery-v0.2","","""event"",""trial"",""time""
""fullscreenenter"",""1"",""3402""
","
","
","""event"",""trial"",""time""
""fullscreenenter"",""1"",""3402""
","
","","","475.6000000014901","","","14","10239","4842","&#9776;","elianto","#3366ff99"," "," ","1","+10","[1325.7999999970198]","1","0","1","","","","","","","",""
"pit-trial","22","343739","0.0-2.0-8.0-2.0","battery-v0.2","","""event"",""trial"",""time""
""fullscreenenter"",""1"",""3402""
","
","
","""event"",""trial"",""time""
""fullscreenenter"",""1"",""3402""
","
","","","456.3999999985099","","","14","10239","4842","&#9776;","elianto","#3366ff99"," "," ","1","+10","[1310.300000000745]","1","0","1","","","","","","","",""
"pit-trial","23","347003","0.0-2.0-8.0-3.0","battery-v0.2","","""event"",""trial"",""time""
""fullscreenenter"",""1"",""3402""
","
","
","""event"",""trial"",""time""
""fullscreenenter"",""1"",""3402""
","
","","","402.69999999925494","","","14","10239","4842","&#9776;","elianto","#3366ff99"," "," ","1","0","[1252.9000000022352]","1","0","1","","","","","","","",""
"pit-trial","24","350083","0.0-2.0-8.0-4.0","battery-v0.2","","""event"",""trial"",""time""
""fullscreenenter"",""1"",""3402""
","
","
","""event"",""trial"",""time""
""fullscreenenter"",""1"",""3402""
","
","","","215.39999999850988","","","14","10239","4842","&#9776;","elianto","#3366ff99"," "," ","1","+10","[1066.2999999970198]","1","0","1","","","","","","","",""
"pit-trial","25","353155","0.0-2.0-8.1-0.1","battery-v0.2","","""event"",""trial"",""time""
""fullscreenenter"",""1"",""3402""
","
","
","""event"",""trial"",""time""
""fullscreenenter"",""1"",""3402""
","
","","","205","","","14","10239","4842","&#9776;","elianto","#3366ff99"," "," ","1","+10","[1055.199999999255]","1","0","1","","","","","","","",""
"pit-trial","26","356251","0.0-2.0-8.1-1.1","battery-v0.2","","""event"",""trial"",""time""
""fullscreenenter"",""1"",""3402""
","
","
","""event"",""trial"",""time""
""fullscreenenter"",""1"",""3402""
","
","","","230.19999999925494","","","14","10239","4842","&#9776;","elianto","#3366ff99"," "," ","1","+10","[1085.8999999985099]","1","0","1","","","","","","","",""
"pit-trial","27","359315","0.0-2.0-8.1-2.1","battery-v0.2","","""event"",""trial"",""time""
""fullscreenenter"",""1"",""3402""
","
","
","""event"",""trial"",""time""
""fullscreenenter"",""1"",""3402""
","
","","","205","","","14","10239","4842","&#9776;","elianto","#3366ff99"," "," ","1","+10","[1055.5]","1","0","1","","","","","","","",""
"pit-trial","28","362507","0.0-2.0-8.1-3.1","battery-v0.2","","""event"",""trial"",""time""
""fullscreenenter"",""1"",""3402""
","
","
","""event"",""trial"",""time""
""fullscreenenter"",""1"",""3402""
","
","","","323.8999999985099","","","14","10239","4842","&#9776;","elianto","#3366ff99"," "," ","1","0","[1181.199999999255]","1","0","1","","","","","","","",""
"pit-trial","29","365643","0.0-2.0-8.1-4.1","battery-v0.2","","""event"",""trial"",""time""
""fullscreenenter"",""1"",""3402""
","
","
","""event"",""trial"",""time""
""fullscreenenter"",""1"",""3402""
","
","","","268","","","14","10239","4842","&#9776;","elianto","#3366ff99"," "," ","1","+10","[1123.6000000014901]","1","0","1","","","","","","","",""
"pit-trial","30","368683","0.0-2.0-8.2-0.2","battery-v0.2","","""event"",""trial"",""time""
""fullscreenenter"",""1"",""3402""
","
","
","""event"",""trial"",""time""
""fullscreenenter"",""1"",""3402""
","
","","","174.40000000223517","","","14","10239","4842","&#9776;","elianto","#3366ff99"," "," ","1","+10","[1030.199999999255]","1","0","1","","","","","","","",""
"pit-trial","31","371819","0.0-2.0-8.2-1.2","battery-v0.2","","""event"",""trial"",""time""
""fullscreenenter"",""1"",""3402""
","
","
","""event"",""trial"",""time""
""fullscreenenter"",""1"",""3402""
","
","","","272","","","14","10239","4842","&#9776;","elianto","#3366ff99"," "," ","1","+10","[1124.300000000745]","1","0","1","","","","","","","",""
"pit-trial","32","374963","0.0-2.0-8.2-2.2","battery-v0.2","","""event"",""trial"",""time""
""fullscreenenter"",""1"",""3402""
","
","
","""event"",""trial"",""time""
""fullscreenenter"",""1"",""3402""
","
","","","279.30000000074506","","","14","10239","4842","&#9776;","elianto","#3366ff99"," "," ","1","+10","[1135.2999999970198]","1","0","1","","","","","","","",""
"pit-trial","33","378155","0.0-2.0-8.2-3.2","battery-v0.2","","""event"",""trial"",""time""
""fullscreenenter"",""1"",""3402""
","
","
","""event"",""trial"",""time""
""fullscreenenter"",""1"",""3402""
","
","","","331.1000000014901","","","14","10239","4842","&#9776;","elianto","#3366ff99"," "," ","1","0","[1181.199999999255]","1","0","1","","","","","","","",""
"pit-trial","34","381235","0.0-2.0-8.2-4.2","battery-v0.2","","""event"",""trial"",""time""
""fullscreenenter"",""1"",""3402""
","
","
","""event"",""trial"",""time""
""fullscreenenter"",""1"",""3402""
","
","","","216.20000000298023","","","14","10239","4842","&#9776;","elianto","#3366ff99"," "," ","1","+10","[1066.8999999985099]","1","0","1","","","","","","","",""
"call-function","35","381242","0.0-2.0-9.0","battery-v0.2","","""event"",""trial"",""time""
""fullscreenenter"",""1"",""3402""
","
","
","""event"",""trial"",""time""
""fullscreenenter"",""1"",""3402""
","
","","","","","","","","","","","","","","","","","","","","","","","","","","",""
"pit-instructions","36","430684","0.0-2.0-10.0","battery-v0.2","","""event"",""trial"",""time""
""fullscreenenter"",""1"",""3402""
","
","
","""event"",""trial"",""time""
""fullscreenenter"",""1"",""3402""
","
","","[{""page_index"":0,""viewing_time"":11296.800000000745},{""page_index"":1,""viewing_time"":7883.5},{""page_index"":2,""viewing_time"":10345.5},{""page_index"":3,""viewing_time"":11756.599999997765},{""page_index"":4,""viewing_time"":8154.699999999255}]","49438.5","","","","","","","","","","","","","","","","","","","","","","","",""
"pit-trial","37","433835","0.0-2.0-11.0-0.0","battery-v0.2","","""event"",""trial"",""time""
""fullscreenenter"",""1"",""3402""
","
","
","""event"",""trial"",""time""
""fullscreenenter"",""1"",""3402""
","
","","","286.3999999985099","","","14","10239","4842","&#9761;","elianto","#3366ff99","-1"," ","0","0","[1137.800000000745]","1","0","2","","","","","","","",""
"pit-trial","38","438707","0.0-2.0-11.0-1.0","battery-v0.2","","""event"",""trial"",""time""
""fullscreenenter"",""1"",""3402""
","
","
","""event"",""trial"",""time""
""fullscreenenter"",""1"",""3402""
","
","","","-1","","","14","10239","4842","&#9761;","elianto","#3366ff99","-1","-1","1","+10","[]","0","0","2","","","","","","","",""
"pit-trial","39","443579","0.0-2.0-11.0-2.0","battery-v0.2","","""event"",""trial"",""time""
""fullscreenenter"",""1"",""3402""
","
","
","""event"",""trial"",""time""
""fullscreenenter"",""1"",""3402""
","
","","","-1","","","14","10239","4842","&#9761;","elianto","#3366ff99","-1","-1","1","+10","[]","0","0","2","","","","","","","",""
"pit-trial","40","448451","0.0-2.0-11.0-3.0","battery-v0.2","","""event"",""trial"",""time""
""fullscreenenter"",""1"",""3402""
","
","
","""event"",""trial"",""time""
""fullscreenenter"",""1"",""3402""
","
","","","-1","","","14","10239","4842","&#9761;","elianto","#3366ff99","-1","-1","1","0","[]","0","0","2","","","","","","","",""
"pit-trial","41","453323","0.0-2.0-11.0-4.0","battery-v0.2","","""event"",""trial"",""time""
""fullscreenenter"",""1"",""3402""
","
","
","""event"",""trial"",""time""
""fullscreenenter"",""1"",""3402""
","
","","","-1","","","14","10239","4842","&#9761;","elianto","#3366ff99","-1","-1","1","+10","[]","0","0","2","","","","","","","",""
"pit-trial","42","458195","0.0-2.0-11.1-0.1","battery-v0.2","","""event"",""trial"",""time""
""fullscreenenter"",""1"",""3402""
","
","
","""event"",""trial"",""time""
""fullscreenenter"",""1"",""3402""
","
","","","-1","","","14","10239","4842","&#9761;","elianto","#3366ff99","-1","-1","1","+10","[]","0","0","2","","","","","","","",""
"pit-trial","43","463067","0.0-2.0-11.1-1.1","battery-v0.2","","""event"",""trial"",""time""
""fullscreenenter"",""1"",""3402""
","
","
","""event"",""trial"",""time""
""fullscreenenter"",""1"",""3402""
","
","","","-1","","","14","10239","4842","&#9761;","elianto","#3366ff99","-1","-1","1","+10","[]","0","0","2","","","","","","","",""
"pit-trial","44","467939","0.0-2.0-11.1-2.1","battery-v0.2","","""event"",""trial"",""time""
""fullscreenenter"",""1"",""3402""
","
","
","""event"",""trial"",""time""
""fullscreenenter"",""1"",""3402""
","
","","","-1","","","14","10239","4842","&#9761;","elianto","#3366ff99","-1","-1","1","+10","[]","0","0","2","","","","","","","",""
"pit-trial","45","472811","0.0-2.0-11.1-3.1","battery-v0.2","","""event"",""trial"",""time""
""fullscreenenter"",""1"",""3402""
","
","
","""event"",""trial"",""time""
""fullscreenenter"",""1"",""3402""
","
","","","-1","","","14","10239","4842","&#9761;","elianto","#3366ff99","-1","-1","1","0","[]","0","0","2","","","","","","","",""
"pit-trial","46","477683","0.0-2.0-11.1-4.1","battery-v0.2","","""event"",""trial"",""time""
""fullscreenenter"",""1"",""3402""
","
","
","""event"",""trial"",""time""
""fullscreenenter"",""1"",""3402""
","
","","","-1","","","14","10239","4842","&#9761;","elianto","#3366ff99","-1","-1","1","+10","[]","0","0","2","","","","","","","",""
"pit-trial","47","482555","0.0-2.0-11.2-0.2","battery-v0.2","","""event"",""trial"",""time""
""fullscreenenter"",""1"",""3402""
","
","
","""event"",""trial"",""time""
""fullscreenenter"",""1"",""3402""
","
","","","-1","","","14","10239","4842","&#9761;","elianto","#3366ff99","-1","-1","1","+10","[]","0","0","2","","","","","","","",""
"pit-trial","48","487427","0.0-2.0-11.2-1.2","battery-v0.2","","""event"",""trial"",""time""
""fullscreenenter"",""1"",""3402""
","
","
","""event"",""trial"",""time""
""fullscreenenter"",""1"",""3402""
","
","","","-1","","","14","10239","4842","&#9761;","elianto","#3366ff99","-1","-1","1","+10","[]","0","0","2","","","","","","","",""
"pit-trial","49","492299","0.0-2.0-11.2-2.2","battery-v0.2","","""event"",""trial"",""time""
""fullscreenenter"",""1"",""3402""
","
","
","""event"",""trial"",""time""
""fullscreenenter"",""1"",""3402""
","
","","","-1","","","14","10239","4842","&#9761;","elianto","#3366ff99","-1","-1","1","+10","[]","0","0","2","","","","","","","",""
"pit-trial","50","497172","0.0-2.0-11.2-3.2","battery-v0.2","","""event"",""trial"",""time""
""fullscreenenter"",""1"",""3402""
","
","
","""event"",""trial"",""time""
""fullscreenenter"",""1"",""3402""
","
","","","-1","","","14","10239","4842","&#9761;","elianto","#3366ff99","-1","-1","1","0","[]","0","0","2","","","","","","","",""
"pit-trial","51","502043","0.0-2.0-11.2-4.2","battery-v0.2","","""event"",""trial"",""time""
""fullscreenenter"",""1"",""3402""
","
","
","""event"",""trial"",""time""
""fullscreenenter"",""1"",""3402""
","
","","","-1","","","14","10239","4842","&#9761;","elianto","#3366ff99","-1","-1","1","+10","[]","0","0","2","","","","","","","",""
"pit-trial","52","506915","0.0-2.0-11.3-0.3","battery-v0.2","","""event"",""trial"",""time""
""fullscreenenter"",""1"",""3402""
","
","
","""event"",""trial"",""time""
""fullscreenenter"",""1"",""3402""
","
","","","-1","","","14","10239","4842","&#9761;","elianto","#3366ff99","-1","-1","1","+10","[]","0","0","2","","","","","","","",""
"pit-trial","53","511787","0.0-2.0-11.3-1.3","battery-v0.2","","""event"",""trial"",""time""
""fullscreenenter"",""1"",""3402""
","
","
","""event"",""trial"",""time""
""fullscreenenter"",""1"",""3402""
","
","","","-1","","","14","10239","4842","&#9761;","elianto","#3366ff99","-1","-1","1","+10","[]","0","0","2","","","","","","","",""
"pit-trial","54","516651","0.0-2.0-11.3-2.3","battery-v0.2","","""event"",""trial"",""time""
""fullscreenenter"",""1"",""3402""
","
","
","""event"",""trial"",""time""
""fullscreenenter"",""1"",""3402""
","
","","","-1","","","14","10239","4842","&#9761;","elianto","#3366ff99","-1","-1","1","+10","[]","0","0","2","","","","","","","",""
"pit-trial","55","521524","0.0-2.0-11.3-3.3","battery-v0.2","","""event"",""trial"",""time""
""fullscreenenter"",""1"",""3402""
","
","
","""event"",""trial"",""time""
""fullscreenenter"",""1"",""3402""
","
","","","-1","","","14","10239","4842","&#9761;","elianto","#3366ff99","-1","-1","1","0","[]","0","0","2","","","","","","","",""
"pit-trial","56","526395","0.0-2.0-11.3-4.3","battery-v0.2","","""event"",""trial"",""time""
""fullscreenenter"",""1"",""3402""
","
","
","""event"",""trial"",""time""
""fullscreenenter"",""1"",""3402""
","
","","","-1","","","14","10239","4842","&#9761;","elianto","#3366ff99","-1","-1","1","+10","[]","0","0","2","","","","","","","",""
"call-function","57","526402","0.0-2.0-12.0","battery-v0.2","","""event"",""trial"",""time""
""fullscreenenter"",""1"",""3402""
","
","
","""event"",""trial"",""time""
""fullscreenenter"",""1"",""3402""
","
","","","","","","","","","","","","","","","","","","","","","","","","","","",""
"pit-instructions","58","559771","0.0-2.0-13.0","battery-v0.2","","""event"",""trial"",""time""
""fullscreenenter"",""1"",""3402""
","
","
","""event"",""trial"",""time""
""fullscreenenter"",""1"",""3402""
","
","","[{""page_index"":0,""viewing_time"":5542.60000000149},{""page_index"":1,""viewing_time"":7654.599999997765},{""page_index"":2,""viewing_time"":3331.10000000149},{""page_index"":3,""viewing_time"":10803.699999999255},{""page_index"":4,""viewing_time"":6033.89999999851}]","33367","","","","","","","","","","","","","","","","","","","","","","","",""
"pit-trial","59","563059","0.0-2.0-14.0-0.0","battery-v0.2","","""event"",""trial"",""time""
""fullscreenenter"",""1"",""3402""
","
","
","""event"",""trial"",""time""
""fullscreenenter"",""1"",""3402""
","
","","","417.19999999925494","","","14","10239","4842","&#9826;","elianto","#f73b6a7A","-1"," ","0","-10","[1273.300000000745]","1","0","3","","","","","","","",""
"pit-trial","60","566155","0.0-2.0-14.0-1.0","battery-v0.2","","""event"",""trial"",""time""
""fullscreenenter"",""1"",""3402""
","
","
","""event"",""trial"",""time""
""fullscreenenter"",""1"",""3402""
","
","","","234.80000000074506","","","14","10239","4842","&#9826;","elianto","#f73b6a7A","-1"," ","0","-10","[1085.5]","1","0","3","","","","","","","",""
"pit-trial","61","571027","0.0-2.0-14.0-2.0","battery-v0.2","","""event"",""trial"",""time""
""fullscreenenter"",""1"",""3402""
","
","
","""event"",""trial"",""time""
""fullscreenenter"",""1"",""3402""
","
","","","-1","","","14","10239","4842","&#9826;","elianto","#f73b6a7A","-1","-1","1","0","[]","0","0","3","","","","","","","",""
"pit-trial","62","575899","0.0-2.0-14.0-3.0","battery-v0.2","","""event"",""trial"",""time""
""fullscreenenter"",""1"",""3402""
","
","
","""event"",""trial"",""time""
""fullscreenenter"",""1"",""3402""
","
","","","-1","","","14","10239","4842","&#9826;","elianto","#f73b6a7A","-1","-1","1","-10","[]","0","0","3","","","","","","","",""
"pit-trial","63","580771","0.0-2.0-14.0-4.0","battery-v0.2","","""event"",""trial"",""time""
""fullscreenenter"",""1"",""3402""
","
","
","""event"",""trial"",""time""
""fullscreenenter"",""1"",""3402""
","
","","","-1","","","14","10239","4842","&#9826;","elianto","#f73b6a7A","-1","-1","1","0","[]","0","0","3","","","","","","","",""
"pit-trial","64","585643","0.0-2.0-14.1-0.1","battery-v0.2","","""event"",""trial"",""time""
""fullscreenenter"",""1"",""3402""
","
","
","""event"",""trial"",""time""
""fullscreenenter"",""1"",""3402""
","
","","","-1","","","14","10239","4842","&#9826;","elianto","#f73b6a7A","-1","-1","1","0","[]","0","0","3","","","","","","","",""
"pit-trial","65","590515","0.0-2.0-14.1-1.1","battery-v0.2","","""event"",""trial"",""time""
""fullscreenenter"",""1"",""3402""
","
","
","""event"",""trial"",""time""
""fullscreenenter"",""1"",""3402""
","
","","","-1","","","14","10239","4842","&#9826;","elianto","#f73b6a7A","-1","-1","1","0","[]","0","0","3","","","","","","","",""
"pit-trial","66","595387","0.0-2.0-14.1-2.1","battery-v0.2","","""event"",""trial"",""time""
""fullscreenenter"",""1"",""3402""
","
","
","""event"",""trial"",""time""
""fullscreenenter"",""1"",""3402""
","
","","","-1","","","14","10239","4842","&#9826;","elianto","#f73b6a7A","-1","-1","1","0","[]","0","0","3","","","","","","","",""
"pit-trial","67","600258","0.0-2.0-14.1-3.1","battery-v0.2","","""event"",""trial"",""time""
""fullscreenenter"",""1"",""3402""
","
","
","""event"",""trial"",""time""
""fullscreenenter"",""1"",""3402""
","
","","","-1","","","14","10239","4842","&#9826;","elianto","#f73b6a7A","-1","-1","1","-10","[]","0","0","3","","","","","","","",""
"pit-trial","68","605123","0.0-2.0-14.1-4.1","battery-v0.2","","""event"",""trial"",""time""
""fullscreenenter"",""1"",""3402""
","
","
","""event"",""trial"",""time""
""fullscreenenter"",""1"",""3402""
","
","","","-1","","","14","10239","4842","&#9826;","elianto","#f73b6a7A","-1","-1","1","0","[]","0","0","3","","","","","","","",""
"pit-trial","69","609995","0.0-2.0-14.2-0.2","battery-v0.2","","""event"",""trial"",""time""
""fullscreenenter"",""1"",""3402""
","
","
","""event"",""trial"",""time""
""fullscreenenter"",""1"",""3402""
","
","","","-1","","","14","10239","4842","&#9826;","elianto","#f73b6a7A","-1","-1","1","0","[]","0","0","3","","","","","","","",""
"pit-trial","70","614867","0.0-2.0-14.2-1.2","battery-v0.2","","""event"",""trial"",""time""
""fullscreenenter"",""1"",""3402""
","
","
","""event"",""trial"",""time""
""fullscreenenter"",""1"",""3402""
","
","","","-1","","","14","10239","4842","&#9826;","elianto","#f73b6a7A","-1","-1","1","0","[]","0","0","3","","","","","","","",""
"pit-trial","71","619739","0.0-2.0-14.2-2.2","battery-v0.2","","""event"",""trial"",""time""
""fullscreenenter"",""1"",""3402""
","
","
","""event"",""trial"",""time""
""fullscreenenter"",""1"",""3402""
","
","","","-1","","","14","10239","4842","&#9826;","elianto","#f73b6a7A","-1","-1","1","0","[]","0","0","3","","","","","","","",""
"pit-trial","72","624611","0.0-2.0-14.2-3.2","battery-v0.2","","""event"",""trial"",""time""
""fullscreenenter"",""1"",""3402""
","
","
","""event"",""trial"",""time""
""fullscreenenter"",""1"",""3402""
","
","","","-1","","","14","10239","4842","&#9826;","elianto","#f73b6a7A","-1","-1","1","-10","[]","0","0","3","","","","","","","",""
"pit-trial","73","629483","0.0-2.0-14.2-4.2","battery-v0.2","","""event"",""trial"",""time""
""fullscreenenter"",""1"",""3402""
","
","
","""event"",""trial"",""time""
""fullscreenenter"",""1"",""3402""
","
","","","-1","","","14","10239","4842","&#9826;","elianto","#f73b6a7A","-1","-1","1","0","[]","0","0","3","","","","","","","",""
"pit-trial","74","634355","0.0-2.0-14.3-0.3","battery-v0.2","","""event"",""trial"",""time""
""fullscreenenter"",""1"",""3402""
","
","
","""event"",""trial"",""time""
""fullscreenenter"",""1"",""3402""
","
","","","-1","","","14","10239","4842","&#9826;","elianto","#f73b6a7A","-1","-1","1","0","[]","0","0","3","","","","","","","",""
"pit-trial","75","639227","0.0-2.0-14.3-1.3","battery-v0.2","","""event"",""trial"",""time""
""fullscreenenter"",""1"",""3402""
","
","
","""event"",""trial"",""time""
""fullscreenenter"",""1"",""3402""
","
","","","-1","","","14","10239","4842","&#9826;","elianto","#f73b6a7A","-1","-1","1","0","[]","0","0","3","","","","","","","",""
"pit-trial","76","644099","0.0-2.0-14.3-2.3","battery-v0.2","","""event"",""trial"",""time""
""fullscreenenter"",""1"",""3402""
","
","
","""event"",""trial"",""time""
""fullscreenenter"",""1"",""3402""
","
","","","-1","","","14","10239","4842","&#9826;","elianto","#f73b6a7A","-1","-1","1","0","[]","0","0","3","","","","","","","",""
"pit-trial","77","648971","0.0-2.0-14.3-3.3","battery-v0.2","","""event"",""trial"",""time""
""fullscreenenter"",""1"",""3402""
","
","
","""event"",""trial"",""time""
""fullscreenenter"",""1"",""3402""
","
","","","-1","","","14","10239","4842","&#9826;","elianto","#f73b6a7A","-1","-1","1","-10","[]","0","0","3","","","","","","","",""
"pit-trial","78","653844","0.0-2.0-14.3-4.3","battery-v0.2","","""event"",""trial"",""time""
""fullscreenenter"",""1"",""3402""
","
","
","""event"",""trial"",""time""
""fullscreenenter"",""1"",""3402""
","
","","","-1","","","14","10239","4842","&#9826;","elianto","#f73b6a7A","-1","-1","1","0","[]","0","0","3","","","","","","","",""
"call-function","79","653850","0.0-2.0-15.0","battery-v0.2","","""event"",""trial"",""time""
""fullscreenenter"",""1"",""3402""
","
","
","""event"",""trial"",""time""
""fullscreenenter"",""1"",""3402""
","
","","","","","","","","","","","","","","","","","","","","","","","","","","",""
"pit-instructions","80","684582","0.0-2.0-16.0","battery-v0.2","","""event"",""trial"",""time""
""fullscreenenter"",""1"",""3402""
","
","
","""event"",""trial"",""time""
""fullscreenenter"",""1"",""3402""
","
","","[{""page_index"":0,""viewing_time"":10648.5},{""page_index"":1,""viewing_time"":9865.199999999255},{""page_index"":2,""viewing_time"":4768},{""page_index"":3,""viewing_time"":5447.60000000149}]","30730.39999999851","","","","","","","","","","","","","","","","","","","","","","","",""
"pit-trial","81","687707","0.0-2.0-17.0-0.0","battery-v0.2","","""event"",""trial"",""time""
""fullscreenenter"",""1"",""3402""
","
","
","""event"",""trial"",""time""
""fullscreenenter"",""1"",""3402""
","
","","","260.80000000074506","","","14","10239","4842","&#9789;","elianto","#f73b6a7A"," "," ","1","0","[1114]","1","0","4","","","","","","","",""
"pit-trial","82","690779","0.0-2.0-17.0-1.0","battery-v0.2","","""event"",""trial"",""time""
""fullscreenenter"",""1"",""3402""
","
","
","""event"",""trial"",""time""
""fullscreenenter"",""1"",""3402""
","
","","","206.5","","","14","10239","4842","&#9789;","elianto","#f73b6a7A"," "," ","1","0","[1057.300000000745]","1","0","4","","","","","","","",""
"pit-trial","83","693963","0.0-2.0-17.0-2.0","battery-v0.2","","""event"",""trial"",""time""
""fullscreenenter"",""1"",""3402""
","
","
","""event"",""trial"",""time""
""fullscreenenter"",""1"",""3402""
","
","","","321.3999999985099","","","14","10239","4842","&#9789;","elianto","#f73b6a7A"," "," ","1","0","[1174.5]","1","0","4","","","","","","","",""
"pit-trial","84","697171","0.0-2.0-17.0-3.0","battery-v0.2","","""event"",""trial"",""time""
""fullscreenenter"",""1"",""3402""
","
","
","""event"",""trial"",""time""
""fullscreenenter"",""1"",""3402""
","
","","","341.20000000298023","","","14","10239","4842","&#9789;","elianto","#f73b6a7A"," "," ","1","-10","[1199.6000000014901]","1","0","4","","","","","","","",""
"pit-trial","85","700275","0.0-2.0-17.0-4.0","battery-v0.2","","""event"",""trial"",""time""
""fullscreenenter"",""1"",""3402""
","
","
","""event"",""trial"",""time""
""fullscreenenter"",""1"",""3402""
","
","","","244.80000000074506","","","14","10239","4842","&#9789;","elianto","#f73b6a7A"," "," ","1","0","[1095]","1","0","4","","","","","","","",""
"pit-trial","86","703395","0.0-2.0-17.1-0.1","battery-v0.2","","""event"",""trial"",""time""
""fullscreenenter"",""1"",""3402""
","
","
","""event"",""trial"",""time""
""fullscreenenter"",""1"",""3402""
","
","","","259.5","","","14","10239","4842","&#9789;","elianto","#f73b6a7A"," "," ","1","0","[1109.8999999985099]","1","0","4","","","","","","","",""
"pit-trial","87","706771","0.0-2.0-17.1-1.1","battery-v0.2","","""event"",""trial"",""time""
""fullscreenenter"",""1"",""3402""
","
","
","""event"",""trial"",""time""
""fullscreenenter"",""1"",""3402""
","
","","","507.0999999977648","","","14","10239","4842","&#9789;","elianto","#f73b6a7A"," "," ","1","0","[848.6999999992549,1364.3999999985099]","2","0","4","","","","","","","",""
"pit-trial","88","709819","0.0-2.0-17.1-2.1","battery-v0.2","","""event"",""trial"",""time""
""fullscreenenter"",""1"",""3402""
","
","
","""event"",""trial"",""time""
""fullscreenenter"",""1"",""3402""
","
","","","177.40000000223517","","","14","10239","4842","&#9789;","elianto","#f73b6a7A"," "," ","1","0","[1038.199999999255]","1","0","4","","","","","","","",""
"pit-trial","89","712843","0.0-2.0-17.1-3.1","battery-v0.2","","""event"",""trial"",""time""
""fullscreenenter"",""1"",""3402""
","
","
","""event"",""trial"",""time""
""fullscreenenter"",""1"",""3402""
","
","","","158","","","14","10239","4842","&#9789;","elianto","#f73b6a7A"," "," ","1","-10","[1010.8000000007451]","1","0","4","","","","","","","",""
"pit-trial","90","715859","0.0-2.0-17.1-4.1","battery-v0.2","","""event"",""trial"",""time""
""fullscreenenter"",""1"",""3402""
","
","
","""event"",""trial"",""time""
""fullscreenenter"",""1"",""3402""
","
","","","155.20000000298023","","","14","10239","4842","&#9789;","elianto","#f73b6a7A"," "," ","1","0","[1006.8999999985099]","1","0","4","","","","","","","",""
"pit-trial","91","718915","0.0-2.0-17.2-0.2","battery-v0.2","","""event"",""trial"",""time""
""fullscreenenter"",""1"",""3402""
","
","
","""event"",""trial"",""time""
""fullscreenenter"",""1"",""3402""
","
","","","187.5","","","14","10239","4842","&#9789;","elianto","#f73b6a7A"," "," ","1","0","[1043.9000000022352]","1","0","4","","","","","","","",""
"pit-trial","92","721956","0.0-2.0-17.2-1.2","battery-v0.2","","""event"",""trial"",""time""
""fullscreenenter"",""1"",""3402""
","
","
","""event"",""trial"",""time""
""fullscreenenter"",""1"",""3402""
","
","","","176.39999999850988","","","14","10239","4842","&#9789;","elianto","#f73b6a7A"," "," ","1","0","[1026.8999999985099]","1","0","4","","","","","","","",""
"pit-trial","93","725099","0.0-2.0-17.2-2.2","battery-v0.2","","""event"",""trial"",""time""
""fullscreenenter"",""1"",""3402""
","
","
","""event"",""trial"",""time""
""fullscreenenter"",""1"",""3402""
","
","","","282.5999999977648","","","14","10239","4842","&#9789;","elianto","#f73b6a7A"," "," ","1","0","[1132.5]","1","0","4","","","","","","","",""
"pit-trial","94","728131","0.0-2.0-17.2-3.2","battery-v0.2","","""event"",""trial"",""time""
""fullscreenenter"",""1"",""3402""
","
","
","""event"",""trial"",""time""
""fullscreenenter"",""1"",""3402""
","
","","","162.80000000074506","","","14","10239","4842","&#9789;","elianto","#f73b6a7A"," "," ","1","-10","[1019.3000000007451]","1","0","4","","","","","","","",""
"pit-trial","95","731163","0.0-2.0-17.2-4.2","battery-v0.2","","""event"",""trial"",""time""
""fullscreenenter"",""1"",""3402""
","
","
","""event"",""trial"",""time""
""fullscreenenter"",""1"",""3402""
","
","","","167.19999999925494","","","14","10239","4842","&#9789;","elianto","#f73b6a7A"," "," ","1","0","[1024.1000000014901]","1","0","4","","","","","","","",""
"pit-trial","96","734291","0.0-2.0-17.3-0.3","battery-v0.2","","""event"",""trial"",""time""
""fullscreenenter"",""1"",""3402""
","
","
","""event"",""trial"",""time""
""fullscreenenter"",""1"",""3402""
","
","","","264","","","14","10239","4842","&#9789;","elianto","#f73b6a7A"," "," ","1","0","[1117.5]","1","0","4","","","","","","","",""
"pit-trial","97","737266","0.0-2.0-17.3-1.3","battery-v0.2","","""event"",""trial"",""time""
""fullscreenenter"",""1"",""3402""
","
","
","""event"",""trial"",""time""
""fullscreenenter"",""1"",""3402""
","
","","","113.5","","","14","10239","4842","&#9789;","elianto","#f73b6a7A"," "," ","1","0","[965.2999999970198,2748.39999999851]","2","0","4","","","","","","","",""
"pit-trial","98","740346","0.0-2.0-17.3-2.3","battery-v0.2","","""event"",""trial"",""time""
""fullscreenenter"",""1"",""3402""
","
","
","""event"",""trial"",""time""
""fullscreenenter"",""1"",""3402""
","
","","","217.70000000298023","","","14","10239","4842","&#9789;","elianto","#f73b6a7A"," "," ","1","0","[1069]","1","0","4","","","","","","","",""
"pit-trial","99","743388","0.0-2.0-17.3-3.3","battery-v0.2","","""event"",""trial"",""time""
""fullscreenenter"",""1"",""3402""
","
","
","""event"",""trial"",""time""
""fullscreenenter"",""1"",""3402""
","
","","","182.80000000074506","","","14","10239","4842","&#9789;","elianto","#f73b6a7A"," "," ","1","-10","[1033.7000000029802]","1","0","4","","","","","","","",""
"pit-trial","100","746403","0.0-2.0-17.3-4.3","battery-v0.2","","""event"",""trial"",""time""
""fullscreenenter"",""1"",""3402""
","
","
","""event"",""trial"",""time""
""fullscreenenter"",""1"",""3402""
","
","","","154.40000000223517","","","14","10239","4842","&#9789;","elianto","#f73b6a7A"," "," ","1","0","[1006.9000000022352]","1","0","4","","","","","","","",""
"call-function","101","746409","0.0-2.0-18.0","battery-v0.2","","""event"",""trial"",""time""
""fullscreenenter"",""1"",""3402""
","
","
","""event"",""trial"",""time""
""fullscreenenter"",""1"",""3402""
","
","","","","","","","","","","","","","","","","","","","","","","","","","","",""
"pit-instructions","102","818845","0.0-2.0-19.0","battery-v0.2","","""event"",""trial"",""time""
""fullscreenenter"",""1"",""3402""
","
","
","""event"",""trial"",""time""
""fullscreenenter"",""1"",""3402""
","
","","[{""page_index"":0,""viewing_time"":6569},{""page_index"":1,""viewing_time"":4138.89999999851},{""page_index"":2,""viewing_time"":13018.5},{""page_index"":3,""viewing_time"":8026.89999999851},{""page_index"":4,""viewing_time"":9345.20000000298},{""page_index"":5,""viewing_time"":8905.39999999851},{""page_index"":6,""viewing_time"":10029.10000000149},{""page_index"":7,""viewing_time"":7736.5},{""page_index"":8,""viewing_time"":4662.599999997765}]","72433.39999999851","","","","","","","","","","","","","","","","","","","","","","","",""
"pit-comprehension","103","823295","0.0-2.0-20.0-0.0","battery-v0.2","","""event"",""trial"",""time""
""fullscreenenter"",""1"",""3402""
","
","
","""event"",""trial"",""time""
""fullscreenenter"",""1"",""3402""
","
","","","4434.20000000298","[""SPACE""]","0","14","10239","4842","","","","","","","","","","","","","","","","","","",""
"pit-instructions","104","826337","0.0-2.0-20.0-1.0","battery-v0.2","","""event"",""trial"",""time""
""fullscreenenter"",""1"",""3402""
","
","
","""event"",""trial"",""time""
""fullscreenenter"",""1"",""3402""
","
","","[{""page_index"":0,""viewing_time"":2930.2000000029802}]","2931.400000002235","","","","","","","","","","","","","","","","","","","","","","","",""
"pit-comprehension","105","830846","0.0-2.0-21.0-0.0","battery-v0.2","","""event"",""trial"",""time""
""fullscreenenter"",""1"",""3402""
","
","
","""event"",""trial"",""time""
""fullscreenenter"",""1"",""3402""
","
","","","4487.5","[""10""]","0","14","10239","4842","","","","","","","","","","","","","","","","","","",""
"pit-instructions","106","832155","0.0-2.0-21.0-1.0","battery-v0.2","","""event"",""trial"",""time""
""fullscreenenter"",""1"",""3402""
","
","
","""event"",""trial"",""time""
""fullscreenenter"",""1"",""3402""
","
","","[{""page_index"":0,""viewing_time"":1194.800000000745}]","1195.699999999255","","","","","","","","","","","","","","","","","","","","","","","",""
"pit-comprehension","107","840868","0.0-2.0-22.0-0.0","battery-v0.2","","""event"",""trial"",""time""
""fullscreenenter"",""1"",""3402""
","
","
","""event"",""trial"",""time""
""fullscreenenter"",""1"",""3402""
","
","","","8698.199999999255","[""0""]","0","14","10239","4842","","","","","","","","","","","","","","","","","","",""
"pit-instructions","108","842346","0.0-2.0-22.0-1.0","battery-v0.2","","""event"",""trial"",""time""
""fullscreenenter"",""1"",""3402""
","
","
","""event"",""trial"",""time""
""fullscreenenter"",""1"",""3402""
","
","","[{""page_index"":0,""viewing_time"":1371.3999999985099}]","1372.300000000745","","","","","","","","","","","","","","","","","","","","","","","",""
"pit-comprehension","109","852236","0.0-2.0-23.0-0.0","battery-v0.2","","""event"",""trial"",""time""
""fullscreenenter"",""1"",""3402""
","
","
","""event"",""trial"",""time""
""fullscreenenter"",""1"",""3402""
","
","","","9876.5","[""True""]","0","14","10239","4842","","","","","","","","","","","","","","","","","","",""
"pit-instructions","110","854037","0.0-2.0-23.0-1.0","battery-v0.2","","""event"",""trial"",""time""
""fullscreenenter"",""1"",""3402""
","
","
","""event"",""trial"",""time""
""fullscreenenter"",""1"",""3402""
","
","","[{""page_index"":0,""viewing_time"":1685.800000000745}]","1686.8999999985099","","","","","","","","","","","","","","","","","","","","","","","",""
"pit-comprehension","111","861870","0.0-2.0-24.0-0.0","battery-v0.2","","""event"",""trial"",""time""
""fullscreenenter"",""1"",""3402""
","
","
","""event"",""trial"",""time""
""fullscreenenter"",""1"",""3402""
","
","","","7818.199999999255","[""True""]","0","14","10239","4842","","","","","","","","","","","","","","","","","","",""
"pit-instructions","112","863472","0.0-2.0-24.0-1.0","battery-v0.2","","""event"",""trial"",""time""
""fullscreenenter"",""1"",""3402""
","
","
","""event"",""trial"",""time""
""fullscreenenter"",""1"",""3402""
","
","","[{""page_index"":0,""viewing_time"":1492.3999999985099}]","1493.3999999985099","","","","","","","","","","","","","","","","","","","","","","","",""
"pit-comprehension","113","870041","0.0-2.0-25.0-0.0","battery-v0.2","","""event"",""trial"",""time""
""fullscreenenter"",""1"",""3402""
","
","
","""event"",""trial"",""time""
""fullscreenenter"",""1"",""3402""
","
","","","6555.5","[""True""]","0","14","10239","4842","","","","","","","","","","","","","","","","","","",""
"pit-instructions","114","871763","0.0-2.0-25.0-1.0","battery-v0.2","","""event"",""trial"",""time""
""fullscreenenter"",""1"",""3402""
","
","
","""event"",""trial"",""time""
""fullscreenenter"",""1"",""3402""
","
","","[{""page_index"":0,""viewing_time"":1611.8999999985099}]","1613","","","","","","","","","","","","","","","","","","","","","","","",""
"pit-comprehension","115","877841","0.0-2.0-26.0-0.0","battery-v0.2","","""event"",""trial"",""time""
""fullscreenenter"",""1"",""3402""
","
","
","""event"",""trial"",""time""
""fullscreenenter"",""1"",""3402""
","
","","","6061.5","[""False""]","0","14","10239","4842","","","","","","","","","","","","","","","","","","",""
"pit-instructions","116","879220","0.0-2.0-26.0-1.0","battery-v0.2","","""event"",""trial"",""time""
""fullscreenenter"",""1"",""3402""
","
","
","""event"",""trial"",""time""
""fullscreenenter"",""1"",""3402""
","
","","[{""page_index"":0,""viewing_time"":1267.699999999255}]","1268.699999999255","","","","","","","","","","","","","","","","","","","","","","","",""
"pit-instructions","117","930806","0.0-3.0","battery-v0.2","","""event"",""trial"",""time""
""fullscreenenter"",""1"",""3402""
","
","
","""event"",""trial"",""time""
""fullscreenenter"",""1"",""3402""
","
","","[{""page_index"":0,""viewing_time"":4966.5},{""page_index"":1,""viewing_time"":5586.300000000745},{""page_index"":2,""viewing_time"":41022.39999999851}]","51576.5","","","","","","","","","","","","","","","","","","","","","","","",""
"pit-trial","118","934115","0.0-4.0","battery-v0.2","","""event"",""trial"",""time""
""fullscreenenter"",""1"",""3402""
","
","
","""event"",""trial"",""time""
""fullscreenenter"",""1"",""3402""
","
","","","444.69999999925494","","","14","10239","4842","&#9733;","elianto","#3366ff99","-1"," ","0","0","[1297]","1","1","","","10239","1","2","2","win","no-go","0"
"pit-trial","119","937179","0.0-5.0","battery-v0.2","","""event"",""trial"",""time""
""fullscreenenter"",""1"",""3402""
","
","
","""event"",""trial"",""time""
""fullscreenenter"",""1"",""3402""
","
","","","197.10000000149012","","","14","10239","4842","&#9730;","elianto","#3366ff99"," "," ","1","+10","[1052.0999999977648]","1","1","","","10239","2","1","1","win","go","0"
"pit-trial","120","940627","0.0-6.0","battery-v0.2","","""event"",""trial"",""time""
""fullscreenenter"",""1"",""3402""
","
","
","""event"",""trial"",""time""
""fullscreenenter"",""1"",""3402""
","
","","","581.6999999992549","","","14","10239","4842","&#9728;","elianto","#f73b6a7A","-1"," ","0","-10","[1438]","1","1","","","10239","3","0","4","lose","no-go","0"
"pit-trial","121","943779","0.0-7.0","battery-v0.2","","""event"",""trial"",""time""
""fullscreenenter"",""1"",""3402""
","
","
","""event"",""trial"",""time""
""fullscreenenter"",""1"",""3402""
","
","","","273.5999999977648","","","14","10239","4842","&#9752;","elianto","#f73b6a7A"," "," ","1","-10","[1136.1000000014901]","1","1","","","10239","4","3","3","lose","go","1"
"pit-trial","122","946899","0.0-8.0","battery-v0.2","","""event"",""trial"",""time""
""fullscreenenter"",""1"",""3402""
","
","
","""event"",""trial"",""time""
""fullscreenenter"",""1"",""3402""
","
","","","253.10000000149012","","","14","10239","4842","&#9730;","elianto","#3366ff99"," "," ","1","+10","[1113.199999999255]","1","1","","","10239","5","1","1","win","go","0"
"pit-trial","123","951771","0.0-9.0","battery-v0.2","","""event"",""trial"",""time""
""fullscreenenter"",""1"",""3402""
","
","
","""event"",""trial"",""time""
""fullscreenenter"",""1"",""3402""
","
","","","-1","","","14","10239","4842","&#9733;","elianto","#3366ff99","-1","-1","1","+10","[]","0","1","","","10239","6","2","2","win","no-go","0"
"pit-trial","124","956643","0.0-10.0","battery-v0.2","","""event"",""trial"",""time""
""fullscreenenter"",""1"",""3402""
","
","
","""event"",""trial"",""time""
""fullscreenenter"",""1"",""3402""
","
","","","-1","","","14","10239","4842","&#9752;","elianto","#f73b6a7A"," ","-1","0","-10","[]","0","1","","","10239","7","3","3","lose","go","0"
"pit-trial","125","961515","0.0-11.0","battery-v0.2","","""event"",""trial"",""time""
""fullscreenenter"",""1"",""3402""
","
","
","""event"",""trial"",""time""
""fullscreenenter"",""1"",""3402""
","
","","","-1","","","14","10239","4842","&#9728;","elianto","#f73b6a7A","-1","-1","1","0","[]","0","1","","","10239","8","0","4","lose","no-go","0"
"pit-trial","126","964827","0.0-12.0","battery-v0.2","","""event"",""trial"",""time""
""fullscreenenter"",""1"",""3402""
","
","
","""event"",""trial"",""time""
""fullscreenenter"",""1"",""3402""
","
","","","442","","","14","10239","4842","&#9730;","elianto","#3366ff99"," "," ","1","+10","[1299]","1","1","","","10239","9","1","1","win","go","0"
"pit-trial","127","969699","0.0-13.0","battery-v0.2","","""event"",""trial"",""time""
""fullscreenenter"",""1"",""3402""
","
","
","""event"",""trial"",""time""
""fullscreenenter"",""1"",""3402""
","
","","","-1","","","14","10239","4842","&#9733;","elianto","#3366ff99","-1","-1","1","+10","[]","0","1","","","10239","10","2","2","win","no-go","0"
"pit-trial","128","974571","0.0-14.0","battery-v0.2","","""event"",""trial"",""time""
""fullscreenenter"",""1"",""3402""
","
","
","""event"",""trial"",""time""
""fullscreenenter"",""1"",""3402""
","
","","","-1","","","14","10239","4842","&#9728;","elianto","#f73b6a7A","-1","-1","1","0","[]","0","1","","","10239","11","0","4","lose","no-go","0"
"pit-trial","129","978195","0.0-15.0","battery-v0.2","","""event"",""trial"",""time""
""fullscreenenter"",""1"",""3402""
","
","
","""event"",""trial"",""time""
""fullscreenenter"",""1"",""3402""
","
","","","757.3000000007451","","","14","10239","4842","&#9752;","elianto","#f73b6a7A"," "," ","1","0","[1608]","1","1","","","10239","12","3","3","lose","go","0"
"pit-trial","130","982195","0.0-16.0","battery-v0.2","","""event"",""trial"",""time""
""fullscreenenter"",""1"",""3402""
","
","
","""event"",""trial"",""time""
""fullscreenenter"",""1"",""3402""
","
","","","1132","","","14","10239","4842","&#9752;","elianto","#f73b6a7A"," "," ","1","-10","[1990.3999999985099]","1","1","","","10239","13","3","3","lose","go","1"
"pit-trial","131","985771","0.0-17.0","battery-v0.2","","""event"",""trial"",""time""
""fullscreenenter"",""1"",""3402""
","
","
","""event"",""trial"",""time""
""fullscreenenter"",""1"",""3402""
","
","","","705","","","14","10239","4842","&#9730;","elianto","#3366ff99"," "," ","1","+10","[1560.800000000745]","1","1","","","10239","14","1","1","win","go","0"
"pit-trial","132","989163","0.0-18.0","battery-v0.2","","""event"",""trial"",""time""
""fullscreenenter"",""1"",""3402""
","
","
","""event"",""trial"",""time""
""fullscreenenter"",""1"",""3402""
","
","","","522.3999999985099","","","14","10239","4842","&#9733;","elianto","#3366ff99","-1"," ","0","0","[1384]","1","1","","","10239","15","2","2","win","no-go","0"
"pit-trial","133","992659","0.0-19.0","battery-v0.2","","""event"",""trial"",""time""
""fullscreenenter"",""1"",""3402""
","
","
","""event"",""trial"",""time""
""fullscreenenter"",""1"",""3402""
","
","","","634.9000000022352","","","14","10239","4842","&#9728;","elianto","#f73b6a7A","-1"," ","0","0","[1486.199999999255]","1","1","","","10239","16","0","4","lose","no-go","1"
"pit-trial","134","995924","0.0-20.0","battery-v0.2","","""event"",""trial"",""time""
""fullscreenenter"",""1"",""3402""
","
","
","""event"",""trial"",""time""
""fullscreenenter"",""1"",""3402""
","
","","","395.3999999985099","","","14","10239","4842","&#9728;","elianto","#f73b6a7A","-1"," ","0","-10","[1248.800000000745]","1","1","","","10239","17","0","4","lose","no-go","0"
"pit-trial","135","999722","0.0-21.0","battery-v0.2","","""event"",""trial"",""time""
""fullscreenenter"",""1"",""3402""
","
","
","""event"",""trial"",""time""
""fullscreenenter"",""1"",""3402""
","
","","","937.3999999985099","","","14","10239","4842","&#9752;","elianto","#f73b6a7A"," "," ","1","0","[1790.300000000745]","1","1","","","10239","18","3","3","lose","go","0"
"pit-trial","136","1003547","0.0-22.0","battery-v0.2","","""event"",""trial"",""time""
""fullscreenenter"",""1"",""3402""
","
","
","""event"",""trial"",""time""
""fullscreenenter"",""1"",""3402""
","
","","","960.2000000029802","","","14","10239","4842","&#9730;","elianto","#3366ff99"," "," ","1","+10","[1813.199999999255]","1","1","","","10239","19","1","1","win","go","0"
"pit-trial","137","1008419","0.0-23.0","battery-v0.2","","""event"",""trial"",""time""
""fullscreenenter"",""1"",""3402""
","
","
","""event"",""trial"",""time""
""fullscreenenter"",""1"",""3402""
","
","","","-1","","","14","10239","4842","&#9733;","elianto","#3366ff99","-1","-1","1","0","[]","0","1","","","10239","20","2","2","win","no-go","1"
"pit-instructions","138","1057123","0.0-24.0","battery-v0.2","","""event"",""trial"",""time""
""fullscreenenter"",""1"",""3402""
","
","
","""event"",""trial"",""time""
""fullscreenenter"",""1"",""3402""
","
","","[{""page_index"":0,""viewing_time"":14909.699999999255},{""page_index"":1,""viewing_time"":33786.800000000745}]","48697.699999999255","","","","","","","","","","","","","","","","","","","","","","","",""
"pit-trial","139","1060428","0.0-25.0","battery-v0.2","","""event"",""trial"",""time""
""fullscreenenter"",""1"",""3402""
","
","
","""event"",""trial"",""time""
""fullscreenenter"",""1"",""3402""
","
","","","437.5","","","14","10239","4842","m","elianto","#f73b6a7A"," "," ","1","-10","[1290]","1","2","","","10239","21","0","3","lose","go","1"
"pit-trial","140","1063723","0.0-26.0","battery-v0.2","","""event"",""trial"",""time""
""fullscreenenter"",""1"",""3402""
","
","
","""event"",""trial"",""time""
""fullscreenenter"",""1"",""3402""
","
","","","429.4000000022352","","","14","10239","4842","y","elianto","#f73b6a7A"," "," ","1","0","[1285.800000000745]","1","2","","","10239","22","2","3","lose","go","0"
"pit-trial","141","1067299","0.0-27.0","battery-v0.2","","""event"",""trial"",""time""
""fullscreenenter"",""1"",""3402""
","
","
","""event"",""trial"",""time""
""fullscreenenter"",""1"",""3402""
","
","","","706.6999999992549","","","14","10239","4842","r","elianto","#3366ff99","-1"," ","0","+10","[1561.1000000014901]","1","2","","","10239","23","1","2","win","no-go","1"
"pit-trial","142","1070419","0.0-28.0","battery-v0.2","","""event"",""trial"",""time""
""fullscreenenter"",""1"",""3402""
","
","
","""event"",""trial"",""time""
""fullscreenenter"",""1"",""3402""
","
","","","255.30000000074506","","","14","10239","4842","h","elianto","#f73b6a7A","-1"," ","0","-10","[1106.2999999970198]","1","2","","","10239","24","3","4","lose","no-go","0"
"pit-trial","143","1073707","0.0-29.0","battery-v0.2","","""event"",""trial"",""time""
""fullscreenenter"",""1"",""3402""
","
","
","""event"",""trial"",""time""
""fullscreenenter"",""1"",""3402""
","
","","","424.1000000014901","","","14","10239","4842","r","elianto","#3366ff99","-1"," ","0","0","[1280]","1","2","","","10239","25","1","2","win","no-go","0"
"pit-trial","144","1076683","0.0-30.0","battery-v0.2","","""event"",""trial"",""time""
""fullscreenenter"",""1"",""3402""
","
","
","""event"",""trial"",""time""
""fullscreenenter"",""1"",""3402""
","
","","","109.10000000149012","","","14","10239","4842","y","elianto","#f73b6a7A"," "," ","1","-10","[965.5]","1","2","","","10239","26","2","3","lose","go","1"
"pit-trial","145","1079915","0.0-31.0","battery-v0.2","","""event"",""trial"",""time""
""fullscreenenter"",""1"",""3402""
","
","
","""event"",""trial"",""time""
""fullscreenenter"",""1"",""3402""
","
","","","372.30000000074506","","","14","10239","4842","m","elianto","#f73b6a7A"," "," ","1","0","[1225.199999999255]","1","2","","","10239","27","0","3","lose","go","0"
"pit-trial","146","1083227","0.0-32.0","battery-v0.2","","""event"",""trial"",""time""
""fullscreenenter"",""1"",""3402""
","
","
","""event"",""trial"",""time""
""fullscreenenter"",""1"",""3402""
","
","","","445.69999999925494","","","14","10239","4842","h","elianto","#f73b6a7A","-1"," ","0","-10","[1297.0999999977648]","1","2","","","10239","28","3","4","lose","no-go","0"
"pit-trial","147","1086604","0.0-33.0","battery-v0.2","","""event"",""trial"",""time""
""fullscreenenter"",""1"",""3402""
","
","
","""event"",""trial"",""time""
""fullscreenenter"",""1"",""3402""
","
","","","508.4000000022352","","","14","10239","4842","y","elianto","#f73b6a7A"," "," ","1","0","[1362.3999999985099]","1","2","","","10239","29","2","3","lose","go","0"
"pit-trial","148","1089955","0.0-34.0","battery-v0.2","","""event"",""trial"",""time""
""fullscreenenter"",""1"",""3402""
","
","
","""event"",""trial"",""time""
""fullscreenenter"",""1"",""3402""
","
","","","484.0999999977648","","","14","10239","4842","h","elianto","#f73b6a7A","-1"," ","0","-10","[1342.9000000022352]","1","2","","","10239","30","3","4","lose","no-go","0"
"pit-trial","149","1093523","0.0-35.0","battery-v0.2","","""event"",""trial"",""time""
""fullscreenenter"",""1"",""3402""
","
","
","""event"",""trial"",""time""
""fullscreenenter"",""1"",""3402""
","
","","","702.0999999977648","","","14","10239","4842","m","elianto","#f73b6a7A"," "," ","1","0","[1558.199999999255]","1","2","","","10239","31","0","3","lose","go","0"
"pit-trial","150","1096987","0.0-36.0","battery-v0.2","","""event"",""trial"",""time""
""fullscreenenter"",""1"",""3402""
","
","
","""event"",""trial"",""time""
""fullscreenenter"",""1"",""3402""
","
","","","598.1000000014901","","","14","10239","4842","r","elianto","#3366ff99","-1"," ","0","0","[1452.0999999977648]","1","2","","","10239","32","1","2","win","no-go","0"
"pit-trial","151","1101859","0.0-37.0","battery-v0.2","","""event"",""trial"",""time""
""fullscreenenter"",""1"",""3402""
","
","
","""event"",""trial"",""time""
""fullscreenenter"",""1"",""3402""
","
","","","-1","","","14","10239","4842","r","elianto","#3366ff99","-1","-1","1","+10","[]","0","2","","","10239","33","1","2","win","no-go","0"
"pit-trial","152","1105483","0.0-38.0","battery-v0.2","","""event"",""trial"",""time""
""fullscreenenter"",""1"",""3402""
","
","
","""event"",""trial"",""time""
""fullscreenenter"",""1"",""3402""
","
","","","759.8000000007451","","","14","10239","4842","h","elianto","#f73b6a7A","-1"," ","0","0","[1610.5]","1","2","","","10239","34","3","4","lose","no-go","1"
"pit-trial","153","1109027","0.0-39.0","battery-v0.2","","""event"",""trial"",""time""
""fullscreenenter"",""1"",""3402""
","
","
","""event"",""trial"",""time""
""fullscreenenter"",""1"",""3402""
","
","","","675.5999999977648","","","14","10239","4842","y","elianto","#f73b6a7A"," "," ","1","0","[1528.9000000022352]","1","2","","","10239","35","2","3","lose","go","0"
"pit-trial","154","1112699","0.0-40.0","battery-v0.2","","""event"",""trial"",""time""
""fullscreenenter"",""1"",""3402""
","
","
","""event"",""trial"",""time""
""fullscreenenter"",""1"",""3402""
","
","","","814.4000000022352","","","14","10239","4842","m","elianto","#f73b6a7A"," "," ","1","0","[1665.199999999255]","1","2","","","10239","36","0","3","lose","go","0"
"pit-trial","155","1116395","0.0-41.0","battery-v0.2","","""event"",""trial"",""time""
""fullscreenenter"",""1"",""3402""
","
","
","""event"",""trial"",""time""
""fullscreenenter"",""1"",""3402""
","
","","","833.5","","","14","10239","4842","m","elianto","#f73b6a7A"," "," ","1","0","[1683.9000000022352]","1","2","","","10239","37","0","3","lose","go","0"
"pit-trial","156","1121267","0.0-42.0","battery-v0.2","","""event"",""trial"",""time""
""fullscreenenter"",""1"",""3402""
","
","
","""event"",""trial"",""time""
""fullscreenenter"",""1"",""3402""
","
","","","-1","","","14","10239","4842","r","elianto","#3366ff99","-1","-1","1","+10","[]","0","2","","","10239","38","1","2","win","no-go","0"
"pit-trial","157","1126139","0.0-43.0","battery-v0.2","","""event"",""trial"",""time""
""fullscreenenter"",""1"",""3402""
","
","
","""event"",""trial"",""time""
""fullscreenenter"",""1"",""3402""
","
","","","-1","","","14","10239","4842","h","elianto","#f73b6a7A","-1","-1","1","-10","[]","0","2","","","10239","39","3","4","lose","no-go","1"
"pit-trial","158","1129611","0.0-44.0","battery-v0.2","","""event"",""trial"",""time""
""fullscreenenter"",""1"",""3402""
","
","
","""event"",""trial"",""time""
""fullscreenenter"",""1"",""3402""
","
","","","612","","","14","10239","4842","y","elianto","#f73b6a7A"," "," ","1","0","[1464.0999999977648]","1","2","","","10239","40","2","3","lose","go","0"
"pit-trial","159","1134483","0.0-45.0","battery-v0.2","","""event"",""trial"",""time""
""fullscreenenter"",""1"",""3402""
","
","
","""event"",""trial"",""time""
""fullscreenenter"",""1"",""3402""
","
","","","-1","","","14","10239","4842","r","elianto","#3366ff99","-1","-1","1","+10","[]","0","2","","","10239","41","1","2","win","no-go","0"
"pit-trial","160","1138155","0.0-46.0","battery-v0.2","","""event"",""trial"",""time""
""fullscreenenter"",""1"",""3402""
","
","
","""event"",""trial"",""time""
""fullscreenenter"",""1"",""3402""
","
","","","805","","","14","10239","4842","y","elianto","#f73b6a7A"," "," ","1","-10","[1659.2000000029802]","1","2","","","10239","42","2","3","lose","go","1"
"pit-trial","161","1141579","0.0-47.0","battery-v0.2","","""event"",""trial"",""time""
""fullscreenenter"",""1"",""3402""
","
","
","""event"",""trial"",""time""
""fullscreenenter"",""1"",""3402""
","
","","","556.5999999977648","","","14","10239","4842","m","elianto","#f73b6a7A"," "," ","1","0","[1413.300000000745,3364.900000002235]","2","2","","","10239","43","0","3","lose","go","0"
"pit-trial","162","1146451","0.0-48.0","battery-v0.2","","""event"",""trial"",""time""
""fullscreenenter"",""1"",""3402""
","
","
","""event"",""trial"",""time""
""fullscreenenter"",""1"",""3402""
","
","","","-1","","","14","10239","4842","h","elianto","#f73b6a7A","-1","-1","1","0","[]","0","2","","","10239","44","3","4","lose","no-go","0"
"pit-trial","163","1150139","0.0-49.0","battery-v0.2","","""event"",""trial"",""time""
""fullscreenenter"",""1"",""3402""
","
","
","""event"",""trial"",""time""
""fullscreenenter"",""1"",""3402""
","
","","","821.3999999985099","","","14","10239","4842","y","elianto","#f73b6a7A"," "," ","1","0","[1677.199999999255]","1","2","","","10239","45","2","3","lose","go","0"
"pit-trial","164","1153491","0.0-50.0","battery-v0.2","","""event"",""trial"",""time""
""fullscreenenter"",""1"",""3402""
","
","
","""event"",""trial"",""time""
""fullscreenenter"",""1"",""3402""
","
","","","487.19999999925494","","","14","10239","4842","m","elianto","#f73b6a7A"," "," ","1","0","[1343.5999999977648]","1","2","","","10239","46","0","3","lose","go","0"
"pit-trial","165","1158363","0.0-51.0","battery-v0.2","","""event"",""trial"",""time""
""fullscreenenter"",""1"",""3402""
","
","
","""event"",""trial"",""time""
""fullscreenenter"",""1"",""3402""
","
","","","-1","","","14","10239","4842","r","elianto","#3366ff99","-1","-1","1","0","[]","0","2","","","10239","47","1","2","win","no-go","1"
"pit-trial","166","1161755","0.0-52.0","battery-v0.2","","""event"",""trial"",""time""
""fullscreenenter"",""1"",""3402""
","
","
","""event"",""trial"",""time""
""fullscreenenter"",""1"",""3402""
","
","","","519.6000000014901","","","14","10239","4842","h","elianto","#f73b6a7A","-1"," ","0","-10","[1381.1000000014901]","1","2","","","10239","48","3","4","lose","no-go","0"
"pit-trial","167","1166627","0.0-53.0","battery-v0.2","","""event"",""trial"",""time""
""fullscreenenter"",""1"",""3402""
","
","
","""event"",""trial"",""time""
""fullscreenenter"",""1"",""3402""
","
","","","-1","","","14","10239","4842","h","elianto","#f73b6a7A","-1","-1","1","-10","[]","0","2","","","10239","49","3","4","lose","no-go","1"
"pit-trial","168","1171499","0.0-54.0","battery-v0.2","","""event"",""trial"",""time""
""fullscreenenter"",""1"",""3402""
","
","
","""event"",""trial"",""time""
""fullscreenenter"",""1"",""3402""
","
","","","-1","","","14","10239","4842","r","elianto","#3366ff99","-1","-1","1","+10","[]","0","2","","","10239","50","1","2","win","no-go","0"
"pit-trial","169","1175011","0.0-55.0","battery-v0.2","","""event"",""trial"",""time""
""fullscreenenter"",""1"",""3402""
","
","
","""event"",""trial"",""time""
""fullscreenenter"",""1"",""3402""
","
","","","651.3999999985099","","","14","10239","4842","y","elianto","#f73b6a7A"," "," ","1","-10","[1503.8999999985099]","1","2","","","10239","51","2","3","lose","go","1"
"pit-trial","170","1178411","0.0-56.0","battery-v0.2","","""event"",""trial"",""time""
""fullscreenenter"",""1"",""3402""
","
","
","""event"",""trial"",""time""
""fullscreenenter"",""1"",""3402""
","
","","","532.2999999970198","","","14","10239","4842","m","elianto","#f73b6a7A"," "," ","1","-10","[1385.3999999985099]","1","2","","","10239","52","0","3","lose","go","1"
"pit-trial","171","1183282","0.0-57.0","battery-v0.2","","""event"",""trial"",""time""
""fullscreenenter"",""1"",""3402""
","
","
","""event"",""trial"",""time""
""fullscreenenter"",""1"",""3402""
","
","","","-1","","","14","10239","4842","h","elianto","#f73b6a7A","-1","-1","1","0","[]","0","2","","","10239","53","3","4","lose","no-go","0"
"pit-trial","172","1187083","0.0-58.0","battery-v0.2","","""event"",""trial"",""time""
""fullscreenenter"",""1"",""3402""
","
","
","""event"",""trial"",""time""
""fullscreenenter"",""1"",""3402""
","
","","","937.1999999992549","","","14","10239","4842","y","elianto","#f73b6a7A"," "," ","1","0","[1793.1000000014901]","1","2","","","10239","54","2","3","lose","go","0"
"pit-trial","173","1191955","0.0-59.0","battery-v0.2","","""event"",""trial"",""time""
""fullscreenenter"",""1"",""3402""
","
","
","""event"",""trial"",""time""
""fullscreenenter"",""1"",""3402""
","
","","","-1","","","14","10239","4842","r","elianto","#3366ff99","-1","-1","1","+10","[]","0","2","","","10239","55","1","2","win","no-go","0"
"pit-trial","174","1195523","0.0-60.0","battery-v0.2","","""event"",""trial"",""time""
""fullscreenenter"",""1"",""3402""
","
","
","""event"",""trial"",""time""
""fullscreenenter"",""1"",""3402""
","
","","","702.5","","","14","10239","4842","m","elianto","#f73b6a7A"," "," ","1","-10","[1553.199999999255]","1","2","","","10239","56","0","3","lose","go","1"
"pit-trial","175","1200395","0.0-61.0","battery-v0.2","","""event"",""trial"",""time""
""fullscreenenter"",""1"",""3402""
","
","
","""event"",""trial"",""time""
""fullscreenenter"",""1"",""3402""
","
","","","-1","","","14","10239","4842","z","elianto","#3366ff99"," ","-1","0","0","[]","0","2","","","10239","57","4","1","win","go","0"
"pit-trial","176","1203947","0.0-62.0","battery-v0.2","","""event"",""trial"",""time""
""fullscreenenter"",""1"",""3402""
","
","
","""event"",""trial"",""time""
""fullscreenenter"",""1"",""3402""
","
","","","692.1999999992549","","","14","10239","4842","y","elianto","#f73b6a7A"," "," ","1","0","[1542.5]","1","2","","","10239","58","2","3","lose","go","0"
"pit-trial","177","1208819","0.0-63.0","battery-v0.2","","""event"",""trial"",""time""
""fullscreenenter"",""1"",""3402""
","
","
","""event"",""trial"",""time""
""fullscreenenter"",""1"",""3402""
","
","","","-1","","","14","10239","4842","h","elianto","#f73b6a7A","-1","-1","1","-10","[]","0","2","","","10239","59","3","4","lose","no-go","1"
"pit-trial","178","1212315","0.0-64.0","battery-v0.2","","""event"",""trial"",""time""
""fullscreenenter"",""1"",""3402""
","
","
","""event"",""trial"",""time""
""fullscreenenter"",""1"",""3402""
","
","","","626","","","14","10239","4842","m","elianto","#f73b6a7A"," "," ","1","0","[1488.199999999255]","1","2","","","10239","60","0","3","lose","go","0"
"pit-trial","179","1215955","0.0-65.0","battery-v0.2","","""event"",""trial"",""time""
""fullscreenenter"",""1"",""3402""
","
","
","""event"",""trial"",""time""
""fullscreenenter"",""1"",""3402""
","
","","","776.8000000007451","","","14","10239","4842","y","elianto","#f73b6a7A"," "," ","1","0","[1627.2000000029802]","1","2","","","10239","61","2","3","lose","go","0"
"pit-trial","180","1220827","0.0-66.0","battery-v0.2","","""event"",""trial"",""time""
""fullscreenenter"",""1"",""3402""
","
","
","""event"",""trial"",""time""
""fullscreenenter"",""1"",""3402""
","
","","","-1","","","14","10239","4842","r","elianto","#3366ff99","-1","-1","1","+10","[]","0","2","","","10239","62","1","2","win","no-go","0"
"pit-trial","181","1224419","0.0-67.0","battery-v0.2","","""event"",""trial"",""time""
""fullscreenenter"",""1"",""3402""
","
","
","""event"",""trial"",""time""
""fullscreenenter"",""1"",""3402""
","
","","","725.2999999970198","","","14","10239","4842","z","elianto","#3366ff99"," "," ","1","+10","[1582.199999999255,2910.199999999255]","2","2","","","10239","63","4","1","win","go","0"
"pit-trial","182","1229290","0.0-68.0","battery-v0.2","","""event"",""trial"",""time""
""fullscreenenter"",""1"",""3402""
","
","
","""event"",""trial"",""time""
""fullscreenenter"",""1"",""3402""
","
","","","-1","","","14","10239","4842","h","elianto","#f73b6a7A","-1","-1","1","0","[]","0","2","","","10239","64","3","4","lose","no-go","0"
"pit-trial","183","1232954","0.0-69.0","battery-v0.2","","""event"",""trial"",""time""
""fullscreenenter"",""1"",""3402""
","
","
","""event"",""trial"",""time""
""fullscreenenter"",""1"",""3402""
","
","","","794.6000000014901","","","14","10239","4842","z","elianto","#3366ff99"," "," ","1","+10","[1651.6000000014901]","1","2","","","10239","65","4","1","win","go","0"
"pit-trial","184","1237819","0.0-70.0","battery-v0.2","","""event"",""trial"",""time""
""fullscreenenter"",""1"",""3402""
","
","
","""event"",""trial"",""time""
""fullscreenenter"",""1"",""3402""
","
","","","-1","","","14","10239","4842","h","elianto","#f73b6a7A","-1","-1","1","0","[]","0","2","","","10239","66","3","4","lose","no-go","0"
"pit-trial","185","1241459","0.0-71.0","battery-v0.2","","""event"",""trial"",""time""
""fullscreenenter"",""1"",""3402""
","
","
","""event"",""trial"",""time""
""fullscreenenter"",""1"",""3402""
","
","","","773.1999999992549","","","14","10239","4842","c","elianto","#3366ff99","-1"," ","0","+10","[1631.2999999970198]","1","2","","","10239","67","5","2","win","no-go","1"
"pit-trial","186","1246331","0.0-72.0","battery-v0.2","","""event"",""trial"",""time""
""fullscreenenter"",""1"",""3402""
","
","
","""event"",""trial"",""time""
""fullscreenenter"",""1"",""3402""
","
","","","-1","","","14","10239","4842","r","elianto","#3366ff99","-1","-1","1","0","[]","0","2","","","10239","68","1","2","win","no-go","1"
"pit-trial","187","1249931","0.0-73.0","battery-v0.2","","""event"",""trial"",""time""
""fullscreenenter"",""1"",""3402""
","
","
","""event"",""trial"",""time""
""fullscreenenter"",""1"",""3402""
","
","","","727.8000000007451","","","14","10239","4842","z","elianto","#3366ff99"," "," ","1","+10","[1591.699999999255]","1","2","","","10239","69","4","1","win","go","0"
"pit-trial","188","1253619","0.0-74.0","battery-v0.2","","""event"",""trial"",""time""
""fullscreenenter"",""1"",""3402""
","
","
","""event"",""trial"",""time""
""fullscreenenter"",""1"",""3402""
","
","","","824.3000000007451","","","14","10239","4842","y","elianto","#f73b6a7A"," "," ","1","0","[1679.300000000745]","1","2","","","10239","70","2","3","lose","go","0"
"pit-trial","189","1257219","0.0-75.0","battery-v0.2","","""event"",""trial"",""time""
""fullscreenenter"",""1"",""3402""
","
","
","""event"",""trial"",""time""
""fullscreenenter"",""1"",""3402""
","
","","","732.5","","","14","10239","4842","c","elianto","#3366ff99","-1"," ","0","0","[1588.1000000014901]","1","2","","","10239","71","5","2","win","no-go","0"
"pit-trial","190","1262091","0.0-76.0","battery-v0.2","","""event"",""trial"",""time""
""fullscreenenter"",""1"",""3402""
","
","
","""event"",""trial"",""time""
""fullscreenenter"",""1"",""3402""
","
","","","-1","","","14","10239","4842","r","elianto","#3366ff99","-1","-1","1","+10","[]","0","2","","","10239","72","1","2","win","no-go","0"
"pit-trial","191","1265635","0.0-77.0","battery-v0.2","","""event"",""trial"",""time""
""fullscreenenter"",""1"",""3402""
","
","
","""event"",""trial"",""time""
""fullscreenenter"",""1"",""3402""
","
","","","675.1999999992549","","","14","10239","4842","c","elianto","#3366ff99","-1"," ","0","0","[1530.5]","1","2","","","10239","73","5","2","win","no-go","0"
"pit-trial","192","1270507","0.0-78.0","battery-v0.2","","""event"",""trial"",""time""
""fullscreenenter"",""1"",""3402""
","
","
","""event"",""trial"",""time""
""fullscreenenter"",""1"",""3402""
","
","","","-1","","","14","10239","4842","h","elianto","#f73b6a7A","-1","-1","1","-10","[]","0","2","","","10239","74","3","4","lose","no-go","1"
"pit-trial","193","1274068","0.0-79.0","battery-v0.2","","""event"",""trial"",""time""
""fullscreenenter"",""1"",""3402""
","
","
","""event"",""trial"",""time""
""fullscreenenter"",""1"",""3402""
","
","","","693.1999999992549","","","14","10239","4842","z","elianto","#3366ff99"," "," ","1","0","[1551.3999999985099]","1","2","","","10239","75","4","1","win","go","1"
"pit-trial","194","1278940","0.0-80.0","battery-v0.2","","""event"",""trial"",""time""
""fullscreenenter"",""1"",""3402""
","
","
","""event"",""trial"",""time""
""fullscreenenter"",""1"",""3402""
","
","","","-1","","","14","10239","4842","r","elianto","#3366ff99","-1","-1","1","0","[]","0","2","","","10239","76","1","2","win","no-go","1"
"pit-trial","195","1283811","0.0-81.0","battery-v0.2","","""event"",""trial"",""time""
""fullscreenenter"",""1"",""3402""
","
","
","""event"",""trial"",""time""
""fullscreenenter"",""1"",""3402""
","
","","","-1","","","14","10239","4842","c","elianto","#3366ff99","-1","-1","1","+10","[]","0","2","","","10239","77","5","2","win","no-go","0"
"pit-trial","196","1287731","0.0-82.0","battery-v0.2","","""event"",""trial"",""time""
""fullscreenenter"",""1"",""3402""
","
","
","""event"",""trial"",""time""
""fullscreenenter"",""1"",""3402""
","
","","","1047","","","14","10239","4842","h","elianto","#f73b6a7A","-1"," ","0","-10","[1903.5999999977648]","1","2","","","10239","78","3","4","lose","no-go","0"
"pit-trial","197","1291315","0.0-83.0","battery-v0.2","","""event"",""trial"",""time""
""fullscreenenter"",""1"",""3402""
","
","
","""event"",""trial"",""time""
""fullscreenenter"",""1"",""3402""
","
","","","720.6000000014901","","","14","10239","4842","z","elianto","#3366ff99"," "," ","1","0","[1573.2999999970198]","1","2","","","10239","79","4","1","win","go","1"
"pit-trial","198","1294923","0.0-84.0","battery-v0.2","","""event"",""trial"",""time""
""fullscreenenter"",""1"",""3402""
","
","
","""event"",""trial"",""time""
""fullscreenenter"",""1"",""3402""
","
","","","743.3999999985099","","","14","10239","4842","z","elianto","#3366ff99"," "," ","1","+10","[1599.699999999255]","1","2","","","10239","80","4","1","win","go","0"
"pit-trial","199","1298467","0.0-85.0","battery-v0.2","","""event"",""trial"",""time""
""fullscreenenter"",""1"",""3402""
","
","
","""event"",""trial"",""time""
""fullscreenenter"",""1"",""3402""
","
","","","674.5","","","14","10239","4842","z","elianto","#3366ff99"," "," ","1","+10","[1532.3999999985099]","1","2","","","10239","81","4","1","win","go","0"
"pit-trial","200","1303339","0.0-86.0","battery-v0.2","","""event"",""trial"",""time""
""fullscreenenter"",""1"",""3402""
","
","
","""event"",""trial"",""time""
""fullscreenenter"",""1"",""3402""
","
","","","-1","","","14","10239","4842","c","elianto","#3366ff99","-1","-1","1","+10","[]","0","2","","","10239","82","5","2","win","no-go","0"
"pit-trial","201","1306899","0.0-87.0","battery-v0.2","","""event"",""trial"",""time""
""fullscreenenter"",""1"",""3402""
","
","
","""event"",""trial"",""time""
""fullscreenenter"",""1"",""3402""
","
","","","694.1999999992549","","","14","10239","4842","h","elianto","#f73b6a7A","-1"," ","0","-10","[1547.6000000014901]","1","2","","","10239","83","3","4","lose","no-go","0"
"pit-trial","202","1310915","0.0-88.0","battery-v0.2","","""event"",""trial"",""time""
""fullscreenenter"",""1"",""3402""
","
","
","""event"",""trial"",""time""
""fullscreenenter"",""1"",""3402""
","
","","","1147.1000000014901","","","14","10239","4842","t","elianto","#f73b6a7A","-1"," ","0","-10","[2004.5999999977648]","1","2","","","10239","84","7","4","lose","no-go","0"
"pit-trial","203","1315787","0.0-89.0","battery-v0.2","","""event"",""trial"",""time""
""fullscreenenter"",""1"",""3402""
","
","
","""event"",""trial"",""time""
""fullscreenenter"",""1"",""3402""
","
","","","-1","","","14","10239","4842","c","elianto","#3366ff99","-1","-1","1","+10","[]","0","2","","","10239","85","5","2","win","no-go","0"
"pit-trial","204","1319451","0.0-90.0","battery-v0.2","","""event"",""trial"",""time""
""fullscreenenter"",""1"",""3402""
","
","
","""event"",""trial"",""time""
""fullscreenenter"",""1"",""3402""
","
","","","798.6000000014901","","","14","10239","4842","z","elianto","#3366ff99"," "," ","1","+10","[1652.7999999970198]","1","2","","","10239","86","4","1","win","go","0"
"pit-trial","205","1323858","0.0-91.0","battery-v0.2","","""event"",""trial"",""time""
""fullscreenenter"",""1"",""3402""
","
","
","""event"",""trial"",""time""
""fullscreenenter"",""1"",""3402""
","
","","","1544.8999999985099","","","14","10239","4842","b","elianto","#f73b6a7A"," "," ","1","-10","[2399.699999999255]","1","2","","","10239","87","6","3","lose","go","1"
"pit-trial","206","1327699","0.0-92.0","battery-v0.2","","""event"",""trial"",""time""
""fullscreenenter"",""1"",""3402""
","
","
","""event"",""trial"",""time""
""fullscreenenter"",""1"",""3402""
","
","","","973","","","14","10239","4842","t","elianto","#f73b6a7A","-1"," ","0","-10","[1829.300000000745]","1","2","","","10239","88","7","4","lose","no-go","0"
"pit-trial","207","1332571","0.0-93.0","battery-v0.2","","""event"",""trial"",""time""
""fullscreenenter"",""1"",""3402""
","
","
","""event"",""trial"",""time""
""fullscreenenter"",""1"",""3402""
","
","","","-1","","","14","10239","4842","c","elianto","#3366ff99","-1","-1","1","+10","[3831.199999999255]","1","2","","","10239","89","5","2","win","no-go","0"
"pit-trial","208","1336276","0.0-94.0","battery-v0.2","","""event"",""trial"",""time""
""fullscreenenter"",""1"",""3402""
","
","
","""event"",""trial"",""time""
""fullscreenenter"",""1"",""3402""
","
","","","839.5","","","14","10239","4842","z","elianto","#3366ff99"," "," ","1","+10","[1694.5]","1","2","","","10239","90","4","1","win","go","0"
"pit-trial","209","1341147","0.0-95.0","battery-v0.2","","""event"",""trial"",""time""
""fullscreenenter"",""1"",""3402""
","
","
","""event"",""trial"",""time""
""fullscreenenter"",""1"",""3402""
","
","","","-1","","","14","10239","4842","t","elianto","#f73b6a7A","-1","-1","1","0","[]","0","2","","","10239","91","7","4","lose","no-go","0"
"pit-trial","210","1346019","0.0-96.0","battery-v0.2","","""event"",""trial"",""time""
""fullscreenenter"",""1"",""3402""
","
","
","""event"",""trial"",""time""
""fullscreenenter"",""1"",""3402""
","
","","","-1","","","14","10239","4842","b","elianto","#f73b6a7A"," ","-1","0","-10","[]","0","2","","","10239","92","6","3","lose","go","0"
"pit-trial","211","1349123","0.0-97.0","battery-v0.2","","""event"",""trial"",""time""
""fullscreenenter"",""1"",""3402""
","
","
","""event"",""trial"",""time""
""fullscreenenter"",""1"",""3402""
","
","","","235.39999999850988","","","14","10239","4842","f","elianto","#3366ff99"," "," ","1","+10","[1092]","1","2","","","10239","93","8","1","win","go","0"
"pit-trial","212","1353996","0.0-98.0","battery-v0.2","","""event"",""trial"",""time""
""fullscreenenter"",""1"",""3402""
","
","
","""event"",""trial"",""time""
""fullscreenenter"",""1"",""3402""
","
","","","-1","","","14","10239","4842","b","elianto","#f73b6a7A"," ","-1","0","-10","[]","0","2","","","10239","94","6","3","lose","go","0"
"pit-trial","213","1357619","0.0-99.0","battery-v0.2","","""event"",""trial"",""time""
""fullscreenenter"",""1"",""3402""
","
","
","""event"",""trial"",""time""
""fullscreenenter"",""1"",""3402""
","
","","","762.2000000029802","","","14","10239","4842","c","elianto","#3366ff99","-1"," ","0","+10","[1614.6000000014901]","1","2","","","10239","95","5","2","win","no-go","1"
"pit-trial","214","1361563","0.0-100.0","battery-v0.2","","""event"",""trial"",""time""
""fullscreenenter"",""1"",""3402""
","
","
","""event"",""trial"",""time""
""fullscreenenter"",""1"",""3402""
","
","","","1085.300000000745","","","14","10239","4842","t","elianto","#f73b6a7A","-1"," ","0","-10","[1936.3999999985099]","1","2","","","10239","96","7","4","lose","no-go","0"
"pit-trial","215","1366219","0.0-101.0","battery-v0.2","","""event"",""trial"",""time""
""fullscreenenter"",""1"",""3402""
","
","
","""event"",""trial"",""time""
""fullscreenenter"",""1"",""3402""
","
","","","1788","","","14","10239","4842","b","elianto","#f73b6a7A"," "," ","1","0","[2642.199999999255]","1","2","","","10239","97","6","3","lose","go","0"
"pit-trial","216","1369883","0.0-102.0","battery-v0.2","","""event"",""trial"",""time""
""fullscreenenter"",""1"",""3402""
","
","
","""event"",""trial"",""time""
""fullscreenenter"",""1"",""3402""
","
","","","791.6000000014901","","","14","10239","4842","f","elianto","#3366ff99"," "," ","1","0","[1655]","1","2","","","10239","98","8","1","win","go","1"
"pit-trial","217","1373515","0.0-103.0","battery-v0.2","","""event"",""trial"",""time""
""fullscreenenter"",""1"",""3402""
","
","
","""event"",""trial"",""time""
""fullscreenenter"",""1"",""3402""
","
","","","767","","","14","10239","4842","c","elianto","#3366ff99","-1"," ","0","0","[685.8999999985099,1623.699999999255]","2","2","","","10239","99","5","2","win","no-go","0"
"pit-trial","218","1378171","0.0-104.0","battery-v0.2","","""event"",""trial"",""time""
""fullscreenenter"",""1"",""3402""
","
","
","""event"",""trial"",""time""
""fullscreenenter"",""1"",""3402""
","
","","","1785.800000000745","","","14","10239","4842","t","elianto","#f73b6a7A","-1"," ","0","0","[2641.300000000745]","1","2","","","10239","100","7","4","lose","no-go","1"
"pit-trial","219","1382067","0.0-105.0","battery-v0.2","","""event"",""trial"",""time""
""fullscreenenter"",""1"",""3402""
","
","
","""event"",""trial"",""time""
""fullscreenenter"",""1"",""3402""
","
","","","1026.800000000745","","","14","10239","4842","f","elianto","#3366ff99"," "," ","1","+10","[1881]","1","2","","","10239","101","8","1","win","go","0"
"pit-trial","220","1385659","0.0-106.0","battery-v0.2","","""event"",""trial"",""time""
""fullscreenenter"",""1"",""3402""
","
","
","""event"",""trial"",""time""
""fullscreenenter"",""1"",""3402""
","
","","","720.6999999992549","","","14","10239","4842","n","elianto","#3366ff99"," "," ","1","+10","[1577.6000000014901]","1","2","","","10239","102","9","1","win","go","0"
"pit-trial","221","1389691","0.0-107.0","battery-v0.2","","""event"",""trial"",""time""
""fullscreenenter"",""1"",""3402""
","
","
","""event"",""trial"",""time""
""fullscreenenter"",""1"",""3402""
","
","","","1168.3999999985099","","","14","10239","4842","t","elianto","#f73b6a7A","-1"," ","0","-10","[2024.6000000014901]","1","2","","","10239","103","7","4","lose","no-go","0"
"pit-trial","222","1393171","0.0-108.0","battery-v0.2","","""event"",""trial"",""time""
""fullscreenenter"",""1"",""3402""
","
","
","""event"",""trial"",""time""
""fullscreenenter"",""1"",""3402""
","
","","","610.8999999985099","","","14","10239","4842","c","elianto","#3366ff99","-1"," ","0","0","[1466]","1","2","","","10239","104","5","2","win","no-go","0"
"pit-trial","223","1398044","0.0-109.0","battery-v0.2","","""event"",""trial"",""time""
""fullscreenenter"",""1"",""3402""
","
","
","""event"",""trial"",""time""
""fullscreenenter"",""1"",""3402""
","
","","","-1","","","14","10239","4842","b","elianto","#f73b6a7A"," ","-1","0","-10","[]","0","2","","","10239","105","6","3","lose","go","0"
"pit-trial","224","1401618","0.0-110.0","battery-v0.2","","""event"",""trial"",""time""
""fullscreenenter"",""1"",""3402""
","
","
","""event"",""trial"",""time""
""fullscreenenter"",""1"",""3402""
","
","","","706","","","14","10239","4842","n","elianto","#3366ff99"," "," ","1","+10","[1560.5]","1","2","","","10239","106","9","1","win","go","0"
"pit-trial","225","1405669","0.0-111.0","battery-v0.2","","""event"",""trial"",""time""
""fullscreenenter"",""1"",""3402""
","
","
","""event"",""trial"",""time""
""fullscreenenter"",""1"",""3402""
","
","","","1185.6000000014901","","","14","10239","4842","z","elianto","#3366ff99"," "," ","1","+10","[2040.8999999985099]","1","2","","","10239","107","4","1","win","go","0"
"pit-trial","226","1409251","0.0-112.0","battery-v0.2","","""event"",""trial"",""time""
""fullscreenenter"",""1"",""3402""
","
","
","""event"",""trial"",""time""
""fullscreenenter"",""1"",""3402""
","
","","","719.3000000007451","","","14","10239","4842","f","elianto","#3366ff99"," "," ","1","+10","[1571.3999999985099]","1","2","","","10239","108","8","1","win","go","0"
"pit-trial","227","1412763","0.0-113.0","battery-v0.2","","""event"",""trial"",""time""
""fullscreenenter"",""1"",""3402""
","
","
","""event"",""trial"",""time""
""fullscreenenter"",""1"",""3402""
","
","","","647.3999999985099","","","14","10239","4842","n","elianto","#3366ff99"," "," ","1","+10","[1499.5,2107.5]","2","2","","","10239","109","9","1","win","go","0"
"pit-trial","228","1417635","0.0-114.0","battery-v0.2","","""event"",""trial"",""time""
""fullscreenenter"",""1"",""3402""
","
","
","""event"",""trial"",""time""
""fullscreenenter"",""1"",""3402""
","
","","","-1","","","14","10239","4842","b","elianto","#f73b6a7A"," ","-1","0","0","[]","0","2","","","10239","110","6","3","lose","go","1"
"pit-trial","229","1421203","0.0-115.0","battery-v0.2","","""event"",""trial"",""time""
""fullscreenenter"",""1"",""3402""
","
","
","""event"",""trial"",""time""
""fullscreenenter"",""1"",""3402""
","
","","","700.3000000007451","","","14","10239","4842","f","elianto","#3366ff99"," "," ","1","+10","[1552.6000000014901]","1","2","","","10239","111","8","1","win","go","0"
"pit-trial","230","1424835","0.0-116.0","battery-v0.2","","""event"",""trial"",""time""
""fullscreenenter"",""1"",""3402""
","
","
","""event"",""trial"",""time""
""fullscreenenter"",""1"",""3402""
","
","","","761.9000000022352","","","14","10239","4842","c","elianto","#3366ff99","-1"," ","0","0","[1618.6000000014901]","1","2","","","10239","112","5","2","win","no-go","0"
"pit-trial","231","1428571","0.0-117.0","battery-v0.2","","""event"",""trial"",""time""
""fullscreenenter"",""1"",""3402""
","
","
","""event"",""trial"",""time""
""fullscreenenter"",""1"",""3402""
","
","","","874.3999999985099","","","14","10239","4842","f","elianto","#3366ff99"," "," ","1","+10","[1724.6000000014901]","1","2","","","10239","113","8","1","win","go","0"
"pit-trial","232","1433444","0.0-118.0","battery-v0.2","","""event"",""trial"",""time""
""fullscreenenter"",""1"",""3402""
","
","
","""event"",""trial"",""time""
""fullscreenenter"",""1"",""3402""
","
","","","-1","","","14","10239","4842","b","elianto","#f73b6a7A"," ","-1","0","0","[]","0","2","","","10239","114","6","3","lose","go","1"
"pit-trial","233","1436771","0.0-119.0","battery-v0.2","","""event"",""trial"",""time""
""fullscreenenter"",""1"",""3402""
","
","
","""event"",""trial"",""time""
""fullscreenenter"",""1"",""3402""
","
","","","463.30000000074506","","","14","10239","4842","n","elianto","#3366ff99"," "," ","1","+10","[1315.5]","1","2","","","10239","115","9","1","win","go","0"
"pit-trial","234","1440219","0.0-120.0","battery-v0.2","","""event"",""trial"",""time""
""fullscreenenter"",""1"",""3402""
","
","
","""event"",""trial"",""time""
""fullscreenenter"",""1"",""3402""
","
","","","579.8999999985099","","","14","10239","4842","c","elianto","#3366ff99","-1"," ","0","0","[1437.300000000745]","1","2","","","10239","116","5","2","win","no-go","0"
"pit-trial","235","1445092","0.0-121.0","battery-v0.2","","""event"",""trial"",""time""
""fullscreenenter"",""1"",""3402""
","
","
","""event"",""trial"",""time""
""fullscreenenter"",""1"",""3402""
","
","","","-1","","","14","10239","4842","b","elianto","#f73b6a7A"," ","-1","0","-10","[370]","1","2","","","10239","117","6","3","lose","go","0"
"pit-trial","236","1448523","0.0-122.0","battery-v0.2","","""event"",""trial"",""time""
""fullscreenenter"",""1"",""3402""
","
","
","""event"",""trial"",""time""
""fullscreenenter"",""1"",""3402""
","
","","","562.3000000007451","","","14","10239","4842","n","elianto","#3366ff99"," "," ","1","+10","[1418.6000000014901]","1","2","","","10239","118","9","1","win","go","0"
"pit-trial","237","1451891","0.0-123.0","battery-v0.2","","""event"",""trial"",""time""
""fullscreenenter"",""1"",""3402""
","
","
","""event"",""trial"",""time""
""fullscreenenter"",""1"",""3402""
","
","","","498.20000000298023","","","14","10239","4842","f","elianto","#3366ff99"," "," ","1","+10","[1355]","1","2","","","10239","119","8","1","win","go","0"
"pit-trial","238","1456763","0.0-124.0","battery-v0.2","","""event"",""trial"",""time""
""fullscreenenter"",""1"",""3402""
","
","
","""event"",""trial"",""time""
""fullscreenenter"",""1"",""3402""
","
","","","-1","","","14","10239","4842","c","elianto","#3366ff99","-1","-1","1","0","[]","0","2","","","10239","120","5","2","win","no-go","1"
"pit-trial","239","1461635","0.0-125.0","battery-v0.2","","""event"",""trial"",""time""
""fullscreenenter"",""1"",""3402""
","
","
","""event"",""trial"",""time""
""fullscreenenter"",""1"",""3402""
","
","","","-1","","","14","10239","4842","b","elianto","#f73b6a7A"," ","-1","0","-10","[]","0","2","","","10239","121","6","3","lose","go","0"
"pit-trial","240","1465619","0.0-126.0","battery-v0.2","","""event"",""trial"",""time""
""fullscreenenter"",""1"",""3402""
","
","
","""event"",""trial"",""time""
""fullscreenenter"",""1"",""3402""
","
","","","1114","","","14","10239","4842","n","elianto","#3366ff99"," "," ","1","+10","[1969.800000000745]","1","2","","","10239","122","9","1","win","go","0"
"pit-trial","241","1470492","0.0-127.0","battery-v0.2","","""event"",""trial"",""time""
""fullscreenenter"",""1"",""3402""
","
","
","""event"",""trial"",""time""
""fullscreenenter"",""1"",""3402""
","
","","","-1","","","14","10239","4842","t","elianto","#f73b6a7A","-1","-1","1","0","[]","0","2","","","10239","123","7","4","lose","no-go","0"
"pit-trial","242","1474042","0.0-128.0","battery-v0.2","","""event"",""trial"",""time""
""fullscreenenter"",""1"",""3402""
","
","
","""event"",""trial"",""time""
""fullscreenenter"",""1"",""3402""
","
","","","689.8999999985099","","","14","10239","4842","f","elianto","#3366ff99"," "," ","1","+10","[1541.300000000745,2584.199999999255]","2","2","","","10239","124","8","1","win","go","0"
"pit-trial","243","1477347","0.0-129.0","battery-v0.2","","""event"",""trial"",""time""
""fullscreenenter"",""1"",""3402""
","
","
","""event"",""trial"",""time""
""fullscreenenter"",""1"",""3402""
","
","","","433.3999999985099","","","14","10239","4842","t","elianto","#f73b6a7A","-1"," ","0","-10","[1291.5]","1","2","","","10239","125","7","4","lose","no-go","0"
"pit-trial","244","1480851","0.0-130.0","battery-v0.2","","""event"",""trial"",""time""
""fullscreenenter"",""1"",""3402""
","
","
","""event"",""trial"",""time""
""fullscreenenter"",""1"",""3402""
","
","","","643.0999999977648","","","14","10239","4842","f","elianto","#3366ff99"," "," ","1","+10","[1496.199999999255]","1","2","","","10239","126","8","1","win","go","0"
"pit-trial","245","1484403","0.0-131.0","battery-v0.2","","""event"",""trial"",""time""
""fullscreenenter"",""1"",""3402""
","
","
","""event"",""trial"",""time""
""fullscreenenter"",""1"",""3402""
","
","","","687.8000000007451","","","14","10239","4842","n","elianto","#3366ff99"," "," ","1","+10","[1542.5]","1","2","","","10239","127","9","1","win","go","0"
"pit-trial","246","1489275","0.0-132.0","battery-v0.2","","""event"",""trial"",""time""
""fullscreenenter"",""1"",""3402""
","
","
","""event"",""trial"",""time""
""fullscreenenter"",""1"",""3402""
","
","","","-1","","","14","10239","4842","b","elianto","#f73b6a7A"," ","-1","0","-10","[]","0","2","","","10239","128","6","3","lose","go","0"
"pit-trial","247","1492587","0.0-133.0","battery-v0.2","","""event"",""trial"",""time""
""fullscreenenter"",""1"",""3402""
","
","
","""event"",""trial"",""time""
""fullscreenenter"",""1"",""3402""
","
","","","438.19999999925494","","","14","10239","4842","t","elianto","#f73b6a7A","-1"," ","0","-10","[1297.4000000022352,2381.900000002235]","2","2","","","10239","129","7","4","lose","no-go","0"
"pit-trial","248","1496107","0.0-134.0","battery-v0.2","","""event"",""trial"",""time""
""fullscreenenter"",""1"",""3402""
","
","
","""event"",""trial"",""time""
""fullscreenenter"",""1"",""3402""
","
","","","652.6000000014901","","","14","10239","4842","f","elianto","#3366ff99"," "," ","1","0","[1507.699999999255]","1","2","","","10239","130","8","1","win","go","1"
"pit-trial","249","1500155","0.0-135.0","battery-v0.2","","""event"",""trial"",""time""
""fullscreenenter"",""1"",""3402""
","
","
","""event"",""trial"",""time""
""fullscreenenter"",""1"",""3402""
","
","","","1177.8999999985099","","","14","10239","4842","b","elianto","#f73b6a7A"," "," ","1","0","[2036.3999999985099]","1","2","","","10239","131","6","3","lose","go","0"
"pit-trial","250","1503643","0.0-136.0","battery-v0.2","","""event"",""trial"",""time""
""fullscreenenter"",""1"",""3402""
","
","
","""event"",""trial"",""time""
""fullscreenenter"",""1"",""3402""
","
","","","624.3000000007451","","","14","10239","4842","n","elianto","#3366ff99"," "," ","1","+10","[1480.1000000014901]","1","2","","","10239","132","9","1","win","go","0"
"pit-trial","251","1508515","0.0-137.0","battery-v0.2","","""event"",""trial"",""time""
""fullscreenenter"",""1"",""3402""
","
","
","""event"",""trial"",""time""
""fullscreenenter"",""1"",""3402""
","
","","","-1","","","14","10239","4842","b","elianto","#f73b6a7A"," ","-1","0","-10","[]","0","2","","","10239","133","6","3","lose","go","0"
"pit-trial","252","1513387","0.0-138.0","battery-v0.2","","""event"",""trial"",""time""
""fullscreenenter"",""1"",""3402""
","
","
","""event"",""trial"",""time""
""fullscreenenter"",""1"",""3402""
","
","","","-1","","","14","10239","4842","t","elianto","#f73b6a7A","-1","-1","1","-10","[]","0","2","","","10239","134","7","4","lose","no-go","1"
"pit-trial","253","1516891","0.0-139.0","battery-v0.2","","""event"",""trial"",""time""
""fullscreenenter"",""1"",""3402""
","
","
","""event"",""trial"",""time""
""fullscreenenter"",""1"",""3402""
","
","","","632.3000000007451","","","14","10239","4842","f","elianto","#3366ff99"," "," ","1","+10","[1489.1000000014901]","1","2","","","10239","135","8","1","win","go","0"
"pit-trial","254","1520363","0.0-140.0","battery-v0.2","","""event"",""trial"",""time""
""fullscreenenter"",""1"",""3402""
","
","
","""event"",""trial"",""time""
""fullscreenenter"",""1"",""3402""
","
","","","600.5","","","14","10239","4842","n","elianto","#3366ff99"," "," ","1","+10","[1460.5,1847.3999999985099]","2","2","","","10239","136","9","1","win","go","0"
"pit-trial","255","1525235","0.0-141.0","battery-v0.2","","""event"",""trial"",""time""
""fullscreenenter"",""1"",""3402""
","
","
","""event"",""trial"",""time""
""fullscreenenter"",""1"",""3402""
","
","","","-1","","","14","10239","4842","t","elianto","#f73b6a7A","-1","-1","1","0","[]","0","2","","","10239","137","7","4","lose","no-go","0"
"pit-trial","256","1528619","0.0-142.0","battery-v0.2","","""event"",""trial"",""time""
""fullscreenenter"",""1"",""3402""
","
","
","""event"",""trial"",""time""
""fullscreenenter"",""1"",""3402""
","
","","","518.6000000014901","","","14","10239","4842","f","elianto","#3366ff99"," "," ","1","+10","[1374.199999999255]","1","2","","","10239","138","8","1","win","go","0"
"pit-trial","257","1533491","0.0-143.0","battery-v0.2","","""event"",""trial"",""time""
""fullscreenenter"",""1"",""3402""
","
","
","""event"",""trial"",""time""
""fullscreenenter"",""1"",""3402""
","
","","","-1","","","14","10239","4842","b","elianto","#f73b6a7A"," ","-1","0","0","[]","0","2","","","10239","139","6","3","lose","go","1"
"pit-trial","258","1536755","0.0-144.0","battery-v0.2","","""event"",""trial"",""time""
""fullscreenenter"",""1"",""3402""
","
","
","""event"",""trial"",""time""
""fullscreenenter"",""1"",""3402""
","
","","","400.5","","","14","10239","4842","n","elianto","#3366ff99"," "," ","1","+10","[1252.1000000014901]","1","2","","","10239","140","9","1","win","go","0"
"pit-instructions","259","1563412","0.0-145.0","battery-v0.2","","""event"",""trial"",""time""
""fullscreenenter"",""1"",""3402""
","
","
","""event"",""trial"",""time""
""fullscreenenter"",""1"",""3402""
","
","","[{""page_index"":0,""viewing_time"":14989.89999999851},{""page_index"":1,""viewing_time"":11658.900000002235}]","26650","","","","","","","","","","","","","","","","","","","","","","","",""
"pit-trial","260","1566779","0.0-146.0","battery-v0.2","","""event"",""trial"",""time""
""fullscreenenter"",""1"",""3402""
","
","
","""event"",""trial"",""time""
""fullscreenenter"",""1"",""3402""
","
","","","492.5","","","14","10239","4842","e","elianto","#f73b6a7A","-1"," ","0","-10","[1346.2999999970198]","1","3","","","10239","141","2","4","lose","no-go","0"
"pit-trial","261","1570731","0.0-147.0","battery-v0.2","","""event"",""trial"",""time""
""fullscreenenter"",""1"",""3402""
","
","
","""event"",""trial"",""time""
""fullscreenenter"",""1"",""3402""
","
","","","1083.199999999255","","","14","10239","4842","w","elianto","#f73b6a7A"," "," ","1","0","[1939.5]","1","3","","","10239","142","3","3","lose","go","0"
"pit-trial","262","1574387","0.0-148.0","battery-v0.2","","""event"",""trial"",""time""
""fullscreenenter"",""1"",""3402""
","
","
","""event"",""trial"",""time""
""fullscreenenter"",""1"",""3402""
","
","","","792.3999999985099","","","14","10239","4842","j","elianto","#f73b6a7A","-1"," ","0","-10","[1644.7999999970198]","1","3","","","10239","143","0","4","lose","no-go","0"
"pit-trial","263","1577915","0.0-149.0","battery-v0.2","","""event"",""trial"",""time""
""fullscreenenter"",""1"",""3402""
","
","
","""event"",""trial"",""time""
""fullscreenenter"",""1"",""3402""
","
","","","665.7999999970198","","","14","10239","4842","d","elianto","#3366ff99"," "," ","1","+10","[1517.6000000014901]","1","3","","","10239","144","1","1","win","go","0"
"pit-trial","264","1581539","0.0-150.0","battery-v0.2","","""event"",""trial"",""time""
""fullscreenenter"",""1"",""3402""
","
","
","""event"",""trial"",""time""
""fullscreenenter"",""1"",""3402""
","
","","","757.1999999992549","","","14","10239","4842","w","elianto","#f73b6a7A"," "," ","1","0","[1610.4000000022352]","1","3","","","10239","145","3","3","lose","go","0"
"pit-trial","265","1585051","0.0-151.0","battery-v0.2","","""event"",""trial"",""time""
""fullscreenenter"",""1"",""3402""
","
","
","""event"",""trial"",""time""
""fullscreenenter"",""1"",""3402""
","
