"trial_type","trial_index","time_elapsed","internal_node_id","task_version","subject_id","interactions","blur_events","focus_events","fullscreenenter_events","fullscreenexit_events","success","view_history","rt","responses","num_errors","age","subject","participantId","rune","rune_set","hex","correct","choice","accuracy","outcome","keys","total_keys","block","practice","value","sub","trial","stimulus","robot","valence","action","sham"
"pavlovia","0","11","0.0-0.0","battery-v0.2","","""event"",""trial"",""time""
""blur"",""1"",""739""
""focus"",""1"",""4424""
""fullscreenenter"",""1"",""5250""
","""event"",""trial"",""time""
""blur"",""1"",""739""
","""event"",""trial"",""time""
""focus"",""1"",""4424""
","""event"",""trial"",""time""
""fullscreenenter"",""1"",""5250""
","
","","","","","","","","","","","","","","","","","","","","","","","","","","",""
"fullscreen","1","6226","0.0-1.0","battery-v0.2","","""event"",""trial"",""time""
""blur"",""1"",""739""
""focus"",""1"",""4424""
""fullscreenenter"",""1"",""5250""
","""event"",""trial"",""time""
""blur"",""1"",""739""
","""event"",""trial"",""time""
""focus"",""1"",""4424""
","""event"",""trial"",""time""
""fullscreenenter"",""1"",""5250""
","
","true","","","","","","","","","","","","","","","","","","","","","","","","","",""
"pit-instructions","2","10289","0.0-2.0-0.0","battery-v0.2","","""event"",""trial"",""time""
""blur"",""1"",""739""
""focus"",""1"",""4424""
""fullscreenenter"",""1"",""5250""
","""event"",""trial"",""time""
""blur"",""1"",""739""
","""event"",""trial"",""time""
""focus"",""1"",""4424""
","""event"",""trial"",""time""
""fullscreenenter"",""1"",""5250""
","
","","[{""page_index"":0,""viewing_time"":4053}]","4053.600000023842","","","","","","","","","","","","","","","","","","","","","","","",""
"pit-comprehension","3","22745","0.0-2.0-1.0-0.0","battery-v0.2","","""event"",""trial"",""time""
""blur"",""1"",""739""
""focus"",""1"",""4424""
""fullscreenenter"",""1"",""5250""
","""event"",""trial"",""time""
""blur"",""1"",""739""
","""event"",""trial"",""time""
""focus"",""1"",""4424""
","""event"",""trial"",""time""
""fullscreenenter"",""1"",""5250""
","
","","","12452.300000011921","[""shark""]","0","16","3759","843","","","","","","","","","","","","","","","","","","",""
"pit-instructions","4","28921","0.0-2.0-1.0-1.0","battery-v0.2","","""event"",""trial"",""time""
""blur"",""1"",""739""
""focus"",""1"",""4424""
""fullscreenenter"",""1"",""5250""
","""event"",""trial"",""time""
""blur"",""1"",""739""
","""event"",""trial"",""time""
""focus"",""1"",""4424""
","""event"",""trial"",""time""
""fullscreenenter"",""1"",""5250""
","
","","[{""page_index"":0,""viewing_time"":6161.600000023842}]","6161.900000035763","","","","","","","","","","","","","","","","","","","","","","","",""
"pit-comprehension","5","32697","0.0-2.0-2.0-0.0","battery-v0.2","","""event"",""trial"",""time""
""blur"",""1"",""739""
""focus"",""1"",""4424""
""fullscreenenter"",""1"",""5250""
","""event"",""trial"",""time""
""blur"",""1"",""739""
","""event"",""trial"",""time""
""focus"",""1"",""4424""
","""event"",""trial"",""time""
""fullscreenenter"",""1"",""5250""
","
","","","3772.300000011921","[""tiger""]","0","16","3759","843","","","","","","","","","","","","","","","","","","",""
"pit-instructions","6","36497","0.0-2.0-2.0-1.0","battery-v0.2","","""event"",""trial"",""time""
""blur"",""1"",""739""
""focus"",""1"",""4424""
""fullscreenenter"",""1"",""5250""
","""event"",""trial"",""time""
""blur"",""1"",""739""
","""event"",""trial"",""time""
""focus"",""1"",""4424""
","""event"",""trial"",""time""
""fullscreenenter"",""1"",""5250""
","
","","[{""page_index"":0,""viewing_time"":3797}]","3797.2999999523163","","","","","","","","","","","","","","","","","","","","","","","",""
"pit-instructions","7","152383","0.0-2.0-3.0","battery-v0.2","","""event"",""trial"",""time""
""blur"",""1"",""739""
""focus"",""1"",""4424""
""fullscreenenter"",""1"",""5250""
","""event"",""trial"",""time""
""blur"",""1"",""739""
","""event"",""trial"",""time""
""focus"",""1"",""4424""
","""event"",""trial"",""time""
""fullscreenenter"",""1"",""5250""
","
","","[{""page_index"":0,""viewing_time"":14660.300000011921},{""page_index"":1,""viewing_time"":6559.900000035763},{""page_index"":2,""viewing_time"":6184.099999964237},{""page_index"":3,""viewing_time"":6767.800000011921},{""page_index"":4,""viewing_time"":6368},{""page_index"":5,""viewing_time"":7816},{""page_index"":6,""viewing_time"":7176},{""page_index"":7,""viewing_time"":12352.399999976158},{""page_index"":8,""viewing_time"":9383.900000035763},{""page_index"":9,""viewing_time"":8751.800000011921},{""page_index"":10,""viewing_time"":7976},{""page_index"":11,""viewing_time"":8000.299999952316},{""page_index"":12,""viewing_time"":7303.600000023842},{""page_index"":13,""viewing_time"":6583.600000023842}]","115884.20000004768","","","","","","","","","","","","","","","","","","","","","","","",""
"pit-trial","8","156420","0.0-2.0-4.0-0.0","battery-v0.2","","""event"",""trial"",""time""
""blur"",""1"",""739""
""focus"",""1"",""4424""
""fullscreenenter"",""1"",""5250""
","""event"",""trial"",""time""
""blur"",""1"",""739""
","""event"",""trial"",""time""
""focus"",""1"",""4424""
","""event"",""trial"",""time""
""fullscreenenter"",""1"",""5250""
","
","","","1170.5","","","16","3759","843","&#9784;","elianto","#FFFFF080"," "," ","1","&#10004","[2022.6000000238419,3894.699999988079]","2","0","0","","","","","","","",""
"pit-trial","9","160709","0.0-2.0-4.1-0.1","battery-v0.2","","""event"",""trial"",""time""
""blur"",""1"",""739""
""focus"",""1"",""4424""
""fullscreenenter"",""1"",""5250""
","""event"",""trial"",""time""
""blur"",""1"",""739""
","""event"",""trial"",""time""
""focus"",""1"",""4424""
","""event"",""trial"",""time""
""fullscreenenter"",""1"",""5250""
","
","","","1416.800000011921","","","16","3759","843","&#9784;","elianto","#FFFFF080"," "," ","1","&#10004","[2272.199999988079]","1","0","0","","","","","","","",""
"pit-trial","10","164619","0.0-2.0-4.2-0.2","battery-v0.2","","""event"",""trial"",""time""
""blur"",""1"",""739""
""focus"",""1"",""4424""
""fullscreenenter"",""1"",""5250""
","""event"",""trial"",""time""
""blur"",""1"",""739""
","""event"",""trial"",""time""
""focus"",""1"",""4424""
","""event"",""trial"",""time""
""fullscreenenter"",""1"",""5250""
","
","","","1037.300000011921","","","16","3759","843","&#9784;","elianto","#FFFFF080"," "," ","1","&#10004","[1896.1000000238419]","1","0","0","","","","","","","",""
"pit-trial","11","168400","0.0-2.0-4.3-0.3","battery-v0.2","","""event"",""trial"",""time""
""blur"",""1"",""739""
""focus"",""1"",""4424""
""fullscreenenter"",""1"",""5250""
","""event"",""trial"",""time""
""blur"",""1"",""739""
","""event"",""trial"",""time""
""focus"",""1"",""4424""
","""event"",""trial"",""time""
""fullscreenenter"",""1"",""5250""
","
","","","904.5","","","16","3759","843","&#9784;","elianto","#FFFFF080"," "," ","1","&#10004","[1761.1000000238419]","1","0","0","","","","","","","",""
"pit-trial","12","172119","0.0-2.0-4.4-0.4","battery-v0.2","","""event"",""trial"",""time""
""blur"",""1"",""739""
""focus"",""1"",""4424""
""fullscreenenter"",""1"",""5250""
","""event"",""trial"",""time""
""blur"",""1"",""739""
","""event"",""trial"",""time""
""focus"",""1"",""4424""
","""event"",""trial"",""time""
""fullscreenenter"",""1"",""5250""
","
","","","835.1000000238419","","","16","3759","843","&#9784;","elianto","#FFFFF080"," "," ","1","&#10004","[1693.300000011921]","1","0","0","","","","","","","",""
"pit-instructions","13","199559","0.0-2.0-5.0","battery-v0.2","","""event"",""trial"",""time""
""blur"",""1"",""739""
""focus"",""1"",""4424""
""fullscreenenter"",""1"",""5250""
","""event"",""trial"",""time""
""blur"",""1"",""739""
","""event"",""trial"",""time""
""focus"",""1"",""4424""
","""event"",""trial"",""time""
""fullscreenenter"",""1"",""5250""
","
","","[{""page_index"":0,""viewing_time"":5291.400000035763},{""page_index"":1,""viewing_time"":5607.599999964237},{""page_index"":2,""viewing_time"":8399.900000035763},{""page_index"":3,""viewing_time"":8136.300000011921}]","27435.5","","","","","","","","","","","","","","","","","","","","","","","",""
"pit-trial","14","204430","0.0-2.0-6.0-0.0","battery-v0.2","","""event"",""trial"",""time""
""blur"",""1"",""739""
""focus"",""1"",""4424""
""fullscreenenter"",""1"",""5250""
","""event"",""trial"",""time""
""blur"",""1"",""739""
","""event"",""trial"",""time""
""focus"",""1"",""4424""
","""event"",""trial"",""time""
""fullscreenenter"",""1"",""5250""
","
","","","-1","","","16","3759","843","&#9854;","elianto","#FFFFF080","-1","-1","1","&#10004","[]","0","0","1","","","","","","","",""
"pit-trial","15","209289","0.0-2.0-6.1-0.1","battery-v0.2","","""event"",""trial"",""time""
""blur"",""1"",""739""
""focus"",""1"",""4424""
""fullscreenenter"",""1"",""5250""
","""event"",""trial"",""time""
""blur"",""1"",""739""
","""event"",""trial"",""time""
""focus"",""1"",""4424""
","""event"",""trial"",""time""
""fullscreenenter"",""1"",""5250""
","
","","","-1","","","16","3759","843","&#9854;","elianto","#FFFFF080","-1","-1","1","&#10004","[]","0","0","1","","","","","","","",""
"pit-trial","16","214169","0.0-2.0-6.2-0.2","battery-v0.2","","""event"",""trial"",""time""
""blur"",""1"",""739""
""focus"",""1"",""4424""
""fullscreenenter"",""1"",""5250""
","""event"",""trial"",""time""
""blur"",""1"",""739""
","""event"",""trial"",""time""
""focus"",""1"",""4424""
","""event"",""trial"",""time""
""fullscreenenter"",""1"",""5250""
","
","","","-1","","","16","3759","843","&#9854;","elianto","#FFFFF080","-1","-1","1","&#10004","[]","0","0","1","","","","","","","",""
"pit-trial","17","219059","0.0-2.0-6.3-0.3","battery-v0.2","","""event"",""trial"",""time""
""blur"",""1"",""739""
""focus"",""1"",""4424""
""fullscreenenter"",""1"",""5250""
","""event"",""trial"",""time""
""blur"",""1"",""739""
","""event"",""trial"",""time""
""focus"",""1"",""4424""
","""event"",""trial"",""time""
""fullscreenenter"",""1"",""5250""
","
","","","-1","","","16","3759","843","&#9854;","elianto","#FFFFF080","-1","-1","1","&#10004","[]","0","0","1","","","","","","","",""
"pit-trial","18","223959","0.0-2.0-6.4-0.4","battery-v0.2","","""event"",""trial"",""time""
""blur"",""1"",""739""
""focus"",""1"",""4424""
""fullscreenenter"",""1"",""5250""
","""event"",""trial"",""time""
""blur"",""1"",""739""
","""event"",""trial"",""time""
""focus"",""1"",""4424""
","""event"",""trial"",""time""
""fullscreenenter"",""1"",""5250""
","
","","","-1","","","16","3759","843","&#9854;","elianto","#FFFFF080","-1","-1","1","&#10004","[]","0","0","1","","","","","","","",""
"pit-instructions","19","550783","0.0-2.0-7.0","battery-v0.2","","""event"",""trial"",""time""
""blur"",""1"",""739""
""focus"",""1"",""4424""
""fullscreenenter"",""1"",""5250""
","""event"",""trial"",""time""
""blur"",""1"",""739""
","""event"",""trial"",""time""
""focus"",""1"",""4424""
","""event"",""trial"",""time""
""fullscreenenter"",""1"",""5250""
","
","","[{""page_index"":0,""viewing_time"":151427},{""page_index"":1,""viewing_time"":7800},{""page_index"":2,""viewing_time"":17776.299999952316},{""page_index"":3,""viewing_time"":7375.700000047684},{""page_index"":4,""viewing_time"":5872.099999964237},{""page_index"":5,""viewing_time"":10112.100000023842},{""page_index"":6,""viewing_time"":6767.800000011921},{""page_index"":7,""viewing_time"":7999.899999976158},{""page_index"":8,""viewing_time"":10208.100000023842},{""page_index"":9,""viewing_time"":6047.799999952316},{""page_index"":10,""viewing_time"":6808.300000011921},{""page_index"":11,""viewing_time"":7808.300000011921},{""page_index"":12,""viewing_time"":8479.699999988079},{""page_index"":13,""viewing_time"":7703.600000023842},{""page_index"":14,""viewing_time"":32128.19999998808},{""page_index"":15,""viewing_time"":14991.800000011921},{""page_index"":16,""viewing_time"":10104.099999964237},{""page_index"":17,""viewing_time"":7407.800000011921}]","326819.2999999523","","","","","","","","","","","","","","","","","","","","","","","",""
"pit-trial","20","554799","0.0-2.0-8.0-0.0","battery-v0.2","","""event"",""trial"",""time""
""blur"",""1"",""739""
""focus"",""1"",""4424""
""fullscreenenter"",""1"",""5250""
","""event"",""trial"",""time""
""blur"",""1"",""739""
","""event"",""trial"",""time""
""focus"",""1"",""4424""
","""event"",""trial"",""time""
""fullscreenenter"",""1"",""5250""
","
","","","1147.9000000357628","","","16","3759","843","&#9776;","elianto","#3366ff99"," "," ","1","+10","[1999]","1","0","1","","","","","","","",""
"pit-trial","21","558559","0.0-2.0-8.0-1.0","battery-v0.2","","""event"",""trial"",""time""
""blur"",""1"",""739""
""focus"",""1"",""4424""
""fullscreenenter"",""1"",""5250""
","""event"",""trial"",""time""
""blur"",""1"",""739""
","""event"",""trial"",""time""
""focus"",""1"",""4424""
","""event"",""trial"",""time""
""fullscreenenter"",""1"",""5250""
","
","","","892","","","16","3759","843","&#9776;","elianto","#3366ff99"," "," ","1","+10","[1743.0999999642372]","1","0","1","","","","","","","",""
"pit-trial","22","562309","0.0-2.0-8.0-2.0","battery-v0.2","","""event"",""trial"",""time""
""blur"",""1"",""739""
""focus"",""1"",""4424""
""fullscreenenter"",""1"",""5250""
","""event"",""trial"",""time""
""blur"",""1"",""739""
","""event"",""trial"",""time""
""focus"",""1"",""4424""
","""event"",""trial"",""time""
""fullscreenenter"",""1"",""5250""
","
","","","870.3999999761581","","","16","3759","843","&#9776;","elianto","#3366ff99"," "," ","1","+10","[1726.3999999761581]","1","0","1","","","","","","","",""
"pit-trial","23","565879","0.0-2.0-8.0-3.0","battery-v0.2","","""event"",""trial"",""time""
""blur"",""1"",""739""
""focus"",""1"",""4424""
""fullscreenenter"",""1"",""5250""
","""event"",""trial"",""time""
""blur"",""1"",""739""
","""event"",""trial"",""time""
""focus"",""1"",""4424""
","""event"",""trial"",""time""
""fullscreenenter"",""1"",""5250""
","
","","","688.3000000119209","","","16","3759","843","&#9776;","elianto","#3366ff99"," "," ","1","0","[1544.4000000357628]","1","0","1","","","","","","","",""
"pit-trial","24","569619","0.0-2.0-8.0-4.0","battery-v0.2","","""event"",""trial"",""time""
""blur"",""1"",""739""
""focus"",""1"",""4424""
""fullscreenenter"",""1"",""5250""
","""event"",""trial"",""time""
""blur"",""1"",""739""
","""event"",""trial"",""time""
""focus"",""1"",""4424""
","""event"",""trial"",""time""
""fullscreenenter"",""1"",""5250""
","
","","","866","","","16","3759","843","&#9776;","elianto","#3366ff99"," "," ","1","+10","[1719.7000000476837]","1","0","1","","","","","","","",""
"pit-trial","25","573169","0.0-2.0-8.1-0.1","battery-v0.2","","""event"",""trial"",""time""
""blur"",""1"",""739""
""focus"",""1"",""4424""
""fullscreenenter"",""1"",""5250""
","""event"",""trial"",""time""
""blur"",""1"",""739""
","""event"",""trial"",""time""
""focus"",""1"",""4424""
","""event"",""trial"",""time""
""fullscreenenter"",""1"",""5250""
","
","","","679.1000000238419","","","16","3759","843","&#9776;","elianto","#3366ff99"," "," ","1","+10","[1537.800000011921]","1","0","1","","","","","","","",""
"pit-trial","26","576709","0.0-2.0-8.1-1.1","battery-v0.2","","""event"",""trial"",""time""
""blur"",""1"",""739""
""focus"",""1"",""4424""
""fullscreenenter"",""1"",""5250""
","""event"",""trial"",""time""
""blur"",""1"",""739""
","""event"",""trial"",""time""
""focus"",""1"",""4424""
","""event"",""trial"",""time""
""fullscreenenter"",""1"",""5250""
","
","","","658.5","","","16","3759","843","&#9776;","elianto","#3366ff99"," "," ","1","+10","[1509]","1","0","1","","","","","","","",""
"pit-trial","27","580259","0.0-2.0-8.1-2.1","battery-v0.2","","""event"",""trial"",""time""
""blur"",""1"",""739""
""focus"",""1"",""4424""
""fullscreenenter"",""1"",""5250""
","""event"",""trial"",""time""
""blur"",""1"",""739""
","""event"",""trial"",""time""
""focus"",""1"",""4424""
","""event"",""trial"",""time""
""fullscreenenter"",""1"",""5250""
","
","","","668.8999999761581","","","16","3759","843","&#9776;","elianto","#3366ff99"," "," ","1","+10","[1529.9000000357628]","1","0","1","","","","","","","",""
"pit-trial","28","584137","0.0-2.0-8.1-3.1","battery-v0.2","","""event"",""trial"",""time""
""blur"",""1"",""739""
""focus"",""1"",""4424""
""fullscreenenter"",""1"",""5250""
","""event"",""trial"",""time""
""blur"",""1"",""739""
","""event"",""trial"",""time""
""focus"",""1"",""4424""
","""event"",""trial"",""time""
""fullscreenenter"",""1"",""5250""
","
","","","1016.0999999642372","","","16","3759","843","&#9776;","elianto","#3366ff99"," "," ","1","0","[1867.1000000238419]","1","0","1","","","","","","","",""
"pit-trial","29","587745","0.0-2.0-8.1-4.1","battery-v0.2","","""event"",""trial"",""time""
""blur"",""1"",""739""
""focus"",""1"",""4424""
""fullscreenenter"",""1"",""5250""
","""event"",""trial"",""time""
""blur"",""1"",""739""
","""event"",""trial"",""time""
""focus"",""1"",""4424""
","""event"",""trial"",""time""
""fullscreenenter"",""1"",""5250""
","
","","","743.5999999642372","","","16","3759","843","&#9776;","elianto","#3366ff99"," "," ","1","+10","[1596.5]","1","0","1","","","","","","","",""
"pit-trial","30","591561","0.0-2.0-8.2-0.2","battery-v0.2","","""event"",""trial"",""time""
""blur"",""1"",""739""
""focus"",""1"",""4424""
""fullscreenenter"",""1"",""5250""
","""event"",""trial"",""time""
""blur"",""1"",""739""
","""event"",""trial"",""time""
""focus"",""1"",""4424""
","""event"",""trial"",""time""
""fullscreenenter"",""1"",""5250""
","
","","","952.1999999880791","","","16","3759","843","&#9776;","elianto","#3366ff99"," "," ","1","+10","[1804.8999999761581]","1","0","1","","","","","","","",""
"pit-trial","31","595384","0.0-2.0-8.2-1.2","battery-v0.2","","""event"",""trial"",""time""
""blur"",""1"",""739""
""focus"",""1"",""4424""
""fullscreenenter"",""1"",""5250""
","""event"",""trial"",""time""
""blur"",""1"",""739""
","""event"",""trial"",""time""
""focus"",""1"",""4424""
","""event"",""trial"",""time""
""fullscreenenter"",""1"",""5250""
","
","","","959.6999999880791","","","16","3759","843","&#9776;","elianto","#3366ff99"," "," ","1","+10","[1813.199999988079]","1","0","1","","","","","","","",""
"pit-trial","32","599033","0.0-2.0-8.2-2.2","battery-v0.2","","""event"",""trial"",""time""
""blur"",""1"",""739""
""focus"",""1"",""4424""
""fullscreenenter"",""1"",""5250""
","""event"",""trial"",""time""
""blur"",""1"",""739""
","""event"",""trial"",""time""
""focus"",""1"",""4424""
","""event"",""trial"",""time""
""fullscreenenter"",""1"",""5250""
","
","","","794.5","","","16","3759","843","&#9776;","elianto","#3366ff99"," "," ","1","+10","[1645.6000000238419]","1","0","1","","","","","","","",""
"pit-trial","33","602961","0.0-2.0-8.2-3.2","battery-v0.2","","""event"",""trial"",""time""
""blur"",""1"",""739""
""focus"",""1"",""4424""
""fullscreenenter"",""1"",""5250""
","""event"",""trial"",""time""
""blur"",""1"",""739""
","""event"",""trial"",""time""
""focus"",""1"",""4424""
","""event"",""trial"",""time""
""fullscreenenter"",""1"",""5250""
","
","","","1066.199999988079","","","16","3759","843","&#9776;","elianto","#3366ff99"," "," ","1","0","[1917.3999999761581]","1","0","1","","","","","","","",""
"pit-trial","34","607546","0.0-2.0-8.2-4.2","battery-v0.2","","""event"",""trial"",""time""
""blur"",""1"",""739""
""focus"",""1"",""4424""
""fullscreenenter"",""1"",""5250""
","""event"",""trial"",""time""
""blur"",""1"",""739""
","""event"",""trial"",""time""
""focus"",""1"",""4424""
","""event"",""trial"",""time""
""fullscreenenter"",""1"",""5250""
","
","","","1719.8999999761581","","","16","3759","843","&#9776;","elianto","#3366ff99"," "," ","1","+10","[2573.399999976158]","1","0","1","","","","","","","",""
"call-function","35","607549","0.0-2.0-9.0","battery-v0.2","","""event"",""trial"",""time""
""blur"",""1"",""739""
""focus"",""1"",""4424""
""fullscreenenter"",""1"",""5250""
","""event"",""trial"",""time""
""blur"",""1"",""739""
","""event"",""trial"",""time""
""focus"",""1"",""4424""
","""event"",""trial"",""time""
""fullscreenenter"",""1"",""5250""
","
","","","","","","","","","","","","","","","","","","","","","","","","","","",""
"pit-instructions","36","666759","0.0-2.0-10.0","battery-v0.2","","""event"",""trial"",""time""
""blur"",""1"",""739""
""focus"",""1"",""4424""
""fullscreenenter"",""1"",""5250""
","""event"",""trial"",""time""
""blur"",""1"",""739""
","""event"",""trial"",""time""
""focus"",""1"",""4424""
","""event"",""trial"",""time""
""fullscreenenter"",""1"",""5250""
","
","","[{""page_index"":0,""viewing_time"":8944.600000023842},{""page_index"":1,""viewing_time"":9256.5},{""page_index"":2,""viewing_time"":21575.099999964237},{""page_index"":3,""viewing_time"":9632.900000035763},{""page_index"":4,""viewing_time"":9799.399999976158}]","59208.80000001192","","","","","","","","","","","","","","","","","","","","","","","",""
"pit-trial","37","670527","0.0-2.0-11.0-0.0","battery-v0.2","","""event"",""trial"",""time""
""blur"",""1"",""739""
""focus"",""1"",""4424""
""fullscreenenter"",""1"",""5250""
","""event"",""trial"",""time""
""blur"",""1"",""739""
","""event"",""trial"",""time""
""focus"",""1"",""4424""
","""event"",""trial"",""time""
""fullscreenenter"",""1"",""5250""
","
","","","887.1999999880791","","","16","3759","843","&#9761;","elianto","#3366ff99","-1"," ","0","0","[1744.0999999642372]","1","0","2","","","","","","","",""
"pit-trial","38","674225","0.0-2.0-11.0-1.0","battery-v0.2","","""event"",""trial"",""time""
""blur"",""1"",""739""
""focus"",""1"",""4424""
""fullscreenenter"",""1"",""5250""
","""event"",""trial"",""time""
""blur"",""1"",""739""
","""event"",""trial"",""time""
""focus"",""1"",""4424""
","""event"",""trial"",""time""
""fullscreenenter"",""1"",""5250""
","
","","","815.7000000476837","","","16","3759","843","&#9761;","elianto","#3366ff99","-1"," ","0","0","[1669.800000011921]","1","0","2","","","","","","","",""
"pit-trial","39","677725","0.0-2.0-11.0-2.0","battery-v0.2","","""event"",""trial"",""time""
""blur"",""1"",""739""
""focus"",""1"",""4424""
""fullscreenenter"",""1"",""5250""
","""event"",""trial"",""time""
""blur"",""1"",""739""
","""event"",""trial"",""time""
""focus"",""1"",""4424""
","""event"",""trial"",""time""
""fullscreenenter"",""1"",""5250""
","
","","","631.5","","","16","3759","843","&#9761;","elianto","#3366ff99","-1"," ","0","0","[1483.9000000357628]","1","0","2","","","","","","","",""
"pit-trial","40","682595","0.0-2.0-11.0-3.0","battery-v0.2","","""event"",""trial"",""time""
""blur"",""1"",""739""
""focus"",""1"",""4424""
""fullscreenenter"",""1"",""5250""
","""event"",""trial"",""time""
""blur"",""1"",""739""
","""event"",""trial"",""time""
""focus"",""1"",""4424""
","""event"",""trial"",""time""
""fullscreenenter"",""1"",""5250""
","
","","","-1","","","16","3759","843","&#9761;","elianto","#3366ff99","-1","-1","1","0","[]","0","0","2","","","","","","","",""
"pit-trial","41","687495","0.0-2.0-11.0-4.0","battery-v0.2","","""event"",""trial"",""time""
""blur"",""1"",""739""
""focus"",""1"",""4424""
""fullscreenenter"",""1"",""5250""
","""event"",""trial"",""time""
""blur"",""1"",""739""
","""event"",""trial"",""time""
""focus"",""1"",""4424""
","""event"",""trial"",""time""
""fullscreenenter"",""1"",""5250""
","
","","","-1","","","16","3759","843","&#9761;","elianto","#3366ff99","-1","-1","1","+10","[]","0","0","2","","","","","","","",""
"pit-trial","42","692375","0.0-2.0-11.1-0.1","battery-v0.2","","""event"",""trial"",""time""
""blur"",""1"",""739""
""focus"",""1"",""4424""
""fullscreenenter"",""1"",""5250""
","""event"",""trial"",""time""
""blur"",""1"",""739""
","""event"",""trial"",""time""
""focus"",""1"",""4424""
","""event"",""trial"",""time""
""fullscreenenter"",""1"",""5250""
","
","","","-1","","","16","3759","843","&#9761;","elianto","#3366ff99","-1","-1","1","+10","[]","0","0","2","","","","","","","",""
"pit-trial","43","697240","0.0-2.0-11.1-1.1","battery-v0.2","","""event"",""trial"",""time""
""blur"",""1"",""739""
""focus"",""1"",""4424""
""fullscreenenter"",""1"",""5250""
","""event"",""trial"",""time""
""blur"",""1"",""739""
","""event"",""trial"",""time""
""focus"",""1"",""4424""
","""event"",""trial"",""time""
""fullscreenenter"",""1"",""5250""
","
","","","-1","","","16","3759","843","&#9761;","elianto","#3366ff99","-1","-1","1","+10","[]","0","0","2","","","","","","","",""
"pit-trial","44","702105","0.0-2.0-11.1-2.1","battery-v0.2","","""event"",""trial"",""time""
""blur"",""1"",""739""
""focus"",""1"",""4424""
""fullscreenenter"",""1"",""5250""
","""event"",""trial"",""time""
""blur"",""1"",""739""
","""event"",""trial"",""time""
""focus"",""1"",""4424""
","""event"",""trial"",""time""
""fullscreenenter"",""1"",""5250""
","
","","","-1","","","16","3759","843","&#9761;","elianto","#3366ff99","-1","-1","1","+10","[]","0","0","2","","","","","","","",""
"pit-trial","45","706969","0.0-2.0-11.1-3.1","battery-v0.2","","""event"",""trial"",""time""
""blur"",""1"",""739""
""focus"",""1"",""4424""
""fullscreenenter"",""1"",""5250""
","""event"",""trial"",""time""
""blur"",""1"",""739""
","""event"",""trial"",""time""
""focus"",""1"",""4424""
","""event"",""trial"",""time""
""fullscreenenter"",""1"",""5250""
","
","","","-1","","","16","3759","843","&#9761;","elianto","#3366ff99","-1","-1","1","0","[]","0","0","2","","","","","","","",""
"pit-trial","46","711833","0.0-2.0-11.1-4.1","battery-v0.2","","""event"",""trial"",""time""
""blur"",""1"",""739""
""focus"",""1"",""4424""
""fullscreenenter"",""1"",""5250""
","""event"",""trial"",""time""
""blur"",""1"",""739""
","""event"",""trial"",""time""
""focus"",""1"",""4424""
","""event"",""trial"",""time""
""fullscreenenter"",""1"",""5250""
","
","","","-1","","","16","3759","843","&#9761;","elianto","#3366ff99","-1","-1","1","+10","[]","0","0","2","","","","","","","",""
"pit-trial","47","716697","0.0-2.0-11.2-0.2","battery-v0.2","","""event"",""trial"",""time""
""blur"",""1"",""739""
""focus"",""1"",""4424""
""fullscreenenter"",""1"",""5250""
","""event"",""trial"",""time""
""blur"",""1"",""739""
","""event"",""trial"",""time""
""focus"",""1"",""4424""
","""event"",""trial"",""time""
""fullscreenenter"",""1"",""5250""
","
","","","-1","","","16","3759","843","&#9761;","elianto","#3366ff99","-1","-1","1","+10","[]","0","0","2","","","","","","","",""
"pit-trial","48","721569","0.0-2.0-11.2-1.2","battery-v0.2","","""event"",""trial"",""time""
""blur"",""1"",""739""
""focus"",""1"",""4424""
""fullscreenenter"",""1"",""5250""
","""event"",""trial"",""time""
""blur"",""1"",""739""
","""event"",""trial"",""time""
""focus"",""1"",""4424""
","""event"",""trial"",""time""
""fullscreenenter"",""1"",""5250""
","
","","","-1","","","16","3759","843","&#9761;","elianto","#3366ff99","-1","-1","1","+10","[]","0","0","2","","","","","","","",""
"pit-trial","49","726441","0.0-2.0-11.2-2.2","battery-v0.2","","""event"",""trial"",""time""
""blur"",""1"",""739""
""focus"",""1"",""4424""
""fullscreenenter"",""1"",""5250""
","""event"",""trial"",""time""
""blur"",""1"",""739""
","""event"",""trial"",""time""
""focus"",""1"",""4424""
","""event"",""trial"",""time""
""fullscreenenter"",""1"",""5250""
","
","","","-1","","","16","3759","843","&#9761;","elianto","#3366ff99","-1","-1","1","+10","[]","0","0","2","","","","","","","",""
"pit-trial","50","731305","0.0-2.0-11.2-3.2","battery-v0.2","","""event"",""trial"",""time""
""blur"",""1"",""739""
""focus"",""1"",""4424""
""fullscreenenter"",""1"",""5250""
","""event"",""trial"",""time""
""blur"",""1"",""739""
","""event"",""trial"",""time""
""focus"",""1"",""4424""
","""event"",""trial"",""time""
""fullscreenenter"",""1"",""5250""
","
","","","-1","","","16","3759","843","&#9761;","elianto","#3366ff99","-1","-1","1","0","[]","0","0","2","","","","","","","",""
"pit-trial","51","736168","0.0-2.0-11.2-4.2","battery-v0.2","","""event"",""trial"",""time""
""blur"",""1"",""739""
""focus"",""1"",""4424""
""fullscreenenter"",""1"",""5250""
","""event"",""trial"",""time""
""blur"",""1"",""739""
","""event"",""trial"",""time""
""focus"",""1"",""4424""
","""event"",""trial"",""time""
""fullscreenenter"",""1"",""5250""
","
","","","-1","","","16","3759","843","&#9761;","elianto","#3366ff99","-1","-1","1","+10","[]","0","0","2","","","","","","","",""
"pit-trial","52","741033","0.0-2.0-11.3-0.3","battery-v0.2","","""event"",""trial"",""time""
""blur"",""1"",""739""
""focus"",""1"",""4424""
""fullscreenenter"",""1"",""5250""
","""event"",""trial"",""time""
""blur"",""1"",""739""
","""event"",""trial"",""time""
""focus"",""1"",""4424""
","""event"",""trial"",""time""
""fullscreenenter"",""1"",""5250""
","
","","","-1","","","16","3759","843","&#9761;","elianto","#3366ff99","-1","-1","1","+10","[]","0","0","2","","","","","","","",""
"pit-trial","53","745897","0.0-2.0-11.3-1.3","battery-v0.2","","""event"",""trial"",""time""
""blur"",""1"",""739""
""focus"",""1"",""4424""
""fullscreenenter"",""1"",""5250""
","""event"",""trial"",""time""
""blur"",""1"",""739""
","""event"",""trial"",""time""
""focus"",""1"",""4424""
","""event"",""trial"",""time""
""fullscreenenter"",""1"",""5250""
","
","","","-1","","","16","3759","843","&#9761;","elianto","#3366ff99","-1","-1","1","+10","[]","0","0","2","","","","","","","",""
"pit-trial","54","750761","0.0-2.0-11.3-2.3","battery-v0.2","","""event"",""trial"",""time""
""blur"",""1"",""739""
""focus"",""1"",""4424""
""fullscreenenter"",""1"",""5250""
","""event"",""trial"",""time""
""blur"",""1"",""739""
","""event"",""trial"",""time""
""focus"",""1"",""4424""
","""event"",""trial"",""time""
""fullscreenenter"",""1"",""5250""
","
","","","-1","","","16","3759","843","&#9761;","elianto","#3366ff99","-1","-1","1","+10","[]","0","0","2","","","","","","","",""
"pit-trial","55","755625","0.0-2.0-11.3-3.3","battery-v0.2","","""event"",""trial"",""time""
""blur"",""1"",""739""
""focus"",""1"",""4424""
""fullscreenenter"",""1"",""5250""
","""event"",""trial"",""time""
""blur"",""1"",""739""
","""event"",""trial"",""time""
""focus"",""1"",""4424""
","""event"",""trial"",""time""
""fullscreenenter"",""1"",""5250""
","
","","","-1","","","16","3759","843","&#9761;","elianto","#3366ff99","-1","-1","1","0","[]","0","0","2","","","","","","","",""
"pit-trial","56","760497","0.0-2.0-11.3-4.3","battery-v0.2","","""event"",""trial"",""time""
""blur"",""1"",""739""
""focus"",""1"",""4424""
""fullscreenenter"",""1"",""5250""
","""event"",""trial"",""time""
""blur"",""1"",""739""
","""event"",""trial"",""time""
""focus"",""1"",""4424""
","""event"",""trial"",""time""
""fullscreenenter"",""1"",""5250""
","
","","","-1","","","16","3759","843","&#9761;","elianto","#3366ff99","-1","-1","1","+10","[]","0","0","2","","","","","","","",""
"call-function","57","760500","0.0-2.0-12.0","battery-v0.2","","""event"",""trial"",""time""
""blur"",""1"",""739""
""focus"",""1"",""4424""
""fullscreenenter"",""1"",""5250""
","""event"",""trial"",""time""
""blur"",""1"",""739""
","""event"",""trial"",""time""
""focus"",""1"",""4424""
","""event"",""trial"",""time""
""fullscreenenter"",""1"",""5250""
","
","","","","","","","","","","","","","","","","","","","","","","","","","","",""
"pit-instructions","58","809759","0.0-2.0-13.0","battery-v0.2","","""event"",""trial"",""time""
""blur"",""1"",""739""
""focus"",""1"",""4424""
""fullscreenenter"",""1"",""5250""
","""event"",""trial"",""time""
""blur"",""1"",""739""
","""event"",""trial"",""time""
""focus"",""1"",""4424""
","""event"",""trial"",""time""
""fullscreenenter"",""1"",""5250""
","
","","[{""page_index"":0,""viewing_time"":16434.30000001192},{""page_index"":1,""viewing_time"":10176.099999964237},{""page_index"":2,""viewing_time"":4439.900000035763},{""page_index"":3,""viewing_time"":12824.199999988079},{""page_index"":4,""viewing_time"":5383.599999964237}]","49258.5","","","","","","","","","","","","","","","","","","","","","","","",""
"pit-trial","59","814657","0.0-2.0-14.0-0.0","battery-v0.2","","""event"",""trial"",""time""
""blur"",""1"",""739""
""focus"",""1"",""4424""
""fullscreenenter"",""1"",""5250""
","""event"",""trial"",""time""
""blur"",""1"",""739""
","""event"",""trial"",""time""
""focus"",""1"",""4424""
","""event"",""trial"",""time""
""fullscreenenter"",""1"",""5250""
","
","","","-1","","","16","3759","843","&#9826;","elianto","#f73b6a7A","-1","-1","1","0","[]","0","0","3","","","","","","","",""
"pit-trial","60","819536","0.0-2.0-14.0-1.0","battery-v0.2","","""event"",""trial"",""time""
""blur"",""1"",""739""
""focus"",""1"",""4424""
""fullscreenenter"",""1"",""5250""
","""event"",""trial"",""time""
""blur"",""1"",""739""
","""event"",""trial"",""time""
""focus"",""1"",""4424""
","""event"",""trial"",""time""
""fullscreenenter"",""1"",""5250""
","
","","","-1","","","16","3759","843","&#9826;","elianto","#f73b6a7A","-1","-1","1","0","[]","0","0","3","","","","","","","",""
"pit-trial","61","824427","0.0-2.0-14.0-2.0","battery-v0.2","","""event"",""trial"",""time""
""blur"",""1"",""739""
""focus"",""1"",""4424""
""fullscreenenter"",""1"",""5250""
","""event"",""trial"",""time""
""blur"",""1"",""739""
","""event"",""trial"",""time""
""focus"",""1"",""4424""
","""event"",""trial"",""time""
""fullscreenenter"",""1"",""5250""
","
","","","-1","","","16","3759","843","&#9826;","elianto","#f73b6a7A","-1","-1","1","0","[]","0","0","3","","","","","","","",""
"pit-trial","62","827887","0.0-2.0-14.0-3.0","battery-v0.2","","""event"",""trial"",""time""
""blur"",""1"",""739""
""focus"",""1"",""4424""
""fullscreenenter"",""1"",""5250""
","""event"",""trial"",""time""
""blur"",""1"",""739""
","""event"",""trial"",""time""
""focus"",""1"",""4424""
","""event"",""trial"",""time""
""fullscreenenter"",""1"",""5250""
","
","","","582.3000000119209","","","16","3759","843","&#9826;","elianto","#f73b6a7A","-1"," ","0","0","[1436.5]","1","0","3","","","","","","","",""
"pit-trial","63","831236","0.0-2.0-14.0-4.0","battery-v0.2","","""event"",""trial"",""time""
""blur"",""1"",""739""
""focus"",""1"",""4424""
""fullscreenenter"",""1"",""5250""
","""event"",""trial"",""time""
""blur"",""1"",""739""
","""event"",""trial"",""time""
""focus"",""1"",""4424""
","""event"",""trial"",""time""
""fullscreenenter"",""1"",""5250""
","
","","","471.19999998807907","","","16","3759","843","&#9826;","elianto","#f73b6a7A","-1"," ","0","-10","[1326.699999988079]","1","0","3","","","","","","","",""
"pit-trial","64","834876","0.0-2.0-14.1-0.1","battery-v0.2","","""event"",""trial"",""time""
""blur"",""1"",""739""
""focus"",""1"",""4424""
""fullscreenenter"",""1"",""5250""
","""event"",""trial"",""time""
""blur"",""1"",""739""
","""event"",""trial"",""time""
""focus"",""1"",""4424""
","""event"",""trial"",""time""
""fullscreenenter"",""1"",""5250""
","
","","","767","","","16","3759","843","&#9826;","elianto","#f73b6a7A","-1"," ","0","-10","[1624.9000000357628]","1","0","3","","","","","","","",""
"pit-trial","65","839753","0.0-2.0-14.1-1.1","battery-v0.2","","""event"",""trial"",""time""
""blur"",""1"",""739""
""focus"",""1"",""4424""
""fullscreenenter"",""1"",""5250""
","""event"",""trial"",""time""
""blur"",""1"",""739""
","""event"",""trial"",""time""
""focus"",""1"",""4424""
","""event"",""trial"",""time""
""fullscreenenter"",""1"",""5250""
","
","","","-1","","","16","3759","843","&#9826;","elianto","#f73b6a7A","-1","-1","1","0","[]","0","0","3","","","","","","","",""
"pit-trial","66","844617","0.0-2.0-14.1-2.1","battery-v0.2","","""event"",""trial"",""time""
""blur"",""1"",""739""
""focus"",""1"",""4424""
""fullscreenenter"",""1"",""5250""
","""event"",""trial"",""time""
""blur"",""1"",""739""
","""event"",""trial"",""time""
""focus"",""1"",""4424""
","""event"",""trial"",""time""
""fullscreenenter"",""1"",""5250""
","
","","","-1","","","16","3759","843","&#9826;","elianto","#f73b6a7A","-1","-1","1","0","[]","0","0","3","","","","","","","",""
"pit-trial","67","849481","0.0-2.0-14.1-3.1","battery-v0.2","","""event"",""trial"",""time""
""blur"",""1"",""739""
""focus"",""1"",""4424""
""fullscreenenter"",""1"",""5250""
","""event"",""trial"",""time""
""blur"",""1"",""739""
","""event"",""trial"",""time""
""focus"",""1"",""4424""
","""event"",""trial"",""time""
""fullscreenenter"",""1"",""5250""
","
","","","-1","","","16","3759","843","&#9826;","elianto","#f73b6a7A","-1","-1","1","-10","[]","0","0","3","","","","","","","",""
"pit-trial","68","854345","0.0-2.0-14.1-4.1","battery-v0.2","","""event"",""trial"",""time""
""blur"",""1"",""739""
""focus"",""1"",""4424""
""fullscreenenter"",""1"",""5250""
","""event"",""trial"",""time""
""blur"",""1"",""739""
","""event"",""trial"",""time""
""focus"",""1"",""4424""
","""event"",""trial"",""time""
""fullscreenenter"",""1"",""5250""
","
","","","-1","","","16","3759","843","&#9826;","elianto","#f73b6a7A","-1","-1","1","0","[]","0","0","3","","","","","","","",""
"pit-trial","69","859209","0.0-2.0-14.2-0.2","battery-v0.2","","""event"",""trial"",""time""
""blur"",""1"",""739""
""focus"",""1"",""4424""
""fullscreenenter"",""1"",""5250""
","""event"",""trial"",""time""
""blur"",""1"",""739""
","""event"",""trial"",""time""
""focus"",""1"",""4424""
","""event"",""trial"",""time""
""fullscreenenter"",""1"",""5250""
","
","","","-1","","","16","3759","843","&#9826;","elianto","#f73b6a7A","-1","-1","1","0","[]","0","0","3","","","","","","","",""
"pit-trial","70","864073","0.0-2.0-14.2-1.2","battery-v0.2","","""event"",""trial"",""time""
""blur"",""1"",""739""
""focus"",""1"",""4424""
""fullscreenenter"",""1"",""5250""
","""event"",""trial"",""time""
""blur"",""1"",""739""
","""event"",""trial"",""time""
""focus"",""1"",""4424""
","""event"",""trial"",""time""
""fullscreenenter"",""1"",""5250""
","
","","","-1","","","16","3759","843","&#9826;","elianto","#f73b6a7A","-1","-1","1","0","[]","0","0","3","","","","","","","",""
"pit-trial","71","868937","0.0-2.0-14.2-2.2","battery-v0.2","","""event"",""trial"",""time""
""blur"",""1"",""739""
""focus"",""1"",""4424""
""fullscreenenter"",""1"",""5250""
","""event"",""trial"",""time""
""blur"",""1"",""739""
","""event"",""trial"",""time""
""focus"",""1"",""4424""
","""event"",""trial"",""time""
""fullscreenenter"",""1"",""5250""
","
","","","-1","","","16","3759","843","&#9826;","elianto","#f73b6a7A","-1","-1","1","0","[]","0","0","3","","","","","","","",""
"pit-trial","72","873813","0.0-2.0-14.2-3.2","battery-v0.2","","""event"",""trial"",""time""
""blur"",""1"",""739""
""focus"",""1"",""4424""
""fullscreenenter"",""1"",""5250""
","""event"",""trial"",""time""
""blur"",""1"",""739""
","""event"",""trial"",""time""
""focus"",""1"",""4424""
","""event"",""trial"",""time""
""fullscreenenter"",""1"",""5250""
","
","","","-1","","","16","3759","843","&#9826;","elianto","#f73b6a7A","-1","-1","1","-10","[]","0","0","3","","","","","","","",""
"pit-trial","73","878682","0.0-2.0-14.2-4.2","battery-v0.2","","""event"",""trial"",""time""
""blur"",""1"",""739""
""focus"",""1"",""4424""
""fullscreenenter"",""1"",""5250""
","""event"",""trial"",""time""
""blur"",""1"",""739""
","""event"",""trial"",""time""
""focus"",""1"",""4424""
","""event"",""trial"",""time""
""fullscreenenter"",""1"",""5250""
","
","","","-1","","","16","3759","843","&#9826;","elianto","#f73b6a7A","-1","-1","1","0","[]","0","0","3","","","","","","","",""
"pit-trial","74","883545","0.0-2.0-14.3-0.3","battery-v0.2","","""event"",""trial"",""time""
""blur"",""1"",""739""
""focus"",""1"",""4424""
""fullscreenenter"",""1"",""5250""
","""event"",""trial"",""time""
""blur"",""1"",""739""
","""event"",""trial"",""time""
""focus"",""1"",""4424""
","""event"",""trial"",""time""
""fullscreenenter"",""1"",""5250""
","
","","","-1","","","16","3759","843","&#9826;","elianto","#f73b6a7A","-1","-1","1","0","[]","0","0","3","","","","","","","",""
"pit-trial","75","888416","0.0-2.0-14.3-1.3","battery-v0.2","","""event"",""trial"",""time""
""blur"",""1"",""739""
""focus"",""1"",""4424""
""fullscreenenter"",""1"",""5250""
","""event"",""trial"",""time""
""blur"",""1"",""739""
","""event"",""trial"",""time""
""focus"",""1"",""4424""
","""event"",""trial"",""time""
""fullscreenenter"",""1"",""5250""
","
","","","-1","","","16","3759","843","&#9826;","elianto","#f73b6a7A","-1","-1","1","0","[]","0","0","3","","","","","","","",""
"pit-trial","76","893288","0.0-2.0-14.3-2.3","battery-v0.2","","""event"",""trial"",""time""
""blur"",""1"",""739""
""focus"",""1"",""4424""
""fullscreenenter"",""1"",""5250""
","""event"",""trial"",""time""
""blur"",""1"",""739""
","""event"",""trial"",""time""
""focus"",""1"",""4424""
","""event"",""trial"",""time""
""fullscreenenter"",""1"",""5250""
","
","","","-1","","","16","3759","843","&#9826;","elianto","#f73b6a7A","-1","-1","1","0","[]","0","0","3","","","","","","","",""
"pit-trial","77","898144","0.0-2.0-14.3-3.3","battery-v0.2","","""event"",""trial"",""time""
""blur"",""1"",""739""
""focus"",""1"",""4424""
""fullscreenenter"",""1"",""5250""
","""event"",""trial"",""time""
""blur"",""1"",""739""
","""event"",""trial"",""time""
""focus"",""1"",""4424""
","""event"",""trial"",""time""
""fullscreenenter"",""1"",""5250""
","
","","","-1","","","16","3759","843","&#9826;","elianto","#f73b6a7A","-1","-1","1","-10","[]","0","0","3","","","","","","","",""
"pit-trial","78","903008","0.0-2.0-14.3-4.3","battery-v0.2","","""event"",""trial"",""time""
""blur"",""1"",""739""
""focus"",""1"",""4424""
""fullscreenenter"",""1"",""5250""
","""event"",""trial"",""time""
""blur"",""1"",""739""
","""event"",""trial"",""time""
""focus"",""1"",""4424""
","""event"",""trial"",""time""
""fullscreenenter"",""1"",""5250""
","
","","","-1","","","16","3759","843","&#9826;","elianto","#f73b6a7A","-1","-1","1","0","[]","0","0","3","","","","","","","",""
"call-function","79","903011","0.0-2.0-15.0","battery-v0.2","","""event"",""trial"",""time""
""blur"",""1"",""739""
""focus"",""1"",""4424""
""fullscreenenter"",""1"",""5250""
","""event"",""trial"",""time""
""blur"",""1"",""739""
","""event"",""trial"",""time""
""focus"",""1"",""4424""
","""event"",""trial"",""time""
""fullscreenenter"",""1"",""5250""
","
","","","","","","","","","","","","","","","","","","","","","","","","","","",""
"pit-instructions","80","948863","0.0-2.0-16.0","battery-v0.2","","""event"",""trial"",""time""
""blur"",""1"",""739""
""focus"",""1"",""4424""
""fullscreenenter"",""1"",""5250""
","""event"",""trial"",""time""
""blur"",""1"",""739""
","""event"",""trial"",""time""
""focus"",""1"",""4424""
","""event"",""trial"",""time""
""fullscreenenter"",""1"",""5250""
","
","","[{""page_index"":0,""viewing_time"":7971},{""page_index"":1,""viewing_time"":11127.900000035763},{""page_index"":2,""viewing_time"":8952},{""page_index"":3,""viewing_time"":17799.899999976158}]","45851.10000002384","","","","","","","","","","","","","","","","","","","","","","","",""
"pit-trial","81","953733","0.0-2.0-17.0-0.0","battery-v0.2","","""event"",""trial"",""time""
""blur"",""1"",""739""
""focus"",""1"",""4424""
""fullscreenenter"",""1"",""5250""
","""event"",""trial"",""time""
""blur"",""1"",""739""
","""event"",""trial"",""time""
""focus"",""1"",""4424""
","""event"",""trial"",""time""
""fullscreenenter"",""1"",""5250""
","
","","","-1","","","16","3759","843","&#9789;","elianto","#f73b6a7A"," ","-1","0","-10","[]","0","0","4","","","","","","","",""
"pit-trial","82","958623","0.0-2.0-17.0-1.0","battery-v0.2","","""event"",""trial"",""time""
""blur"",""1"",""739""
""focus"",""1"",""4424""
""fullscreenenter"",""1"",""5250""
","""event"",""trial"",""time""
""blur"",""1"",""739""
","""event"",""trial"",""time""
""focus"",""1"",""4424""
","""event"",""trial"",""time""
""fullscreenenter"",""1"",""5250""
","
","","","-1","","","16","3759","843","&#9789;","elianto","#f73b6a7A"," ","-1","0","-10","[]","0","0","4","","","","","","","",""
"pit-trial","83","963492","0.0-2.0-17.0-2.0","battery-v0.2","","""event"",""trial"",""time""
""blur"",""1"",""739""
""focus"",""1"",""4424""
""fullscreenenter"",""1"",""5250""
","""event"",""trial"",""time""
""blur"",""1"",""739""
","""event"",""trial"",""time""
""focus"",""1"",""4424""
","""event"",""trial"",""time""
""fullscreenenter"",""1"",""5250""
","
","","","-1","","","16","3759","843","&#9789;","elianto","#f73b6a7A"," ","-1","0","-10","[]","0","0","4","","","","","","","",""
"pit-trial","84","967024","0.0-2.0-17.0-3.0","battery-v0.2","","""event"",""trial"",""time""
""blur"",""1"",""739""
""focus"",""1"",""4424""
""fullscreenenter"",""1"",""5250""
","""event"",""trial"",""time""
""blur"",""1"",""739""
","""event"",""trial"",""time""
""focus"",""1"",""4424""
","""event"",""trial"",""time""
""fullscreenenter"",""1"",""5250""
","
","","","665.6000000238419","","","16","3759","843","&#9789;","elianto","#f73b6a7A"," "," ","1","-10","[1522]","1","0","4","","","","","","","",""
"pit-trial","85","970345","0.0-2.0-17.0-4.0","battery-v0.2","","""event"",""trial"",""time""
""blur"",""1"",""739""
""focus"",""1"",""4424""
""fullscreenenter"",""1"",""5250""
","""event"",""trial"",""time""
""blur"",""1"",""739""
","""event"",""trial"",""time""
""focus"",""1"",""4424""
","""event"",""trial"",""time""
""fullscreenenter"",""1"",""5250""
","
","","","454.19999998807907","","","16","3759","843","&#9789;","elianto","#f73b6a7A"," "," ","1","0","[1308.7000000476837]","1","0","4","","","","","","","",""
"pit-trial","86","973584","0.0-2.0-17.1-0.1","battery-v0.2","","""event"",""trial"",""time""
""blur"",""1"",""739""
""focus"",""1"",""4424""
""fullscreenenter"",""1"",""5250""
","""event"",""trial"",""time""
""blur"",""1"",""739""
","""event"",""trial"",""time""
""focus"",""1"",""4424""
","""event"",""trial"",""time""
""fullscreenenter"",""1"",""5250""
","
","","","375.19999998807907","","","16","3759","843","&#9789;","elianto","#f73b6a7A"," "," ","1","0","[1226.5999999642372]","1","0","4","","","","","","","",""
"pit-trial","87","977448","0.0-2.0-17.1-1.1","battery-v0.2","","""event"",""trial"",""time""
""blur"",""1"",""739""
""focus"",""1"",""4424""
""fullscreenenter"",""1"",""5250""
","""event"",""trial"",""time""
""blur"",""1"",""739""
","""event"",""trial"",""time""
""focus"",""1"",""4424""
","""event"",""trial"",""time""
""fullscreenenter"",""1"",""5250""
","
","","","1001.8999999761581","","","16","3759","843","&#9789;","elianto","#f73b6a7A"," "," ","1","0","[1853.0999999642372]","1","0","4","","","","","","","",""
"pit-trial","88","981088","0.0-2.0-17.1-2.1","battery-v0.2","","""event"",""trial"",""time""
""blur"",""1"",""739""
""focus"",""1"",""4424""
""fullscreenenter"",""1"",""5250""
","""event"",""trial"",""time""
""blur"",""1"",""739""
","""event"",""trial"",""time""
""focus"",""1"",""4424""
","""event"",""trial"",""time""
""fullscreenenter"",""1"",""5250""
","
","","","783.6999999880791","","","16","3759","843","&#9789;","elianto","#f73b6a7A"," "," ","1","0","[1636.300000011921]","1","0","4","","","","","","","",""
"pit-trial","89","984280","0.0-2.0-17.1-3.1","battery-v0.2","","""event"",""trial"",""time""
""blur"",""1"",""739""
""focus"",""1"",""4424""
""fullscreenenter"",""1"",""5250""
","""event"",""trial"",""time""
""blur"",""1"",""739""
","""event"",""trial"",""time""
""focus"",""1"",""4424""
","""event"",""trial"",""time""
""fullscreenenter"",""1"",""5250""
","
","","","335.39999997615814","","","16","3759","843","&#9789;","elianto","#f73b6a7A"," "," ","1","-10","[1188.800000011921]","1","0","4","","","","","","","",""
"pit-trial","90","988616","0.0-2.0-17.1-4.1","battery-v0.2","","""event"",""trial"",""time""
""blur"",""1"",""739""
""focus"",""1"",""4424""
""fullscreenenter"",""1"",""5250""
","""event"",""trial"",""time""
""blur"",""1"",""739""
","""event"",""trial"",""time""
""focus"",""1"",""4424""
","""event"",""trial"",""time""
""fullscreenenter"",""1"",""5250""
","
","","","1474.199999988079","","","16","3759","843","&#9789;","elianto","#f73b6a7A"," "," ","1","0","[2325.800000011921]","1","0","4","","","","","","","",""
"pit-trial","91","991816","0.0-2.0-17.2-0.2","battery-v0.2","","""event"",""trial"",""time""
""blur"",""1"",""739""
""focus"",""1"",""4424""
""fullscreenenter"",""1"",""5250""
","""event"",""trial"",""time""
""blur"",""1"",""739""
","""event"",""trial"",""time""
""focus"",""1"",""4424""
","""event"",""trial"",""time""
""fullscreenenter"",""1"",""5250""
","
","","","343.80000001192093","","","16","3759","843","&#9789;","elianto","#f73b6a7A"," "," ","1","0","[1195.4000000357628]","1","0","4","","","","","","","",""
"pit-trial","92","995521","0.0-2.0-17.2-1.2","battery-v0.2","","""event"",""trial"",""time""
""blur"",""1"",""739""
""focus"",""1"",""4424""
""fullscreenenter"",""1"",""5250""
","""event"",""trial"",""time""
""blur"",""1"",""739""
","""event"",""trial"",""time""
""focus"",""1"",""4424""
","""event"",""trial"",""time""
""fullscreenenter"",""1"",""5250""
","
","","","849.1000000238419","","","16","3759","843","&#9789;","elianto","#f73b6a7A"," "," ","1","0","[1700.6000000238419]","1","0","4","","","","","","","",""
"pit-trial","93","998880","0.0-2.0-17.2-2.2","battery-v0.2","","""event"",""trial"",""time""
""blur"",""1"",""739""
""focus"",""1"",""4424""
""fullscreenenter"",""1"",""5250""
","""event"",""trial"",""time""
""blur"",""1"",""739""
","""event"",""trial"",""time""
""focus"",""1"",""4424""
","""event"",""trial"",""time""
""fullscreenenter"",""1"",""5250""
","
","","","506.19999998807907","","","16","3759","843","&#9789;","elianto","#f73b6a7A"," "," ","1","0","[1356.3999999761581]","1","0","4","","","","","","","",""
"pit-trial","94","1002040","0.0-2.0-17.2-3.2","battery-v0.2","","""event"",""trial"",""time""
""blur"",""1"",""739""
""focus"",""1"",""4424""
""fullscreenenter"",""1"",""5250""
","""event"",""trial"",""time""
""blur"",""1"",""739""
","""event"",""trial"",""time""
""focus"",""1"",""4424""
","""event"",""trial"",""time""
""fullscreenenter"",""1"",""5250""
","
","","","305","","","16","3759","843","&#9789;","elianto","#f73b6a7A"," "," ","1","-10","[1156.5]","1","0","4","","","","","","","",""
"pit-trial","95","1005769","0.0-2.0-17.2-4.2","battery-v0.2","","""event"",""trial"",""time""
""blur"",""1"",""739""
""focus"",""1"",""4424""
""fullscreenenter"",""1"",""5250""
","""event"",""trial"",""time""
""blur"",""1"",""739""
","""event"",""trial"",""time""
""focus"",""1"",""4424""
","""event"",""trial"",""time""
""fullscreenenter"",""1"",""5250""
","
","","","871.1000000238419","","","16","3759","843","&#9789;","elianto","#f73b6a7A"," "," ","1","0","[1725]","1","0","4","","","","","","","",""
"pit-trial","96","1009217","0.0-2.0-17.3-0.3","battery-v0.2","","""event"",""trial"",""time""
""blur"",""1"",""739""
""focus"",""1"",""4424""
""fullscreenenter"",""1"",""5250""
","""event"",""trial"",""time""
""blur"",""1"",""739""
","""event"",""trial"",""time""
""focus"",""1"",""4424""
","""event"",""trial"",""time""
""fullscreenenter"",""1"",""5250""
","
","","","585.6000000238419","","","16","3759","843","&#9789;","elianto","#f73b6a7A"," "," ","1","0","[1435.800000011921]","1","0","4","","","","","","","",""
"pit-trial","97","1012497","0.0-2.0-17.3-1.3","battery-v0.2","","""event"",""trial"",""time""
""blur"",""1"",""739""
""focus"",""1"",""4424""
""fullscreenenter"",""1"",""5250""
","""event"",""trial"",""time""
""blur"",""1"",""739""
","""event"",""trial"",""time""
""focus"",""1"",""4424""
","""event"",""trial"",""time""
""fullscreenenter"",""1"",""5250""
","
","","","417.30000001192093","","","16","3759","843","&#9789;","elianto","#f73b6a7A"," "," ","1","0","[1268.199999988079]","1","0","4","","","","","","","",""
"pit-trial","98","1015608","0.0-2.0-17.3-2.3","battery-v0.2","","""event"",""trial"",""time""
""blur"",""1"",""739""
""focus"",""1"",""4424""
""fullscreenenter"",""1"",""5250""
","""event"",""trial"",""time""
""blur"",""1"",""739""
","""event"",""trial"",""time""
""focus"",""1"",""4424""
","""event"",""trial"",""time""
""fullscreenenter"",""1"",""5250""
","
","","","244","","","16","3759","843","&#9789;","elianto","#f73b6a7A"," "," ","1","0","[1100.5]","1","0","4","","","","","","","",""
"pit-trial","99","1018704","0.0-2.0-17.3-3.3","battery-v0.2","","""event"",""trial"",""time""
""blur"",""1"",""739""
""focus"",""1"",""4424""
""fullscreenenter"",""1"",""5250""
","""event"",""trial"",""time""
""blur"",""1"",""739""
","""event"",""trial"",""time""
""focus"",""1"",""4424""
","""event"",""trial"",""time""
""fullscreenenter"",""1"",""5250""
","
","","","239","","","16","3759","843","&#9789;","elianto","#f73b6a7A"," "," ","1","-10","[1093.199999988079]","1","0","4","","","","","","","",""
"pit-trial","100","1022273","0.0-2.0-17.3-4.3","battery-v0.2","","""event"",""trial"",""time""
""blur"",""1"",""739""
""focus"",""1"",""4424""
""fullscreenenter"",""1"",""5250""
","""event"",""trial"",""time""
""blur"",""1"",""739""
","""event"",""trial"",""time""
""focus"",""1"",""4424""
","""event"",""trial"",""time""
""fullscreenenter"",""1"",""5250""
","
","","","703.1999999880791","","","16","3759","843","&#9789;","elianto","#f73b6a7A"," "," ","1","0","[1558.5]","1","0","4","","","","","","","",""
"call-function","101","1022276","0.0-2.0-18.0","battery-v0.2","","""event"",""trial"",""time""
""blur"",""1"",""739""
""focus"",""1"",""4424""
""fullscreenenter"",""1"",""5250""
","""event"",""trial"",""time""
""blur"",""1"",""739""
","""event"",""trial"",""time""
""focus"",""1"",""4424""
","""event"",""trial"",""time""
""fullscreenenter"",""1"",""5250""
","
","","","","","","","","","","","","","","","","","","","","","","","","","","",""
"pit-instructions","102","1206167","0.0-2.0-19.0","battery-v0.2","","""event"",""trial"",""time""
""blur"",""1"",""739""
""focus"",""1"",""4424""
""fullscreenenter"",""1"",""5250""
","""event"",""trial"",""time""
""blur"",""1"",""739""
","""event"",""trial"",""time""
""focus"",""1"",""4424""
","""event"",""trial"",""time""
""fullscreenenter"",""1"",""5250""
","
","","[{""page_index"":0,""viewing_time"":9249.900000035763},{""page_index"":1,""viewing_time"":8159.899999976158},{""page_index"":2,""viewing_time"":14960},{""page_index"":3,""viewing_time"":8000.100000023842},{""page_index"":4,""viewing_time"":8504.699999988079},{""page_index"":5,""viewing_time"":104079.09999996424},{""page_index"":6,""viewing_time"":14367.800000011921},{""page_index"":7,""viewing_time"":9488.199999988079},{""page_index"":8,""viewing_time"":7080.100000023842}]","183891","","","","","","","","","","","","","","","","","","","","","","","",""
"pit-comprehension","103","1211807","0.0-2.0-20.0-0.0","battery-v0.2","","""event"",""trial"",""time""
""blur"",""1"",""739""
""focus"",""1"",""4424""
""fullscreenenter"",""1"",""5250""
","""event"",""trial"",""time""
""blur"",""1"",""739""
","""event"",""trial"",""time""
""focus"",""1"",""4424""
","""event"",""trial"",""time""
""fullscreenenter"",""1"",""5250""
","
","","","5635.800000011921","[""SPACE""]","0","16","3759","843","","","","","","","","","","","","","","","","","","",""
"pit-instructions","104","1214718","0.0-2.0-20.0-1.0","battery-v0.2","","""event"",""trial"",""time""
""blur"",""1"",""739""
""focus"",""1"",""4424""
""fullscreenenter"",""1"",""5250""
","""event"",""trial"",""time""
""blur"",""1"",""739""
","""event"",""trial"",""time""
""focus"",""1"",""4424""
","""event"",""trial"",""time""
""fullscreenenter"",""1"",""5250""
","
","","[{""page_index"":0,""viewing_time"":2860.300000011921}]","2860.599999964237","","","","","","","","","","","","","","","","","","","","","","","",""
"pit-comprehension","105","1222287","0.0-2.0-21.0-0.0","battery-v0.2","","""event"",""trial"",""time""
""blur"",""1"",""739""
""focus"",""1"",""4424""
""fullscreenenter"",""1"",""5250""
","""event"",""trial"",""time""
""blur"",""1"",""739""
","""event"",""trial"",""time""
""focus"",""1"",""4424""
","""event"",""trial"",""time""
""fullscreenenter"",""1"",""5250""
","
","","","7565.799999952316","[""10""]","0","16","3759","843","","","","","","","","","","","","","","","","","","",""
"pit-instructions","106","1227494","0.0-2.0-21.0-1.0","battery-v0.2","","""event"",""trial"",""time""
""blur"",""1"",""739""
""focus"",""1"",""4424""
""fullscreenenter"",""1"",""5250""
","""event"",""trial"",""time""
""blur"",""1"",""739""
","""event"",""trial"",""time""
""focus"",""1"",""4424""
","""event"",""trial"",""time""
""fullscreenenter"",""1"",""5250""
","
","","[{""page_index"":0,""viewing_time"":5164.400000035763}]","5164.800000011921","","","","","","","","","","","","","","","","","","","","","","","",""
"pit-comprehension","107","1235782","0.0-2.0-22.0-0.0","battery-v0.2","","""event"",""trial"",""time""
""blur"",""1"",""739""
""focus"",""1"",""4424""
""fullscreenenter"",""1"",""5250""
","""event"",""trial"",""time""
""blur"",""1"",""739""
","""event"",""trial"",""time""
""focus"",""1"",""4424""
","""event"",""trial"",""time""
""fullscreenenter"",""1"",""5250""
","
","","","8284.700000047684","[""0""]","0","16","3759","843","","","","","","","","","","","","","","","","","","",""
"pit-instructions","108","1237470","0.0-2.0-22.0-1.0","battery-v0.2","","""event"",""trial"",""time""
""blur"",""1"",""739""
""focus"",""1"",""4424""
""fullscreenenter"",""1"",""5250""
","""event"",""trial"",""time""
""blur"",""1"",""739""
","""event"",""trial"",""time""
""focus"",""1"",""4424""
","""event"",""trial"",""time""
""fullscreenenter"",""1"",""5250""
","
","","[{""page_index"":0,""viewing_time"":1645.300000011921}]","1645.699999988079","","","","","","","","","","","","","","","","","","","","","","","",""
"pit-comprehension","109","1248263","0.0-2.0-23.0-0.0","battery-v0.2","","""event"",""trial"",""time""
""blur"",""1"",""739""
""focus"",""1"",""4424""
""fullscreenenter"",""1"",""5250""
","""event"",""trial"",""time""
""blur"",""1"",""739""
","""event"",""trial"",""time""
""focus"",""1"",""4424""
","""event"",""trial"",""time""
""fullscreenenter"",""1"",""5250""
","
","","","10790.200000047684","[""False""]","1","16","3759","843","","","","","","","","","","","","","","","","","","",""
"pit-instructions","110","1250630","0.0-2.0-23.0-1.0","battery-v0.2","","""event"",""trial"",""time""
""blur"",""1"",""739""
""focus"",""1"",""4424""
""fullscreenenter"",""1"",""5250""
","""event"",""trial"",""time""
""blur"",""1"",""739""
","""event"",""trial"",""time""
""focus"",""1"",""4424""
","""event"",""trial"",""time""
""fullscreenenter"",""1"",""5250""
","
","","[{""page_index"":0,""viewing_time"":2321.600000023842}]","2321.900000035763","","","","","","","","","","","","","","","","","","","","","","","",""
"pit-instructions","111","1253390","0.0-2.0-23.0-2.0-0.0","battery-v0.2","","""event"",""trial"",""time""
""blur"",""1"",""739""
""focus"",""1"",""4424""
""fullscreenenter"",""1"",""5250""
","""event"",""trial"",""time""
""blur"",""1"",""739""
","""event"",""trial"",""time""
""focus"",""1"",""4424""
","""event"",""trial"",""time""
""fullscreenenter"",""1"",""5250""
","
","","[{""page_index"":0,""viewing_time"":2758.400000035763}]","2758.600000023842","","","","","","","","","","","","","","","","","","","","","","","",""
"pit-comprehension","112","1261471","0.0-2.0-23.1-0.1","battery-v0.2","","""event"",""trial"",""time""
""blur"",""1"",""739""
""focus"",""1"",""4424""
""fullscreenenter"",""1"",""5250""
","""event"",""trial"",""time""
""blur"",""1"",""739""
","""event"",""trial"",""time""
""focus"",""1"",""4424""
","""event"",""trial"",""time""
""fullscreenenter"",""1"",""5250""
","
","","","8078.600000023842","[""True""]","0","16","3759","843","","","","","","","","","","","","","","","","","","",""
"pit-instructions","113","1264510","0.0-2.0-23.1-1.1","battery-v0.2","","""event"",""trial"",""time""
""blur"",""1"",""739""
""focus"",""1"",""4424""
""fullscreenenter"",""1"",""5250""
","""event"",""trial"",""time""
""blur"",""1"",""739""
","""event"",""trial"",""time""
""focus"",""1"",""4424""
","""event"",""trial"",""time""
""fullscreenenter"",""1"",""5250""
","
","","[{""page_index"":0,""viewing_time"":2996.2999999523163}]","2996.7999999523163","","","","","","","","","","","","","","","","","","","","","","","",""
"pit-comprehension","114","1277175","0.0-2.0-24.0-0.0","battery-v0.2","","""event"",""trial"",""time""
""blur"",""1"",""739""
""focus"",""1"",""4424""
""fullscreenenter"",""1"",""5250""
","""event"",""trial"",""time""
""blur"",""1"",""739""
","""event"",""trial"",""time""
""focus"",""1"",""4424""
","""event"",""trial"",""time""
""fullscreenenter"",""1"",""5250""
","
","","","12662.300000011921","[""True""]","0","16","3759","843","","","","","","","","","","","","","","","","","","",""
"pit-instructions","115","1278551","0.0-2.0-24.0-1.0","battery-v0.2","","""event"",""trial"",""time""
""blur"",""1"",""739""
""focus"",""1"",""4424""
""fullscreenenter"",""1"",""5250""
","""event"",""trial"",""time""
""blur"",""1"",""739""
","""event"",""trial"",""time""
""focus"",""1"",""4424""
","""event"",""trial"",""time""
""fullscreenenter"",""1"",""5250""
","
","","[{""page_index"":0,""viewing_time"":1332.3999999761581}]","1332.699999988079","","","","","","","","","","","","","","","","","","","","","","","",""
"pit-comprehension","116","1286063","0.0-2.0-25.0-0.0","battery-v0.2","","""event"",""trial"",""time""
""blur"",""1"",""739""
""focus"",""1"",""4424""
""fullscreenenter"",""1"",""5250""
","""event"",""trial"",""time""
""blur"",""1"",""739""
","""event"",""trial"",""time""
""focus"",""1"",""4424""
","""event"",""trial"",""time""
""fullscreenenter"",""1"",""5250""
","
","","","7508.600000023842","[""True""]","0","16","3759","843","","","","","","","","","","","","","","","","","","",""
"pit-instructions","117","1287391","0.0-2.0-25.0-1.0","battery-v0.2","","""event"",""trial"",""time""
""blur"",""1"",""739""
""focus"",""1"",""4424""
""fullscreenenter"",""1"",""5250""
","""event"",""trial"",""time""
""blur"",""1"",""739""
","""event"",""trial"",""time""
""focus"",""1"",""4424""
","""event"",""trial"",""time""
""fullscreenenter"",""1"",""5250""
","
","","[{""page_index"":0,""viewing_time"":1280.3999999761581}]","1280.7999999523163","","","","","","","","","","","","","","","","","","","","","","","",""
"pit-comprehension","118","1297543","0.0-2.0-26.0-0.0","battery-v0.2","","""event"",""trial"",""time""
""blur"",""1"",""739""
""focus"",""1"",""4424""
""fullscreenenter"",""1"",""5250""
","""event"",""trial"",""time""
""blur"",""1"",""739""
","""event"",""trial"",""time""
""focus"",""1"",""4424""
","""event"",""trial"",""time""
""fullscreenenter"",""1"",""5250""
","
","","","10149.599999964237","[""True""]","1","16","3759","843","","","","","","","","","","","","","","","","","","",""
"pit-instructions","119","1305198","0.0-2.0-26.0-1.0","battery-v0.2","","""event"",""trial"",""time""
""blur"",""1"",""739""
""focus"",""1"",""4424""
""fullscreenenter"",""1"",""5250""
","""event"",""trial"",""time""
""blur"",""1"",""739""
","""event"",""trial"",""time""
""focus"",""1"",""4424""
","""event"",""trial"",""time""
""fullscreenenter"",""1"",""5250""
","
","","[{""page_index"":0,""viewing_time"":7610.299999952316}]","7610.699999988079","","","","","","","","","","","","","","","","","","","","","","","",""
"pit-instructions","120","1306558","0.0-2.0-26.0-2.0-0.0","battery-v0.2","","""event"",""trial"",""time""
""blur"",""1"",""739""
""focus"",""1"",""4424""
""fullscreenenter"",""1"",""5250""
","""event"",""trial"",""time""
""blur"",""1"",""739""
","""event"",""trial"",""time""
""focus"",""1"",""4424""
","""event"",""trial"",""time""
""fullscreenenter"",""1"",""5250""
","
","","[{""page_index"":0,""viewing_time"":1358.3999999761581}]","1358.699999988079","","","","","","","","","","","","","","","","","","","","","","","",""
"pit-comprehension","121","1311783","0.0-2.0-26.1-0.1","battery-v0.2","","""event"",""trial"",""time""
""blur"",""1"",""739""
""focus"",""1"",""4424""
""fullscreenenter"",""1"",""5250""
","""event"",""trial"",""time""
""blur"",""1"",""739""
","""event"",""trial"",""time""
""focus"",""1"",""4424""
","""event"",""trial"",""time""
""fullscreenenter"",""1"",""5250""
","
","","","5223","[""False""]","0","16","3759","843","","","","","","","","","","","","","","","","","","",""
"pit-instructions","122","1313686","0.0-2.0-26.1-1.1","battery-v0.2","","""event"",""trial"",""time""
""blur"",""1"",""739""
""focus"",""1"",""4424""
""fullscreenenter"",""1"",""5250""
","""event"",""trial"",""time""
""blur"",""1"",""739""
","""event"",""trial"",""time""
""focus"",""1"",""4424""
","""event"",""trial"",""time""
""fullscreenenter"",""1"",""5250""
","
","","[{""page_index"":0,""viewing_time"":1855.9000000357628}]","1856.4000000357628","","","","","","","","","","","","","","","","","","","","","","","",""
"pit-instructions","123","1332087","0.0-3.0","battery-v0.2","","""event"",""trial"",""time""
""blur"",""1"",""739""
""focus"",""1"",""4424""
""fullscreenenter"",""1"",""5250""
","""event"",""trial"",""time""
""blur"",""1"",""739""
","""event"",""trial"",""time""
""focus"",""1"",""4424""
","""event"",""trial"",""time""
""fullscreenenter"",""1"",""5250""
","
","","[{""page_index"":0,""viewing_time"":4758.5},{""page_index"":1,""viewing_time"":6728},{""page_index"":2,""viewing_time"":6912}]","18399","","","","","","","","","","","","","","","","","","","","","","","",""
"pit-trial","124","1336287","0.0-4.0","battery-v0.2","","""event"",""trial"",""time""
""blur"",""1"",""739""
""focus"",""1"",""4424""
""fullscreenenter"",""1"",""5250""
","""event"",""trial"",""time""
""blur"",""1"",""739""
","""event"",""trial"",""time""
""focus"",""1"",""4424""
","""event"",""trial"",""time""
""fullscreenenter"",""1"",""5250""
","
","","","1337","","","16","3759","843","&#9728;","elianto","#f73b6a7A","-1"," ","0","-10","[2188.899999976158]","1","1","","","3759","1","0","4","lose","no-go","0"
"pit-trial","125","1339487","0.0-5.0","battery-v0.2","","""event"",""trial"",""time""
""blur"",""1"",""739""
""focus"",""1"",""4424""
""fullscreenenter"",""1"",""5250""
","""event"",""trial"",""time""
""blur"",""1"",""739""
","""event"",""trial"",""time""
""focus"",""1"",""4424""
","""event"",""trial"",""time""
""fullscreenenter"",""1"",""5250""
","
","","","326.5999999642372","","","16","3759","843","&#9733;","elianto","#3366ff99","-1"," ","0","0","[1181.1000000238419]","1","1","","","3759","2","2","2","win","no-go","0"
"pit-trial","126","1343437","0.0-6.0","battery-v0.2","","""event"",""trial"",""time""
""blur"",""1"",""739""
""focus"",""1"",""4424""
""fullscreenenter"",""1"",""5250""
","""event"",""trial"",""time""
""blur"",""1"",""739""
","""event"",""trial"",""time""
""focus"",""1"",""4424""
","""event"",""trial"",""time""
""fullscreenenter"",""1"",""5250""
","
","","","1091.5","","","16","3759","843","&#9730;","elianto","#3366ff99"," "," ","1","+10","[1941.6000000238419]","1","1","","","3759","3","1","1","win","go","0"
"pit-trial","127","1347577","0.0-7.0","battery-v0.2","","""event"",""trial"",""time""
""blur"",""1"",""739""
""focus"",""1"",""4424""
""fullscreenenter"",""1"",""5250""
","""event"",""trial"",""time""
""blur"",""1"",""739""
","""event"",""trial"",""time""
""focus"",""1"",""4424""
","""event"",""trial"",""time""
""fullscreenenter"",""1"",""5250""
","
","","","1262.5","","","16","3759","843","&#9752;","elianto","#f73b6a7A"," "," ","1","0","[2119.800000011921]","1","1","","","3759","4","3","3","lose","go","0"
"pit-trial","128","1352027","0.0-8.0","battery-v0.2","","""event"",""trial"",""time""
""blur"",""1"",""739""
""focus"",""1"",""4424""
""fullscreenenter"",""1"",""5250""
","""event"",""trial"",""time""
""blur"",""1"",""739""
","""event"",""trial"",""time""
""focus"",""1"",""4424""
","""event"",""trial"",""time""
""fullscreenenter"",""1"",""5250""
","
","","","1571.7000000476837","","","16","3759","843","&#9733;","elianto","#3366ff99","-1"," ","0","+10","[2426.400000035763]","1","1","","","3759","5","2","2","win","no-go","1"
"pit-trial","129","1356906","0.0-9.0","battery-v0.2","","""event"",""trial"",""time""
""blur"",""1"",""739""
""focus"",""1"",""4424""
""fullscreenenter"",""1"",""5250""
","""event"",""trial"",""time""
""blur"",""1"",""739""
","""event"",""trial"",""time""
""focus"",""1"",""4424""
","""event"",""trial"",""time""
""fullscreenenter"",""1"",""5250""
","
","","","-1","","","16","3759","843","&#9728;","elianto","#f73b6a7A","-1","-1","1","0","[2945.300000011921]","1","1","","","3759","6","0","4","lose","no-go","0"
"pit-trial","130","1360837","0.0-10.0","battery-v0.2","","""event"",""trial"",""time""
""blur"",""1"",""739""
""focus"",""1"",""4424""
""fullscreenenter"",""1"",""5250""
","""event"",""trial"",""time""
""blur"",""1"",""739""
","""event"",""trial"",""time""
""focus"",""1"",""4424""
","""event"",""trial"",""time""
""fullscreenenter"",""1"",""5250""
","
","","","1047.9000000357628","","","16","3759","843","&#9730;","elianto","#3366ff99"," "," ","1","+10","[1899.800000011921]","1","1","","","3759","7","1","1","win","go","0"
"pit-trial","131","1364881","0.0-11.0","battery-v0.2","","""event"",""trial"",""time""
""blur"",""1"",""739""
""focus"",""1"",""4424""
""fullscreenenter"",""1"",""5250""
","""event"",""trial"",""time""
""blur"",""1"",""739""
","""event"",""trial"",""time""
""focus"",""1"",""4424""
","""event"",""trial"",""time""
""fullscreenenter"",""1"",""5250""
","
","","","1182.0999999642372","","","16","3759","843","&#9752;","elianto","#f73b6a7A"," "," ","1","0","[2032.699999988079]","1","1","","","3759","8","3","3","lose","go","0"
"pit-trial","132","1368497","0.0-12.0","battery-v0.2","","""event"",""trial"",""time""
""blur"",""1"",""739""
""focus"",""1"",""4424""
""fullscreenenter"",""1"",""5250""
","""event"",""trial"",""time""
""blur"",""1"",""739""
","""event"",""trial"",""time""
""focus"",""1"",""4424""
","""event"",""trial"",""time""
""fullscreenenter"",""1"",""5250""
","
","","","760.6000000238419","","","16","3759","843","&#9730;","elianto","#3366ff99"," "," ","1","+10","[1611.800000011921]","1","1","","","3759","9","1","1","win","go","0"
"pit-trial","133","1372177","0.0-13.0","battery-v0.2","","""event"",""trial"",""time""
""blur"",""1"",""739""
""focus"",""1"",""4424""
""fullscreenenter"",""1"",""5250""
","""event"",""trial"",""time""
""blur"",""1"",""739""
","""event"",""trial"",""time""
""focus"",""1"",""4424""
","""event"",""trial"",""time""
""fullscreenenter"",""1"",""5250""
","
","","","816.2999999523163","","","16","3759","843","&#9752;","elianto","#f73b6a7A"," "," ","1","0","[1667.699999988079]","1","1","","","3759","10","3","3","lose","go","0"
"pit-trial","134","1375797","0.0-14.0","battery-v0.2","","""event"",""trial"",""time""
""blur"",""1"",""739""
""focus"",""1"",""4424""
""fullscreenenter"",""1"",""5250""
","""event"",""trial"",""time""
""blur"",""1"",""739""
","""event"",""trial"",""time""
""focus"",""1"",""4424""
","""event"",""trial"",""time""
""fullscreenenter"",""1"",""5250""
","
","","","758.6000000238419","","","16","3759","843","&#9733;","elianto","#3366ff99","-1"," ","0","0","[1611.3999999761581]","1","1","","","3759","11","2","2","win","no-go","0"
"pit-trial","135","1379553","0.0-15.0","battery-v0.2","","""event"",""trial"",""time""
""blur"",""1"",""739""
""focus"",""1"",""4424""
""fullscreenenter"",""1"",""5250""
","""event"",""trial"",""time""
""blur"",""1"",""739""
","""event"",""trial"",""time""
""focus"",""1"",""4424""
","""event"",""trial"",""time""
""fullscreenenter"",""1"",""5250""
","
","","","899.8999999761581","","","16","3759","843","&#9728;","elianto","#f73b6a7A","-1"," ","0","-10","[1750.8999999761581]","1","1","","","3759","12","0","4","lose","no-go","0"
"pit-trial","136","1383208","0.0-16.0","battery-v0.2","","""event"",""trial"",""time""
""blur"",""1"",""739""
""focus"",""1"",""4424""
""fullscreenenter"",""1"",""5250""
","""event"",""trial"",""time""
""blur"",""1"",""739""
","""event"",""trial"",""time""
""focus"",""1"",""4424""
","""event"",""trial"",""time""
""fullscreenenter"",""1"",""5250""
","
","","","798.1000000238419","","","16","3759","843","&#9730;","elianto","#3366ff99"," "," ","1","+10","[1652.199999988079]","1","1","","","3759","13","1","1","win","go","0"
"pit-trial","137","1386898","0.0-17.0","battery-v0.2","","""event"",""trial"",""time""
""blur"",""1"",""739""
""focus"",""1"",""4424""
""fullscreenenter"",""1"",""5250""
","""event"",""trial"",""time""
""blur"",""1"",""739""
","""event"",""trial"",""time""
""focus"",""1"",""4424""
","""event"",""trial"",""time""
""fullscreenenter"",""1"",""5250""
","
","","","830.6000000238419","","","16","3759","843","&#9752;","elianto","#f73b6a7A"," "," ","1","0","[1684.199999988079]","1","1","","","3759","14","3","3","lose","go","0"
"pit-trial","138","1390642","0.0-18.0","battery-v0.2","","""event"",""trial"",""time""
""blur"",""1"",""739""
""focus"",""1"",""4424""
""fullscreenenter"",""1"",""5250""
","""event"",""trial"",""time""
""blur"",""1"",""739""
","""event"",""trial"",""time""
""focus"",""1"",""4424""
","""event"",""trial"",""time""
""fullscreenenter"",""1"",""5250""
","
","","","887.8000000119209","","","16","3759","843","&#9733;","elianto","#3366ff99","-1"," ","0","0","[1738.8999999761581]","1","1","","","3759","15","2","2","win","no-go","0"
"pit-trial","139","1394665","0.0-19.0","battery-v0.2","","""event"",""trial"",""time""
""blur"",""1"",""739""
""focus"",""1"",""4424""
""fullscreenenter"",""1"",""5250""
","""event"",""trial"",""time""
""blur"",""1"",""739""
","""event"",""trial"",""time""
""focus"",""1"",""4424""
","""event"",""trial"",""time""
""fullscreenenter"",""1"",""5250""
","
","","","1159.699999988079","","","16","3759","843","&#9728;","elianto","#f73b6a7A","-1"," ","0","-10","[2011.5]","1","1","","","3759","16","0","4","lose","no-go","0"
"pit-trial","140","1398670","0.0-20.0","battery-v0.2","","""event"",""trial"",""time""
""blur"",""1"",""739""
""focus"",""1"",""4424""
""fullscreenenter"",""1"",""5250""
","""event"",""trial"",""time""
""blur"",""1"",""739""
","""event"",""trial"",""time""
""focus"",""1"",""4424""
","""event"",""trial"",""time""
""fullscreenenter"",""1"",""5250""
","
","","","1133.6000000238419","","","16","3759","843","&#9752;","elianto","#f73b6a7A"," "," ","1","0","[1986.8999999761581]","1","1","","","3759","17","3","3","lose","go","0"
"pit-trial","141","1403537","0.0-21.0","battery-v0.2","","""event"",""trial"",""time""
""blur"",""1"",""739""
""focus"",""1"",""4424""
""fullscreenenter"",""1"",""5250""
","""event"",""trial"",""time""
""blur"",""1"",""739""
","""event"",""trial"",""time""
""focus"",""1"",""4424""
","""event"",""trial"",""time""
""fullscreenenter"",""1"",""5250""
","
","","","-1","","","16","3759","843","&#9728;","elianto","#f73b6a7A","-1","-1","1","0","[]","0","1","","","3759","18","0","4","lose","no-go","0"
"pit-trial","142","1407242","0.0-22.0","battery-v0.2","","""event"",""trial"",""time""
""blur"",""1"",""739""
""focus"",""1"",""4424""
""fullscreenenter"",""1"",""5250""
","""event"",""trial"",""time""
""blur"",""1"",""739""
","""event"",""trial"",""time""
""focus"",""1"",""4424""
","""event"",""trial"",""time""
""fullscreenenter"",""1"",""5250""
","
","","","847.3000000119209","","","16","3759","843","&#9733;","elianto","#3366ff99","-1"," ","0","+10","[1700]","1","1","","","3759","19","2","2","win","no-go","1"
"pit-trial","143","1410832","0.0-23.0","battery-v0.2","","""event"",""trial"",""time""
""blur"",""1"",""739""
""focus"",""1"",""4424""
""fullscreenenter"",""1"",""5250""
","""event"",""trial"",""time""
""blur"",""1"",""739""
","""event"",""trial"",""time""
""focus"",""1"",""4424""
","""event"",""trial"",""time""
""fullscreenenter"",""1"",""5250""
","
","","","734.3999999761581","","","16","3759","843","&#9730;","elianto","#3366ff99"," "," ","1","+10","[1586.3999999761581]","1","1","","","3759","20","1","1","win","go","0"
"pit-instructions","144","1443734","0.0-24.0","battery-v0.2","","""event"",""trial"",""time""
""blur"",""1"",""739""
""focus"",""1"",""4424""
""fullscreenenter"",""1"",""5250""
","""event"",""trial"",""time""
""blur"",""1"",""739""
","""event"",""trial"",""time""
""focus"",""1"",""4424""
","""event"",""trial"",""time""
""fullscreenenter"",""1"",""5250""
","
","","[{""page_index"":0,""viewing_time"":19675.5},{""page_index"":1,""viewing_time"":13223.900000035763}]","32899.90000003576","","","","","","","","","","","","","","","","","","","","","","","",""
"pit-trial","145","1447873","0.0-25.0","battery-v0.2","","""event"",""trial"",""time""
""blur"",""1"",""739""
""focus"",""1"",""4424""
""fullscreenenter"",""1"",""5250""
","""event"",""trial"",""time""
""blur"",""1"",""739""
","""event"",""trial"",""time""
""focus"",""1"",""4424""
","""event"",""trial"",""time""
""fullscreenenter"",""1"",""5250""
","
","","","1267.3999999761581","","","16","3759","843","l","elianto","#3366ff99"," "," ","1","+10","[2118.400000035763]","1","2","","","3759","21","1","1","win","go","0"
"pit-trial","146","1451713","0.0-26.0","battery-v0.2","","""event"",""trial"",""time""
""blur"",""1"",""739""
""focus"",""1"",""4424""
""fullscreenenter"",""1"",""5250""
","""event"",""trial"",""time""
""blur"",""1"",""739""
","""event"",""trial"",""time""
""focus"",""1"",""4424""
","""event"",""trial"",""time""
""fullscreenenter"",""1"",""5250""
","
","","","979.0999999642372","","","16","3759","843","u","elianto","#f73b6a7A","-1"," ","0","-10","[1834.5]","1","2","","","3759","22","0","4","lose","no-go","0"
"pit-trial","147","1455523","0.0-27.0","battery-v0.2","","""event"",""trial"",""time""
""blur"",""1"",""739""
""focus"",""1"",""4424""
""fullscreenenter"",""1"",""5250""
","""event"",""trial"",""time""
""blur"",""1"",""739""
","""event"",""trial"",""time""
""focus"",""1"",""4424""
","""event"",""trial"",""time""
""fullscreenenter"",""1"",""5250""
","
","","","943.1999999880791","","","16","3759","843","g","elianto","#f73b6a7A"," "," ","1","0","[1794.199999988079]","1","2","","","3759","23","3","3","lose","go","0"
"pit-trial","148","1459193","0.0-28.0","battery-v0.2","","""event"",""trial"",""time""
""blur"",""1"",""739""
""focus"",""1"",""4424""
""fullscreenenter"",""1"",""5250""
","""event"",""trial"",""time""
""blur"",""1"",""739""
","""event"",""trial"",""time""
""focus"",""1"",""4424""
","""event"",""trial"",""time""
""fullscreenenter"",""1"",""5250""
","
","","","789.3000000119209","","","16","3759","843","a","elianto","#f73b6a7A","-1"," ","0","-10","[1649.3999999761581]","1","2","","","3759","24","2","4","lose","no-go","0"
"pit-trial","149","1463029","0.0-29.0","battery-v0.2","","""event"",""trial"",""time""
""blur"",""1"",""739""
""focus"",""1"",""4424""
""fullscreenenter"",""1"",""5250""
","""event"",""trial"",""time""
""blur"",""1"",""739""
","""event"",""trial"",""time""
""focus"",""1"",""4424""
","""event"",""trial"",""time""
""fullscreenenter"",""1"",""5250""
","
","","","963.2000000476837","","","16","3759","843","u","elianto","#f73b6a7A","-1"," ","0","0","[1817.4000000357628]","1","2","","","3759","25","0","4","lose","no-go","1"
"pit-trial","150","1466774","0.0-30.0","battery-v0.2","","""event"",""trial"",""time""
""blur"",""1"",""739""
""focus"",""1"",""4424""
""fullscreenenter"",""1"",""5250""
","""event"",""trial"",""time""
""blur"",""1"",""739""
","""event"",""trial"",""time""
""focus"",""1"",""4424""
","""event"",""trial"",""time""
""fullscreenenter"",""1"",""5250""
","
","","","879.0999999642372","","","16","3759","843","l","elianto","#3366ff99"," "," ","1","+10","[1734.1000000238419]","1","2","","","3759","26","1","1","win","go","0"
"pit-trial","151","1470509","0.0-31.0","battery-v0.2","","""event"",""trial"",""time""
""blur"",""1"",""739""
""focus"",""1"",""4424""
""fullscreenenter"",""1"",""5250""
","""event"",""trial"",""time""
""blur"",""1"",""739""
","""event"",""trial"",""time""
""focus"",""1"",""4424""
","""event"",""trial"",""time""
""fullscreenenter"",""1"",""5250""
","
","","","854.6999999880791","","","16","3759","843","g","elianto","#f73b6a7A"," "," ","1","0","[1711]","1","2","","","3759","27","3","3","lose","go","0"
"pit-trial","152","1474105","0.0-32.0","battery-v0.2","","""event"",""trial"",""time""
""blur"",""1"",""739""
""focus"",""1"",""4424""
""fullscreenenter"",""1"",""5250""
","""event"",""trial"",""time""
""blur"",""1"",""739""
","""event"",""trial"",""time""
""focus"",""1"",""4424""
","""event"",""trial"",""time""
""fullscreenenter"",""1"",""5250""
","
","","","730.6999999880791","","","16","3759","843","a","elianto","#f73b6a7A","-1"," ","0","-10","[1590.4000000357628]","1","2","","","3759","28","2","4","lose","no-go","0"
"pit-trial","153","1477769","0.0-33.0","battery-v0.2","","""event"",""trial"",""time""
""blur"",""1"",""739""
""focus"",""1"",""4424""
""fullscreenenter"",""1"",""5250""
","""event"",""trial"",""time""
""blur"",""1"",""739""
","""event"",""trial"",""time""
""focus"",""1"",""4424""
","""event"",""trial"",""time""
""fullscreenenter"",""1"",""5250""
","
","","","805.8000000119209","","","16","3759","843","u","elianto","#f73b6a7A","-1"," ","0","-10","[1659.1000000238419]","1","2","","","3759","29","0","4","lose","no-go","0"
"pit-trial","154","1481272","0.0-34.0","battery-v0.2","","""event"",""trial"",""time""
""blur"",""1"",""739""
""focus"",""1"",""4424""
""fullscreenenter"",""1"",""5250""
","""event"",""trial"",""time""
""blur"",""1"",""739""
","""event"",""trial"",""time""
""focus"",""1"",""4424""
","""event"",""trial"",""time""
""fullscreenenter"",""1"",""5250""
","
","","","649.5","","","16","3759","843","l","elianto","#3366ff99"," "," ","1","+10","[1500.1000000238419]","1","2","","","3759","30","1","1","win","go","0"
"pit-trial","155","1486136","0.0-35.0","battery-v0.2","","""event"",""trial"",""time""
""blur"",""1"",""739""
""focus"",""1"",""4424""
""fullscreenenter"",""1"",""5250""
","""event"",""trial"",""time""
""blur"",""1"",""739""
","""event"",""trial"",""time""
""focus"",""1"",""4424""
","""event"",""trial"",""time""
""fullscreenenter"",""1"",""5250""
","
","","","-1","","","16","3759","843","a","elianto","#f73b6a7A","-1","-1","1","0","[]","0","2","","","3759","31","2","4","lose","no-go","0"
"pit-trial","156","1489752","0.0-36.0","battery-v0.2","","""event"",""trial"",""time""
""blur"",""1"",""739""
""focus"",""1"",""4424""
""fullscreenenter"",""1"",""5250""
","""event"",""trial"",""time""
""blur"",""1"",""739""
","""event"",""trial"",""time""
""focus"",""1"",""4424""
","""event"",""trial"",""time""
""fullscreenenter"",""1"",""5250""
","
","","","757.1000000238419","","","16","3759","843","g","elianto","#f73b6a7A"," "," ","1","0","[1611.6000000238419]","1","2","","","3759","32","3","3","lose","go","0"
"pit-trial","157","1493593","0.0-37.0","battery-v0.2","","""event"",""trial"",""time""
""blur"",""1"",""739""
""focus"",""1"",""4424""
""fullscreenenter"",""1"",""5250""
","""event"",""trial"",""time""
""blur"",""1"",""739""
","""event"",""trial"",""time""
""focus"",""1"",""4424""
","""event"",""trial"",""time""
""fullscreenenter"",""1"",""5250""
","
","","","986.1999999880791","","","16","3759","843","u","elianto","#f73b6a7A","-1"," ","0","-10","[1836.800000011921]","1","2","","","3759","33","0","4","lose","no-go","0"
"pit-trial","158","1498457","0.0-38.0","battery-v0.2","","""event"",""trial"",""time""
""blur"",""1"",""739""
""focus"",""1"",""4424""
""fullscreenenter"",""1"",""5250""
","""event"",""trial"",""time""
""blur"",""1"",""739""
","""event"",""trial"",""time""
""focus"",""1"",""4424""
","""event"",""trial"",""time""
""fullscreenenter"",""1"",""5250""
","
","","","-1","","","16","3759","843","a","elianto","#f73b6a7A","-1","-1","1","0","[]","0","2","","","3759","34","2","4","lose","no-go","0"
"pit-trial","159","1501969","0.0-39.0","battery-v0.2","","""event"",""trial"",""time""
""blur"",""1"",""739""
""focus"",""1"",""4424""
""fullscreenenter"",""1"",""5250""
","""event"",""trial"",""time""
""blur"",""1"",""739""
","""event"",""trial"",""time""
""focus"",""1"",""4424""
","""event"",""trial"",""time""
""fullscreenenter"",""1"",""5250""
","
","","","654.5","","","16","3759","843","g","elianto","#f73b6a7A"," "," ","1","0","[1507.199999988079]","1","2","","","3759","35","3","3","lose","go","0"
"pit-trial","160","1505568","0.0-40.0","battery-v0.2","","""event"",""trial"",""time""
""blur"",""1"",""739""
""focus"",""1"",""4424""
""fullscreenenter"",""1"",""5250""
","""event"",""trial"",""time""
""blur"",""1"",""739""
","""event"",""trial"",""time""
""focus"",""1"",""4424""
","""event"",""trial"",""time""
""fullscreenenter"",""1"",""5250""
","
","","","743.3999999761581","","","16","3759","843","l","elianto","#3366ff99"," "," ","1","+10","[1596]","1","2","","","3759","36","1","1","win","go","0"
"pit-trial","161","1510433","0.0-41.0","battery-v0.2","","""event"",""trial"",""time""
""blur"",""1"",""739""
""focus"",""1"",""4424""
""fullscreenenter"",""1"",""5250""
","""event"",""trial"",""time""
""blur"",""1"",""739""
","""event"",""trial"",""time""
""focus"",""1"",""4424""
","""event"",""trial"",""time""
""fullscreenenter"",""1"",""5250""
","
","","","-1","","","16","3759","843","a","elianto","#f73b6a7A","-1","-1","1","0","[]","0","2","","","3759","37","2","4","lose","no-go","0"
"pit-trial","162","1514009","0.0-42.0","battery-v0.2","","""event"",""trial"",""time""
""blur"",""1"",""739""
""focus"",""1"",""4424""
""fullscreenenter"",""1"",""5250""
","""event"",""trial"",""time""
""blur"",""1"",""739""
","""event"",""trial"",""time""
""focus"",""1"",""4424""
","""event"",""trial"",""time""
""fullscreenenter"",""1"",""5250""
","
","","","718.5","","","16","3759","843","g","elianto","#f73b6a7A"," "," ","1","0","[1571.199999988079]","1","2","","","3759","38","3","3","lose","go","0"
"pit-trial","163","1518872","0.0-43.0","battery-v0.2","","""event"",""trial"",""time""
""blur"",""1"",""739""
""focus"",""1"",""4424""
""fullscreenenter"",""1"",""5250""
","""event"",""trial"",""time""
""blur"",""1"",""739""
","""event"",""trial"",""time""
""focus"",""1"",""4424""
","""event"",""trial"",""time""
""fullscreenenter"",""1"",""5250""
","
","","","-1","","","16","3759","843","u","elianto","#f73b6a7A","-1","-1","1","0","[]","0","2","","","3759","39","0","4","lose","no-go","0"
"pit-trial","164","1522482","0.0-44.0","battery-v0.2","","""event"",""trial"",""time""
""blur"",""1"",""739""
""focus"",""1"",""4424""
""fullscreenenter"",""1"",""5250""
","""event"",""trial"",""time""
""blur"",""1"",""739""
","""event"",""trial"",""time""
""focus"",""1"",""4424""
","""event"",""trial"",""time""
""fullscreenenter"",""1"",""5250""
","
","","","750.1999999880791","","","16","3759","843","l","elianto","#3366ff99"," "," ","1","+10","[1604.199999988079]","1","2","","","3759","40","1","1","win","go","0"
"pit-trial","165","1527344","0.0-45.0","battery-v0.2","","""event"",""trial"",""time""
""blur"",""1"",""739""
""focus"",""1"",""4424""
""fullscreenenter"",""1"",""5250""
","""event"",""trial"",""time""
""blur"",""1"",""739""
","""event"",""trial"",""time""
""focus"",""1"",""4424""
","""event"",""trial"",""time""
""fullscreenenter"",""1"",""5250""
","
","","","-1","","","16","3759","843","a","elianto","#f73b6a7A","-1","-1","1","0","[]","0","2","","","3759","41","2","4","lose","no-go","0"
"pit-trial","166","1531049","0.0-46.0","battery-v0.2","","""event"",""trial"",""time""
""blur"",""1"",""739""
""focus"",""1"",""4424""
""fullscreenenter"",""1"",""5250""
","""event"",""trial"",""time""
""blur"",""1"",""739""
","""event"",""trial"",""time""
""focus"",""1"",""4424""
","""event"",""trial"",""time""
""fullscreenenter"",""1"",""5250""
","
","","","846","","","16","3759","843","g","elianto","#f73b6a7A"," "," ","1","0","[1699.699999988079]","1","2","","","3759","42","3","3","lose","go","0"
"pit-trial","167","1534617","0.0-47.0","battery-v0.2","","""event"",""trial"",""time""
""blur"",""1"",""739""
""focus"",""1"",""4424""
""fullscreenenter"",""1"",""5250""
","""event"",""trial"",""time""
""blur"",""1"",""739""
","""event"",""trial"",""time""
""focus"",""1"",""4424""
","""event"",""trial"",""time""
""fullscreenenter"",""1"",""5250""
","
","","","702.8000000119209","","","16","3759","843","l","elianto","#3366ff99"," "," ","1","+10","[1555.9000000357628]","1","2","","","3759","43","1","1","win","go","0"
"pit-trial","168","1539481","0.0-48.0","battery-v0.2","","""event"",""trial"",""time""
""blur"",""1"",""739""
""focus"",""1"",""4424""
""fullscreenenter"",""1"",""5250""
","""event"",""trial"",""time""
""blur"",""1"",""739""
","""event"",""trial"",""time""
""focus"",""1"",""4424""
","""event"",""trial"",""time""
""fullscreenenter"",""1"",""5250""
","
","","","-1","","","16","3759","843","u","elianto","#f73b6a7A","-1","-1","1","0","[]","0","2","","","3759","44","0","4","lose","no-go","0"
"pit-trial","169","1543113","0.0-49.0","battery-v0.2","","""event"",""trial"",""time""
""blur"",""1"",""739""
""focus"",""1"",""4424""
""fullscreenenter"",""1"",""5250""
","""event"",""trial"",""time""
""blur"",""1"",""739""
","""event"",""trial"",""time""
""focus"",""1"",""4424""
","""event"",""trial"",""time""
""fullscreenenter"",""1"",""5250""
","
","","","774","","","16","3759","843","p","elianto","#3366ff99","-1"," ","0","0","[1627.5]","1","2","","","3759","45","4","2","win","no-go","0"
"pit-trial","170","1546825","0.0-50.0","battery-v0.2","","""event"",""trial"",""time""
""blur"",""1"",""739""
""focus"",""1"",""4424""
""fullscreenenter"",""1"",""5250""
","""event"",""trial"",""time""
""blur"",""1"",""739""
","""event"",""trial"",""time""
""focus"",""1"",""4424""
","""event"",""trial"",""time""
""fullscreenenter"",""1"",""5250""
","
","","","851.4000000357628","","","16","3759","843","g","elianto","#f73b6a7A"," "," ","1","-10","[1708]","1","2","","","3759","46","3","3","lose","go","1"
"pit-trial","171","1551696","0.0-51.0","battery-v0.2","","""event"",""trial"",""time""
""blur"",""1"",""739""
""focus"",""1"",""4424""
""fullscreenenter"",""1"",""5250""
","""event"",""trial"",""time""
""blur"",""1"",""739""
","""event"",""trial"",""time""
""focus"",""1"",""4424""
","""event"",""trial"",""time""
""fullscreenenter"",""1"",""5250""
","
","","","-1","","","16","3759","843","u","elianto","#f73b6a7A","-1","-1","1","0","[]","0","2","","","3759","47","0","4","lose","no-go","0"
"pit-trial","172","1556561","0.0-52.0","battery-v0.2","","""event"",""trial"",""time""
""blur"",""1"",""739""
""focus"",""1"",""4424""
""fullscreenenter"",""1"",""5250""
","""event"",""trial"",""time""
""blur"",""1"",""739""
","""event"",""trial"",""time""
""focus"",""1"",""4424""
","""event"",""trial"",""time""
""fullscreenenter"",""1"",""5250""
","
","","","-1","","","16","3759","843","a","elianto","#f73b6a7A","-1","-1","1","-10","[]","0","2","","","3759","48","2","4","lose","no-go","1"
"pit-trial","173","1561425","0.0-53.0","battery-v0.2","","""event"",""trial"",""time""
""blur"",""1"",""739""
""focus"",""1"",""4424""
""fullscreenenter"",""1"",""5250""
","""event"",""trial"",""time""
""blur"",""1"",""739""
","""event"",""trial"",""time""
""focus"",""1"",""4424""
","""event"",""trial"",""time""
""fullscreenenter"",""1"",""5250""
","
","","","-1","","","16","3759","843","u","elianto","#f73b6a7A","-1","-1","1","0","[]","0","2","","","3759","49","0","4","lose","no-go","0"
"pit-trial","174","1565129","0.0-54.0","battery-v0.2","","""event"",""trial"",""time""
""blur"",""1"",""739""
""focus"",""1"",""4424""
""fullscreenenter"",""1"",""5250""
","""event"",""trial"",""time""
""blur"",""1"",""739""
","""event"",""trial"",""time""
""focus"",""1"",""4424""
","""event"",""trial"",""time""
""fullscreenenter"",""1"",""5250""
","
","","","847.5","","","16","3759","843","g","elianto","#f73b6a7A"," "," ","1","-10","[1699.699999988079]","1","2","","","3759","50","3","3","lose","go","1"
"pit-trial","175","1568777","0.0-55.0","battery-v0.2","","""event"",""trial"",""time""
""blur"",""1"",""739""
""focus"",""1"",""4424""
""fullscreenenter"",""1"",""5250""
","""event"",""trial"",""time""
""blur"",""1"",""739""
","""event"",""trial"",""time""
""focus"",""1"",""4424""
","""event"",""trial"",""time""
""fullscreenenter"",""1"",""5250""
","
","","","788.0999999642372","","","16","3759","843","l","elianto","#3366ff99"," "," ","1","+10","[1642.9000000357628]","1","2","","","3759","51","1","1","win","go","0"
"pit-trial","176","1572922","0.0-56.0","battery-v0.2","","""event"",""trial"",""time""
""blur"",""1"",""739""
""focus"",""1"",""4424""
""fullscreenenter"",""1"",""5250""
","""event"",""trial"",""time""
""blur"",""1"",""739""
","""event"",""trial"",""time""
""focus"",""1"",""4424""
","""event"",""trial"",""time""
""fullscreenenter"",""1"",""5250""
","
","","","1286.199999988079","","","16","3759","843","p","elianto","#3366ff99","-1"," ","0","0","[2139.800000011921]","1","2","","","3759","52","4","2","win","no-go","0"
"pit-trial","177","1577785","0.0-57.0","battery-v0.2","","""event"",""trial"",""time""
""blur"",""1"",""739""
""focus"",""1"",""4424""
""fullscreenenter"",""1"",""5250""
","""event"",""trial"",""time""
""blur"",""1"",""739""
","""event"",""trial"",""time""
""focus"",""1"",""4424""
","""event"",""trial"",""time""
""fullscreenenter"",""1"",""5250""
","
","","","-1","","","16","3759","843","a","elianto","#f73b6a7A","-1","-1","1","0","[]","0","2","","","3759","53","2","4","lose","no-go","0"
"pit-trial","178","1581865","0.0-58.0","battery-v0.2","","""event"",""trial"",""time""
""blur"",""1"",""739""
""focus"",""1"",""4424""
""fullscreenenter"",""1"",""5250""
","""event"",""trial"",""time""
""blur"",""1"",""739""
","""event"",""trial"",""time""
""focus"",""1"",""4424""
","""event"",""trial"",""time""
""fullscreenenter"",""1"",""5250""
","
","","","1221.800000011921","","","16","3759","843","p","elianto","#3366ff99","-1"," ","0","0","[2076.399999976158]","1","2","","","3759","54","4","2","win","no-go","0"
"pit-trial","179","1585569","0.0-59.0","battery-v0.2","","""event"",""trial"",""time""
""blur"",""1"",""739""
""focus"",""1"",""4424""
""fullscreenenter"",""1"",""5250""
","""event"",""trial"",""time""
""blur"",""1"",""739""
","""event"",""trial"",""time""
""focus"",""1"",""4424""
","""event"",""trial"",""time""
""fullscreenenter"",""1"",""5250""
","
","","","845.3000000119209","","","16","3759","843","l","elianto","#3366ff99"," "," ","1","+10","[1698.7000000476837]","1","2","","","3759","55","1","1","win","go","0"
"pit-trial","180","1590433","0.0-60.0","battery-v0.2","","""event"",""trial"",""time""
""blur"",""1"",""739""
""focus"",""1"",""4424""
""fullscreenenter"",""1"",""5250""
","""event"",""trial"",""time""
""blur"",""1"",""739""
","""event"",""trial"",""time""
""focus"",""1"",""4424""
","""event"",""trial"",""time""
""fullscreenenter"",""1"",""5250""
","
","","","-1","","","16","3759","843","u","elianto","#f73b6a7A","-1","-1","1","0","[]","0","2","","","3759","56","0","4","lose","no-go","0"
"pit-trial","181","1594657","0.0-61.0","battery-v0.2","","""event"",""trial"",""time""
""blur"",""1"",""739""
""focus"",""1"",""4424""
""fullscreenenter"",""1"",""5250""
","""event"",""trial"",""time""
""blur"",""1"",""739""
","""event"",""trial"",""time""
""focus"",""1"",""4424""
","""event"",""trial"",""time""
""fullscreenenter"",""1"",""5250""
","
","","","1366.8999999761581","","","16","3759","843","p","elianto","#3366ff99","-1"," ","0","0","[2219.599999964237]","1","2","","","3759","57","4","2","win","no-go","0"
"pit-trial","182","1598344","0.0-62.0","battery-v0.2","","""event"",""trial"",""time""
""blur"",""1"",""739""
""focus"",""1"",""4424""
""fullscreenenter"",""1"",""5250""
","""event"",""trial"",""time""
""blur"",""1"",""739""
","""event"",""trial"",""time""
""focus"",""1"",""4424""
","""event"",""trial"",""time""
""fullscreenenter"",""1"",""5250""
","
","","","830.4000000357628","","","16","3759","843","g","elianto","#f73b6a7A"," "," ","1","0","[1682.7000000476837]","1","2","","","3759","58","3","3","lose","go","0"
"pit-trial","183","1603209","0.0-63.0","battery-v0.2","","""event"",""trial"",""time""
""blur"",""1"",""739""
""focus"",""1"",""4424""
""fullscreenenter"",""1"",""5250""
","""event"",""trial"",""time""
""blur"",""1"",""739""
","""event"",""trial"",""time""
""focus"",""1"",""4424""
","""event"",""trial"",""time""
""fullscreenenter"",""1"",""5250""
","
","","","-1","","","16","3759","843","u","elianto","#f73b6a7A","-1","-1","1","0","[]","0","2","","","3759","59","0","4","lose","no-go","0"
"pit-trial","184","1606817","0.0-64.0","battery-v0.2","","""event"",""trial"",""time""
""blur"",""1"",""739""
""focus"",""1"",""4424""
""fullscreenenter"",""1"",""5250""
","""event"",""trial"",""time""
""blur"",""1"",""739""
","""event"",""trial"",""time""
""focus"",""1"",""4424""
","""event"",""trial"",""time""
""fullscreenenter"",""1"",""5250""
","
","","","751.3000000119209","","","16","3759","843","l","elianto","#3366ff99"," "," ","1","+10","[1603.800000011921]","1","2","","","3759","60","1","1","win","go","0"
"pit-trial","185","1611681","0.0-65.0","battery-v0.2","","""event"",""trial"",""time""
""blur"",""1"",""739""
""focus"",""1"",""4424""
""fullscreenenter"",""1"",""5250""
","""event"",""trial"",""time""
""blur"",""1"",""739""
","""event"",""trial"",""time""
""focus"",""1"",""4424""
","""event"",""trial"",""time""
""fullscreenenter"",""1"",""5250""
","
","","","-1","","","16","3759","843","a","elianto","#f73b6a7A","-1","-1","1","-10","[]","0","2","","","3759","61","2","4","lose","no-go","1"
"pit-trial","186","1615678","0.0-66.0","battery-v0.2","","""event"",""trial"",""time""
""blur"",""1"",""739""
""focus"",""1"",""4424""
""fullscreenenter"",""1"",""5250""
","""event"",""trial"",""time""
""blur"",""1"",""739""
","""event"",""trial"",""time""
""focus"",""1"",""4424""
","""event"",""trial"",""time""
""fullscreenenter"",""1"",""5250""
","
","","","1128.300000011921","","","16","3759","843","p","elianto","#3366ff99","-1"," ","0","0","[1978.5]","1","2","","","3759","62","4","2","win","no-go","0"
"pit-trial","187","1620549","0.0-67.0","battery-v0.2","","""event"",""trial"",""time""
""blur"",""1"",""739""
""focus"",""1"",""4424""
""fullscreenenter"",""1"",""5250""
