"trial_type","trial_index","time_elapsed","internal_node_id","task_version","subject_id","interactions","blur_events","focus_events","fullscreenenter_events","fullscreenexit_events","success","view_history","rt","responses","num_errors","age","subject","participantId","rune","rune_set","hex","correct","choice","accuracy","outcome","keys","total_keys","block","practice","value","sub","trial","stimulus","robot","valence","action","sham"
"pavlovia","0","16","0.0-0.0","battery-v0.2","","""event"",""trial"",""time""
""fullscreenenter"",""1"",""2029""
","
","
","""event"",""trial"",""time""
""fullscreenenter"",""1"",""2029""
","
","","","","","","","","","","","","","","","","","","","","","","","","","","",""
"fullscreen","1","3024","0.0-1.0","battery-v0.2","","""event"",""trial"",""time""
""fullscreenenter"",""1"",""2029""
","
","
","""event"",""trial"",""time""
""fullscreenenter"",""1"",""2029""
","
","true","","","","","","","","","","","","","","","","","","","","","","","","","",""
"pit-instructions","2","12351","0.0-2.0-0.0","battery-v0.2","","""event"",""trial"",""time""
""fullscreenenter"",""1"",""2029""
","
","
","""event"",""trial"",""time""
""fullscreenenter"",""1"",""2029""
","
","","[{""page_index"":0,""viewing_time"":9326}]","9326","","","","","","","","","","","","","","","","","","","","","","","",""
"pit-comprehension","3","15602","0.0-2.0-1.0-0.0","battery-v0.2","","""event"",""trial"",""time""
""fullscreenenter"",""1"",""2029""
","
","
","""event"",""trial"",""time""
""fullscreenenter"",""1"",""2029""
","
","","","3248","[""shark""]","0","22","17879","6769","","","","","","","","","","","","","","","","","","",""
"pit-instructions","4","18638","0.0-2.0-1.0-1.0","battery-v0.2","","""event"",""trial"",""time""
""fullscreenenter"",""1"",""2029""
","
","
","""event"",""trial"",""time""
""fullscreenenter"",""1"",""2029""
","
","","[{""page_index"":0,""viewing_time"":3034}]","3034","","","","","","","","","","","","","","","","","","","","","","","",""
"pit-comprehension","5","21126","0.0-2.0-2.0-0.0","battery-v0.2","","""event"",""trial"",""time""
""fullscreenenter"",""1"",""2029""
","
","
","""event"",""trial"",""time""
""fullscreenenter"",""1"",""2029""
","
","","","2487","[""tiger""]","0","22","17879","6769","","","","","","","","","","","","","","","","","","",""
"pit-instructions","6","22218","0.0-2.0-2.0-1.0","battery-v0.2","","""event"",""trial"",""time""
""fullscreenenter"",""1"",""2029""
","
","
","""event"",""trial"",""time""
""fullscreenenter"",""1"",""2029""
","
","","[{""page_index"":0,""viewing_time"":1090}]","1090","","","","","","","","","","","","","","","","","","","","","","","",""
"pit-instructions","7","124607","0.0-2.0-3.0","battery-v0.2","","""event"",""trial"",""time""
""fullscreenenter"",""1"",""2029""
","
","
","""event"",""trial"",""time""
""fullscreenenter"",""1"",""2029""
","
","","[{""page_index"":0,""viewing_time"":7691},{""page_index"":1,""viewing_time"":5395},{""page_index"":2,""viewing_time"":6317},{""page_index"":3,""viewing_time"":5588},{""page_index"":4,""viewing_time"":5183},{""page_index"":5,""viewing_time"":5242},{""page_index"":6,""viewing_time"":7820},{""page_index"":7,""viewing_time"":14592},{""page_index"":8,""viewing_time"":8209},{""page_index"":9,""viewing_time"":13383},{""page_index"":10,""viewing_time"":7296},{""page_index"":11,""viewing_time"":4371},{""page_index"":12,""viewing_time"":7120},{""page_index"":13,""viewing_time"":4184}]","102391","","","","","","","","","","","","","","","","","","","","","","","",""
"pit-trial","8","127984","0.0-2.0-4.0-0.0","battery-v0.2","","""event"",""trial"",""time""
""fullscreenenter"",""1"",""2029""
","
","
","""event"",""trial"",""time""
""fullscreenenter"",""1"",""2029""
","
","","","520","","","22","17879","6769","&#9784;","elianto","#FFFFF080"," "," ","1","&#10004","[1371]","1","0","0","","","","","","","",""
"pit-trial","9","131331","0.0-2.0-4.1-0.1","battery-v0.2","","""event"",""trial"",""time""
""fullscreenenter"",""1"",""2029""
","
","
","""event"",""trial"",""time""
""fullscreenenter"",""1"",""2029""
","
","","","491","","","22","17879","6769","&#9784;","elianto","#FFFFF080"," "," ","1","&#10004","[1342]","1","0","0","","","","","","","",""
"pit-trial","10","134705","0.0-2.0-4.2-0.2","battery-v0.2","","""event"",""trial"",""time""
""fullscreenenter"",""1"",""2029""
","
","
","""event"",""trial"",""time""
""fullscreenenter"",""1"",""2029""
","
","","","517","","","22","17879","6769","&#9784;","elianto","#FFFFF080"," "," ","1","&#10004","[1367]","1","0","0","","","","","","","",""
"pit-trial","11","138103","0.0-2.0-4.3-0.3","battery-v0.2","","""event"",""trial"",""time""
""fullscreenenter"",""1"",""2029""
","
","
","""event"",""trial"",""time""
""fullscreenenter"",""1"",""2029""
","
","","","542","","","22","17879","6769","&#9784;","elianto","#FFFFF080"," "," ","1","&#10004","[1392]","1","0","0","","","","","","","",""
"pit-trial","12","141469","0.0-2.0-4.4-0.4","battery-v0.2","","""event"",""trial"",""time""
""fullscreenenter"",""1"",""2029""
","
","
","""event"",""trial"",""time""
""fullscreenenter"",""1"",""2029""
","
","","","508","","","22","17879","6769","&#9784;","elianto","#FFFFF080"," "," ","1","&#10004","[1359]","1","0","0","","","","","","","",""
"pit-instructions","13","163578","0.0-2.0-5.0","battery-v0.2","","""event"",""trial"",""time""
""fullscreenenter"",""1"",""2029""
","
","
","""event"",""trial"",""time""
""fullscreenenter"",""1"",""2029""
","
","","[{""page_index"":0,""viewing_time"":4767},{""page_index"":1,""viewing_time"":6926},{""page_index"":2,""viewing_time"":4878},{""page_index"":3,""viewing_time"":5534}]","22105","","","","","","","","","","","","","","","","","","","","","","","",""
"pit-trial","14","168434","0.0-2.0-6.0-0.0","battery-v0.2","","""event"",""trial"",""time""
""fullscreenenter"",""1"",""2029""
","
","
","""event"",""trial"",""time""
""fullscreenenter"",""1"",""2029""
","
","","","-1","","","22","17879","6769","&#9854;","elianto","#FFFFF080","-1","-1","1","&#10004","[]","0","0","1","","","","","","","",""
"pit-trial","15","173291","0.0-2.0-6.1-0.1","battery-v0.2","","""event"",""trial"",""time""
""fullscreenenter"",""1"",""2029""
","
","
","""event"",""trial"",""time""
""fullscreenenter"",""1"",""2029""
","
","","","-1","","","22","17879","6769","&#9854;","elianto","#FFFFF080","-1","-1","1","&#10004","[]","0","0","1","","","","","","","",""
"pit-trial","16","178150","0.0-2.0-6.2-0.2","battery-v0.2","","""event"",""trial"",""time""
""fullscreenenter"",""1"",""2029""
","
","
","""event"",""trial"",""time""
""fullscreenenter"",""1"",""2029""
","
","","","-1","","","22","17879","6769","&#9854;","elianto","#FFFFF080","-1","-1","1","&#10004","[]","0","0","1","","","","","","","",""
"pit-trial","17","183008","0.0-2.0-6.3-0.3","battery-v0.2","","""event"",""trial"",""time""
""fullscreenenter"",""1"",""2029""
","
","
","""event"",""trial"",""time""
""fullscreenenter"",""1"",""2029""
","
","","","-1","","","22","17879","6769","&#9854;","elianto","#FFFFF080","-1","-1","1","&#10004","[]","0","0","1","","","","","","","",""
"pit-trial","18","187866","0.0-2.0-6.4-0.4","battery-v0.2","","""event"",""trial"",""time""
""fullscreenenter"",""1"",""2029""
","
","
","""event"",""trial"",""time""
""fullscreenenter"",""1"",""2029""
","
","","","-1","","","22","17879","6769","&#9854;","elianto","#FFFFF080","-1","-1","1","&#10004","[]","0","0","1","","","","","","","",""
"pit-instructions","19","301717","0.0-2.0-7.0","battery-v0.2","","""event"",""trial"",""time""
""fullscreenenter"",""1"",""2029""
","
","
","""event"",""trial"",""time""
""fullscreenenter"",""1"",""2029""
","
","","[{""page_index"":0,""viewing_time"":5837},{""page_index"":1,""viewing_time"":10061},{""page_index"":2,""viewing_time"":5017},{""page_index"":3,""viewing_time"":5258},{""page_index"":4,""viewing_time"":5217},{""page_index"":5,""viewing_time"":5016},{""page_index"":6,""viewing_time"":6688},{""page_index"":7,""viewing_time"":7258},{""page_index"":8,""viewing_time"":7954},{""page_index"":9,""viewing_time"":5896},{""page_index"":10,""viewing_time"":6088},{""page_index"":11,""viewing_time"":4433},{""page_index"":12,""viewing_time"":6022},{""page_index"":13,""viewing_time"":6291},{""page_index"":14,""viewing_time"":6383},{""page_index"":15,""viewing_time"":6709},{""page_index"":16,""viewing_time"":6483},{""page_index"":17,""viewing_time"":7237}]","113848","","","","","","","","","","","","","","","","","","","","","","","",""
"pit-trial","20","305073","0.0-2.0-8.0-0.0","battery-v0.2","","""event"",""trial"",""time""
""fullscreenenter"",""1"",""2029""
","
","
","""event"",""trial"",""time""
""fullscreenenter"",""1"",""2029""
","
","","","501","","","22","17879","6769","&#9776;","elianto","#3366ff99"," "," ","1","+10","[1353]","1","0","1","","","","","","","",""
"pit-trial","21","308393","0.0-2.0-8.0-1.0","battery-v0.2","","""event"",""trial"",""time""
""fullscreenenter"",""1"",""2029""
","
","
","""event"",""trial"",""time""
""fullscreenenter"",""1"",""2029""
","
","","","465","","","22","17879","6769","&#9776;","elianto","#3366ff99"," "," ","1","+10","[1316]","1","0","1","","","","","","","",""
"pit-trial","22","311603","0.0-2.0-8.0-2.0","battery-v0.2","","""event"",""trial"",""time""
""fullscreenenter"",""1"",""2029""
","
","
","""event"",""trial"",""time""
""fullscreenenter"",""1"",""2029""
","
","","","352","","","22","17879","6769","&#9776;","elianto","#3366ff99"," "," ","1","+10","[1203]","1","0","1","","","","","","","",""
"pit-trial","23","314751","0.0-2.0-8.0-3.0","battery-v0.2","","""event"",""trial"",""time""
""fullscreenenter"",""1"",""2029""
","
","
","""event"",""trial"",""time""
""fullscreenenter"",""1"",""2029""
","
","","","292","","","22","17879","6769","&#9776;","elianto","#3366ff99"," "," ","1","0","[1143]","1","0","1","","","","","","","",""
"pit-trial","24","317829","0.0-2.0-8.0-4.0","battery-v0.2","","""event"",""trial"",""time""
""fullscreenenter"",""1"",""2029""
","
","
","""event"",""trial"",""time""
""fullscreenenter"",""1"",""2029""
","
","","","222","","","22","17879","6769","&#9776;","elianto","#3366ff99"," "," ","1","+10","[1072]","1","0","1","","","","","","","",""
"pit-trial","25","321137","0.0-2.0-8.1-0.1","battery-v0.2","","""event"",""trial"",""time""
""fullscreenenter"",""1"",""2029""
","
","
","""event"",""trial"",""time""
""fullscreenenter"",""1"",""2029""
","
","","","450","","","22","17879","6769","&#9776;","elianto","#3366ff99"," "," ","1","+10","[1300]","1","0","1","","","","","","","",""
"pit-trial","26","324390","0.0-2.0-8.1-1.1","battery-v0.2","","""event"",""trial"",""time""
""fullscreenenter"",""1"",""2029""
","
","
","""event"",""trial"",""time""
""fullscreenenter"",""1"",""2029""
","
","","","397","","","22","17879","6769","&#9776;","elianto","#3366ff99"," "," ","1","+10","[1248]","1","0","1","","","","","","","",""
"pit-trial","27","327449","0.0-2.0-8.1-2.1","battery-v0.2","","""event"",""trial"",""time""
""fullscreenenter"",""1"",""2029""
","
","
","""event"",""trial"",""time""
""fullscreenenter"",""1"",""2029""
","
","","","202","","","22","17879","6769","&#9776;","elianto","#3366ff99"," "," ","1","+10","[1053]","1","0","1","","","","","","","",""
"pit-trial","28","330549","0.0-2.0-8.1-3.1","battery-v0.2","","""event"",""trial"",""time""
""fullscreenenter"",""1"",""2029""
","
","
","""event"",""trial"",""time""
""fullscreenenter"",""1"",""2029""
","
","","","242","","","22","17879","6769","&#9776;","elianto","#3366ff99"," "," ","1","0","[1093]","1","0","1","","","","","","","",""
"pit-trial","29","333668","0.0-2.0-8.1-4.1","battery-v0.2","","""event"",""trial"",""time""
""fullscreenenter"",""1"",""2029""
","
","
","""event"",""trial"",""time""
""fullscreenenter"",""1"",""2029""
","
","","","265","","","22","17879","6769","&#9776;","elianto","#3366ff99"," "," ","1","+10","[1116]","1","0","1","","","","","","","",""
"pit-trial","30","336727","0.0-2.0-8.2-0.2","battery-v0.2","","""event"",""trial"",""time""
""fullscreenenter"",""1"",""2029""
","
","
","""event"",""trial"",""time""
""fullscreenenter"",""1"",""2029""
","
","","","203","","","22","17879","6769","&#9776;","elianto","#3366ff99"," "," ","1","+10","[1053]","1","0","1","","","","","","","",""
"pit-trial","31","339750","0.0-2.0-8.2-1.2","battery-v0.2","","""event"",""trial"",""time""
""fullscreenenter"",""1"",""2029""
","
","
","""event"",""trial"",""time""
""fullscreenenter"",""1"",""2029""
","
","","","167","","","22","17879","6769","&#9776;","elianto","#3366ff99"," "," ","1","+10","[1018]","1","0","1","","","","","","","",""
"pit-trial","32","342760","0.0-2.0-8.2-2.2","battery-v0.2","","""event"",""trial"",""time""
""fullscreenenter"",""1"",""2029""
","
","
","""event"",""trial"",""time""
""fullscreenenter"",""1"",""2029""
","
","","","157","","","22","17879","6769","&#9776;","elianto","#3366ff99"," "," ","1","+10","[1007]","1","0","1","","","","","","","",""
"pit-trial","33","345927","0.0-2.0-8.2-3.2","battery-v0.2","","""event"",""trial"",""time""
""fullscreenenter"",""1"",""2029""
","
","
","""event"",""trial"",""time""
""fullscreenenter"",""1"",""2029""
","
","","","310","","","22","17879","6769","&#9776;","elianto","#3366ff99"," "," ","1","0","[1162]","1","0","1","","","","","","","",""
"pit-trial","34","349328","0.0-2.0-8.2-4.2","battery-v0.2","","""event"",""trial"",""time""
""fullscreenenter"",""1"",""2029""
","
","
","""event"",""trial"",""time""
""fullscreenenter"",""1"",""2029""
","
","","","544","","","22","17879","6769","&#9776;","elianto","#3366ff99"," "," ","1","+10","[1395]","1","0","1","","","","","","","",""
"call-function","35","349331","0.0-2.0-9.0","battery-v0.2","","""event"",""trial"",""time""
""fullscreenenter"",""1"",""2029""
","
","
","""event"",""trial"",""time""
""fullscreenenter"",""1"",""2029""
","
","","","","","","","","","","","","","","","","","","","","","","","","","","",""
"pit-instructions","36","387399","0.0-2.0-10.0","battery-v0.2","","""event"",""trial"",""time""
""fullscreenenter"",""1"",""2029""
","
","
","""event"",""trial"",""time""
""fullscreenenter"",""1"",""2029""
","
","","[{""page_index"":0,""viewing_time"":5738},{""page_index"":1,""viewing_time"":6712},{""page_index"":2,""viewing_time"":9600},{""page_index"":3,""viewing_time"":8643},{""page_index"":4,""viewing_time"":7374}]","38068","","","","","","","","","","","","","","","","","","","","","","","",""
"pit-trial","37","392254","0.0-2.0-11.0-0.0","battery-v0.2","","""event"",""trial"",""time""
""fullscreenenter"",""1"",""2029""
","
","
","""event"",""trial"",""time""
""fullscreenenter"",""1"",""2029""
","
","","","-1","","","22","17879","6769","&#9761;","elianto","#3366ff99","-1","-1","1","+10","[]","0","0","2","","","","","","","",""
"pit-trial","38","397111","0.0-2.0-11.0-1.0","battery-v0.2","","""event"",""trial"",""time""
""fullscreenenter"",""1"",""2029""
","
","
","""event"",""trial"",""time""
""fullscreenenter"",""1"",""2029""
","
","","","-1","","","22","17879","6769","&#9761;","elianto","#3366ff99","-1","-1","1","+10","[]","0","0","2","","","","","","","",""
"pit-trial","39","401969","0.0-2.0-11.0-2.0","battery-v0.2","","""event"",""trial"",""time""
""fullscreenenter"",""1"",""2029""
","
","
","""event"",""trial"",""time""
""fullscreenenter"",""1"",""2029""
","
","","","-1","","","22","17879","6769","&#9761;","elianto","#3366ff99","-1","-1","1","+10","[]","0","0","2","","","","","","","",""
"pit-trial","40","406827","0.0-2.0-11.0-3.0","battery-v0.2","","""event"",""trial"",""time""
""fullscreenenter"",""1"",""2029""
","
","
","""event"",""trial"",""time""
""fullscreenenter"",""1"",""2029""
","
","","","-1","","","22","17879","6769","&#9761;","elianto","#3366ff99","-1","-1","1","0","[]","0","0","2","","","","","","","",""
"pit-trial","41","411684","0.0-2.0-11.0-4.0","battery-v0.2","","""event"",""trial"",""time""
""fullscreenenter"",""1"",""2029""
","
","
","""event"",""trial"",""time""
""fullscreenenter"",""1"",""2029""
","
","","","-1","","","22","17879","6769","&#9761;","elianto","#3366ff99","-1","-1","1","+10","[]","0","0","2","","","","","","","",""
"pit-trial","42","416542","0.0-2.0-11.1-0.1","battery-v0.2","","""event"",""trial"",""time""
""fullscreenenter"",""1"",""2029""
","
","
","""event"",""trial"",""time""
""fullscreenenter"",""1"",""2029""
","
","","","-1","","","22","17879","6769","&#9761;","elianto","#3366ff99","-1","-1","1","+10","[]","0","0","2","","","","","","","",""
"pit-trial","43","421400","0.0-2.0-11.1-1.1","battery-v0.2","","""event"",""trial"",""time""
""fullscreenenter"",""1"",""2029""
","
","
","""event"",""trial"",""time""
""fullscreenenter"",""1"",""2029""
","
","","","-1","","","22","17879","6769","&#9761;","elianto","#3366ff99","-1","-1","1","+10","[]","0","0","2","","","","","","","",""
"pit-trial","44","426257","0.0-2.0-11.1-2.1","battery-v0.2","","""event"",""trial"",""time""
""fullscreenenter"",""1"",""2029""
","
","
","""event"",""trial"",""time""
""fullscreenenter"",""1"",""2029""
","
","","","-1","","","22","17879","6769","&#9761;","elianto","#3366ff99","-1","-1","1","+10","[]","0","0","2","","","","","","","",""
"pit-trial","45","431115","0.0-2.0-11.1-3.1","battery-v0.2","","""event"",""trial"",""time""
""fullscreenenter"",""1"",""2029""
","
","
","""event"",""trial"",""time""
""fullscreenenter"",""1"",""2029""
","
","","","-1","","","22","17879","6769","&#9761;","elianto","#3366ff99","-1","-1","1","0","[]","0","0","2","","","","","","","",""
"pit-trial","46","435971","0.0-2.0-11.1-4.1","battery-v0.2","","""event"",""trial"",""time""
""fullscreenenter"",""1"",""2029""
","
","
","""event"",""trial"",""time""
""fullscreenenter"",""1"",""2029""
","
","","","-1","","","22","17879","6769","&#9761;","elianto","#3366ff99","-1","-1","1","+10","[]","0","0","2","","","","","","","",""
"pit-trial","47","440830","0.0-2.0-11.2-0.2","battery-v0.2","","""event"",""trial"",""time""
""fullscreenenter"",""1"",""2029""
","
","
","""event"",""trial"",""time""
""fullscreenenter"",""1"",""2029""
","
","","","-1","","","22","17879","6769","&#9761;","elianto","#3366ff99","-1","-1","1","+10","[]","0","0","2","","","","","","","",""
"pit-trial","48","445686","0.0-2.0-11.2-1.2","battery-v0.2","","""event"",""trial"",""time""
""fullscreenenter"",""1"",""2029""
","
","
","""event"",""trial"",""time""
""fullscreenenter"",""1"",""2029""
","
","","","-1","","","22","17879","6769","&#9761;","elianto","#3366ff99","-1","-1","1","+10","[]","0","0","2","","","","","","","",""
"pit-trial","49","450544","0.0-2.0-11.2-2.2","battery-v0.2","","""event"",""trial"",""time""
""fullscreenenter"",""1"",""2029""
","
","
","""event"",""trial"",""time""
""fullscreenenter"",""1"",""2029""
","
","","","-1","","","22","17879","6769","&#9761;","elianto","#3366ff99","-1","-1","1","+10","[]","0","0","2","","","","","","","",""
"pit-trial","50","455401","0.0-2.0-11.2-3.2","battery-v0.2","","""event"",""trial"",""time""
""fullscreenenter"",""1"",""2029""
","
","
","""event"",""trial"",""time""
""fullscreenenter"",""1"",""2029""
","
","","","-1","","","22","17879","6769","&#9761;","elianto","#3366ff99","-1","-1","1","0","[]","0","0","2","","","","","","","",""
"pit-trial","51","460259","0.0-2.0-11.2-4.2","battery-v0.2","","""event"",""trial"",""time""
""fullscreenenter"",""1"",""2029""
","
","
","""event"",""trial"",""time""
""fullscreenenter"",""1"",""2029""
","
","","","-1","","","22","17879","6769","&#9761;","elianto","#3366ff99","-1","-1","1","+10","[]","0","0","2","","","","","","","",""
"pit-trial","52","465117","0.0-2.0-11.3-0.3","battery-v0.2","","""event"",""trial"",""time""
""fullscreenenter"",""1"",""2029""
","
","
","""event"",""trial"",""time""
""fullscreenenter"",""1"",""2029""
","
","","","-1","","","22","17879","6769","&#9761;","elianto","#3366ff99","-1","-1","1","+10","[]","0","0","2","","","","","","","",""
"pit-trial","53","469974","0.0-2.0-11.3-1.3","battery-v0.2","","""event"",""trial"",""time""
""fullscreenenter"",""1"",""2029""
","
","
","""event"",""trial"",""time""
""fullscreenenter"",""1"",""2029""
","
","","","-1","","","22","17879","6769","&#9761;","elianto","#3366ff99","-1","-1","1","+10","[]","0","0","2","","","","","","","",""
"pit-trial","54","474832","0.0-2.0-11.3-2.3","battery-v0.2","","""event"",""trial"",""time""
""fullscreenenter"",""1"",""2029""
","
","
","""event"",""trial"",""time""
""fullscreenenter"",""1"",""2029""
","
","","","-1","","","22","17879","6769","&#9761;","elianto","#3366ff99","-1","-1","1","+10","[]","0","0","2","","","","","","","",""
"pit-trial","55","479690","0.0-2.0-11.3-3.3","battery-v0.2","","""event"",""trial"",""time""
""fullscreenenter"",""1"",""2029""
","
","
","""event"",""trial"",""time""
""fullscreenenter"",""1"",""2029""
","
","","","-1","","","22","17879","6769","&#9761;","elianto","#3366ff99","-1","-1","1","0","[]","0","0","2","","","","","","","",""
"pit-trial","56","484548","0.0-2.0-11.3-4.3","battery-v0.2","","""event"",""trial"",""time""
""fullscreenenter"",""1"",""2029""
","
","
","""event"",""trial"",""time""
""fullscreenenter"",""1"",""2029""
","
","","","-1","","","22","17879","6769","&#9761;","elianto","#3366ff99","-1","-1","1","+10","[]","0","0","2","","","","","","","",""
"call-function","57","484551","0.0-2.0-12.0","battery-v0.2","","""event"",""trial"",""time""
""fullscreenenter"",""1"",""2029""
","
","
","""event"",""trial"",""time""
""fullscreenenter"",""1"",""2029""
","
","","","","","","","","","","","","","","","","","","","","","","","","","","",""
"pit-instructions","58","513246","0.0-2.0-13.0","battery-v0.2","","""event"",""trial"",""time""
""fullscreenenter"",""1"",""2029""
","
","
","""event"",""trial"",""time""
""fullscreenenter"",""1"",""2029""
","
","","[{""page_index"":0,""viewing_time"":4064},{""page_index"":1,""viewing_time"":6422},{""page_index"":2,""viewing_time"":3547},{""page_index"":3,""viewing_time"":10412},{""page_index"":4,""viewing_time"":4250}]","28695","","","","","","","","","","","","","","","","","","","","","","","",""
"pit-trial","59","516448","0.0-2.0-14.0-0.0","battery-v0.2","","""event"",""trial"",""time""
""fullscreenenter"",""1"",""2029""
","
","
","""event"",""trial"",""time""
""fullscreenenter"",""1"",""2029""
","
","","","346","","","22","17879","6769","&#9826;","elianto","#f73b6a7A","-1"," ","0","-10","[1198]","1","0","3","","","","","","","",""
"pit-trial","60","521306","0.0-2.0-14.0-1.0","battery-v0.2","","""event"",""trial"",""time""
""fullscreenenter"",""1"",""2029""
","
","
","""event"",""trial"",""time""
""fullscreenenter"",""1"",""2029""
","
","","","-1","","","22","17879","6769","&#9826;","elianto","#f73b6a7A","-1","-1","1","0","[]","0","0","3","","","","","","","",""
"pit-trial","61","526164","0.0-2.0-14.0-2.0","battery-v0.2","","""event"",""trial"",""time""
""fullscreenenter"",""1"",""2029""
","
","
","""event"",""trial"",""time""
""fullscreenenter"",""1"",""2029""
","
","","","-1","","","22","17879","6769","&#9826;","elianto","#f73b6a7A","-1","-1","1","0","[]","0","0","3","","","","","","","",""
"pit-trial","62","531022","0.0-2.0-14.0-3.0","battery-v0.2","","""event"",""trial"",""time""
""fullscreenenter"",""1"",""2029""
","
","
","""event"",""trial"",""time""
""fullscreenenter"",""1"",""2029""
","
","","","-1","","","22","17879","6769","&#9826;","elianto","#f73b6a7A","-1","-1","1","-10","[]","0","0","3","","","","","","","",""
"pit-trial","63","535879","0.0-2.0-14.0-4.0","battery-v0.2","","""event"",""trial"",""time""
""fullscreenenter"",""1"",""2029""
","
","
","""event"",""trial"",""time""
""fullscreenenter"",""1"",""2029""
","
","","","-1","","","22","17879","6769","&#9826;","elianto","#f73b6a7A","-1","-1","1","0","[]","0","0","3","","","","","","","",""
"pit-trial","64","540737","0.0-2.0-14.1-0.1","battery-v0.2","","""event"",""trial"",""time""
""fullscreenenter"",""1"",""2029""
","
","
","""event"",""trial"",""time""
""fullscreenenter"",""1"",""2029""
","
","","","-1","","","22","17879","6769","&#9826;","elianto","#f73b6a7A","-1","-1","1","0","[]","0","0","3","","","","","","","",""
"pit-trial","65","545593","0.0-2.0-14.1-1.1","battery-v0.2","","""event"",""trial"",""time""
""fullscreenenter"",""1"",""2029""
","
","
","""event"",""trial"",""time""
""fullscreenenter"",""1"",""2029""
","
","","","-1","","","22","17879","6769","&#9826;","elianto","#f73b6a7A","-1","-1","1","0","[]","0","0","3","","","","","","","",""
"pit-trial","66","550450","0.0-2.0-14.1-2.1","battery-v0.2","","""event"",""trial"",""time""
""fullscreenenter"",""1"",""2029""
","
","
","""event"",""trial"",""time""
""fullscreenenter"",""1"",""2029""
","
","","","-1","","","22","17879","6769","&#9826;","elianto","#f73b6a7A","-1","-1","1","0","[]","0","0","3","","","","","","","",""
"pit-trial","67","555307","0.0-2.0-14.1-3.1","battery-v0.2","","""event"",""trial"",""time""
""fullscreenenter"",""1"",""2029""
","
","
","""event"",""trial"",""time""
""fullscreenenter"",""1"",""2029""
","
","","","-1","","","22","17879","6769","&#9826;","elianto","#f73b6a7A","-1","-1","1","-10","[]","0","0","3","","","","","","","",""
"pit-trial","68","560165","0.0-2.0-14.1-4.1","battery-v0.2","","""event"",""trial"",""time""
""fullscreenenter"",""1"",""2029""
","
","
","""event"",""trial"",""time""
""fullscreenenter"",""1"",""2029""
","
","","","-1","","","22","17879","6769","&#9826;","elianto","#f73b6a7A","-1","-1","1","0","[]","0","0","3","","","","","","","",""
"pit-trial","69","565023","0.0-2.0-14.2-0.2","battery-v0.2","","""event"",""trial"",""time""
""fullscreenenter"",""1"",""2029""
","
","
","""event"",""trial"",""time""
""fullscreenenter"",""1"",""2029""
","
","","","-1","","","22","17879","6769","&#9826;","elianto","#f73b6a7A","-1","-1","1","0","[]","0","0","3","","","","","","","",""
"pit-trial","70","569881","0.0-2.0-14.2-1.2","battery-v0.2","","""event"",""trial"",""time""
""fullscreenenter"",""1"",""2029""
","
","
","""event"",""trial"",""time""
""fullscreenenter"",""1"",""2029""
","
","","","-1","","","22","17879","6769","&#9826;","elianto","#f73b6a7A","-1","-1","1","0","[]","0","0","3","","","","","","","",""
"pit-trial","71","574739","0.0-2.0-14.2-2.2","battery-v0.2","","""event"",""trial"",""time""
""fullscreenenter"",""1"",""2029""
","
","
","""event"",""trial"",""time""
""fullscreenenter"",""1"",""2029""
","
","","","-1","","","22","17879","6769","&#9826;","elianto","#f73b6a7A","-1","-1","1","0","[]","0","0","3","","","","","","","",""
"pit-trial","72","579596","0.0-2.0-14.2-3.2","battery-v0.2","","""event"",""trial"",""time""
""fullscreenenter"",""1"",""2029""
","
","
","""event"",""trial"",""time""
""fullscreenenter"",""1"",""2029""
","
","","","-1","","","22","17879","6769","&#9826;","elianto","#f73b6a7A","-1","-1","1","-10","[]","0","0","3","","","","","","","",""
"pit-trial","73","584453","0.0-2.0-14.2-4.2","battery-v0.2","","""event"",""trial"",""time""
""fullscreenenter"",""1"",""2029""
","
","
","""event"",""trial"",""time""
""fullscreenenter"",""1"",""2029""
","
","","","-1","","","22","17879","6769","&#9826;","elianto","#f73b6a7A","-1","-1","1","0","[]","0","0","3","","","","","","","",""
"pit-trial","74","589311","0.0-2.0-14.3-0.3","battery-v0.2","","""event"",""trial"",""time""
""fullscreenenter"",""1"",""2029""
","
","
","""event"",""trial"",""time""
""fullscreenenter"",""1"",""2029""
","
","","","-1","","","22","17879","6769","&#9826;","elianto","#f73b6a7A","-1","-1","1","0","[]","0","0","3","","","","","","","",""
"pit-trial","75","594166","0.0-2.0-14.3-1.3","battery-v0.2","","""event"",""trial"",""time""
""fullscreenenter"",""1"",""2029""
","
","
","""event"",""trial"",""time""
""fullscreenenter"",""1"",""2029""
","
","","","-1","","","22","17879","6769","&#9826;","elianto","#f73b6a7A","-1","-1","1","0","[]","0","0","3","","","","","","","",""
"pit-trial","76","599024","0.0-2.0-14.3-2.3","battery-v0.2","","""event"",""trial"",""time""
""fullscreenenter"",""1"",""2029""
","
","
","""event"",""trial"",""time""
""fullscreenenter"",""1"",""2029""
","
","","","-1","","","22","17879","6769","&#9826;","elianto","#f73b6a7A","-1","-1","1","0","[]","0","0","3","","","","","","","",""
"pit-trial","77","603882","0.0-2.0-14.3-3.3","battery-v0.2","","""event"",""trial"",""time""
""fullscreenenter"",""1"",""2029""
","
","
","""event"",""trial"",""time""
""fullscreenenter"",""1"",""2029""
","
","","","-1","","","22","17879","6769","&#9826;","elianto","#f73b6a7A","-1","-1","1","-10","[]","0","0","3","","","","","","","",""
"pit-trial","78","608740","0.0-2.0-14.3-4.3","battery-v0.2","","""event"",""trial"",""time""
""fullscreenenter"",""1"",""2029""
","
","
","""event"",""trial"",""time""
""fullscreenenter"",""1"",""2029""
","
","","","-1","","","22","17879","6769","&#9826;","elianto","#f73b6a7A","-1","-1","1","0","[]","0","0","3","","","","","","","",""
"call-function","79","608744","0.0-2.0-15.0","battery-v0.2","","""event"",""trial"",""time""
""fullscreenenter"",""1"",""2029""
","
","
","""event"",""trial"",""time""
""fullscreenenter"",""1"",""2029""
","
","","","","","","","","","","","","","","","","","","","","","","","","","","",""
"pit-instructions","80","646627","0.0-2.0-16.0","battery-v0.2","","""event"",""trial"",""time""
""fullscreenenter"",""1"",""2029""
","
","
","""event"",""trial"",""time""
""fullscreenenter"",""1"",""2029""
","
","","[{""page_index"":0,""viewing_time"":14547},{""page_index"":1,""viewing_time"":10736},{""page_index"":2,""viewing_time"":7963},{""page_index"":3,""viewing_time"":4637}]","37883","","","","","","","","","","","","","","","","","","","","","","","",""
"pit-trial","81","650182","0.0-2.0-17.0-0.0","battery-v0.2","","""event"",""trial"",""time""
""fullscreenenter"",""1"",""2029""
","
","
","""event"",""trial"",""time""
""fullscreenenter"",""1"",""2029""
","
","","","700","","","22","17879","6769","&#9789;","elianto","#f73b6a7A"," "," ","1","0","[1551]","1","0","4","","","","","","","",""
"pit-trial","82","653365","0.0-2.0-17.0-1.0","battery-v0.2","","""event"",""trial"",""time""
""fullscreenenter"",""1"",""2029""
","
","
","""event"",""trial"",""time""
""fullscreenenter"",""1"",""2029""
","
","","","328","","","22","17879","6769","&#9789;","elianto","#f73b6a7A"," "," ","1","0","[1179,3062]","2","0","4","","","","","","","",""
"pit-trial","83","656457","0.0-2.0-17.0-2.0","battery-v0.2","","""event"",""trial"",""time""
""fullscreenenter"",""1"",""2029""
","
","
","""event"",""trial"",""time""
""fullscreenenter"",""1"",""2029""
","
","","","237","","","22","17879","6769","&#9789;","elianto","#f73b6a7A"," "," ","1","0","[1089]","1","0","4","","","","","","","",""
"pit-trial","84","659684","0.0-2.0-17.0-3.0","battery-v0.2","","""event"",""trial"",""time""
""fullscreenenter"",""1"",""2029""
","
","
","""event"",""trial"",""time""
""fullscreenenter"",""1"",""2029""
","
","","","371","","","22","17879","6769","&#9789;","elianto","#f73b6a7A"," "," ","1","-10","[1222]","1","0","4","","","","","","","",""
"pit-trial","85","663043","0.0-2.0-17.0-4.0","battery-v0.2","","""event"",""trial"",""time""
""fullscreenenter"",""1"",""2029""
","
","
","""event"",""trial"",""time""
""fullscreenenter"",""1"",""2029""
","
","","","503","","","22","17879","6769","&#9789;","elianto","#f73b6a7A"," "," ","1","0","[1354]","1","0","4","","","","","","","",""
"pit-trial","86","666287","0.0-2.0-17.1-0.1","battery-v0.2","","""event"",""trial"",""time""
""fullscreenenter"",""1"",""2029""
","
","
","""event"",""trial"",""time""
""fullscreenenter"",""1"",""2029""
","
","","","387","","","22","17879","6769","&#9789;","elianto","#f73b6a7A"," "," ","1","0","[1237]","1","0","4","","","","","","","",""
"pit-trial","87","669760","0.0-2.0-17.1-1.1","battery-v0.2","","""event"",""trial"",""time""
""fullscreenenter"",""1"",""2029""
","
","
","""event"",""trial"",""time""
""fullscreenenter"",""1"",""2029""
","
","","","616","","","22","17879","6769","&#9789;","elianto","#f73b6a7A"," "," ","1","0","[1468]","1","0","4","","","","","","","",""
"pit-trial","88","672807","0.0-2.0-17.1-2.1","battery-v0.2","","""event"",""trial"",""time""
""fullscreenenter"",""1"",""2029""
","
","
","""event"",""trial"",""time""
""fullscreenenter"",""1"",""2029""
","
","","","192","","","22","17879","6769","&#9789;","elianto","#f73b6a7A"," "," ","1","0","[1043,1246,1402,1540]","4","0","4","","","","","","","",""
"pit-trial","89","676437","0.0-2.0-17.1-3.1","battery-v0.2","","""event"",""trial"",""time""
""fullscreenenter"",""1"",""2029""
","
","
","""event"",""trial"",""time""
""fullscreenenter"",""1"",""2029""
","
","","","775","","","22","17879","6769","&#9789;","elianto","#f73b6a7A"," "," ","1","-10","[1625]","1","0","4","","","","","","","",""
"pit-trial","90","679622","0.0-2.0-17.1-4.1","battery-v0.2","","""event"",""trial"",""time""
""fullscreenenter"",""1"",""2029""
","
","
","""event"",""trial"",""time""
""fullscreenenter"",""1"",""2029""
","
","","","328","","","22","17879","6769","&#9789;","elianto","#f73b6a7A"," "," ","1","0","[1179]","1","0","4","","","","","","","",""
"pit-trial","91","682686","0.0-2.0-17.2-0.2","battery-v0.2","","""event"",""trial"",""time""
""fullscreenenter"",""1"",""2029""
","
","
","""event"",""trial"",""time""
""fullscreenenter"",""1"",""2029""
","
","","","206","","","22","17879","6769","&#9789;","elianto","#f73b6a7A"," "," ","1","0","[1058]","1","0","4","","","","","","","",""
"pit-trial","92","685711","0.0-2.0-17.2-1.2","battery-v0.2","","""event"",""trial"",""time""
""fullscreenenter"",""1"",""2029""
","
","
","""event"",""trial"",""time""
""fullscreenenter"",""1"",""2029""
","
","","","168","","","22","17879","6769","&#9789;","elianto","#f73b6a7A"," "," ","1","0","[1019]","1","0","4","","","","","","","",""
"pit-trial","93","688881","0.0-2.0-17.2-2.2","battery-v0.2","","""event"",""trial"",""time""
""fullscreenenter"",""1"",""2029""
","
","
","""event"",""trial"",""time""
""fullscreenenter"",""1"",""2029""
","
","","","313","","","22","17879","6769","&#9789;","elianto","#f73b6a7A"," "," ","1","0","[1164]","1","0","4","","","","","","","",""
"pit-trial","94","692134","0.0-2.0-17.2-3.2","battery-v0.2","","""event"",""trial"",""time""
""fullscreenenter"",""1"",""2029""
","
","
","""event"",""trial"",""time""
""fullscreenenter"",""1"",""2029""
","
","","","397","","","22","17879","6769","&#9789;","elianto","#f73b6a7A"," "," ","1","-10","[1248]","1","0","4","","","","","","","",""
"pit-trial","95","695349","0.0-2.0-17.2-4.2","battery-v0.2","","""event"",""trial"",""time""
""fullscreenenter"",""1"",""2029""
","
","
","""event"",""trial"",""time""
""fullscreenenter"",""1"",""2029""
","
","","","358","","","22","17879","6769","&#9789;","elianto","#f73b6a7A"," "," ","1","0","[1209]","1","0","4","","","","","","","",""
"pit-trial","96","698803","0.0-2.0-17.3-0.3","battery-v0.2","","""event"",""trial"",""time""
""fullscreenenter"",""1"",""2029""
","
","
","""event"",""trial"",""time""
""fullscreenenter"",""1"",""2029""
","
","","","597","","","22","17879","6769","&#9789;","elianto","#f73b6a7A"," "," ","1","0","[1447]","1","0","4","","","","","","","",""
"pit-trial","97","702018","0.0-2.0-17.3-1.3","battery-v0.2","","""event"",""trial"",""time""
""fullscreenenter"",""1"",""2029""
","
","
","""event"",""trial"",""time""
""fullscreenenter"",""1"",""2029""
","
","","","358","","","22","17879","6769","&#9789;","elianto","#f73b6a7A"," "," ","1","0","[1209]","1","0","4","","","","","","","",""
"pit-trial","98","705677","0.0-2.0-17.3-2.3","battery-v0.2","","""event"",""trial"",""time""
""fullscreenenter"",""1"",""2029""
","
","
","""event"",""trial"",""time""
""fullscreenenter"",""1"",""2029""
","
","","","803","","","22","17879","6769","&#9789;","elianto","#f73b6a7A"," "," ","1","0","[1653]","1","0","4","","","","","","","",""
"pit-trial","99","708938","0.0-2.0-17.3-3.3","battery-v0.2","","""event"",""trial"",""time""
""fullscreenenter"",""1"",""2029""
","
","
","""event"",""trial"",""time""
""fullscreenenter"",""1"",""2029""
","
","","","405","","","22","17879","6769","&#9789;","elianto","#f73b6a7A"," "," ","1","-10","[1256]","1","0","4","","","","","","","",""
"pit-trial","100","712046","0.0-2.0-17.3-4.3","battery-v0.2","","""event"",""trial"",""time""
""fullscreenenter"",""1"",""2029""
","
","
","""event"",""trial"",""time""
""fullscreenenter"",""1"",""2029""
","
","","","250","","","22","17879","6769","&#9789;","elianto","#f73b6a7A"," "," ","1","0","[1102]","1","0","4","","","","","","","",""
"call-function","101","712049","0.0-2.0-18.0","battery-v0.2","","""event"",""trial"",""time""
""fullscreenenter"",""1"",""2029""
","
","
","""event"",""trial"",""time""
""fullscreenenter"",""1"",""2029""
","
","","","","","","","","","","","","","","","","","","","","","","","","","","",""
"pit-instructions","102","773075","0.0-2.0-19.0","battery-v0.2","","""event"",""trial"",""time""
""fullscreenenter"",""1"",""2029""
","
","
","""event"",""trial"",""time""
""fullscreenenter"",""1"",""2029""
","
","","[{""page_index"":0,""viewing_time"":10396},{""page_index"":1,""viewing_time"":4446},{""page_index"":2,""viewing_time"":8386},{""page_index"":3,""viewing_time"":5514},{""page_index"":4,""viewing_time"":6895},{""page_index"":5,""viewing_time"":8130},{""page_index"":6,""viewing_time"":7896},{""page_index"":7,""viewing_time"":4862},{""page_index"":8,""viewing_time"":4500}]","61025","","","","","","","","","","","","","","","","","","","","","","","",""
"pit-comprehension","103","777621","0.0-2.0-20.0-0.0","battery-v0.2","","""event"",""trial"",""time""
""fullscreenenter"",""1"",""2029""
","
","
","""event"",""trial"",""time""
""fullscreenenter"",""1"",""2029""
","
","","","4545","[""SPACE""]","0","22","17879","6769","","","","","","","","","","","","","","","","","","",""
"pit-instructions","104","781392","0.0-2.0-20.0-1.0","battery-v0.2","","""event"",""trial"",""time""
""fullscreenenter"",""1"",""2029""
","
","
","""event"",""trial"",""time""
""fullscreenenter"",""1"",""2029""
","
","","[{""page_index"":0,""viewing_time"":3760}]","3760","","","","","","","","","","","","","","","","","","","","","","","",""
"pit-comprehension","105","788504","0.0-2.0-21.0-0.0","battery-v0.2","","""event"",""trial"",""time""
""fullscreenenter"",""1"",""2029""
","
","
","""event"",""trial"",""time""
""fullscreenenter"",""1"",""2029""
","
","","","7112","[""10""]","0","22","17879","6769","","","","","","","","","","","","","","","","","","",""
"pit-instructions","106","794241","0.0-2.0-21.0-1.0","battery-v0.2","","""event"",""trial"",""time""
""fullscreenenter"",""1"",""2029""
","
","
","""event"",""trial"",""time""
""fullscreenenter"",""1"",""2029""
","
","","[{""page_index"":0,""viewing_time"":5726}]","5726","","","","","","","","","","","","","","","","","","","","","","","",""
"pit-comprehension","107","800741","0.0-2.0-22.0-0.0","battery-v0.2","","""event"",""trial"",""time""
""fullscreenenter"",""1"",""2029""
","
","
","""event"",""trial"",""time""
""fullscreenenter"",""1"",""2029""
","
","","","6499","[""0""]","0","22","17879","6769","","","","","","","","","","","","","","","","","","",""
"pit-instructions","108","805177","0.0-2.0-22.0-1.0","battery-v0.2","","""event"",""trial"",""time""
""fullscreenenter"",""1"",""2029""
","
","
","""event"",""trial"",""time""
""fullscreenenter"",""1"",""2029""
","
","","[{""page_index"":0,""viewing_time"":4426}]","4426","","","","","","","","","","","","","","","","","","","","","","","",""
"pit-comprehension","109","815391","0.0-2.0-23.0-0.0","battery-v0.2","","""event"",""trial"",""time""
""fullscreenenter"",""1"",""2029""
","
","
","""event"",""trial"",""time""
""fullscreenenter"",""1"",""2029""
","
","","","10213","[""True""]","0","22","17879","6769","","","","","","","","","","","","","","","","","","",""
"pit-instructions","110","817883","0.0-2.0-23.0-1.0","battery-v0.2","","""event"",""trial"",""time""
""fullscreenenter"",""1"",""2029""
","
","
","""event"",""trial"",""time""
""fullscreenenter"",""1"",""2029""
","
","","[{""page_index"":0,""viewing_time"":2479}]","2480","","","","","","","","","","","","","","","","","","","","","","","",""
"pit-comprehension","111","826258","0.0-2.0-24.0-0.0","battery-v0.2","","""event"",""trial"",""time""
""fullscreenenter"",""1"",""2029""
","
","
","""event"",""trial"",""time""
""fullscreenenter"",""1"",""2029""
","
","","","8375","[""True""]","0","22","17879","6769","","","","","","","","","","","","","","","","","","",""
"pit-instructions","112","831003","0.0-2.0-24.0-1.0","battery-v0.2","","""event"",""trial"",""time""
""fullscreenenter"",""1"",""2029""
","
","
","""event"",""trial"",""time""
""fullscreenenter"",""1"",""2029""
","
","","[{""page_index"":0,""viewing_time"":4735}]","4736","","","","","","","","","","","","","","","","","","","","","","","",""
"pit-comprehension","113","837633","0.0-2.0-25.0-0.0","battery-v0.2","","""event"",""trial"",""time""
""fullscreenenter"",""1"",""2029""
","
","
","""event"",""trial"",""time""
""fullscreenenter"",""1"",""2029""
","
","","","6628","[""True""]","0","22","17879","6769","","","","","","","","","","","","","","","","","","",""
"pit-instructions","114","845507","0.0-2.0-25.0-1.0","battery-v0.2","","""event"",""trial"",""time""
""fullscreenenter"",""1"",""2029""
","
","
","""event"",""trial"",""time""
""fullscreenenter"",""1"",""2029""
","
","","[{""page_index"":0,""viewing_time"":7863}]","7864","","","","","","","","","","","","","","","","","","","","","","","",""
"pit-comprehension","115","850961","0.0-2.0-26.0-0.0","battery-v0.2","","""event"",""trial"",""time""
""fullscreenenter"",""1"",""2029""
","
","
","""event"",""trial"",""time""
""fullscreenenter"",""1"",""2029""
","
","","","5453","[""False""]","0","22","17879","6769","","","","","","","","","","","","","","","","","","",""
"pit-instructions","116","852749","0.0-2.0-26.0-1.0","battery-v0.2","","""event"",""trial"",""time""
""fullscreenenter"",""1"",""2029""
","
","
","""event"",""trial"",""time""
""fullscreenenter"",""1"",""2029""
","
","","[{""page_index"":0,""viewing_time"":1777}]","1778","","","","","","","","","","","","","","","","","","","","","","","",""
"pit-instructions","117","868332","0.0-3.0","battery-v0.2","","""event"",""trial"",""time""
""fullscreenenter"",""1"",""2029""
","
","
","""event"",""trial"",""time""
""fullscreenenter"",""1"",""2029""
","
","","[{""page_index"":0,""viewing_time"":3399},{""page_index"":1,""viewing_time"":5592},{""page_index"":2,""viewing_time"":6592}]","15583","","","","","","","","","","","","","","","","","","","","","","","",""
"pit-trial","118","871979","0.0-4.0","battery-v0.2","","""event"",""trial"",""time""
""fullscreenenter"",""1"",""2029""
","
","
","""event"",""trial"",""time""
""fullscreenenter"",""1"",""2029""
","
","","","792","","","22","17879","6769","&#9728;","elianto","#f73b6a7A","-1"," ","0","-10","[1643]","1","1","","","17879","1","0","4","lose","no-go","0"
"pit-trial","119","875329","0.0-5.0","battery-v0.2","","""event"",""trial"",""time""
""fullscreenenter"",""1"",""2029""
","
","
","""event"",""trial"",""time""
""fullscreenenter"",""1"",""2029""
","
","","","494","","","22","17879","6769","&#9733;","elianto","#3366ff99","-1"," ","0","+10","[1344]","1","1","","","17879","2","2","2","win","no-go","1"
"pit-trial","120","879029","0.0-6.0","battery-v0.2","","""event"",""trial"",""time""
""fullscreenenter"",""1"",""2029""
","
","
","""event"",""trial"",""time""
""fullscreenenter"",""1"",""2029""
","
","","","846","","","22","17879","6769","&#9752;","elianto","#f73b6a7A"," "," ","1","0","[1696]","1","1","","","17879","3","3","3","lose","go","0"
"pit-trial","121","882485","0.0-7.0","battery-v0.2","","""event"",""trial"",""time""
""fullscreenenter"",""1"",""2029""
","
","
","""event"",""trial"",""time""
""fullscreenenter"",""1"",""2029""
","
","","","599","","","22","17879","6769","&#9730;","elianto","#3366ff99"," "," ","1","+10","[1450]","1","1","","","17879","4","1","1","win","go","0"
"pit-trial","122","887344","0.0-8.0","battery-v0.2","","""event"",""trial"",""time""
""fullscreenenter"",""1"",""2029""
","
","
","""event"",""trial"",""time""
""fullscreenenter"",""1"",""2029""
","
","","","-1","","","22","17879","6769","&#9728;","elianto","#f73b6a7A","-1","-1","1","0","[]","0","1","","","17879","5","0","4","lose","no-go","0"
"pit-trial","123","890913","0.0-9.0","battery-v0.2","","""event"",""trial"",""time""
""fullscreenenter"",""1"",""2029""
","
","
","""event"",""trial"",""time""
""fullscreenenter"",""1"",""2029""
","
","","","712","","","22","17879","6769","&#9730;","elianto","#3366ff99"," "," ","1","+10","[1563]","1","1","","","17879","6","1","1","win","go","0"
"pit-trial","124","895771","0.0-10.0","battery-v0.2","","""event"",""trial"",""time""
""fullscreenenter"",""1"",""2029""
","
","
","""event"",""trial"",""time""
""fullscreenenter"",""1"",""2029""
","
","","","-1","","","22","17879","6769","&#9752;","elianto","#f73b6a7A"," ","-1","0","-10","[]","0","1","","","17879","7","3","3","lose","go","0"
"pit-trial","125","899476","0.0-11.0","battery-v0.2","","""event"",""trial"",""time""
""fullscreenenter"",""1"",""2029""
","
","
","""event"",""trial"",""time""
""fullscreenenter"",""1"",""2029""
","
","","","847","","","22","17879","6769","&#9733;","elianto","#3366ff99","-1"," ","0","0","[1699]","1","1","","","17879","8","2","2","win","no-go","0"
"pit-trial","126","902941","0.0-12.0","battery-v0.2","","""event"",""trial"",""time""
""fullscreenenter"",""1"",""2029""
","
","
","""event"",""trial"",""time""
""fullscreenenter"",""1"",""2029""
","
","","","607","","","22","17879","6769","&#9733;","elianto","#3366ff99","-1"," ","0","0","[1458]","1","1","","","17879","9","2","2","win","no-go","0"
"pit-trial","127","906516","0.0-13.0","battery-v0.2","","""event"",""trial"",""time""
""fullscreenenter"",""1"",""2029""
","
","
","""event"",""trial"",""time""
""fullscreenenter"",""1"",""2029""
","
","","","718","","","22","17879","6769","&#9730;","elianto","#3366ff99"," "," ","1","0","[1570]","1","1","","","17879","10","1","1","win","go","1"
"pit-trial","128","910383","0.0-14.0","battery-v0.2","","""event"",""trial"",""time""
""fullscreenenter"",""1"",""2029""
","
","
","""event"",""trial"",""time""
""fullscreenenter"",""1"",""2029""
","
","","","1010","","","22","17879","6769","&#9752;","elianto","#f73b6a7A"," "," ","1","0","[1861]","1","1","","","17879","11","3","3","lose","go","0"
"pit-trial","129","915241","0.0-15.0","battery-v0.2","","""event"",""trial"",""time""
""fullscreenenter"",""1"",""2029""
","
","
","""event"",""trial"",""time""
""fullscreenenter"",""1"",""2029""
","
","","","-1","","","22","17879","6769","&#9728;","elianto","#f73b6a7A","-1","-1","1","0","[]","0","1","","","17879","12","0","4","lose","no-go","0"
"pit-trial","130","918801","0.0-16.0","battery-v0.2","","""event"",""trial"",""time""
""fullscreenenter"",""1"",""2029""
","
","
","""event"",""trial"",""time""
""fullscreenenter"",""1"",""2029""
","
","","","705","","","22","17879","6769","&#9730;","elianto","#3366ff99"," "," ","1","+10","[1555]","1","1","","","17879","13","1","1","win","go","0"
"pit-trial","131","923657","0.0-17.0","battery-v0.2","","""event"",""trial"",""time""
""fullscreenenter"",""1"",""2029""
","
","
","""event"",""trial"",""time""
""fullscreenenter"",""1"",""2029""
","
","","","-1","","","22","17879","6769","&#9733;","elianto","#3366ff99","-1","-1","1","+10","[]","0","1","","","17879","14","2","2","win","no-go","0"
"pit-trial","132","927114","0.0-18.0","battery-v0.2","","""event"",""trial"",""time""
""fullscreenenter"",""1"",""2029""
","
","
","""event"",""trial"",""time""
""fullscreenenter"",""1"",""2029""
","
","","","601","","","22","17879","6769","&#9752;","elianto","#f73b6a7A"," "," ","1","0","[1451]","1","1","","","17879","15","3","3","lose","go","0"
"pit-trial","133","931972","0.0-19.0","battery-v0.2","","""event"",""trial"",""time""
""fullscreenenter"",""1"",""2029""
","
","
","""event"",""trial"",""time""
""fullscreenenter"",""1"",""2029""
","
","","","-1","","","22","17879","6769","&#9728;","elianto","#f73b6a7A","-1","-1","1","0","[]","0","1","","","17879","16","0","4","lose","no-go","0"
"pit-trial","134","936829","0.0-20.0","battery-v0.2","","""event"",""trial"",""time""
""fullscreenenter"",""1"",""2029""
","
","
","""event"",""trial"",""time""
""fullscreenenter"",""1"",""2029""
","
","","","-1","","","22","17879","6769","&#9733;","elianto","#3366ff99","-1","-1","1","0","[]","0","1","","","17879","17","2","2","win","no-go","1"
"pit-trial","135","940455","0.0-21.0","battery-v0.2","","""event"",""trial"",""time""
""fullscreenenter"",""1"",""2029""
","
","
","""event"",""trial"",""time""
""fullscreenenter"",""1"",""2029""
","
","","","769","","","22","17879","6769","&#9752;","elianto","#f73b6a7A"," "," ","1","0","[1620]","1","1","","","17879","18","3","3","lose","go","0"
"pit-trial","136","945312","0.0-22.0","battery-v0.2","","""event"",""trial"",""time""
""fullscreenenter"",""1"",""2029""
","
","
","""event"",""trial"",""time""
""fullscreenenter"",""1"",""2029""
","
","","","-1","","","22","17879","6769","&#9728;","elianto","#f73b6a7A","-1","-1","1","-10","[]","0","1","","","17879","19","0","4","lose","no-go","1"
"pit-trial","137","948766","0.0-23.0","battery-v0.2","","""event"",""trial"",""time""
""fullscreenenter"",""1"",""2029""
","
","
","""event"",""trial"",""time""
""fullscreenenter"",""1"",""2029""
","
","","","597","","","22","17879","6769","&#9730;","elianto","#3366ff99"," "," ","1","+10","[1448]","1","1","","","17879","20","1","1","win","go","0"
"pit-instructions","138","960863","0.0-24.0","battery-v0.2","","""event"",""trial"",""time""
""fullscreenenter"",""1"",""2029""
","
","
","""event"",""trial"",""time""
""fullscreenenter"",""1"",""2029""
","
","","[{""page_index"":0,""viewing_time"":5556},{""page_index"":1,""viewing_time"":6537}]","12093","","","","","","","","","","","","","","","","","","","","","","","",""
"pit-trial","139","964383","0.0-25.0","battery-v0.2","","""event"",""trial"",""time""
""fullscreenenter"",""1"",""2029""
","
","
","""event"",""trial"",""time""
""fullscreenenter"",""1"",""2029""
","
","","","664","","","22","17879","6769","m","elianto","#f73b6a7A","-1"," ","0","-10","[1516]","1","2","","","17879","21","0","4","lose","no-go","0"
"pit-trial","140","968070","0.0-26.0","battery-v0.2","","""event"",""trial"",""time""
""fullscreenenter"",""1"",""2029""
","
","
","""event"",""trial"",""time""
""fullscreenenter"",""1"",""2029""
","
","","","828","","","22","17879","6769","r","elianto","#3366ff99"," "," ","1","+10","[1679]","1","2","","","17879","22","1","1","win","go","0"
"pit-trial","141","971533","0.0-27.0","battery-v0.2","","""event"",""trial"",""time""
""fullscreenenter"",""1"",""2029""
","
","
","""event"",""trial"",""time""
""fullscreenenter"",""1"",""2029""
","
","","","606","","","22","17879","6769","y","elianto","#f73b6a7A","-1"," ","0","-10","[1457]","1","2","","","17879","23","2","4","lose","no-go","0"
"pit-trial","142","974982","0.0-28.0","battery-v0.2","","""event"",""trial"",""time""
""fullscreenenter"",""1"",""2029""
","
","
","""event"",""trial"",""time""
""fullscreenenter"",""1"",""2029""
","
","","","592","","","22","17879","6769","h","elianto","#f73b6a7A"," "," ","1","0","[1443]","1","2","","","17879","24","3","3","lose","go","0"
"pit-trial","143","978765","0.0-29.0","battery-v0.2","","""event"",""trial"",""time""
""fullscreenenter"",""1"",""2029""
","
","
","""event"",""trial"",""time""
""fullscreenenter"",""1"",""2029""
","
","","","927","","","22","17879","6769","h","elianto","#f73b6a7A"," "," ","1","-10","[1776]","1","2","","","17879","25","3","3","lose","go","1"
"pit-trial","144","982287","0.0-30.0","battery-v0.2","","""event"",""trial"",""time""
""fullscreenenter"",""1"",""2029""
","
","
","""event"",""trial"",""time""
""fullscreenenter"",""1"",""2029""
","
","","","666","","","22","17879","6769","y","elianto","#f73b6a7A","-1"," ","0","-10","[1516]","1","2","","","17879","26","2","4","lose","no-go","0"
"pit-trial","145","987144","0.0-31.0","battery-v0.2","","""event"",""trial"",""time""
""fullscreenenter"",""1"",""2029""
","
","
","""event"",""trial"",""time""
""fullscreenenter"",""1"",""2029""
","
","","","-1","","","22","17879","6769","m","elianto","#f73b6a7A","-1","-1","1","0","[]","0","2","","","17879","27","0","4","lose","no-go","0"
"pit-trial","146","990571","0.0-32.0","battery-v0.2","","""event"",""trial"",""time""
""fullscreenenter"",""1"",""2029""
","
","
","""event"",""trial"",""time""
""fullscreenenter"",""1"",""2029""
","
","","","571","","","22","17879","6769","r","elianto","#3366ff99"," "," ","1","+10","[1422]","1","2","","","17879","28","1","1","win","go","0"
"pit-trial","147","994190","0.0-33.0","battery-v0.2","","""event"",""trial"",""time""
""fullscreenenter"",""1"",""2029""
","
","
","""event"",""trial"",""time""
""fullscreenenter"",""1"",""2029""
","
","","","760","","","22","17879","6769","h","elianto","#f73b6a7A"," "," ","1","0","[1612]","1","2","","","17879","29","3","3","lose","go","0"
"pit-trial","148","999048","0.0-34.0","battery-v0.2","","""event"",""trial"",""time""
""fullscreenenter"",""1"",""2029""
","
","
","""event"",""trial"",""time""
""fullscreenenter"",""1"",""2029""
","
","","","-1","","","22","17879","6769","m","elianto","#f73b6a7A","-1","-1","1","0","[]","0","2","","","17879","30","0","4","lose","no-go","0"
"pit-trial","149","1002488","0.0-35.0","battery-v0.2","","""event"",""trial"",""time""
""fullscreenenter"",""1"",""2029""
","
","
","""event"",""trial"",""time""
""fullscreenenter"",""1"",""2029""
","
","","","585","","","22","17879","6769","r","elianto","#3366ff99"," "," ","1","+10","[1435]","1","2","","","17879","31","1","1","win","go","0"
"pit-trial","150","1007344","0.0-36.0","battery-v0.2","","""event"",""trial"",""time""
""fullscreenenter"",""1"",""2029""
","
","
","""event"",""trial"",""time""
""fullscreenenter"",""1"",""2029""
","
","","","-1","","","22","17879","6769","y","elianto","#f73b6a7A","-1","-1","1","0","[]","0","2","","","17879","32","2","4","lose","no-go","0"
"pit-trial","151","1010805","0.0-37.0","battery-v0.2","","""event"",""trial"",""time""
""fullscreenenter"",""1"",""2029""
","
","
","""event"",""trial"",""time""
""fullscreenenter"",""1"",""2029""
","
","","","604","","","22","17879","6769","h","elianto","#f73b6a7A"," "," ","1","-10","[1456]","1","2","","","17879","33","3","3","lose","go","1"
"pit-trial","152","1015664","0.0-38.0","battery-v0.2","","""event"",""trial"",""time""
""fullscreenenter"",""1"",""2029""
","
","
","""event"",""trial"",""time""
""fullscreenenter"",""1"",""2029""
","
","","","-1","","","22","17879","6769","m","elianto","#f73b6a7A","-1","-1","1","0","[]","0","2","","","17879","34","0","4","lose","no-go","0"
"pit-trial","153","1020523","0.0-39.0","battery-v0.2","","""event"",""trial"",""time""
""fullscreenenter"",""1"",""2029""
","
","
","""event"",""trial"",""time""
""fullscreenenter"",""1"",""2029""
","
","","","-1","","","22","17879","6769","y","elianto","#f73b6a7A","-1","-1","1","0","[]","0","2","","","17879","35","2","4","lose","no-go","0"
"pit-trial","154","1023890","0.0-40.0","battery-v0.2","","""event"",""trial"",""time""
""fullscreenenter"",""1"",""2029""
","
","
","""event"",""trial"",""time""
""fullscreenenter"",""1"",""2029""
","
","","","511","","","22","17879","6769","r","elianto","#3366ff99"," "," ","1","0","[1361]","1","2","","","17879","36","1","1","win","go","1"
"pit-trial","155","1028748","0.0-41.0","battery-v0.2","","""event"",""trial"",""time""
""fullscreenenter"",""1"",""2029""
","
","
","""event"",""trial"",""time""
""fullscreenenter"",""1"",""2029""
","
","","","-1","","","22","17879","6769","y","elianto","#f73b6a7A","-1","-1","1","0","[]","0","2","","","17879","37","2","4","lose","no-go","0"
"pit-trial","156","1032434","0.0-42.0","battery-v0.2","","""event"",""trial"",""time""
""fullscreenenter"",""1"",""2029""
","
","
","""event"",""trial"",""time""
""fullscreenenter"",""1"",""2029""
","
","","","831","","","22","17879","6769","r","elianto","#3366ff99"," "," ","1","0","[1681]","1","2","","","17879","38","1","1","win","go","1"
"pit-trial","157","1036320","0.0-43.0","battery-v0.2","","""event"",""trial"",""time""
""fullscreenenter"",""1"",""2029""
","
","
","""event"",""trial"",""time""
""fullscreenenter"",""1"",""2029""
","
","","","1028","","","22","17879","6769","h","elianto","#f73b6a7A"," "," ","1","0","[1880]","1","2","","","17879","39","3","3","lose","go","0"
"pit-trial","158","1041178","0.0-44.0","battery-v0.2","","""event"",""trial"",""time""
""fullscreenenter"",""1"",""2029""
","
","
","""event"",""trial"",""time""
""fullscreenenter"",""1"",""2029""
","
","","","-1","","","22","17879","6769","m","elianto","#f73b6a7A","-1","-1","1","-10","[]","0","2","","","17879","40","0","4","lose","no-go","1"
"pit-trial","159","1044846","0.0-45.0","battery-v0.2","","""event"",""trial"",""time""
""fullscreenenter"",""1"",""2029""
","
","
","""event"",""trial"",""time""
""fullscreenenter"",""1"",""2029""
","
","","","811","","","22","17879","6769","h","elianto","#f73b6a7A"," "," ","1","0","[1662]","1","2","","","17879","41","3","3","lose","go","0"
"pit-trial","160","1048423","0.0-46.0","battery-v0.2","","""event"",""trial"",""time""
""fullscreenenter"",""1"",""2029""
","
","
","""event"",""trial"",""time""
""fullscreenenter"",""1"",""2029""
","
","","","722","","","22","17879","6769","m","elianto","#f73b6a7A","-1"," ","0","-10","[1572]","1","2","","","17879","42","0","4","lose","no-go","0"
"pit-trial","161","1051793","0.0-47.0","battery-v0.2","","""event"",""trial"",""time""
""fullscreenenter"",""1"",""2029""
","
","
","""event"",""trial"",""time""
""fullscreenenter"",""1"",""2029""
","
","","","514","","","22","17879","6769","r","elianto","#3366ff99"," "," ","1","+10","[1365]","1","2","","","17879","43","1","1","win","go","0"
"pit-trial","162","1056651","0.0-48.0","battery-v0.2","","""event"",""trial"",""time""
""fullscreenenter"",""1"",""2029""
","
","
","""event"",""trial"",""time""
""fullscreenenter"",""1"",""2029""
","
","","","-1","","","22","17879","6769","y","elianto","#f73b6a7A","-1","-1","1","0","[]","0","2","","","17879","44","2","4","lose","no-go","0"
"pit-trial","163","1061509","0.0-49.0","battery-v0.2","","""event"",""trial"",""time""
""fullscreenenter"",""1"",""2029""
","
","
","""event"",""trial"",""time""
""fullscreenenter"",""1"",""2029""
","
","","","-1","","","22","17879","6769","m","elianto","#f73b6a7A","-1","-1","1","0","[]","0","2","","","17879","45","0","4","lose","no-go","0"
"pit-trial","164","1065923","0.0-50.0","battery-v0.2","","""event"",""trial"",""time""
""fullscreenenter"",""1"",""2029""
","
","
","""event"",""trial"",""time""
""fullscreenenter"",""1"",""2029""
","
","","","1556","","","22","17879","6769","h","elianto","#f73b6a7A"," "," ","1","0","[2409]","1","2","","","17879","46","3","3","lose","go","0"
"pit-trial","165","1069588","0.0-51.0","battery-v0.2","","""event"",""trial"",""time""
""fullscreenenter"",""1"",""2029""
","
","
","""event"",""trial"",""time""
""fullscreenenter"",""1"",""2029""
","
","","","809","","","22","17879","6769","z","elianto","#3366ff99","-1"," ","0","0","[1660]","1","2","","","17879","47","4","2","win","no-go","0"
"pit-trial","166","1074444","0.0-52.0","battery-v0.2","","""event"",""trial"",""time""
""fullscreenenter"",""1"",""2029""
","
","
","""event"",""trial"",""time""
""fullscreenenter"",""1"",""2029""
","
","","","-1","","","22","17879","6769","y","elianto","#f73b6a7A","-1","-1","1","0","[]","0","2","","","17879","48","2","4","lose","no-go","0"
"pit-trial","167","1079300","0.0-53.0","battery-v0.2","","""event"",""trial"",""time""
""fullscreenenter"",""1"",""2029""
","
","
","""event"",""trial"",""time""
""fullscreenenter"",""1"",""2029""
","
","","","-1","","","22","17879","6769","m","elianto","#f73b6a7A","-1","-1","1","0","[]","0","2","","","17879","49","0","4","lose","no-go","0"
"pit-trial","168","1082799","0.0-54.0","battery-v0.2","","""event"",""trial"",""time""
""fullscreenenter"",""1"",""2029""
","
","
","""event"",""trial"",""time""
""fullscreenenter"",""1"",""2029""
","
","","","642","","","22","17879","6769","r","elianto","#3366ff99"," "," ","1","+10","[1492]","1","2","","","17879","50","1","1","win","go","0"
"pit-trial","169","1086213","0.0-55.0","battery-v0.2","","""event"",""trial"",""time""
""fullscreenenter"",""1"",""2029""
","
","
","""event"",""trial"",""time""
""fullscreenenter"",""1"",""2029""
","
","","","558","","","22","17879","6769","h","elianto","#f73b6a7A"," "," ","1","0","[1409]","1","2","","","17879","51","3","3","lose","go","0"
"pit-trial","170","1089699","0.0-56.0","battery-v0.2","","""event"",""trial"",""time""
""fullscreenenter"",""1"",""2029""
","
","
","""event"",""trial"",""time""
""fullscreenenter"",""1"",""2029""
","
","","","629","","","22","17879","6769","z","elianto","#3366ff99","-1"," ","0","0","[1481]","1","2","","","17879","52","4","2","win","no-go","0"
"pit-trial","171","1094556","0.0-57.0","battery-v0.2","","""event"",""trial"",""time""
""fullscreenenter"",""1"",""2029""
","
","
","""event"",""trial"",""time""
""fullscreenenter"",""1"",""2029""
","
","","","-1","","","22","17879","6769","m","elianto","#f73b6a7A","-1","-1","1","0","[]","0","2","","","17879","53","0","4","lose","no-go","0"
"pit-trial","172","1099412","0.0-58.0","battery-v0.2","","""event"",""trial"",""time""
""fullscreenenter"",""1"",""2029""
","
","
","""event"",""trial"",""time""
""fullscreenenter"",""1"",""2029""
","
","","","-1","","","22","17879","6769","z","elianto","#3366ff99","-1","-1","1","0","[]","0","2","","","17879","54","4","2","win","no-go","1"
"pit-trial","173","1102847","0.0-59.0","battery-v0.2","","""event"",""trial"",""time""
""fullscreenenter"",""1"",""2029""
","
","
","""event"",""trial"",""time""
""fullscreenenter"",""1"",""2029""
","
","","","577","","","22","17879","6769","r","elianto","#3366ff99"," "," ","1","+10","[1429]","1","2","","","17879","55","1","1","win","go","0"
"pit-trial","174","1107706","0.0-60.0","battery-v0.2","","""event"",""trial"",""time""
""fullscreenenter"",""1"",""2029""
","
","
","""event"",""trial"",""time""
""fullscreenenter"",""1"",""2029""
","
","","","-1","","","22","17879","6769","y","elianto","#f73b6a7A","-1","-1","1","0","[]","0","2","","","17879","56","2","4","lose","no-go","0"
"pit-trial","175","1111161","0.0-61.0","battery-v0.2","","""event"",""trial"",""time""
""fullscreenenter"",""1"",""2029""
","
","
","""event"",""trial"",""time""
""fullscreenenter"",""1"",""2029""
","
","","","598","","","22","17879","6769","r","elianto","#3366ff99"," "," ","1","+10","[1449]","1","2","","","17879","57","1","1","win","go","0"
"pit-trial","176","1114781","0.0-62.0","battery-v0.2","","""event"",""trial"",""time""
""fullscreenenter"",""1"",""2029""
","
","
","""event"",""trial"",""time""
""fullscreenenter"",""1"",""2029""
","
","","","763","","","22","17879","6769","h","elianto","#f73b6a7A"," "," ","1","-10","[1614]","1","2","","","17879","58","3","3","lose","go","1"
"pit-trial","177","1119640","0.0-63.0","battery-v0.2","","""event"",""trial"",""time""
""fullscreenenter"",""1"",""2029""
","
","
","""event"",""trial"",""time""
""fullscreenenter"",""1"",""2029""
","
","","","-1","","","22","17879","6769","z","elianto","#3366ff99","-1","-1","1","+10","[]","0","2","","","17879","59","4","2","win","no-go","0"
"pit-trial","178","1124497","0.0-64.0","battery-v0.2","","""event"",""trial"",""time""
""fullscreenenter"",""1"",""2029""
","
","
","""event"",""trial"",""time""
""fullscreenenter"",""1"",""2029""
","
","","","-1","","","22","17879","6769","m","elianto","#f73b6a7A","-1","-1","1","0","[]","0","2","","","17879","60","0","4","lose","no-go","0"
"pit-trial","179","1129353","0.0-65.0","battery-v0.2","","""event"",""trial"",""time""
""fullscreenenter"",""1"",""2029""
","
","
","""event"",""trial"",""time""
""fullscreenenter"",""1"",""2029""
","
","","","-1","","","22","17879","6769","z","elianto","#3366ff99","-1","-1","1","0","[]","0","2","","","17879","61","4","2","win","no-go","1"
"pit-trial","180","1134212","0.0-66.0","battery-v0.2","","""event"",""trial"",""time""
""fullscreenenter"",""1"",""2029""
","
","
","""event"",""trial"",""time""
""fullscreenenter"",""1"",""2029""
","
","","","-1","","","22","17879","6769","y","elianto","#f73b6a7A","-1","-1","1","0","[]","0","2","","","17879","62","2","4","lose","no-go","0"
"pit-trial","181","1137637","0.0-67.0","battery-v0.2","","""event"",""trial"",""time""
""fullscreenenter"",""1"",""2029""
","
","
","""event"",""trial"",""time""
""fullscreenenter"",""1"",""2029""
","
","","","568","","","22","17879","6769","r","elianto","#3366ff99"," "," ","1","+10","[1419]","1","2","","","17879","63","1","1","win","go","0"
"pit-trial","182","1141773","0.0-68.0","battery-v0.2","","""event"",""trial"",""time""
""fullscreenenter"",""1"",""2029""
","
","
","""event"",""trial"",""time""
""fullscreenenter"",""1"",""2029""
","
","","","1278","","","22","17879","6769","h","elianto","#f73b6a7A"," "," ","1","0","[2129]","1","2","","","17879","64","3","3","lose","go","0"
"pit-trial","183","1145237","0.0-69.0","battery-v0.2","","""event"",""trial"",""time""
""fullscreenenter"",""1"",""2029""
","
","
","""event"",""trial"",""time""
""fullscreenenter"",""1"",""2029""
","
","","","606","","","22","17879","6769","r","elianto","#3366ff99"," "," ","1","+10","[1458]","1","2","","","17879","65","1","1","win","go","0"
"pit-trial","184","1148594","0.0-70.0","battery-v0.2","","""event"",""trial"",""time""
""fullscreenenter"",""1"",""2029""
","
","
","""event"",""trial"",""time""
""fullscreenenter"",""1"",""2029""
","
","","","499","","","22","17879","6769","h","elianto","#f73b6a7A"," "," ","1","0","[1351]","1","2","","","17879","66","3","3","lose","go","0"
"pit-trial","185","1153453","0.0-71.0","battery-v0.2","","""event"",""trial"",""time""
""fullscreenenter"",""1"",""2029""
","
","
","""event"",""trial"",""time""
""fullscreenenter"",""1"",""2029""
","
","","","-1","","","22","17879","6769","z","elianto","#3366ff99","-1","-1","1","+10","[]","0","2","","","17879","67","4","2","win","no-go","0"
"pit-trial","186","1158310","0.0-72.0","battery-v0.2","","""event"",""trial"",""time""
""fullscreenenter"",""1"",""2029""
","
","
","""event"",""trial"",""time""
""fullscreenenter"",""1"",""2029""
","
","","","-1","","","22","17879","6769","y","elianto","#f73b6a7A","-1","-1","1","0","[]","0","2","","","17879","68","2","4","lose","no-go","0"
"pit-trial","187","1162318","0.0-73.0","battery-v0.2","","""event"",""trial"",""time""
""fullscreenenter"",""1"",""2029""
","
","
","""event"",""trial"",""time""
""fullscreenenter"",""1"",""2029""
","
","","","1150","","","22","17879","6769","c","elianto","#3366ff99"," "," ","1","+10","[2001]","1","2","","","17879","69","5","1","win","go","0"
"pit-trial","188","1165950","0.0-74.0","battery-v0.2","","""event"",""trial"",""time""
""fullscreenenter"",""1"",""2029""
","
","
","""event"",""trial"",""time""
""fullscreenenter"",""1"",""2029""
","
","","","775","","","22","17879","6769","h","elianto","#f73b6a7A"," "," ","1","0","[1625]","1","2","","","17879","70","3","3","lose","go","0"
"pit-trial","189","1169374","0.0-75.0","battery-v0.2","","""event"",""trial"",""time""
""fullscreenenter"",""1"",""2029""
","
","
","""event"",""trial"",""time""
""fullscreenenter"",""1"",""2029""
","
","","","567","","","22","17879","6769","r","elianto","#3366ff99"," "," ","1","+10","[1417]","1","2","","","17879","71","1","1","win","go","0"
"pit-trial","190","1174231","0.0-76.0","battery-v0.2","","""event"",""trial"",""time""
""fullscreenenter"",""1"",""2029""
","
","
","""event"",""trial"",""time""
""fullscreenenter"",""1"",""2029""
","
","","","-1","","","22","17879","6769","z","elianto","#3366ff99","-1","-1","1","0","[]","0","2","","","17879","72","4","2","win","no-go","1"
"pit-trial","191","1177620","0.0-77.0","battery-v0.2","","""event"",""trial"",""time""
""fullscreenenter"",""1"",""2029""
","
","
","""event"",""trial"",""time""
""fullscreenenter"",""1"",""2029""
","
","","","533","","","22","17879","6769","r","elianto","#3366ff99"," "," ","1","+10","[1383]","1","2","","","17879","73","1","1","win","go","0"
"pit-trial","192","1182478","0.0-78.0","battery-v0.2","","""event"",""trial"",""time""
""fullscreenenter"",""1"",""2029""
","
","
","""event"",""trial"",""time""
""fullscreenenter"",""1"",""2029""
","
","","","-1","","","22","17879","6769","z","elianto","#3366ff99","-1","-1","1","+10","[]","0","2","","","17879","74","4","2","win","no-go","0"
"pit-trial","193","1185853","0.0-79.0","battery-v0.2","","""event"",""trial"",""time""
""fullscreenenter"",""1"",""2029""
","
","
","""event"",""trial"",""time""
""fullscreenenter"",""1"",""2029""
","
","","","518","","","22","17879","6769","h","elianto","#f73b6a7A"," "," ","1","0","[1368]","1","2","","","17879","75","3","3","lose","go","0"
"pit-trial","194","1189385","0.0-80.0","battery-v0.2","","""event"",""trial"",""time""
""fullscreenenter"",""1"",""2029""
","
","
","""event"",""trial"",""time""
""fullscreenenter"",""1"",""2029""
","
","","","674","","","22","17879","6769","c","elianto","#3366ff99"," "," ","1","+10","[1525]","1","2","","","17879","76","5","1","win","go","0"
"pit-trial","195","1193121","0.0-81.0","battery-v0.2","","""event"",""trial"",""time""
""fullscreenenter"",""1"",""2029""
","
","
","""event"",""trial"",""time""
""fullscreenenter"",""1"",""2029""
","
","","","880","","","22","17879","6769","b","elianto","#f73b6a7A","-1"," ","0","-10","[1731]","1","2","","","17879","77","6","4","lose","no-go","0"
"pit-trial","196","1196475","0.0-82.0","battery-v0.2","","""event"",""trial"",""time""
""fullscreenenter"",""1"",""2029""
","
","
","""event"",""trial"",""time""
""fullscreenenter"",""1"",""2029""
","
","","","500","","","22","17879","6769","h","elianto","#f73b6a7A"," "," ","1","-10","[1352]","1","2","","","17879","78","3","3","lose","go","1"
"pit-trial","197","1201332","0.0-83.0","battery-v0.2","","""event"",""trial"",""time""
""fullscreenenter"",""1"",""2029""
","
","
","""event"",""trial"",""time""
""fullscreenenter"",""1"",""2029""
","
","","","-1","","","22","17879","6769","z","elianto","#3366ff99","-1","-1","1","+10","[]","0","2","","","17879","79","4","2","win","no-go","0"
"pit-trial","198","1204707","0.0-84.0","battery-v0.2","","""event"",""trial"",""time""
""fullscreenenter"",""1"",""2029""
","
","
","""event"",""trial"",""time""
""fullscreenenter"",""1"",""2029""
","
","","","518","","","22","17879","6769","c","elianto","#3366ff99"," "," ","1","+10","[1368]","1","2","","","17879","80","5","1","win","go","0"
"pit-trial","199","1209565","0.0-85.0","battery-v0.2","","""event"",""trial"",""time""
""fullscreenenter"",""1"",""2029""
","
","
","""event"",""trial"",""time""
""fullscreenenter"",""1"",""2029""
","
","","","-1","","","22","17879","6769","b","elianto","#f73b6a7A","-1","-1","1","0","[]","0","2","","","17879","81","6","4","lose","no-go","0"
"pit-trial","200","1214422","0.0-86.0","battery-v0.2","","""event"",""trial"",""time""
""fullscreenenter"",""1"",""2029""
","
","
","""event"",""trial"",""time""
""fullscreenenter"",""1"",""2029""
","
","","","-1","","","22","17879","6769","z","elianto","#3366ff99","-1","-1","1","+10","[]","0","2","","","17879","82","4","2","win","no-go","0"
"pit-trial","201","1218198","0.0-87.0","battery-v0.2","","""event"",""trial"",""time""
""fullscreenenter"",""1"",""2029""
","
","
","""event"",""trial"",""time""
""fullscreenenter"",""1"",""2029""
","
","","","920","","","22","17879","6769","t","elianto","#f73b6a7A"," "," ","1","0","[1771]","1","2","","","17879","83","7","3","lose","go","0"
"pit-trial","202","1222179","0.0-88.0","battery-v0.2","","""event"",""trial"",""time""
""fullscreenenter"",""1"",""2029""
","
","
","""event"",""trial"",""time""
""fullscreenenter"",""1"",""2029""
","
","","","1124","","","22","17879","6769","c","elianto","#3366ff99"," "," ","1","+10","[1975]","1","2","","","17879","84","5","1","win","go","0"
"pit-trial","203","1225573","0.0-89.0","battery-v0.2","","""event"",""trial"",""time""
""fullscreenenter"",""1"",""2029""
","
","
","""event"",""trial"",""time""
""fullscreenenter"",""1"",""2029""
","
","","","537","","","22","17879","6769","c","elianto","#3366ff99"," "," ","1","+10","[1388]","1","2","","","17879","85","5","1","win","go","0"
"pit-trial","204","1230431","0.0-90.0","battery-v0.2","","""event"",""trial"",""time""
""fullscreenenter"",""1"",""2029""
","
","
","""event"",""trial"",""time""
""fullscreenenter"",""1"",""2029""
","
","","","-1","","","22","17879","6769","b","elianto","#f73b6a7A","-1","-1","1","0","[]","0","2","","","17879","86","6","4","lose","no-go","0"
"pit-trial","205","1235289","0.0-91.0","battery-v0.2","","""event"",""trial"",""time""
""fullscreenenter"",""1"",""2029""
","
","
","""event"",""trial"",""time""
""fullscreenenter"",""1"",""2029""
","
","","","-1","","","22","17879","6769","z","elianto","#3366ff99","-1","-1","1","+10","[]","0","2","","","17879","87","4","2","win","no-go","0"
"pit-trial","206","1239329","0.0-92.0","battery-v0.2","","""event"",""trial"",""time""
""fullscreenenter"",""1"",""2029""
","
","
","""event"",""trial"",""time""
""fullscreenenter"",""1"",""2029""
","
","","","1182","","","22","17879","6769","t","elianto","#f73b6a7A"," "," ","1","-10","[2033]","1","2","","","17879","88","7","3","lose","go","1"
"pit-trial","207","1244187","0.0-93.0","battery-v0.2","","""event"",""trial"",""time""
""fullscreenenter"",""1"",""2029""
","
","
","""event"",""trial"",""time""
""fullscreenenter"",""1"",""2029""
","
","","","-1","","","22","17879","6769","b","elianto","#f73b6a7A","-1","-1","1","0","[]","0","2","","","17879","89","6","4","lose","no-go","0"
"pit-trial","208","1247568","0.0-94.0","battery-v0.2","","""event"",""trial"",""time""
""fullscreenenter"",""1"",""2029""
","
","
","""event"",""trial"",""time""
""fullscreenenter"",""1"",""2029""
","
","","","527","","","22","17879","6769","c","elianto","#3366ff99"," "," ","1","+10","[1378]","1","2","","","17879","90","5","1","win","go","0"
"pit-trial","209","1252426","0.0-95.0","battery-v0.2","","""event"",""trial"",""time""
""fullscreenenter"",""1"",""2029""
","
","
","""event"",""trial"",""time""
""fullscreenenter"",""1"",""2029""
","
","","","-1","","","22","17879","6769","z","elianto","#3366ff99","-1","-1","1","+10","[]","0","2","","","17879","91","4","2","win","no-go","0"
"pit-trial","210","1255862","0.0-96.0","battery-v0.2","","""event"",""trial"",""time""
""fullscreenenter"",""1"",""2029""
","
","
","""event"",""trial"",""time""
""fullscreenenter"",""1"",""2029""
","
","","","578","","","22","17879","6769","t","elianto","#f73b6a7A"," "," ","1","-10","[1430]","1","2","","","17879","92","7","3","lose","go","1"
"pit-trial","211","1260719","0.0-97.0","battery-v0.2","","""event"",""trial"",""time""
""fullscreenenter"",""1"",""2029""
","
","
","""event"",""trial"",""time""
""fullscreenenter"",""1"",""2029""
","
","","","-1","","","22","17879","6769","t","elianto","#f73b6a7A"," ","-1","0","0","[]","0","2","","","17879","93","7","3","lose","go","1"
"pit-trial","212","1264355","0.0-98.0","battery-v0.2","","""event"",""trial"",""time""
""fullscreenenter"",""1"",""2029""
","
","
","""event"",""trial"",""time""
""fullscreenenter"",""1"",""2029""
","
","","","780","","","22","17879","6769","f","elianto","#3366ff99","-1"," ","0","0","[1633]","1","2","","","17879","94","8","2","win","no-go","0"
"pit-trial","213","1267725","0.0-99.0","battery-v0.2","","""event"",""trial"",""time""
""fullscreenenter"",""1"",""2029""
","
","
","""event"",""trial"",""time""
""fullscreenenter"",""1"",""2029""
","
","","","512","","","22","17879","6769","c","elianto","#3366ff99"," "," ","1","+10","[1363]","1","2","","","17879","95","5","1","win","go","0"
"pit-trial","214","1272581","0.0-100.0","battery-v0.2","","""event"",""trial"",""time""
""fullscreenenter"",""1"",""2029""
","
","
","""event"",""trial"",""time""
""fullscreenenter"",""1"",""2029""
","
","","","-1","","","22","17879","6769","b","elianto","#f73b6a7A","-1","-1","1","-10","[]","0","2","","","17879","96","6","4","lose","no-go","1"
"pit-trial","215","1275977","0.0-101.0","battery-v0.2","","""event"",""trial"",""time""
""fullscreenenter"",""1"",""2029""
","
","
","""event"",""trial"",""time""
""fullscreenenter"",""1"",""2029""
","
","","","541","","","22","17879","6769","c","elianto","#3366ff99"," "," ","1","+10","[1391]","1","2","","","17879","97","5","1","win","go","0"
"pit-trial","216","1280833","0.0-102.0","battery-v0.2","","""event"",""trial"",""time""
""fullscreenenter"",""1"",""2029""
","
","
","""event"",""trial"",""time""
""fullscreenenter"",""1"",""2029""
","
","","","-1","","","22","17879","6769","b","elianto","#f73b6a7A","-1","-1","1","0","[]","0","2","","","17879","98","6","4","lose","no-go","0"
"pit-trial","217","1285688","0.0-103.0","battery-v0.2","","""event"",""trial"",""time""
""fullscreenenter"",""1"",""2029""
","
","
","""event"",""trial"",""time""
""fullscreenenter"",""1"",""2029""
","
","","","-1","","","22","17879","6769","t","elianto","#f73b6a7A"," ","-1","0","-10","[]","0","2","","","17879","99","7","3","lose","go","0"
"pit-trial","218","1289606","0.0-104.0","battery-v0.2","","""event"",""trial"",""time""
""fullscreenenter"",""1"",""2029""
","
","
","""event"",""trial"",""time""
""fullscreenenter"",""1"",""2029""
","
","","","1061","","","22","17879","6769","f","elianto","#3366ff99","-1"," ","0","0","[1912]","1","2","","","17879","100","8","2","win","no-go","0"
"pit-trial","219","1293417","0.0-105.0","battery-v0.2","","""event"",""trial"",""time""
""fullscreenenter"",""1"",""2029""
","
","
","""event"",""trial"",""time""
""fullscreenenter"",""1"",""2029""
","
","","","954","","","22","17879","6769","n","elianto","#3366ff99","-1"," ","0","+10","[1805]","1","2","","","17879","101","9","2","win","no-go","1"
"pit-trial","220","1298275","0.0-106.0","battery-v0.2","","""event"",""trial"",""time""
""fullscreenenter"",""1"",""2029""
","
","
","""event"",""trial"",""time""
""fullscreenenter"",""1"",""2029""
","
","","","-1","","","22","17879","6769","f","elianto","#3366ff99","-1","-1","1","+10","[]","0","2","","","17879","102","8","2","win","no-go","0"
"pit-trial","221","1301784","0.0-107.0","battery-v0.2","","""event"",""trial"",""time""
""fullscreenenter"",""1"",""2029""
","
","
","""event"",""trial"",""time""
""fullscreenenter"",""1"",""2029""
","
","","","650","","","22","17879","6769","c","elianto","#3366ff99"," "," ","1","+10","[1501]","1","2","","","17879","103","5","1","win","go","0"
"pit-trial","222","1306643","0.0-108.0","battery-v0.2","","""event"",""trial"",""time""
""fullscreenenter"",""1"",""2029""
","
","
","""event"",""trial"",""time""
""fullscreenenter"",""1"",""2029""
","
","","","-1","","","22","17879","6769","b","elianto","#f73b6a7A","-1","-1","1","-10","[]","0","2","","","17879","104","6","4","lose","no-go","1"
"pit-trial","223","1311500","0.0-109.0","battery-v0.2","","""event"",""trial"",""time""
""fullscreenenter"",""1"",""2029""
","
","
","""event"",""trial"",""time""
""fullscreenenter"",""1"",""2029""
","
","","","-1","","","22","17879","6769","b","elianto","#f73b6a7A","-1","-1","1","0","[]","0","2","","","17879","105","6","4","lose","no-go","0"
"pit-trial","224","1315488","0.0-110.0","battery-v0.2","","""event"",""trial"",""time""
""fullscreenenter"",""1"",""2029""
","
","
","""event"",""trial"",""time""
""fullscreenenter"",""1"",""2029""
","
","","","1131","","","22","17879","6769","f","elianto","#3366ff99","-1"," ","0","0","[1982]","1","2","","","17879","106","8","2","win","no-go","0"
"pit-trial","225","1319104","0.0-111.0","battery-v0.2","","""event"",""trial"",""time""
""fullscreenenter"",""1"",""2029""
","
","
","""event"",""trial"",""time""
""fullscreenenter"",""1"",""2029""
","
","","","759","","","22","17879","6769","n","elianto","#3366ff99","-1"," ","0","0","[1610]","1","2","","","17879","107","9","2","win","no-go","0"
"pit-trial","226","1322627","0.0-112.0","battery-v0.2","","""event"",""trial"",""time""
""fullscreenenter"",""1"",""2029""
","
","
","""event"",""trial"",""time""
""fullscreenenter"",""1"",""2029""
","
","","","666","","","22","17879","6769","c","elianto","#3366ff99"," "," ","1","+10","[1519]","1","2","","","17879","108","5","1","win","go","0"
"pit-trial","227","1326025","0.0-113.0","battery-v0.2","","""event"",""trial"",""time""
""fullscreenenter"",""1"",""2029""
","
","
","""event"",""trial"",""time""
""fullscreenenter"",""1"",""2029""
","
","","","542","","","22","17879","6769","c","elianto","#3366ff99"," "," ","1","+10","[1393]","1","2","","","17879","109","5","1","win","go","0"
"pit-trial","228","1329712","0.0-114.0","battery-v0.2","","""event"",""trial"",""time""
""fullscreenenter"",""1"",""2029""
","
","
","""event"",""trial"",""time""
""fullscreenenter"",""1"",""2029""
","
","","","830","","","22","17879","6769","n","elianto","#3366ff99","-1"," ","0","0","[1682]","1","2","","","17879","110","9","2","win","no-go","0"
"pit-trial","229","1334571","0.0-115.0","battery-v0.2","","""event"",""trial"",""time""
""fullscreenenter"",""1"",""2029""
","
","
","""event"",""trial"",""time""
""fullscreenenter"",""1"",""2029""
","
","","","-1","","","22","17879","6769","b","elianto","#f73b6a7A","-1","-1","1","0","[]","0","2","","","17879","111","6","4","lose","no-go","0"
"pit-trial","230","1338547","0.0-116.0","battery-v0.2","","""event"",""trial"",""time""
""fullscreenenter"",""1"",""2029""
","
","
","""event"",""trial"",""time""
""fullscreenenter"",""1"",""2029""
","
","","","1118","","","22","17879","6769","f","elianto","#3366ff99","-1"," ","0","0","[1968]","1","2","","","17879","112","8","2","win","no-go","0"
"pit-trial","231","1342531","0.0-117.0","battery-v0.2","","""event"",""trial"",""time""
""fullscreenenter"",""1"",""2029""
","
","
","""event"",""trial"",""time""
""fullscreenenter"",""1"",""2029""
","
","","","1128","","","22","17879","6769","n","elianto","#3366ff99","-1"," ","0","0","[1978]","1","2","","","17879","113","9","2","win","no-go","0"
"pit-trial","232","1347391","0.0-118.0","battery-v0.2","","""event"",""trial"",""time""
""fullscreenenter"",""1"",""2029""
","
","
","""event"",""trial"",""time""
""fullscreenenter"",""1"",""2029""
","
","","","-1","","","22","17879","6769","f","elianto","#3366ff99","-1","-1","1","0","[]","0","2","","","17879","114","8","2","win","no-go","1"
"pit-trial","233","1351607","0.0-119.0","battery-v0.2","","""event"",""trial"",""time""
""fullscreenenter"",""1"",""2029""
","
","
","""event"",""trial"",""time""
""fullscreenenter"",""1"",""2029""
","
","","","1360","","","22","17879","6769","t","elianto","#f73b6a7A"," "," ","1","0","[2210]","1","2","","","17879","115","7","3","lose","go","0"
"pit-trial","234","1355119","0.0-120.0","battery-v0.2","","""event"",""trial"",""time""
""fullscreenenter"",""1"",""2029""
","
","
","""event"",""trial"",""time""
""fullscreenenter"",""1"",""2029""
","
","","","657","","","22","17879","6769","c","elianto","#3366ff99"," "," ","1","0","[1507]","1","2","","","17879","116","5","1","win","go","1"
"pit-trial","235","1359977","0.0-121.0","battery-v0.2","","""event"",""trial"",""time""
""fullscreenenter"",""1"",""2029""
","
","
","""event"",""trial"",""time""
""fullscreenenter"",""1"",""2029""
","
","","","-1","","","22","17879","6769","f","elianto","#3366ff99","-1","-1","1","+10","[]","0","2","","","17879","117","8","2","win","no-go","0"
"pit-trial","236","1364835","0.0-122.0","battery-v0.2","","""event"",""trial"",""time""
""fullscreenenter"",""1"",""2029""
","
","
","""event"",""trial"",""time""
""fullscreenenter"",""1"",""2029""
","
","","","-1","","","22","17879","6769","n","elianto","#3366ff99","-1","-1","1","+10","[]","0","2","","","17879","118","9","2","win","no-go","0"
"pit-trial","237","1369693","0.0-123.0","battery-v0.2","","""event"",""trial"",""time""
""fullscreenenter"",""1"",""2029""
","
","
","""event"",""trial"",""time""
""fullscreenenter"",""1"",""2029""
","
","","","-1","","","22","17879","6769","b","elianto","#f73b6a7A","-1","-1","1","0","[]","0","2","","","17879","119","6","4","lose","no-go","0"
"pit-trial","238","1373126","0.0-124.0","battery-v0.2","","""event"",""trial"",""time""
""fullscreenenter"",""1"",""2029""
","
","
","""event"",""trial"",""time""
""fullscreenenter"",""1"",""2029""
","
","","","575","","","22","17879","6769","c","elianto","#3366ff99"," "," ","1","+10","[1426]","1","2","","","17879","120","5","1","win","go","0"
"pit-trial","239","1377013","0.0-125.0","battery-v0.2","","""event"",""trial"",""time""
""fullscreenenter"",""1"",""2029""
","
","
","""event"",""trial"",""time""
""fullscreenenter"",""1"",""2029""
","
","","","1030","","","22","17879","6769","c","elianto","#3366ff99"," "," ","1","0","[1881]","1","2","","","17879","121","5","1","win","go","1"
"pit-trial","240","1381872","0.0-126.0","battery-v0.2","","""event"",""trial"",""time""
""fullscreenenter"",""1"",""2029""
","
","
","""event"",""trial"",""time""
""fullscreenenter"",""1"",""2029""
","
","","","-1","","","22","17879","6769","t","elianto","#f73b6a7A"," ","-1","0","-10","[]","0","2","","","17879","122","7","3","lose","go","0"
"pit-trial","241","1386729","0.0-127.0","battery-v0.2","","""event"",""trial"",""time""
""fullscreenenter"",""1"",""2029""
","
","
","""event"",""trial"",""time""
""fullscreenenter"",""1"",""2029""
","
","","","-1","","","22","17879","6769","n","elianto","#3366ff99","-1","-1","1","+10","[]","0","2","","","17879","123","9","2","win","no-go","0"
"pit-trial","242","1391586","0.0-128.0","battery-v0.2","","""event"",""trial"",""time""
""fullscreenenter"",""1"",""2029""
","
","
","""event"",""trial"",""time""
""fullscreenenter"",""1"",""2029""
","
","","","-1","","","22","17879","6769","f","elianto","#3366ff99","-1","-1","1","+10","[]","0","2","","","17879","124","8","2","win","no-go","0"
"pit-trial","243","1396445","0.0-129.0","battery-v0.2","","""event"",""trial"",""time""
""fullscreenenter"",""1"",""2029""
","
","
","""event"",""trial"",""time""
""fullscreenenter"",""1"",""2029""
","
","","","-1","","","22","17879","6769","b","elianto","#f73b6a7A","-1","-1","1","0","[]","0","2","","","17879","125","6","4","lose","no-go","0"
"pit-trial","244","1401302","0.0-130.0","battery-v0.2","","""event"",""trial"",""time""
""fullscreenenter"",""1"",""2029""
","
","
","""event"",""trial"",""time""
""fullscreenenter"",""1"",""2029""
","
","","","-1","","","22","17879","6769","f","elianto","#3366ff99","-1","-1","1","+10","[]","0","2","","","17879","126","8","2","win","no-go","0"
"pit-trial","245","1404855","0.0-131.0","battery-v0.2","","""event"",""trial"",""time""
""fullscreenenter"",""1"",""2029""
","
","
","""event"",""trial"",""time""
""fullscreenenter"",""1"",""2029""
","
","","","696","","","22","17879","6769","t","elianto","#f73b6a7A"," "," ","1","0","[1547]","1","2","","","17879","127","7","3","lose","go","0"
"pit-trial","246","1409712","0.0-132.0","battery-v0.2","","""event"",""trial"",""time""
""fullscreenenter"",""1"",""2029""
","
","
","""event"",""trial"",""time""
""fullscreenenter"",""1"",""2029""
","
","","","-1","","","22","17879","6769","n","elianto","#3366ff99","-1","-1","1","0","[]","0","2","","","17879","128","9","2","win","no-go","1"
"pit-trial","247","1414568","0.0-133.0","battery-v0.2","","""event"",""trial"",""time""
""fullscreenenter"",""1"",""2029""
","
","
","""event"",""trial"",""time""
""fullscreenenter"",""1"",""2029""
","
","","","-1","","","22","17879","6769","f","elianto","#3366ff99","-1","-1","1","+10","[]","0","2","","","17879","129","8","2","win","no-go","0"
"pit-trial","248","1419427","0.0-134.0","battery-v0.2","","""event"",""trial"",""time""
""fullscreenenter"",""1"",""2029""
","
","
","""event"",""trial"",""time""
""fullscreenenter"",""1"",""2029""
","
","","","-1","","","22","17879","6769","n","elianto","#3366ff99","-1","-1","1","+10","[]","0","2","","","17879","130","9","2","win","no-go","0"
"pit-trial","249","1423087","0.0-135.0","battery-v0.2","","""event"",""trial"",""time""
""fullscreenenter"",""1"",""2029""
","
","
","""event"",""trial"",""time""
""fullscreenenter"",""1"",""2029""
","
","","","803","","","22","17879","6769","t","elianto","#f73b6a7A"," "," ","1","0","[1653]","1","2","","","17879","131","7","3","lose","go","0"
"pit-trial","250","1427946","0.0-136.0","battery-v0.2","","""event"",""trial"",""time""
""fullscreenenter"",""1"",""2029""
","
","
","""event"",""trial"",""time""
""fullscreenenter"",""1"",""2029""
","
","","","-1","","","22","17879","6769","b","elianto","#f73b6a7A","-1","-1","1","-10","[]","0","2","","","17879","132","6","4","lose","no-go","1"
"pit-trial","251","1432804","0.0-137.0","battery-v0.2","","""event"",""trial"",""time""
""fullscreenenter"",""1"",""2029""
","
","
","""event"",""trial"",""time""
""fullscreenenter"",""1"",""2029""
","
","","","-1","","","22","17879","6769","f","elianto","#3366ff99","-1","-1","1","+10","[]","0","2","","","17879","133","8","2","win","no-go","0"
"pit-trial","252","1437663","0.0-138.0","battery-v0.2","","""event"",""trial"",""time""
""fullscreenenter"",""1"",""2029""
","
","
","""event"",""trial"",""time""
""fullscreenenter"",""1"",""2029""
","
","","","-1","","","22","17879","6769","n","elianto","#3366ff99","-1","-1","1","+10","[]","0","2","","","17879","134","9","2","win","no-go","0"
"pit-trial","253","1441173","0.0-139.0","battery-v0.2","","""event"",""trial"",""time""
""fullscreenenter"",""1"",""2029""
","
","
","""event"",""trial"",""time""
""fullscreenenter"",""1"",""2029""
","
","","","653","","","22","17879","6769","t","elianto","#f73b6a7A"," "," ","1","-10","[1504]","1","2","","","17879","135","7","3","lose","go","1"
"pit-trial","254","1446030","0.0-140.0","battery-v0.2","","""event"",""trial"",""time""
""fullscreenenter"",""1"",""2029""
","
","
","""event"",""trial"",""time""
""fullscreenenter"",""1"",""2029""
","
","","","-1","","","22","17879","6769","b","elianto","#f73b6a7A","-1","-1","1","0","[]","0","2","","","17879","136","6","4","lose","no-go","0"
"pit-trial","255","1450888","0.0-141.0","battery-v0.2","","""event"",""trial"",""time""
""fullscreenenter"",""1"",""2029""
","
","
","""event"",""trial"",""time""
""fullscreenenter"",""1"",""2029""
","
","","","-1","","","22","17879","6769","b","elianto","#f73b6a7A","-1","-1","1","0","[]","0","2","","","17879","137","6","4","lose","no-go","0"
"pit-trial","256","1455746","0.0-142.0","battery-v0.2","","""event"",""trial"",""time""
""fullscreenenter"",""1"",""2029""
","
","
","""event"",""trial"",""time""
""fullscreenenter"",""1"",""2029""
","
","","","-1","","","22","17879","6769","n","elianto","#3366ff99","-1","-1","1","+10","[]","0","2","","","17879","138","9","2","win","no-go","0"
"pit-trial","257","1459308","0.0-143.0","battery-v0.2","","""event"",""trial"",""time""
""fullscreenenter"",""1"",""2029""
","
","
","""event"",""trial"",""time""
""fullscreenenter"",""1"",""2029""
","
","","","705","","","22","17879","6769","t","elianto","#f73b6a7A"," "," ","1","0","[1556]","1","2","","","17879","139","7","3","lose","go","0"
"pit-trial","258","1464166","0.0-144.0","battery-v0.2","","""event"",""trial"",""time""
""fullscreenenter"",""1"",""2029""
","
","
","""event"",""trial"",""time""
""fullscreenenter"",""1"",""2029""
","
","","","-1","","","22","17879","6769","f","elianto","#3366ff99","-1","-1","1","0","[]","0","2","","","17879","140","8","2","win","no-go","1"
"pit-instructions","259","1478147","0.0-145.0","battery-v0.2","","""event"",""trial"",""time""
""fullscreenenter"",""1"",""2029""
","
","
","""event"",""trial"",""time""
""fullscreenenter"",""1"",""2029""
","
","","[{""page_index"":0,""viewing_time"":5630},{""page_index"":1,""viewing_time"":8348}]","13978","","","","","","","","","","","","","","","","","","","","","","","",""
"pit-trial","260","1481587","0.0-146.0","battery-v0.2","","""event"",""trial"",""time""
""fullscreenenter"",""1"",""2029""
","
","
","""event"",""trial"",""time""
""fullscreenenter"",""1"",""2029""
","
","","","585","","","22","17879","6769","d","elianto","#3366ff99","-1"," ","0","+10","[1436]","1","3","","","17879","141","1","2","win","no-go","1"
"pit-trial","261","1485006","0.0-147.0","battery-v0.2","","""event"",""trial"",""time""
""fullscreenenter"",""1"",""2029""
","
","
","""event"",""trial"",""time""
""fullscreenenter"",""1"",""2029""
","
","","","561","","","22","17879","6769","e","elianto","#f73b6a7A"," "," ","1","0","[1413]","1","3","","","17879","142","2","3","lose","go","0"
"pit-trial","262","1488328","0.0-148.0","battery-v0.2","","""event"",""trial"",""time""
""fullscreenenter"",""1"",""2029""
","
","
","""event"",""trial"",""time""
""fullscreenenter"",""1"",""2029""
","
","","","465","","","22","17879","6769","w","elianto","#f73b6a7A","-1"," ","0","-10","[1315]","1","3","","","17879","143","3","4","lose","no-go","0"
"pit-trial","263","1491678","0.0-149.0","battery-v0.2","","""event"",""trial"",""time""
""fullscreenenter"",""1"",""2029""
","
","
","""event"",""trial"",""time""
""fullscreenenter"",""1"",""2029""
","
","","","493","","","22","17879","6769","j","elianto","#f73b6a7A"," "," ","1","0","[1345]","1","3","","","17879","144","0","3","lose","go","0"
"pit-trial","264","1495246","0.0-150.0","battery-v0.2","","""event"",""trial"",""time""
""fullscreenenter"",""1"",""2029""
","
","
","""event"",""trial"",""time""
""fullscreenenter"",""1"",""2029""
","
","","","710","","","22","17879","6769","d","elianto","#3366ff99","-1"," ","0","+10","[1561]","1","3","","","17879","145","1","2","win","no-go","1"
"pit-trial","265","1498621","0.0-151.0","battery-v0.2","","""event"",""trial"",""time""
""fullscreenenter"",""1"",""2029""
","
","
","""event"",""trial"",""time""
""fullscreenenter"",""1"",""2029""
","
","","","519","","","22","17879","6769","j","elianto","#f73b6a7A"," "," ","1","0","[1369]","1","3","","","17879","146","0","3","lose","go","0"
"pit-trial","266","1502019","0.0-152.0","battery-v0.2","","""event"",""trial"",""time""
""fullscreenenter"",""1"",""2029""
","
","
","""event"",""trial"",""time""
""fullscreenenter"",""1"",""2029""
","
","","","541","","","22","17879","6769","e","elianto","#f73b6a7A"," "," ","1","0","[1391]","1","3","","","17879","147","2","3","lose","go","0"
"pit-trial","267","1506877","0.0-153.0","battery-v0.2","","""event"",""trial"",""time""
""fullscreenenter"",""1"",""2029""
","
","
","""event"",""trial"",""time""
""fullscreenenter"",""1"",""2029""
","
","","","-1","","","22","17879","6769","w","elianto","#f73b6a7A","-1","-1","1","0","[]","0","3","","","17879","148","3","4","lose","no-go","0"
"pit-trial","268","1510173","0.0-154.0","battery-v0.2","","""event"",""trial"",""time""
""fullscreenenter"",""1"",""2029""
","
","
","""event"",""trial"",""time""
""fullscreenenter"",""1"",""2029""
","
","","","440","","","22","17879","6769","d","elianto","#3366ff99","-1"," ","0","0","[1291]","1","3","","","17879","149","1","2","win","no-go","0"
"pit-trial","269","1513577","0.0-155.0","battery-v0.2","","""event"",""trial"",""time""
""fullscreenenter"",""1"",""2029""
","
","
","""event"",""trial"",""time""
""fullscreenenter"",""1"",""2029""
","
","","","550","","","22","17879","6769","e","elianto","#f73b6a7A"," "," ","1","0","[1401]","1","3","","","17879","150","2","3","lose","go","0"
"pit-trial","270","1516857","0.0-156.0","battery-v0.2","","""event"",""trial"",""time""
""fullscreenenter"",""1"",""2029""
","
","
","""event"",""trial"",""time""
""fullscreenenter"",""1"",""2029""
","
","","","423","","","22","17879","6769","j","elianto","#f73b6a7A"," "," ","1","0","[1274]","1","3","","","17879","151","0","3","lose","go","0"
"pit-trial","271","1521713","0.0-157.0","battery-v0.2","","""event"",""trial"",""time""
""fullscreenenter"",""1"",""2029""
","
","
","""event"",""trial"",""time""
""fullscreenenter"",""1"",""2029""
","
","","","-1","","","22","17879","6769","w","elianto","#f73b6a7A","-1","-1","1","0","[]","0","3","","","17879","152","3","4","lose","no-go","0"
"pit-trial","272","1525004","0.0-158.0","battery-v0.2","","""event"",""trial"",""time""
""fullscreenenter"",""1"",""2029""
","
","
","""event"",""trial"",""time""
""fullscreenenter"",""1"",""2029""
","
","","","433","","","22","17879","6769","d","elianto","#3366ff99","-1"," ","0","0","[1284]","1","3","","","17879","153","1","2","win","no-go","0"
"pit-trial","273","1528328","0.0-159.0","battery-v0.2","","""event"",""trial"",""time""
""fullscreenenter"",""1"",""2029""
","
","
","""event"",""trial"",""time""
""fullscreenenter"",""1"",""2029""
","
","","","465","","","22","17879","6769","e","elianto","#f73b6a7A"," "," ","1","0","[1317]","1","3","","","17879","154","2","3","lose","go","0"
"pit-trial","274","1531619","0.0-160.0","battery-v0.2","","""event"",""trial"",""time""
""fullscreenenter"",""1"",""2029""
","
","
","""event"",""trial"",""time""
""fullscreenenter"",""1"",""2029""
","
","","","434","","","22","17879","6769","j","elianto","#f73b6a7A"," "," ","1","0","[1285]","1","3","","","17879","155","0","3","lose","go","0"
"pit-trial","275","1536478","0.0-161.0","battery-v0.2","","""event"",""trial"",""time""
""fullscreenenter"",""1"",""2029""
","
","
","""event"",""trial"",""time""
""fullscreenenter"",""1"",""2029""
","
","","","-1","","","22","17879","6769","w","elianto","#f73b6a7A","-1","-1","1","0","[]","0","3","","","17879","156","3","4","lose","no-go","0"
"pit-trial","276","1539780","0.0-162.0","battery-v0.2","","""event"",""trial"",""time""
""fullscreenenter"",""1"",""2029""
","
","
","""event"",""trial"",""time""
""fullscreenenter"",""1"",""2029""
","
","","","443","","","22","17879","6769","d","elianto","#3366ff99","-1"," ","0","0","[1295]","1","3","","","17879","157","1","2","win","no-go","0"
"pit-trial","277","1543071","0.0-163.0","battery-v0.2","","""event"",""trial"",""time""
""fullscreenenter"",""1"",""2029""
","
","
","""event"",""trial"",""time""
""fullscreenenter"",""1"",""2029""
","
","","","435","","","22","17879","6769","e","elianto","#f73b6a7A"," "," ","1","0","[1285]","1","3","","","17879","158","2","3","lose","go","0"
"pit-trial","278","1546370","0.0-164.0","battery-v0.2","","""event"",""trial"",""time""
