"trial_type","trial_index","time_elapsed","internal_node_id","task_version","subject_id","interactions","blur_events","focus_events","fullscreenenter_events","fullscreenexit_events","success","view_history","rt","responses","num_errors","age","subject","participantId","rune","rune_set","hex","correct","choice","accuracy","outcome","keys","total_keys","block","practice","value","sub","trial","stimulus","robot","valence","action","sham"
"pavlovia","0","46","0.0-0.0","battery-v0.2","","""event"",""trial"",""time""
""blur"",""1"",""3784""
""focus"",""1"",""15086""
""fullscreenenter"",""1"",""33488""
","""event"",""trial"",""time""
""blur"",""1"",""3784""
","""event"",""trial"",""time""
""focus"",""1"",""15086""
","""event"",""trial"",""time""
""fullscreenenter"",""1"",""33488""
","
","","","","","","","","","","","","","","","","","","","","","","","","","","",""
"fullscreen","1","34479","0.0-1.0","battery-v0.2","","""event"",""trial"",""time""
""blur"",""1"",""3784""
""focus"",""1"",""15086""
""fullscreenenter"",""1"",""33488""
","""event"",""trial"",""time""
""blur"",""1"",""3784""
","""event"",""trial"",""time""
""focus"",""1"",""15086""
","""event"",""trial"",""time""
""fullscreenenter"",""1"",""33488""
","
","true","","","","","","","","","","","","","","","","","","","","","","","","","",""
"pit-instructions","2","40365","0.0-2.0-0.0","battery-v0.2","","""event"",""trial"",""time""
""blur"",""1"",""3784""
""focus"",""1"",""15086""
""fullscreenenter"",""1"",""33488""
","""event"",""trial"",""time""
""blur"",""1"",""3784""
","""event"",""trial"",""time""
""focus"",""1"",""15086""
","""event"",""trial"",""time""
""fullscreenenter"",""1"",""33488""
","
","","[{""page_index"":0,""viewing_time"":5882.900000000023}]","5883.20000000007","","","","","","","","","","","","","","","","","","","","","","","",""
"pit-comprehension","3","43205","0.0-2.0-1.0-0.0","battery-v0.2","","""event"",""trial"",""time""
""blur"",""1"",""3784""
""focus"",""1"",""15086""
""fullscreenenter"",""1"",""33488""
","""event"",""trial"",""time""
""blur"",""1"",""3784""
","""event"",""trial"",""time""
""focus"",""1"",""15086""
","""event"",""trial"",""time""
""fullscreenenter"",""1"",""33488""
","
","","","2836.70000000007","[""shark""]","0","18","9996","4683","","","","","","","","","","","","","","","","","","",""
"pit-instructions","4","57689","0.0-2.0-1.0-1.0","battery-v0.2","","""event"",""trial"",""time""
""blur"",""1"",""3784""
""focus"",""1"",""15086""
""fullscreenenter"",""1"",""33488""
","""event"",""trial"",""time""
""blur"",""1"",""3784""
","""event"",""trial"",""time""
""focus"",""1"",""15086""
","""event"",""trial"",""time""
""fullscreenenter"",""1"",""33488""
","
","","[{""page_index"":0,""viewing_time"":14477}]","14477.20000000007","","","","","","","","","","","","","","","","","","","","","","","",""
"pit-comprehension","5","59863","0.0-2.0-2.0-0.0","battery-v0.2","","""event"",""trial"",""time""
""blur"",""1"",""3784""
""focus"",""1"",""15086""
""fullscreenenter"",""1"",""33488""
","""event"",""trial"",""time""
""blur"",""1"",""3784""
","""event"",""trial"",""time""
""focus"",""1"",""15086""
","""event"",""trial"",""time""
""fullscreenenter"",""1"",""33488""
","
","","","2171.9000000000233","[""tiger""]","0","18","9996","4683","","","","","","","","","","","","","","","","","","",""
"pit-instructions","6","62548","0.0-2.0-2.0-1.0","battery-v0.2","","""event"",""trial"",""time""
""blur"",""1"",""3784""
""focus"",""1"",""15086""
""fullscreenenter"",""1"",""33488""
","""event"",""trial"",""time""
""blur"",""1"",""3784""
","""event"",""trial"",""time""
""focus"",""1"",""15086""
","""event"",""trial"",""time""
""fullscreenenter"",""1"",""33488""
","
","","[{""page_index"":0,""viewing_time"":2682.0999999999767}]","2682.3000000000466","","","","","","","","","","","","","","","","","","","","","","","",""
"pit-instructions","7","158348","0.0-2.0-3.0","battery-v0.2","","""event"",""trial"",""time""
""blur"",""1"",""3784""
""focus"",""1"",""15086""
""fullscreenenter"",""1"",""33488""
","""event"",""trial"",""time""
""blur"",""1"",""3784""
","""event"",""trial"",""time""
""focus"",""1"",""15086""
","""event"",""trial"",""time""
""fullscreenenter"",""1"",""33488""
","
","","[{""page_index"":0,""viewing_time"":8782.900000000023},{""page_index"":1,""viewing_time"":5630},{""page_index"":2,""viewing_time"":7550.900000000023},{""page_index"":3,""viewing_time"":5114.400000000023},{""page_index"":4,""viewing_time"":5407.099999999977},{""page_index"":5,""viewing_time"":5287.400000000023},{""page_index"":6,""viewing_time"":6843.5},{""page_index"":7,""viewing_time"":6294.900000000023},{""page_index"":8,""viewing_time"":7199.29999999993},{""page_index"":9,""viewing_time"":8979.900000000023},{""page_index"":10,""viewing_time"":8693.099999999977},{""page_index"":11,""viewing_time"":7346.099999999977},{""page_index"":12,""viewing_time"":7096.900000000023},{""page_index"":13,""viewing_time"":5570.5}]","95797.1000000001","","","","","","","","","","","","","","","","","","","","","","","",""
"pit-trial","8","161880","0.0-2.0-4.0-0.0","battery-v0.2","","""event"",""trial"",""time""
""blur"",""1"",""3784""
""focus"",""1"",""15086""
""fullscreenenter"",""1"",""33488""
","""event"",""trial"",""time""
""blur"",""1"",""3784""
","""event"",""trial"",""time""
""focus"",""1"",""15086""
","""event"",""trial"",""time""
""fullscreenenter"",""1"",""33488""
","
","","","675.4000000000233","","","18","9996","4683","&#9784;","elianto","#FFFFF080"," "," ","1","&#10004","[1529.1000000000931]","1","0","0","","","","","","","",""
"pit-trial","9","165497","0.0-2.0-4.1-0.1","battery-v0.2","","""event"",""trial"",""time""
""blur"",""1"",""3784""
""focus"",""1"",""15086""
""fullscreenenter"",""1"",""33488""
","""event"",""trial"",""time""
""blur"",""1"",""3784""
","""event"",""trial"",""time""
""focus"",""1"",""15086""
","""event"",""trial"",""time""
""fullscreenenter"",""1"",""33488""
","
","","","752.5","","","18","9996","4683","&#9784;","elianto","#FFFFF080"," "," ","1","&#10004","[1606.6000000000931]","1","0","0","","","","","","","",""
"pit-trial","10","169104","0.0-2.0-4.2-0.2","battery-v0.2","","""event"",""trial"",""time""
""blur"",""1"",""3784""
""focus"",""1"",""15086""
""fullscreenenter"",""1"",""33488""
","""event"",""trial"",""time""
""blur"",""1"",""3784""
","""event"",""trial"",""time""
""focus"",""1"",""15086""
","""event"",""trial"",""time""
""fullscreenenter"",""1"",""33488""
","
","","","742.7999999999302","","","18","9996","4683","&#9784;","elianto","#FFFFF080"," "," ","1","&#10004","[1596.3999999999069]","1","0","0","","","","","","","",""
"pit-trial","11","172696","0.0-2.0-4.3-0.3","battery-v0.2","","""event"",""trial"",""time""
""blur"",""1"",""3784""
""focus"",""1"",""15086""
""fullscreenenter"",""1"",""33488""
","""event"",""trial"",""time""
""blur"",""1"",""3784""
","""event"",""trial"",""time""
""focus"",""1"",""15086""
","""event"",""trial"",""time""
""fullscreenenter"",""1"",""33488""
","
","","","728.0999999999767","","","18","9996","4683","&#9784;","elianto","#FFFFF080"," "," ","1","&#10004","[1582.4000000000233]","1","0","0","","","","","","","",""
"pit-trial","12","176232","0.0-2.0-4.4-0.4","battery-v0.2","","""event"",""trial"",""time""
""blur"",""1"",""3784""
""focus"",""1"",""15086""
""fullscreenenter"",""1"",""33488""
","""event"",""trial"",""time""
""blur"",""1"",""3784""
","""event"",""trial"",""time""
""focus"",""1"",""15086""
","""event"",""trial"",""time""
""fullscreenenter"",""1"",""33488""
","
","","","675.6999999999534","","","18","9996","4683","&#9784;","elianto","#FFFFF080"," "," ","1","&#10004","[1529.2000000000698]","1","0","0","","","","","","","",""
"pit-instructions","13","197791","0.0-2.0-5.0","battery-v0.2","","""event"",""trial"",""time""
""blur"",""1"",""3784""
""focus"",""1"",""15086""
""fullscreenenter"",""1"",""33488""
","""event"",""trial"",""time""
""blur"",""1"",""3784""
","""event"",""trial"",""time""
""focus"",""1"",""15086""
","""event"",""trial"",""time""
""fullscreenenter"",""1"",""33488""
","
","","[{""page_index"":0,""viewing_time"":5518.5},{""page_index"":1,""viewing_time"":5335.5},{""page_index"":2,""viewing_time"":5351.099999999977},{""page_index"":3,""viewing_time"":5351}]","21556.300000000047","","","","","","","","","","","","","","","","","","","","","","","",""
"pit-trial","14","202657","0.0-2.0-6.0-0.0","battery-v0.2","","""event"",""trial"",""time""
""blur"",""1"",""3784""
""focus"",""1"",""15086""
""fullscreenenter"",""1"",""33488""
","""event"",""trial"",""time""
""blur"",""1"",""3784""
","""event"",""trial"",""time""
""focus"",""1"",""15086""
","""event"",""trial"",""time""
""fullscreenenter"",""1"",""33488""
","
","","","-1","","","18","9996","4683","&#9854;","elianto","#FFFFF080","-1","-1","1","&#10004","[]","0","0","1","","","","","","","",""
"pit-trial","15","207521","0.0-2.0-6.1-0.1","battery-v0.2","","""event"",""trial"",""time""
""blur"",""1"",""3784""
""focus"",""1"",""15086""
""fullscreenenter"",""1"",""33488""
","""event"",""trial"",""time""
""blur"",""1"",""3784""
","""event"",""trial"",""time""
""focus"",""1"",""15086""
","""event"",""trial"",""time""
""fullscreenenter"",""1"",""33488""
","
","","","-1","","","18","9996","4683","&#9854;","elianto","#FFFFF080","-1","-1","1","&#10004","[]","0","0","1","","","","","","","",""
"pit-trial","16","212386","0.0-2.0-6.2-0.2","battery-v0.2","","""event"",""trial"",""time""
""blur"",""1"",""3784""
""focus"",""1"",""15086""
""fullscreenenter"",""1"",""33488""
","""event"",""trial"",""time""
""blur"",""1"",""3784""
","""event"",""trial"",""time""
""focus"",""1"",""15086""
","""event"",""trial"",""time""
""fullscreenenter"",""1"",""33488""
","
","","","-1","","","18","9996","4683","&#9854;","elianto","#FFFFF080","-1","-1","1","&#10004","[]","0","0","1","","","","","","","",""
"pit-trial","17","217250","0.0-2.0-6.3-0.3","battery-v0.2","","""event"",""trial"",""time""
""blur"",""1"",""3784""
""focus"",""1"",""15086""
""fullscreenenter"",""1"",""33488""
","""event"",""trial"",""time""
""blur"",""1"",""3784""
","""event"",""trial"",""time""
""focus"",""1"",""15086""
","""event"",""trial"",""time""
""fullscreenenter"",""1"",""33488""
","
","","","-1","","","18","9996","4683","&#9854;","elianto","#FFFFF080","-1","-1","1","&#10004","[]","0","0","1","","","","","","","",""
"pit-trial","18","222113","0.0-2.0-6.4-0.4","battery-v0.2","","""event"",""trial"",""time""
""blur"",""1"",""3784""
""focus"",""1"",""15086""
""fullscreenenter"",""1"",""33488""
","""event"",""trial"",""time""
""blur"",""1"",""3784""
","""event"",""trial"",""time""
""focus"",""1"",""15086""
","""event"",""trial"",""time""
""fullscreenenter"",""1"",""33488""
","
","","","-1","","","18","9996","4683","&#9854;","elianto","#FFFFF080","-1","-1","1","&#10004","[]","0","0","1","","","","","","","",""
"pit-instructions","19","334654","0.0-2.0-7.0","battery-v0.2","","""event"",""trial"",""time""
""blur"",""1"",""3784""
""focus"",""1"",""15086""
""fullscreenenter"",""1"",""33488""
","""event"",""trial"",""time""
""blur"",""1"",""3784""
","""event"",""trial"",""time""
""focus"",""1"",""15086""
","""event"",""trial"",""time""
""fullscreenenter"",""1"",""33488""
","
","","[{""page_index"":0,""viewing_time"":5812.29999999993},{""page_index"":1,""viewing_time"":6428.5},{""page_index"":2,""viewing_time"":5699.70000000007},{""page_index"":3,""viewing_time"":7012.79999999993},{""page_index"":4,""viewing_time"":5508.400000000023},{""page_index"":5,""viewing_time"":5685.599999999977},{""page_index"":6,""viewing_time"":4572.800000000047},{""page_index"":7,""viewing_time"":7635.400000000023},{""page_index"":8,""viewing_time"":6274},{""page_index"":9,""viewing_time"":6068},{""page_index"":10,""viewing_time"":6803.79999999993},{""page_index"":11,""viewing_time"":4773.300000000047},{""page_index"":12,""viewing_time"":6795.5},{""page_index"":13,""viewing_time"":6829.400000000023},{""page_index"":14,""viewing_time"":7326.199999999953},{""page_index"":15,""viewing_time"":6019.300000000047},{""page_index"":16,""viewing_time"":6146.699999999953},{""page_index"":17,""viewing_time"":7145.800000000047}]","112537.69999999995","","","","","","","","","","","","","","","","","","","","","","","",""
"pit-trial","20","338371","0.0-2.0-8.0-0.0","battery-v0.2","","""event"",""trial"",""time""
""blur"",""1"",""3784""
""focus"",""1"",""15086""
""fullscreenenter"",""1"",""33488""
","""event"",""trial"",""time""
""blur"",""1"",""3784""
","""event"",""trial"",""time""
""focus"",""1"",""15086""
","""event"",""trial"",""time""
""fullscreenenter"",""1"",""33488""
","
","","","848","","","18","9996","4683","&#9776;","elianto","#3366ff99"," "," ","1","+10","[1706.5999999999767]","1","0","1","","","","","","","",""
"pit-trial","21","341850","0.0-2.0-8.0-1.0","battery-v0.2","","""event"",""trial"",""time""
""blur"",""1"",""3784""
""focus"",""1"",""15086""
""fullscreenenter"",""1"",""33488""
","""event"",""trial"",""time""
""blur"",""1"",""3784""
","""event"",""trial"",""time""
""focus"",""1"",""15086""
","""event"",""trial"",""time""
""fullscreenenter"",""1"",""33488""
","
","","","615.6000000000931","","","18","9996","4683","&#9776;","elianto","#3366ff99"," "," ","1","+10","[1470.8000000000466]","1","0","1","","","","","","","",""
"pit-trial","22","345427","0.0-2.0-8.0-2.0","battery-v0.2","","""event"",""trial"",""time""
""blur"",""1"",""3784""
""focus"",""1"",""15086""
""fullscreenenter"",""1"",""33488""
","""event"",""trial"",""time""
""blur"",""1"",""3784""
","""event"",""trial"",""time""
""focus"",""1"",""15086""
","""event"",""trial"",""time""
""fullscreenenter"",""1"",""33488""
","
","","","716.1000000000931","","","18","9996","4683","&#9776;","elianto","#3366ff99"," "," ","1","+10","[1571.7000000000698]","1","0","1","","","","","","","",""
"pit-trial","23","348794","0.0-2.0-8.0-3.0","battery-v0.2","","""event"",""trial"",""time""
""blur"",""1"",""3784""
""focus"",""1"",""15086""
""fullscreenenter"",""1"",""33488""
","""event"",""trial"",""time""
""blur"",""1"",""3784""
","""event"",""trial"",""time""
""focus"",""1"",""15086""
","""event"",""trial"",""time""
""fullscreenenter"",""1"",""33488""
","
","","","508.69999999995343","","","18","9996","4683","&#9776;","elianto","#3366ff99"," "," ","1","0","[1362.6999999999534]","1","0","1","","","","","","","",""
"pit-trial","24","352227","0.0-2.0-8.0-4.0","battery-v0.2","","""event"",""trial"",""time""
""blur"",""1"",""3784""
""focus"",""1"",""15086""
""fullscreenenter"",""1"",""33488""
","""event"",""trial"",""time""
""blur"",""1"",""3784""
","""event"",""trial"",""time""
""focus"",""1"",""15086""
","""event"",""trial"",""time""
""fullscreenenter"",""1"",""33488""
","
","","","567.9000000000233","","","18","9996","4683","&#9776;","elianto","#3366ff99"," "," ","1","+10","[1423.4000000000233]","1","0","1","","","","","","","",""
"pit-trial","25","355578","0.0-2.0-8.1-0.1","battery-v0.2","","""event"",""trial"",""time""
""blur"",""1"",""3784""
""focus"",""1"",""15086""
""fullscreenenter"",""1"",""33488""
","""event"",""trial"",""time""
""blur"",""1"",""3784""
","""event"",""trial"",""time""
""focus"",""1"",""15086""
","""event"",""trial"",""time""
""fullscreenenter"",""1"",""33488""
","
","","","488.5","","","18","9996","4683","&#9776;","elianto","#3366ff99"," "," ","1","+10","[1341.5]","1","0","1","","","","","","","",""
"pit-trial","26","358954","0.0-2.0-8.1-1.1","battery-v0.2","","""event"",""trial"",""time""
""blur"",""1"",""3784""
""focus"",""1"",""15086""
""fullscreenenter"",""1"",""33488""
","""event"",""trial"",""time""
""blur"",""1"",""3784""
","""event"",""trial"",""time""
""focus"",""1"",""15086""
","""event"",""trial"",""time""
""fullscreenenter"",""1"",""33488""
","
","","","519.5999999999767","","","18","9996","4683","&#9776;","elianto","#3366ff99"," "," ","1","+10","[1371.9000000000233]","1","0","1","","","","","","","",""
"pit-trial","27","362275","0.0-2.0-8.1-2.1","battery-v0.2","","""event"",""trial"",""time""
""blur"",""1"",""3784""
""focus"",""1"",""15086""
""fullscreenenter"",""1"",""33488""
","""event"",""trial"",""time""
""blur"",""1"",""3784""
","""event"",""trial"",""time""
""focus"",""1"",""15086""
","""event"",""trial"",""time""
""fullscreenenter"",""1"",""33488""
","
","","","457.4000000000233","","","18","9996","4683","&#9776;","elianto","#3366ff99"," "," ","1","+10","[1311.9000000000233]","1","0","1","","","","","","","",""
"pit-trial","28","365555","0.0-2.0-8.1-3.1","battery-v0.2","","""event"",""trial"",""time""
""blur"",""1"",""3784""
""focus"",""1"",""15086""
""fullscreenenter"",""1"",""33488""
","""event"",""trial"",""time""
""blur"",""1"",""3784""
","""event"",""trial"",""time""
""focus"",""1"",""15086""
","""event"",""trial"",""time""
""fullscreenenter"",""1"",""33488""
","
","","","415.30000000004657","","","18","9996","4683","&#9776;","elianto","#3366ff99"," "," ","1","0","[1269.6999999999534]","1","0","1","","","","","","","",""
"pit-trial","29","368787","0.0-2.0-8.1-4.1","battery-v0.2","","""event"",""trial"",""time""
""blur"",""1"",""3784""
""focus"",""1"",""15086""
""fullscreenenter"",""1"",""33488""
","""event"",""trial"",""time""
""blur"",""1"",""3784""
","""event"",""trial"",""time""
""focus"",""1"",""15086""
","""event"",""trial"",""time""
""fullscreenenter"",""1"",""33488""
","
","","","367.20000000006985","","","18","9996","4683","&#9776;","elianto","#3366ff99"," "," ","1","+10","[1221]","1","0","1","","","","","","","",""
"pit-trial","30","372027","0.0-2.0-8.2-0.2","battery-v0.2","","""event"",""trial"",""time""
""blur"",""1"",""3784""
""focus"",""1"",""15086""
""fullscreenenter"",""1"",""33488""
","""event"",""trial"",""time""
""blur"",""1"",""3784""
","""event"",""trial"",""time""
""focus"",""1"",""15086""
","""event"",""trial"",""time""
""fullscreenenter"",""1"",""33488""
","
","","","380.5","","","18","9996","4683","&#9776;","elianto","#3366ff99"," "," ","1","+10","[1235.2000000000698]","1","0","1","","","","","","","",""
"pit-trial","31","375284","0.0-2.0-8.2-1.2","battery-v0.2","","""event"",""trial"",""time""
""blur"",""1"",""3784""
""focus"",""1"",""15086""
""fullscreenenter"",""1"",""33488""
","""event"",""trial"",""time""
""blur"",""1"",""3784""
","""event"",""trial"",""time""
""focus"",""1"",""15086""
","""event"",""trial"",""time""
""fullscreenenter"",""1"",""33488""
","
","","","399.5999999999767","","","18","9996","4683","&#9776;","elianto","#3366ff99"," "," ","1","+10","[1252.0999999999767]","1","0","1","","","","","","","",""
"pit-trial","32","378498","0.0-2.0-8.2-2.2","battery-v0.2","","""event"",""trial"",""time""
""blur"",""1"",""3784""
""focus"",""1"",""15086""
""fullscreenenter"",""1"",""33488""
","""event"",""trial"",""time""
""blur"",""1"",""3784""
","""event"",""trial"",""time""
""focus"",""1"",""15086""
","""event"",""trial"",""time""
""fullscreenenter"",""1"",""33488""
","
","","","353.80000000004657","","","18","9996","4683","&#9776;","elianto","#3366ff99"," "," ","1","+10","[1208.4000000000233]","1","0","1","","","","","","","",""
"pit-trial","33","381707","0.0-2.0-8.2-3.2","battery-v0.2","","""event"",""trial"",""time""
""blur"",""1"",""3784""
""focus"",""1"",""15086""
""fullscreenenter"",""1"",""33488""
","""event"",""trial"",""time""
""blur"",""1"",""3784""
","""event"",""trial"",""time""
""focus"",""1"",""15086""
","""event"",""trial"",""time""
""fullscreenenter"",""1"",""33488""
","
","","","344.9000000000233","","","18","9996","4683","&#9776;","elianto","#3366ff99"," "," ","1","0","[1201.3000000000466]","1","0","1","","","","","","","",""
"pit-trial","34","384956","0.0-2.0-8.2-4.2","battery-v0.2","","""event"",""trial"",""time""
""blur"",""1"",""3784""
""focus"",""1"",""15086""
""fullscreenenter"",""1"",""33488""
","""event"",""trial"",""time""
""blur"",""1"",""3784""
","""event"",""trial"",""time""
""focus"",""1"",""15086""
","""event"",""trial"",""time""
""fullscreenenter"",""1"",""33488""
","
","","","393.39999999990687","","","18","9996","4683","&#9776;","elianto","#3366ff99"," "," ","1","+10","[1244.2999999998137]","1","0","1","","","","","","","",""
"call-function","35","384957","0.0-2.0-9.0","battery-v0.2","","""event"",""trial"",""time""
""blur"",""1"",""3784""
""focus"",""1"",""15086""
""fullscreenenter"",""1"",""33488""
","""event"",""trial"",""time""
""blur"",""1"",""3784""
","""event"",""trial"",""time""
""focus"",""1"",""15086""
","""event"",""trial"",""time""
""fullscreenenter"",""1"",""33488""
","
","","","","","","","","","","","","","","","","","","","","","","","","","","",""
"pit-instructions","36","431297","0.0-2.0-10.0","battery-v0.2","","""event"",""trial"",""time""
""blur"",""1"",""3784""
""focus"",""1"",""15086""
""fullscreenenter"",""1"",""33488""
","""event"",""trial"",""time""
""blur"",""1"",""3784""
","""event"",""trial"",""time""
""focus"",""1"",""15086""
","""event"",""trial"",""time""
""fullscreenenter"",""1"",""33488""
","
","","[{""page_index"":0,""viewing_time"":9785.600000000093},{""page_index"":1,""viewing_time"":9945.699999999953},{""page_index"":2,""viewing_time"":9181.5},{""page_index"":3,""viewing_time"":9434.699999999953},{""page_index"":4,""viewing_time"":7990.800000000047}]","46338.5","","","","","","","","","","","","","","","","","","","","","","","",""
"pit-trial","37","434892","0.0-2.0-11.0-0.0","battery-v0.2","","""event"",""trial"",""time""
""blur"",""1"",""3784""
""focus"",""1"",""15086""
""fullscreenenter"",""1"",""33488""
","""event"",""trial"",""time""
""blur"",""1"",""3784""
","""event"",""trial"",""time""
""focus"",""1"",""15086""
","""event"",""trial"",""time""
""fullscreenenter"",""1"",""33488""
","
","","","732","","","18","9996","4683","&#9761;","elianto","#3366ff99","-1"," ","0","0","[1586.5]","1","0","2","","","","","","","",""
"pit-trial","38","439756","0.0-2.0-11.0-1.0","battery-v0.2","","""event"",""trial"",""time""
""blur"",""1"",""3784""
""focus"",""1"",""15086""
""fullscreenenter"",""1"",""33488""
","""event"",""trial"",""time""
""blur"",""1"",""3784""
","""event"",""trial"",""time""
""focus"",""1"",""15086""
","""event"",""trial"",""time""
""fullscreenenter"",""1"",""33488""
","
","","","-1","","","18","9996","4683","&#9761;","elianto","#3366ff99","-1","-1","1","+10","[]","0","0","2","","","","","","","",""
"pit-trial","39","443268","0.0-2.0-11.0-2.0","battery-v0.2","","""event"",""trial"",""time""
""blur"",""1"",""3784""
""focus"",""1"",""15086""
""fullscreenenter"",""1"",""33488""
","""event"",""trial"",""time""
""blur"",""1"",""3784""
","""event"",""trial"",""time""
""focus"",""1"",""15086""
","""event"",""trial"",""time""
""fullscreenenter"",""1"",""33488""
","
","","","650.9000000001397","","","18","9996","4683","&#9761;","elianto","#3366ff99","-1"," ","0","0","[1504.8000000000466]","1","0","2","","","","","","","",""
"pit-trial","40","446516","0.0-2.0-11.0-3.0","battery-v0.2","","""event"",""trial"",""time""
""blur"",""1"",""3784""
""focus"",""1"",""15086""
""fullscreenenter"",""1"",""33488""
","""event"",""trial"",""time""
""blur"",""1"",""3784""
","""event"",""trial"",""time""
""focus"",""1"",""15086""
","""event"",""trial"",""time""
""fullscreenenter"",""1"",""33488""
","
","","","386.69999999995343","","","18","9996","4683","&#9761;","elianto","#3366ff99","-1"," ","0","+10","[1241.3999999999069]","1","0","2","","","","","","","",""
"pit-trial","41","451380","0.0-2.0-11.0-4.0","battery-v0.2","","""event"",""trial"",""time""
""blur"",""1"",""3784""
""focus"",""1"",""15086""
""fullscreenenter"",""1"",""33488""
","""event"",""trial"",""time""
""blur"",""1"",""3784""
","""event"",""trial"",""time""
""focus"",""1"",""15086""
","""event"",""trial"",""time""
""fullscreenenter"",""1"",""33488""
","
","","","-1","","","18","9996","4683","&#9761;","elianto","#3366ff99","-1","-1","1","+10","[]","0","0","2","","","","","","","",""
"pit-trial","42","454659","0.0-2.0-11.1-0.1","battery-v0.2","","""event"",""trial"",""time""
""blur"",""1"",""3784""
""focus"",""1"",""15086""
""fullscreenenter"",""1"",""33488""
","""event"",""trial"",""time""
""blur"",""1"",""3784""
","""event"",""trial"",""time""
""focus"",""1"",""15086""
","""event"",""trial"",""time""
""fullscreenenter"",""1"",""33488""
","
","","","422.19999999995343","","","18","9996","4683","&#9761;","elianto","#3366ff99","-1"," ","0","0","[1275.8000000000466]","1","0","2","","","","","","","",""
"pit-trial","43","457748","0.0-2.0-11.1-1.1","battery-v0.2","","""event"",""trial"",""time""
""blur"",""1"",""3784""
""focus"",""1"",""15086""
""fullscreenenter"",""1"",""33488""
","""event"",""trial"",""time""
""blur"",""1"",""3784""
","""event"",""trial"",""time""
""focus"",""1"",""15086""
","""event"",""trial"",""time""
""fullscreenenter"",""1"",""33488""
","
","","","229.10000000009313","","","18","9996","4683","&#9761;","elianto","#3366ff99","-1"," ","0","0","[1083.8000000000466]","1","0","2","","","","","","","",""
"pit-trial","44","460765","0.0-2.0-11.1-2.1","battery-v0.2","","""event"",""trial"",""time""
""blur"",""1"",""3784""
""focus"",""1"",""15086""
""fullscreenenter"",""1"",""33488""
","""event"",""trial"",""time""
""blur"",""1"",""3784""
","""event"",""trial"",""time""
""focus"",""1"",""15086""
","""event"",""trial"",""time""
""fullscreenenter"",""1"",""33488""
","
","","","160.39999999990687","","","18","9996","4683","&#9761;","elianto","#3366ff99","-1"," ","0","0","[1013.6999999999534]","1","0","2","","","","","","","",""
"pit-trial","45","464125","0.0-2.0-11.1-3.1","battery-v0.2","","""event"",""trial"",""time""
""blur"",""1"",""3784""
""focus"",""1"",""15086""
""fullscreenenter"",""1"",""33488""
","""event"",""trial"",""time""
""blur"",""1"",""3784""
","""event"",""trial"",""time""
""focus"",""1"",""15086""
","""event"",""trial"",""time""
""fullscreenenter"",""1"",""33488""
","
","","","495.5","","","18","9996","4683","&#9761;","elianto","#3366ff99","-1"," ","0","+10","[1349.1999999999534]","1","0","2","","","","","","","",""
"pit-trial","46","467461","0.0-2.0-11.1-4.1","battery-v0.2","","""event"",""trial"",""time""
""blur"",""1"",""3784""
""focus"",""1"",""15086""
""fullscreenenter"",""1"",""33488""
","""event"",""trial"",""time""
""blur"",""1"",""3784""
","""event"",""trial"",""time""
""focus"",""1"",""15086""
","""event"",""trial"",""time""
""fullscreenenter"",""1"",""33488""
","
","","","477.30000000004657","","","18","9996","4683","&#9761;","elianto","#3366ff99","-1"," ","0","0","[1330.3000000000466]","1","0","2","","","","","","","",""
"pit-trial","47","470732","0.0-2.0-11.2-0.2","battery-v0.2","","""event"",""trial"",""time""
""blur"",""1"",""3784""
""focus"",""1"",""15086""
""fullscreenenter"",""1"",""33488""
","""event"",""trial"",""time""
""blur"",""1"",""3784""
","""event"",""trial"",""time""
""focus"",""1"",""15086""
","""event"",""trial"",""time""
""fullscreenenter"",""1"",""33488""
","
","","","413.69999999995343","","","18","9996","4683","&#9761;","elianto","#3366ff99","-1"," ","0","0","[1267]","1","0","2","","","","","","","",""
"pit-trial","48","475596","0.0-2.0-11.2-1.2","battery-v0.2","","""event"",""trial"",""time""
""blur"",""1"",""3784""
""focus"",""1"",""15086""
""fullscreenenter"",""1"",""33488""
","""event"",""trial"",""time""
""blur"",""1"",""3784""
","""event"",""trial"",""time""
""focus"",""1"",""15086""
","""event"",""trial"",""time""
""fullscreenenter"",""1"",""33488""
","
","","","-1","","","18","9996","4683","&#9761;","elianto","#3366ff99","-1","-1","1","+10","[]","0","0","2","","","","","","","",""
"pit-trial","49","480461","0.0-2.0-11.2-2.2","battery-v0.2","","""event"",""trial"",""time""
""blur"",""1"",""3784""
""focus"",""1"",""15086""
""fullscreenenter"",""1"",""33488""
","""event"",""trial"",""time""
""blur"",""1"",""3784""
","""event"",""trial"",""time""
""focus"",""1"",""15086""
","""event"",""trial"",""time""
""fullscreenenter"",""1"",""33488""
","
","","","-1","","","18","9996","4683","&#9761;","elianto","#3366ff99","-1","-1","1","+10","[]","0","0","2","","","","","","","",""
"pit-trial","50","485325","0.0-2.0-11.2-3.2","battery-v0.2","","""event"",""trial"",""time""
""blur"",""1"",""3784""
""focus"",""1"",""15086""
""fullscreenenter"",""1"",""33488""
","""event"",""trial"",""time""
""blur"",""1"",""3784""
","""event"",""trial"",""time""
""focus"",""1"",""15086""
","""event"",""trial"",""time""
""fullscreenenter"",""1"",""33488""
","
","","","-1","","","18","9996","4683","&#9761;","elianto","#3366ff99","-1","-1","1","0","[]","0","0","2","","","","","","","",""
"pit-trial","51","490189","0.0-2.0-11.2-4.2","battery-v0.2","","""event"",""trial"",""time""
""blur"",""1"",""3784""
""focus"",""1"",""15086""
""fullscreenenter"",""1"",""33488""
","""event"",""trial"",""time""
""blur"",""1"",""3784""
","""event"",""trial"",""time""
""focus"",""1"",""15086""
","""event"",""trial"",""time""
""fullscreenenter"",""1"",""33488""
","
","","","-1","","","18","9996","4683","&#9761;","elianto","#3366ff99","-1","-1","1","+10","[]","0","0","2","","","","","","","",""
"pit-trial","52","494252","0.0-2.0-11.3-0.3","battery-v0.2","","""event"",""trial"",""time""
""blur"",""1"",""3784""
""focus"",""1"",""15086""
""fullscreenenter"",""1"",""33488""
","""event"",""trial"",""time""
""blur"",""1"",""3784""
","""event"",""trial"",""time""
""focus"",""1"",""15086""
","""event"",""trial"",""time""
""fullscreenenter"",""1"",""33488""
","
","","","1201","","","18","9996","4683","&#9761;","elianto","#3366ff99","-1"," ","0","0","[2054.5]","1","0","2","","","","","","","",""
"pit-trial","53","497485","0.0-2.0-11.3-1.3","battery-v0.2","","""event"",""trial"",""time""
""blur"",""1"",""3784""
""focus"",""1"",""15086""
""fullscreenenter"",""1"",""33488""
","""event"",""trial"",""time""
""blur"",""1"",""3784""
","""event"",""trial"",""time""
""focus"",""1"",""15086""
","""event"",""trial"",""time""
""fullscreenenter"",""1"",""33488""
","
","","","372.5","","","18","9996","4683","&#9761;","elianto","#3366ff99","-1"," ","0","0","[1227.5]","1","0","2","","","","","","","",""
"pit-trial","54","500981","0.0-2.0-11.3-2.3","battery-v0.2","","""event"",""trial"",""time""
""blur"",""1"",""3784""
""focus"",""1"",""15086""
""fullscreenenter"",""1"",""33488""
","""event"",""trial"",""time""
""blur"",""1"",""3784""
","""event"",""trial"",""time""
""focus"",""1"",""15086""
","""event"",""trial"",""time""
""fullscreenenter"",""1"",""33488""
","
","","","637.2000000001863","","","18","9996","4683","&#9761;","elianto","#3366ff99","-1"," ","0","0","[1491.5]","1","0","2","","","","","","","",""
"pit-trial","55","505845","0.0-2.0-11.3-3.3","battery-v0.2","","""event"",""trial"",""time""
""blur"",""1"",""3784""
""focus"",""1"",""15086""
""fullscreenenter"",""1"",""33488""
","""event"",""trial"",""time""
""blur"",""1"",""3784""
","""event"",""trial"",""time""
""focus"",""1"",""15086""
","""event"",""trial"",""time""
""fullscreenenter"",""1"",""33488""
","
","","","-1","","","18","9996","4683","&#9761;","elianto","#3366ff99","-1","-1","1","0","[]","0","0","2","","","","","","","",""
"pit-trial","56","510709","0.0-2.0-11.3-4.3","battery-v0.2","","""event"",""trial"",""time""
""blur"",""1"",""3784""
""focus"",""1"",""15086""
""fullscreenenter"",""1"",""33488""
","""event"",""trial"",""time""
""blur"",""1"",""3784""
","""event"",""trial"",""time""
""focus"",""1"",""15086""
","""event"",""trial"",""time""
""fullscreenenter"",""1"",""33488""
","
","","","-1","","","18","9996","4683","&#9761;","elianto","#3366ff99","-1","-1","1","+10","[]","0","0","2","","","","","","","",""
"call-function","57","510710","0.0-2.0-12.0","battery-v0.2","","""event"",""trial"",""time""
""blur"",""1"",""3784""
""focus"",""1"",""15086""
""fullscreenenter"",""1"",""33488""
","""event"",""trial"",""time""
""blur"",""1"",""3784""
","""event"",""trial"",""time""
""focus"",""1"",""15086""
","""event"",""trial"",""time""
""fullscreenenter"",""1"",""33488""
","
","","","","","","","","","","","","","","","","","","","","","","","","","","",""
"pit-instructions","58","544460","0.0-2.0-13.0","battery-v0.2","","""event"",""trial"",""time""
""blur"",""1"",""3784""
""focus"",""1"",""15086""
""fullscreenenter"",""1"",""33488""
","""event"",""trial"",""time""
""blur"",""1"",""3784""
","""event"",""trial"",""time""
""focus"",""1"",""15086""
","""event"",""trial"",""time""
""fullscreenenter"",""1"",""33488""
","
","","[{""page_index"":0,""viewing_time"":5687.899999999907},{""page_index"":1,""viewing_time"":7367.5},{""page_index"":2,""viewing_time"":3861.600000000093},{""page_index"":3,""viewing_time"":11105.299999999814},{""page_index"":4,""viewing_time"":5725.800000000047}]","33748.299999999814","","","","","","","","","","","","","","","","","","","","","","","",""
"pit-trial","59","549324","0.0-2.0-14.0-0.0","battery-v0.2","","""event"",""trial"",""time""
""blur"",""1"",""3784""
""focus"",""1"",""15086""
""fullscreenenter"",""1"",""33488""
","""event"",""trial"",""time""
""blur"",""1"",""3784""
","""event"",""trial"",""time""
""focus"",""1"",""15086""
","""event"",""trial"",""time""
""fullscreenenter"",""1"",""33488""
","
","","","-1","","","18","9996","4683","&#9826;","elianto","#f73b6a7A","-1","-1","1","0","[]","0","0","3","","","","","","","",""
"pit-trial","60","554189","0.0-2.0-14.0-1.0","battery-v0.2","","""event"",""trial"",""time""
""blur"",""1"",""3784""
""focus"",""1"",""15086""
""fullscreenenter"",""1"",""33488""
","""event"",""trial"",""time""
""blur"",""1"",""3784""
","""event"",""trial"",""time""
""focus"",""1"",""15086""
","""event"",""trial"",""time""
""fullscreenenter"",""1"",""33488""
","
","","","-1","","","18","9996","4683","&#9826;","elianto","#f73b6a7A","-1","-1","1","0","[]","0","0","3","","","","","","","",""
"pit-trial","61","559053","0.0-2.0-14.0-2.0","battery-v0.2","","""event"",""trial"",""time""
""blur"",""1"",""3784""
""focus"",""1"",""15086""
""fullscreenenter"",""1"",""33488""
","""event"",""trial"",""time""
""blur"",""1"",""3784""
","""event"",""trial"",""time""
""focus"",""1"",""15086""
","""event"",""trial"",""time""
""fullscreenenter"",""1"",""33488""
","
","","","-1","","","18","9996","4683","&#9826;","elianto","#f73b6a7A","-1","-1","1","0","[]","0","0","3","","","","","","","",""
"pit-trial","62","563917","0.0-2.0-14.0-3.0","battery-v0.2","","""event"",""trial"",""time""
""blur"",""1"",""3784""
""focus"",""1"",""15086""
""fullscreenenter"",""1"",""33488""
","""event"",""trial"",""time""
""blur"",""1"",""3784""
","""event"",""trial"",""time""
""focus"",""1"",""15086""
","""event"",""trial"",""time""
""fullscreenenter"",""1"",""33488""
","
","","","-1","","","18","9996","4683","&#9826;","elianto","#f73b6a7A","-1","-1","1","-10","[]","0","0","3","","","","","","","",""
"pit-trial","63","567773","0.0-2.0-14.0-4.0","battery-v0.2","","""event"",""trial"",""time""
""blur"",""1"",""3784""
""focus"",""1"",""15086""
""fullscreenenter"",""1"",""33488""
","""event"",""trial"",""time""
""blur"",""1"",""3784""
","""event"",""trial"",""time""
""focus"",""1"",""15086""
","""event"",""trial"",""time""
""fullscreenenter"",""1"",""33488""
","
","","","998.2999999998137","","","18","9996","4683","&#9826;","elianto","#f73b6a7A","-1"," ","0","-10","[1852.5999999998603]","1","0","3","","","","","","","",""
"pit-trial","64","570781","0.0-2.0-14.1-0.1","battery-v0.2","","""event"",""trial"",""time""
""blur"",""1"",""3784""
""focus"",""1"",""15086""
""fullscreenenter"",""1"",""33488""
","""event"",""trial"",""time""
""blur"",""1"",""3784""
","""event"",""trial"",""time""
""focus"",""1"",""15086""
","""event"",""trial"",""time""
""fullscreenenter"",""1"",""33488""
","
","","","148.60000000009313","","","18","9996","4683","&#9826;","elianto","#f73b6a7A","-1"," ","0","-10","[1002]","1","0","3","","","","","","","",""
"pit-trial","65","575646","0.0-2.0-14.1-1.1","battery-v0.2","","""event"",""trial"",""time""
""blur"",""1"",""3784""
""focus"",""1"",""15086""
""fullscreenenter"",""1"",""33488""
","""event"",""trial"",""time""
""blur"",""1"",""3784""
","""event"",""trial"",""time""
""focus"",""1"",""15086""
","""event"",""trial"",""time""
""fullscreenenter"",""1"",""33488""
","
","","","-1","","","18","9996","4683","&#9826;","elianto","#f73b6a7A","-1","-1","1","0","[]","0","0","3","","","","","","","",""
"pit-trial","66","580510","0.0-2.0-14.1-2.1","battery-v0.2","","""event"",""trial"",""time""
""blur"",""1"",""3784""
""focus"",""1"",""15086""
""fullscreenenter"",""1"",""33488""
","""event"",""trial"",""time""
""blur"",""1"",""3784""
","""event"",""trial"",""time""
""focus"",""1"",""15086""
","""event"",""trial"",""time""
""fullscreenenter"",""1"",""33488""
","
","","","-1","","","18","9996","4683","&#9826;","elianto","#f73b6a7A","-1","-1","1","0","[]","0","0","3","","","","","","","",""
"pit-trial","67","585374","0.0-2.0-14.1-3.1","battery-v0.2","","""event"",""trial"",""time""
""blur"",""1"",""3784""
""focus"",""1"",""15086""
""fullscreenenter"",""1"",""33488""
","""event"",""trial"",""time""
""blur"",""1"",""3784""
","""event"",""trial"",""time""
""focus"",""1"",""15086""
","""event"",""trial"",""time""
""fullscreenenter"",""1"",""33488""
","
","","","-1","","","18","9996","4683","&#9826;","elianto","#f73b6a7A","-1","-1","1","-10","[]","0","0","3","","","","","","","",""
"pit-trial","68","590238","0.0-2.0-14.1-4.1","battery-v0.2","","""event"",""trial"",""time""
""blur"",""1"",""3784""
""focus"",""1"",""15086""
""fullscreenenter"",""1"",""33488""
","""event"",""trial"",""time""
""blur"",""1"",""3784""
","""event"",""trial"",""time""
""focus"",""1"",""15086""
","""event"",""trial"",""time""
""fullscreenenter"",""1"",""33488""
","
","","","-1","","","18","9996","4683","&#9826;","elianto","#f73b6a7A","-1","-1","1","0","[]","0","0","3","","","","","","","",""
"pit-trial","69","595101","0.0-2.0-14.2-0.2","battery-v0.2","","""event"",""trial"",""time""
""blur"",""1"",""3784""
""focus"",""1"",""15086""
""fullscreenenter"",""1"",""33488""
","""event"",""trial"",""time""
""blur"",""1"",""3784""
","""event"",""trial"",""time""
""focus"",""1"",""15086""
","""event"",""trial"",""time""
""fullscreenenter"",""1"",""33488""
","
","","","-1","","","18","9996","4683","&#9826;","elianto","#f73b6a7A","-1","-1","1","0","[]","0","0","3","","","","","","","",""
"pit-trial","70","599966","0.0-2.0-14.2-1.2","battery-v0.2","","""event"",""trial"",""time""
""blur"",""1"",""3784""
""focus"",""1"",""15086""
""fullscreenenter"",""1"",""33488""
","""event"",""trial"",""time""
""blur"",""1"",""3784""
","""event"",""trial"",""time""
""focus"",""1"",""15086""
","""event"",""trial"",""time""
""fullscreenenter"",""1"",""33488""
","
","","","-1","","","18","9996","4683","&#9826;","elianto","#f73b6a7A","-1","-1","1","0","[]","0","0","3","","","","","","","",""
"pit-trial","71","604830","0.0-2.0-14.2-2.2","battery-v0.2","","""event"",""trial"",""time""
""blur"",""1"",""3784""
""focus"",""1"",""15086""
""fullscreenenter"",""1"",""33488""
","""event"",""trial"",""time""
""blur"",""1"",""3784""
","""event"",""trial"",""time""
""focus"",""1"",""15086""
","""event"",""trial"",""time""
""fullscreenenter"",""1"",""33488""
","
","","","-1","","","18","9996","4683","&#9826;","elianto","#f73b6a7A","-1","-1","1","0","[]","0","0","3","","","","","","","",""
"pit-trial","72","609694","0.0-2.0-14.2-3.2","battery-v0.2","","""event"",""trial"",""time""
""blur"",""1"",""3784""
""focus"",""1"",""15086""
""fullscreenenter"",""1"",""33488""
","""event"",""trial"",""time""
""blur"",""1"",""3784""
","""event"",""trial"",""time""
""focus"",""1"",""15086""
","""event"",""trial"",""time""
""fullscreenenter"",""1"",""33488""
","
","","","-1","","","18","9996","4683","&#9826;","elianto","#f73b6a7A","-1","-1","1","-10","[]","0","0","3","","","","","","","",""
"pit-trial","73","614558","0.0-2.0-14.2-4.2","battery-v0.2","","""event"",""trial"",""time""
""blur"",""1"",""3784""
""focus"",""1"",""15086""
""fullscreenenter"",""1"",""33488""
","""event"",""trial"",""time""
""blur"",""1"",""3784""
","""event"",""trial"",""time""
""focus"",""1"",""15086""
","""event"",""trial"",""time""
""fullscreenenter"",""1"",""33488""
","
","","","-1","","","18","9996","4683","&#9826;","elianto","#f73b6a7A","-1","-1","1","0","[]","0","0","3","","","","","","","",""
"pit-trial","74","619422","0.0-2.0-14.3-0.3","battery-v0.2","","""event"",""trial"",""time""
""blur"",""1"",""3784""
""focus"",""1"",""15086""
""fullscreenenter"",""1"",""33488""
","""event"",""trial"",""time""
""blur"",""1"",""3784""
","""event"",""trial"",""time""
""focus"",""1"",""15086""
","""event"",""trial"",""time""
""fullscreenenter"",""1"",""33488""
","
","","","-1","","","18","9996","4683","&#9826;","elianto","#f73b6a7A","-1","-1","1","0","[]","0","0","3","","","","","","","",""
"pit-trial","75","624286","0.0-2.0-14.3-1.3","battery-v0.2","","""event"",""trial"",""time""
""blur"",""1"",""3784""
""focus"",""1"",""15086""
""fullscreenenter"",""1"",""33488""
","""event"",""trial"",""time""
""blur"",""1"",""3784""
","""event"",""trial"",""time""
""focus"",""1"",""15086""
","""event"",""trial"",""time""
""fullscreenenter"",""1"",""33488""
","
","","","-1","","","18","9996","4683","&#9826;","elianto","#f73b6a7A","-1","-1","1","0","[]","0","0","3","","","","","","","",""
"pit-trial","76","629150","0.0-2.0-14.3-2.3","battery-v0.2","","""event"",""trial"",""time""
""blur"",""1"",""3784""
""focus"",""1"",""15086""
""fullscreenenter"",""1"",""33488""
","""event"",""trial"",""time""
""blur"",""1"",""3784""
","""event"",""trial"",""time""
""focus"",""1"",""15086""
","""event"",""trial"",""time""
""fullscreenenter"",""1"",""33488""
","
","","","-1","","","18","9996","4683","&#9826;","elianto","#f73b6a7A","-1","-1","1","0","[]","0","0","3","","","","","","","",""
"pit-trial","77","634014","0.0-2.0-14.3-3.3","battery-v0.2","","""event"",""trial"",""time""
""blur"",""1"",""3784""
""focus"",""1"",""15086""
""fullscreenenter"",""1"",""33488""
","""event"",""trial"",""time""
""blur"",""1"",""3784""
","""event"",""trial"",""time""
""focus"",""1"",""15086""
","""event"",""trial"",""time""
""fullscreenenter"",""1"",""33488""
","
","","","-1","","","18","9996","4683","&#9826;","elianto","#f73b6a7A","-1","-1","1","-10","[]","0","0","3","","","","","","","",""
"pit-trial","78","638878","0.0-2.0-14.3-4.3","battery-v0.2","","""event"",""trial"",""time""
""blur"",""1"",""3784""
""focus"",""1"",""15086""
""fullscreenenter"",""1"",""33488""
","""event"",""trial"",""time""
""blur"",""1"",""3784""
","""event"",""trial"",""time""
""focus"",""1"",""15086""
","""event"",""trial"",""time""
""fullscreenenter"",""1"",""33488""
","
","","","-1","","","18","9996","4683","&#9826;","elianto","#f73b6a7A","-1","-1","1","0","[]","0","0","3","","","","","","","",""
"call-function","79","638880","0.0-2.0-15.0","battery-v0.2","","""event"",""trial"",""time""
""blur"",""1"",""3784""
""focus"",""1"",""15086""
""fullscreenenter"",""1"",""33488""
","""event"",""trial"",""time""
""blur"",""1"",""3784""
","""event"",""trial"",""time""
""focus"",""1"",""15086""
","""event"",""trial"",""time""
""fullscreenenter"",""1"",""33488""
","
","","","","","","","","","","","","","","","","","","","","","","","","","","",""
"pit-instructions","80","664677","0.0-2.0-16.0","battery-v0.2","","""event"",""trial"",""time""
""blur"",""1"",""3784""
""focus"",""1"",""15086""
""fullscreenenter"",""1"",""33488""
","""event"",""trial"",""time""
""blur"",""1"",""3784""
","""event"",""trial"",""time""
""focus"",""1"",""15086""
","""event"",""trial"",""time""
""fullscreenenter"",""1"",""33488""
","
","","[{""page_index"":0,""viewing_time"":6816.40000000014},{""page_index"":1,""viewing_time"":8370.800000000047},{""page_index"":2,""viewing_time"":4956.799999999814},{""page_index"":3,""viewing_time"":5652.800000000047}]","25797","","","","","","","","","","","","","","","","","","","","","","","",""
"pit-trial","81","668262","0.0-2.0-17.0-0.0","battery-v0.2","","""event"",""trial"",""time""
""blur"",""1"",""3784""
""focus"",""1"",""15086""
""fullscreenenter"",""1"",""33488""
","""event"",""trial"",""time""
""blur"",""1"",""3784""
","""event"",""trial"",""time""
""focus"",""1"",""15086""
","""event"",""trial"",""time""
""fullscreenenter"",""1"",""33488""
","
","","","727.9000000001397","","","18","9996","4683","&#9789;","elianto","#f73b6a7A"," "," ","1","0","[1581.5]","1","0","4","","","","","","","",""
"pit-trial","82","671464","0.0-2.0-17.0-1.0","battery-v0.2","","""event"",""trial"",""time""
""blur"",""1"",""3784""
""focus"",""1"",""15086""
""fullscreenenter"",""1"",""33488""
","""event"",""trial"",""time""
""blur"",""1"",""3784""
","""event"",""trial"",""time""
""focus"",""1"",""15086""
","""event"",""trial"",""time""
""fullscreenenter"",""1"",""33488""
","
","","","345.80000000004657","","","18","9996","4683","&#9789;","elianto","#f73b6a7A"," "," ","1","0","[1197.4000000001397]","1","0","4","","","","","","","",""
"pit-trial","83","676326","0.0-2.0-17.0-2.0","battery-v0.2","","""event"",""trial"",""time""
""blur"",""1"",""3784""
""focus"",""1"",""15086""
""fullscreenenter"",""1"",""33488""
","""event"",""trial"",""time""
""blur"",""1"",""3784""
","""event"",""trial"",""time""
""focus"",""1"",""15086""
","""event"",""trial"",""time""
""fullscreenenter"",""1"",""33488""
","
","","","-1","","","18","9996","4683","&#9789;","elianto","#f73b6a7A"," ","-1","0","-10","[]","0","0","4","","","","","","","",""
"pit-trial","84","679446","0.0-2.0-17.0-3.0","battery-v0.2","","""event"",""trial"",""time""
""blur"",""1"",""3784""
""focus"",""1"",""15086""
""fullscreenenter"",""1"",""33488""
","""event"",""trial"",""time""
""blur"",""1"",""3784""
","""event"",""trial"",""time""
""focus"",""1"",""15086""
","""event"",""trial"",""time""
""fullscreenenter"",""1"",""33488""
","
","","","261.4000000001397","","","18","9996","4683","&#9789;","elianto","#f73b6a7A"," "," ","1","-10","[1113.5]","1","0","4","","","","","","","",""
"pit-trial","85","684310","0.0-2.0-17.0-4.0","battery-v0.2","","""event"",""trial"",""time""
""blur"",""1"",""3784""
""focus"",""1"",""15086""
""fullscreenenter"",""1"",""33488""
","""event"",""trial"",""time""
""blur"",""1"",""3784""
","""event"",""trial"",""time""
""focus"",""1"",""15086""
","""event"",""trial"",""time""
""fullscreenenter"",""1"",""33488""
","
","","","-1","","","18","9996","4683","&#9789;","elianto","#f73b6a7A"," ","-1","0","-10","[]","0","0","4","","","","","","","",""
"pit-trial","86","689175","0.0-2.0-17.1-0.1","battery-v0.2","","""event"",""trial"",""time""
""blur"",""1"",""3784""
""focus"",""1"",""15086""
""fullscreenenter"",""1"",""33488""
","""event"",""trial"",""time""
""blur"",""1"",""3784""
","""event"",""trial"",""time""
""focus"",""1"",""15086""
","""event"",""trial"",""time""
""fullscreenenter"",""1"",""33488""
","
","","","-1","","","18","9996","4683","&#9789;","elianto","#f73b6a7A"," ","-1","0","-10","[]","0","0","4","","","","","","","",""
"pit-trial","87","692717","0.0-2.0-17.1-1.1","battery-v0.2","","""event"",""trial"",""time""
""blur"",""1"",""3784""
""focus"",""1"",""15086""
""fullscreenenter"",""1"",""33488""
","""event"",""trial"",""time""
""blur"",""1"",""3784""
","""event"",""trial"",""time""
""focus"",""1"",""15086""
","""event"",""trial"",""time""
""fullscreenenter"",""1"",""33488""
","
","","","678.7999999998137","","","18","9996","4683","&#9789;","elianto","#f73b6a7A"," "," ","1","0","[1533.7999999998137]","1","0","4","","","","","","","",""
"pit-trial","88","695806","0.0-2.0-17.1-2.1","battery-v0.2","","""event"",""trial"",""time""
""blur"",""1"",""3784""
""focus"",""1"",""15086""
""fullscreenenter"",""1"",""33488""
","""event"",""trial"",""time""
""blur"",""1"",""3784""
","""event"",""trial"",""time""
""focus"",""1"",""15086""
","""event"",""trial"",""time""
""fullscreenenter"",""1"",""33488""
","
","","","225.29999999981374","","","18","9996","4683","&#9789;","elianto","#f73b6a7A"," "," ","1","0","[1080.5]","1","0","4","","","","","","","",""
"pit-trial","89","699455","0.0-2.0-17.1-3.1","battery-v0.2","","""event"",""trial"",""time""
""blur"",""1"",""3784""
""focus"",""1"",""15086""
""fullscreenenter"",""1"",""33488""
","""event"",""trial"",""time""
""blur"",""1"",""3784""
","""event"",""trial"",""time""
""focus"",""1"",""15086""
","""event"",""trial"",""time""
""fullscreenenter"",""1"",""33488""
","
","","","787","","","18","9996","4683","&#9789;","elianto","#f73b6a7A"," "," ","1","-10","[1642.6999999999534]","1","0","4","","","","","","","",""
"pit-trial","90","704319","0.0-2.0-17.1-4.1","battery-v0.2","","""event"",""trial"",""time""
""blur"",""1"",""3784""
""focus"",""1"",""15086""
""fullscreenenter"",""1"",""33488""
","""event"",""trial"",""time""
""blur"",""1"",""3784""
","""event"",""trial"",""time""
""focus"",""1"",""15086""
","""event"",""trial"",""time""
""fullscreenenter"",""1"",""33488""
","
","","","-1","","","18","9996","4683","&#9789;","elianto","#f73b6a7A"," ","-1","0","-10","[]","0","0","4","","","","","","","",""
"pit-trial","91","709183","0.0-2.0-17.2-0.2","battery-v0.2","","""event"",""trial"",""time""
""blur"",""1"",""3784""
""focus"",""1"",""15086""
""fullscreenenter"",""1"",""33488""
","""event"",""trial"",""time""
""blur"",""1"",""3784""
","""event"",""trial"",""time""
""focus"",""1"",""15086""
","""event"",""trial"",""time""
""fullscreenenter"",""1"",""33488""
","
","","","-1","","","18","9996","4683","&#9789;","elianto","#f73b6a7A"," ","-1","0","-10","[]","0","0","4","","","","","","","",""
"pit-trial","92","714047","0.0-2.0-17.2-1.2","battery-v0.2","","""event"",""trial"",""time""
""blur"",""1"",""3784""
""focus"",""1"",""15086""
""fullscreenenter"",""1"",""33488""
","""event"",""trial"",""time""
""blur"",""1"",""3784""
","""event"",""trial"",""time""
""focus"",""1"",""15086""
","""event"",""trial"",""time""
""fullscreenenter"",""1"",""33488""
","
","","","-1","","","18","9996","4683","&#9789;","elianto","#f73b6a7A"," ","-1","0","-10","[]","0","0","4","","","","","","","",""
"pit-trial","93","718911","0.0-2.0-17.2-2.2","battery-v0.2","","""event"",""trial"",""time""
""blur"",""1"",""3784""
""focus"",""1"",""15086""
""fullscreenenter"",""1"",""33488""
","""event"",""trial"",""time""
""blur"",""1"",""3784""
","""event"",""trial"",""time""
""focus"",""1"",""15086""
","""event"",""trial"",""time""
""fullscreenenter"",""1"",""33488""
","
","","","-1","","","18","9996","4683","&#9789;","elianto","#f73b6a7A"," ","-1","0","-10","[]","0","0","4","","","","","","","",""
"pit-trial","94","723775","0.0-2.0-17.2-3.2","battery-v0.2","","""event"",""trial"",""time""
""blur"",""1"",""3784""
""focus"",""1"",""15086""
""fullscreenenter"",""1"",""33488""
","""event"",""trial"",""time""
""blur"",""1"",""3784""
","""event"",""trial"",""time""
""focus"",""1"",""15086""
","""event"",""trial"",""time""
""fullscreenenter"",""1"",""33488""
","
","","","-1","","","18","9996","4683","&#9789;","elianto","#f73b6a7A"," ","-1","0","0","[]","0","0","4","","","","","","","",""
"pit-trial","95","728639","0.0-2.0-17.2-4.2","battery-v0.2","","""event"",""trial"",""time""
""blur"",""1"",""3784""
""focus"",""1"",""15086""
""fullscreenenter"",""1"",""33488""
","""event"",""trial"",""time""
""blur"",""1"",""3784""
","""event"",""trial"",""time""
""focus"",""1"",""15086""
","""event"",""trial"",""time""
""fullscreenenter"",""1"",""33488""
","
","","","-1","","","18","9996","4683","&#9789;","elianto","#f73b6a7A"," ","-1","0","-10","[]","0","0","4","","","","","","","",""
"pit-trial","96","733504","0.0-2.0-17.3-0.3","battery-v0.2","","""event"",""trial"",""time""
""blur"",""1"",""3784""
""focus"",""1"",""15086""
""fullscreenenter"",""1"",""33488""
","""event"",""trial"",""time""
""blur"",""1"",""3784""
","""event"",""trial"",""time""
""focus"",""1"",""15086""
","""event"",""trial"",""time""
""fullscreenenter"",""1"",""33488""
","
","","","-1","","","18","9996","4683","&#9789;","elianto","#f73b6a7A"," ","-1","0","-10","[]","0","0","4","","","","","","","",""
"pit-trial","97","738368","0.0-2.0-17.3-1.3","battery-v0.2","","""event"",""trial"",""time""
""blur"",""1"",""3784""
""focus"",""1"",""15086""
""fullscreenenter"",""1"",""33488""
","""event"",""trial"",""time""
""blur"",""1"",""3784""
","""event"",""trial"",""time""
""focus"",""1"",""15086""
","""event"",""trial"",""time""
""fullscreenenter"",""1"",""33488""
","
","","","-1","","","18","9996","4683","&#9789;","elianto","#f73b6a7A"," ","-1","0","-10","[]","0","0","4","","","","","","","",""
"pit-trial","98","743231","0.0-2.0-17.3-2.3","battery-v0.2","","""event"",""trial"",""time""
""blur"",""1"",""3784""
""focus"",""1"",""15086""
""fullscreenenter"",""1"",""33488""
","""event"",""trial"",""time""
""blur"",""1"",""3784""
","""event"",""trial"",""time""
""focus"",""1"",""15086""
","""event"",""trial"",""time""
""fullscreenenter"",""1"",""33488""
","
","","","-1","","","18","9996","4683","&#9789;","elianto","#f73b6a7A"," ","-1","0","-10","[]","0","0","4","","","","","","","",""
"pit-trial","99","748094","0.0-2.0-17.3-3.3","battery-v0.2","","""event"",""trial"",""time""
""blur"",""1"",""3784""
""focus"",""1"",""15086""
""fullscreenenter"",""1"",""33488""
","""event"",""trial"",""time""
""blur"",""1"",""3784""
","""event"",""trial"",""time""
""focus"",""1"",""15086""
","""event"",""trial"",""time""
""fullscreenenter"",""1"",""33488""
","
","","","-1","","","18","9996","4683","&#9789;","elianto","#f73b6a7A"," ","-1","0","0","[]","0","0","4","","","","","","","",""
"pit-trial","100","752960","0.0-2.0-17.3-4.3","battery-v0.2","","""event"",""trial"",""time""
""blur"",""1"",""3784""
""focus"",""1"",""15086""
""fullscreenenter"",""1"",""33488""
","""event"",""trial"",""time""
""blur"",""1"",""3784""
","""event"",""trial"",""time""
""focus"",""1"",""15086""
","""event"",""trial"",""time""
""fullscreenenter"",""1"",""33488""
","
","","","-1","","","18","9996","4683","&#9789;","elianto","#f73b6a7A"," ","-1","0","-10","[]","0","0","4","","","","","","","",""
"call-function","101","752961","0.0-2.0-18.0","battery-v0.2","","""event"",""trial"",""time""
""blur"",""1"",""3784""
""focus"",""1"",""15086""
""fullscreenenter"",""1"",""33488""
","""event"",""trial"",""time""
""blur"",""1"",""3784""
","""event"",""trial"",""time""
""focus"",""1"",""15086""
","""event"",""trial"",""time""
""fullscreenenter"",""1"",""33488""
","
","","","","","","","","","","","","","","","","","","","","","","","","","","",""
"pit-instructions","102","824034","0.0-2.0-19.0","battery-v0.2","","""event"",""trial"",""time""
""blur"",""1"",""3784""
""focus"",""1"",""15086""
""fullscreenenter"",""1"",""33488""
","""event"",""trial"",""time""
""blur"",""1"",""3784""
","""event"",""trial"",""time""
""focus"",""1"",""15086""
","""event"",""trial"",""time""
""fullscreenenter"",""1"",""33488""
","
","","[{""page_index"":0,""viewing_time"":8229.40000000014},{""page_index"":1,""viewing_time"":6141.5},{""page_index"":2,""viewing_time"":14096.899999999907},{""page_index"":3,""viewing_time"":7690.399999999907},{""page_index"":4,""viewing_time"":8117.200000000186},{""page_index"":5,""viewing_time"":8280.09999999986},{""page_index"":6,""viewing_time"":8535.5},{""page_index"":7,""viewing_time"":5952.100000000093},{""page_index"":8,""viewing_time"":4028.0999999998603}]","71071.5","","","","","","","","","","","","","","","","","","","","","","","",""
"pit-comprehension","103","829691","0.0-2.0-20.0-0.0","battery-v0.2","","""event"",""trial"",""time""
""blur"",""1"",""3784""
""focus"",""1"",""15086""
""fullscreenenter"",""1"",""33488""
","""event"",""trial"",""time""
""blur"",""1"",""3784""
","""event"",""trial"",""time""
""focus"",""1"",""15086""
","""event"",""trial"",""time""
""fullscreenenter"",""1"",""33488""
","
","","","5655.899999999907","[""SPACE""]","0","18","9996","4683","","","","","","","","","","","","","","","","","","",""
"pit-instructions","104","833361","0.0-2.0-20.0-1.0","battery-v0.2","","""event"",""trial"",""time""
""blur"",""1"",""3784""
""focus"",""1"",""15086""
""fullscreenenter"",""1"",""33488""
","""event"",""trial"",""time""
""blur"",""1"",""3784""
","""event"",""trial"",""time""
""focus"",""1"",""15086""
","""event"",""trial"",""time""
""fullscreenenter"",""1"",""33488""
","
","","[{""page_index"":0,""viewing_time"":3641.600000000093}]","3641.8000000000466","","","","","","","","","","","","","","","","","","","","","","","",""
"pit-comprehension","105","838678","0.0-2.0-21.0-0.0","battery-v0.2","","""event"",""trial"",""time""
""blur"",""1"",""3784""
""focus"",""1"",""15086""
""fullscreenenter"",""1"",""33488""
","""event"",""trial"",""time""
""blur"",""1"",""3784""
","""event"",""trial"",""time""
""focus"",""1"",""15086""
","""event"",""trial"",""time""
""fullscreenenter"",""1"",""33488""
","
","","","5315.100000000093","[""10""]","0","18","9996","4683","","","","","","","","","","","","","","","","","","",""
"pit-instructions","106","840510","0.0-2.0-21.0-1.0","battery-v0.2","","""event"",""trial"",""time""
""blur"",""1"",""3784""
""focus"",""1"",""15086""
""fullscreenenter"",""1"",""33488""
","""event"",""trial"",""time""
""blur"",""1"",""3784""
","""event"",""trial"",""time""
""focus"",""1"",""15086""
","""event"",""trial"",""time""
""fullscreenenter"",""1"",""33488""
","
","","[{""page_index"":0,""viewing_time"":1802.5}]","1802.7000000001863","","","","","","","","","","","","","","","","","","","","","","","",""
"pit-comprehension","107","847068","0.0-2.0-22.0-0.0","battery-v0.2","","""event"",""trial"",""time""
""blur"",""1"",""3784""
""focus"",""1"",""15086""
""fullscreenenter"",""1"",""33488""
","""event"",""trial"",""time""
""blur"",""1"",""3784""
","""event"",""trial"",""time""
""focus"",""1"",""15086""
","""event"",""trial"",""time""
""fullscreenenter"",""1"",""33488""
","
","","","6556.600000000093","[""0""]","0","18","9996","4683","","","","","","","","","","","","","","","","","","",""
"pit-instructions","108","848882","0.0-2.0-22.0-1.0","battery-v0.2","","""event"",""trial"",""time""
""blur"",""1"",""3784""
""focus"",""1"",""15086""
""fullscreenenter"",""1"",""33488""
","""event"",""trial"",""time""
""blur"",""1"",""3784""
","""event"",""trial"",""time""
""focus"",""1"",""15086""
","""event"",""trial"",""time""
""fullscreenenter"",""1"",""33488""
","
","","[{""page_index"":0,""viewing_time"":1784.8000000000466}]","1785","","","","","","","","","","","","","","","","","","","","","","","",""
"pit-comprehension","109","859241","0.0-2.0-23.0-0.0","battery-v0.2","","""event"",""trial"",""time""
""blur"",""1"",""3784""
""focus"",""1"",""15086""
""fullscreenenter"",""1"",""33488""
","""event"",""trial"",""time""
""blur"",""1"",""3784""
","""event"",""trial"",""time""
""focus"",""1"",""15086""
","""event"",""trial"",""time""
""fullscreenenter"",""1"",""33488""
","
","","","10357.300000000047","[""False""]","1","18","9996","4683","","","","","","","","","","","","","","","","","","",""
"pit-instructions","110","865196","0.0-2.0-23.0-1.0","battery-v0.2","","""event"",""trial"",""time""
""blur"",""1"",""3784""
""focus"",""1"",""15086""
""fullscreenenter"",""1"",""33488""
","""event"",""trial"",""time""
""blur"",""1"",""3784""
","""event"",""trial"",""time""
""focus"",""1"",""15086""
","""event"",""trial"",""time""
""fullscreenenter"",""1"",""33488""
","
","","[{""page_index"":0,""viewing_time"":5923.799999999814}]","5924","","","","","","","","","","","","","","","","","","","","","","","",""
"pit-instructions","111","866298","0.0-2.0-23.0-2.0-0.0","battery-v0.2","","""event"",""trial"",""time""
""blur"",""1"",""3784""
""focus"",""1"",""15086""
""fullscreenenter"",""1"",""33488""
","""event"",""trial"",""time""
""blur"",""1"",""3784""
","""event"",""trial"",""time""
""focus"",""1"",""15086""
","""event"",""trial"",""time""
""fullscreenenter"",""1"",""33488""
","
","","[{""page_index"":0,""viewing_time"":1100.5}]","1100.6999999999534","","","","","","","","","","","","","","","","","","","","","","","",""
"pit-comprehension","112","876537","0.0-2.0-23.1-0.1","battery-v0.2","","""event"",""trial"",""time""
""blur"",""1"",""3784""
""focus"",""1"",""15086""
""fullscreenenter"",""1"",""33488""
","""event"",""trial"",""time""
""blur"",""1"",""3784""
","""event"",""trial"",""time""
""focus"",""1"",""15086""
","""event"",""trial"",""time""
""fullscreenenter"",""1"",""33488""
","
","","","10237.5","[""True""]","0","18","9996","4683","","","","","","","","","","","","","","","","","","",""
"pit-instructions","113","879665","0.0-2.0-23.1-1.1","battery-v0.2","","""event"",""trial"",""time""
""blur"",""1"",""3784""
""focus"",""1"",""15086""
""fullscreenenter"",""1"",""33488""
","""event"",""trial"",""time""
""blur"",""1"",""3784""
","""event"",""trial"",""time""
""focus"",""1"",""15086""
","""event"",""trial"",""time""
""fullscreenenter"",""1"",""33488""
","
","","[{""page_index"":0,""viewing_time"":3097}]","3097.1999999999534","","","","","","","","","","","","","","","","","","","","","","","",""
"pit-comprehension","114","887115","0.0-2.0-24.0-0.0","battery-v0.2","","""event"",""trial"",""time""
""blur"",""1"",""3784""
""focus"",""1"",""15086""
""fullscreenenter"",""1"",""33488""
","""event"",""trial"",""time""
""blur"",""1"",""3784""
","""event"",""trial"",""time""
""focus"",""1"",""15086""
","""event"",""trial"",""time""
""fullscreenenter"",""1"",""33488""
","
","","","7447.799999999814","[""True""]","0","18","9996","4683","","","","","","","","","","","","","","","","","","",""
"pit-instructions","115","889189","0.0-2.0-24.0-1.0","battery-v0.2","","""event"",""trial"",""time""
""blur"",""1"",""3784""
""focus"",""1"",""15086""
""fullscreenenter"",""1"",""33488""
","""event"",""trial"",""time""
""blur"",""1"",""3784""
","""event"",""trial"",""time""
""focus"",""1"",""15086""
","""event"",""trial"",""time""
""fullscreenenter"",""1"",""33488""
","
","","[{""page_index"":0,""viewing_time"":2043.7000000001863}]","2043.9000000001397","","","","","","","","","","","","","","","","","","","","","","","",""
"pit-comprehension","116","895576","0.0-2.0-25.0-0.0","battery-v0.2","","""event"",""trial"",""time""
""blur"",""1"",""3784""
""focus"",""1"",""15086""
""fullscreenenter"",""1"",""33488""
","""event"",""trial"",""time""
""blur"",""1"",""3784""
","""event"",""trial"",""time""
""focus"",""1"",""15086""
","""event"",""trial"",""time""
""fullscreenenter"",""1"",""33488""
","
","","","6385","[""True""]","0","18","9996","4683","","","","","","","","","","","","","","","","","","",""
"pit-instructions","117","897035","0.0-2.0-25.0-1.0","battery-v0.2","","""event"",""trial"",""time""
""blur"",""1"",""3784""
""focus"",""1"",""15086""
""fullscreenenter"",""1"",""33488""
","""event"",""trial"",""time""
""blur"",""1"",""3784""
","""event"",""trial"",""time""
""focus"",""1"",""15086""
","""event"",""trial"",""time""
""fullscreenenter"",""1"",""33488""
","
","","[{""page_index"":0,""viewing_time"":1427.4000000001397}]","1427.6000000000931","","","","","","","","","","","","","","","","","","","","","","","",""
"pit-comprehension","118","902522","0.0-2.0-26.0-0.0","battery-v0.2","","""event"",""trial"",""time""
""blur"",""1"",""3784""
""focus"",""1"",""15086""
""fullscreenenter"",""1"",""33488""
","""event"",""trial"",""time""
""blur"",""1"",""3784""
","""event"",""trial"",""time""
""focus"",""1"",""15086""
","""event"",""trial"",""time""
""fullscreenenter"",""1"",""33488""
","
","","","5485.100000000093","[""False""]","0","18","9996","4683","","","","","","","","","","","","","","","","","","",""
"pit-instructions","119","904669","0.0-2.0-26.0-1.0","battery-v0.2","","""event"",""trial"",""time""
""blur"",""1"",""3784""
""focus"",""1"",""15086""
""fullscreenenter"",""1"",""33488""
","""event"",""trial"",""time""
""blur"",""1"",""3784""
","""event"",""trial"",""time""
""focus"",""1"",""15086""
","""event"",""trial"",""time""
""fullscreenenter"",""1"",""33488""
","
","","[{""page_index"":0,""viewing_time"":2112.8000000000466}]","2112.9000000001397","","","","","","","","","","","","","","","","","","","","","","","",""
"pit-instructions","120","925581","0.0-3.0","battery-v0.2","","""event"",""trial"",""time""
""blur"",""1"",""3784""
""focus"",""1"",""15086""
""fullscreenenter"",""1"",""33488""
","""event"",""trial"",""time""
""blur"",""1"",""3784""
","""event"",""trial"",""time""
""focus"",""1"",""15086""
","""event"",""trial"",""time""
""fullscreenenter"",""1"",""33488""
","
","","[{""page_index"":0,""viewing_time"":7508.800000000047},{""page_index"":1,""viewing_time"":5789.300000000047},{""page_index"":2,""viewing_time"":7612.100000000093}]","20910.40000000014","","","","","","","","","","","","","","","","","","","","","","","",""
"pit-trial","121","929284","0.0-4.0","battery-v0.2","","""event"",""trial"",""time""
""blur"",""1"",""3784""
""focus"",""1"",""15086""
""fullscreenenter"",""1"",""33488""
","""event"",""trial"",""time""
""blur"",""1"",""3784""
","""event"",""trial"",""time""
""focus"",""1"",""15086""
","""event"",""trial"",""time""
""fullscreenenter"",""1"",""33488""
","
","","","846","","","18","9996","4683","&#9752;","elianto","#f73b6a7A"," "," ","1","-10","[1696.8000000000466]","1","1","","","9996","1","3","3","lose","go","1"
"pit-trial","122","933019","0.0-5.0","battery-v0.2","","""event"",""trial"",""time""
""blur"",""1"",""3784""
""focus"",""1"",""15086""
""fullscreenenter"",""1"",""33488""
","""event"",""trial"",""time""
""blur"",""1"",""3784""
","""event"",""trial"",""time""
""focus"",""1"",""15086""
","""event"",""trial"",""time""
""fullscreenenter"",""1"",""33488""
","
","","","877.3999999999069","","","18","9996","4683","&#9730;","elianto","#3366ff99"," "," ","1","0","[1730.8000000000466]","1","1","","","9996","2","1","1","win","go","1"
"pit-trial","123","936651","0.0-6.0","battery-v0.2","","""event"",""trial"",""time""
""blur"",""1"",""3784""
""focus"",""1"",""15086""
""fullscreenenter"",""1"",""33488""
","""event"",""trial"",""time""
""blur"",""1"",""3784""
","""event"",""trial"",""time""
""focus"",""1"",""15086""
","""event"",""trial"",""time""
""fullscreenenter"",""1"",""33488""
","
","","","776.1999999999534","","","18","9996","4683","&#9733;","elianto","#3366ff99","-1"," ","0","0","[1627.0999999998603]","1","1","","","9996","3","2","2","win","no-go","0"
"pit-trial","124","940276","0.0-7.0","battery-v0.2","","""event"",""trial"",""time""
""blur"",""1"",""3784""
""focus"",""1"",""15086""
""fullscreenenter"",""1"",""33488""
","""event"",""trial"",""time""
""blur"",""1"",""3784""
","""event"",""trial"",""time""
""focus"",""1"",""15086""
","""event"",""trial"",""time""
""fullscreenenter"",""1"",""33488""
","
","","","765.3000000000466","","","18","9996","4683","&#9728;","elianto","#f73b6a7A","-1"," ","0","-10","[1620.3000000000466]","1","1","","","9996","4","0","4","lose","no-go","0"
"pit-trial","125","943819","0.0-8.0","battery-v0.2","","""event"",""trial"",""time""
""blur"",""1"",""3784""
""focus"",""1"",""15086""
""fullscreenenter"",""1"",""33488""
","""event"",""trial"",""time""
""blur"",""1"",""3784""
","""event"",""trial"",""time""
""focus"",""1"",""15086""
","""event"",""trial"",""time""
""fullscreenenter"",""1"",""33488""
","
","","","687.3000000000466","","","18","9996","4683","&#9730;","elianto","#3366ff99"," "," ","1","+10","[1538.8000000000466]","1","1","","","9996","5","1","1","win","go","0"
"pit-trial","126","947220","0.0-9.0","battery-v0.2","","""event"",""trial"",""time""
""blur"",""1"",""3784""
""focus"",""1"",""15086""
""fullscreenenter"",""1"",""33488""
","""event"",""trial"",""time""
""blur"",""1"",""3784""
","""event"",""trial"",""time""
""focus"",""1"",""15086""
","""event"",""trial"",""time""
""fullscreenenter"",""1"",""33488""
","
","","","537.6000000000931","","","18","9996","4683","&#9733;","elianto","#3366ff99","-1"," ","0","0","[1393]","1","1","","","9996","6","2","2","win","no-go","0"
"pit-trial","127","950892","0.0-10.0","battery-v0.2","","""event"",""trial"",""time""
""blur"",""1"",""3784""
""focus"",""1"",""15086""
""fullscreenenter"",""1"",""33488""
","""event"",""trial"",""time""
""blur"",""1"",""3784""
","""event"",""trial"",""time""
""focus"",""1"",""15086""
","""event"",""trial"",""time""
""fullscreenenter"",""1"",""33488""
","
","","","809.2999999998137","","","18","9996","4683","&#9728;","elianto","#f73b6a7A","-1"," ","0","-10","[1662.8999999999069]","1","1","","","9996","7","0","4","lose","no-go","0"
"pit-trial","128","955756","0.0-11.0","battery-v0.2","","""event"",""trial"",""time""
""blur"",""1"",""3784""
""focus"",""1"",""15086""
""fullscreenenter"",""1"",""33488""
","""event"",""trial"",""time""
""blur"",""1"",""3784""
","""event"",""trial"",""time""
""focus"",""1"",""15086""
","""event"",""trial"",""time""
""fullscreenenter"",""1"",""33488""
","
","","","-1","","","18","9996","4683","&#9752;","elianto","#f73b6a7A"," ","-1","0","0","[]","0","1","","","9996","8","3","3","lose","go","1"
"pit-trial","129","960620","0.0-12.0","battery-v0.2","","""event"",""trial"",""time""
""blur"",""1"",""3784""
""focus"",""1"",""15086""
""fullscreenenter"",""1"",""33488""
","""event"",""trial"",""time""
""blur"",""1"",""3784""
","""event"",""trial"",""time""
""focus"",""1"",""15086""
","""event"",""trial"",""time""
""fullscreenenter"",""1"",""33488""
","
","","","-1","","","18","9996","4683","&#9728;","elianto","#f73b6a7A","-1","-1","1","0","[]","0","1","","","9996","9","0","4","lose","no-go","0"
"pit-trial","130","964204","0.0-13.0","battery-v0.2","","""event"",""trial"",""time""
""blur"",""1"",""3784""
""focus"",""1"",""15086""
""fullscreenenter"",""1"",""33488""
","""event"",""trial"",""time""
""blur"",""1"",""3784""
","""event"",""trial"",""time""
""focus"",""1"",""15086""
","""event"",""trial"",""time""
""fullscreenenter"",""1"",""33488""
","
","","","719.8999999999069","","","18","9996","4683","&#9733;","elianto","#3366ff99","-1"," ","0","+10","[1574.3999999999069]","1","1","","","9996","10","2","2","win","no-go","1"
"pit-trial","131","968084","0.0-14.0","battery-v0.2","","""event"",""trial"",""time""
""blur"",""1"",""3784""
""focus"",""1"",""15086""
""fullscreenenter"",""1"",""33488""
","""event"",""trial"",""time""
""blur"",""1"",""3784""
","""event"",""trial"",""time""
""focus"",""1"",""15086""
","""event"",""trial"",""time""
""fullscreenenter"",""1"",""33488""
","
","","","1018.6999999999534","","","18","9996","4683","&#9730;","elianto","#3366ff99"," "," ","1","+10","[1872.8999999999069]","1","1","","","9996","11","1","1","win","go","0"
"pit-trial","132","972948","0.0-15.0","battery-v0.2","","""event"",""trial"",""time""
""blur"",""1"",""3784""
""focus"",""1"",""15086""
""fullscreenenter"",""1"",""33488""
","""event"",""trial"",""time""
""blur"",""1"",""3784""
","""event"",""trial"",""time""
""focus"",""1"",""15086""
","""event"",""trial"",""time""
""fullscreenenter"",""1"",""33488""
","
","","","-1","","","18","9996","4683","&#9752;","elianto","#f73b6a7A"," ","-1","0","0","[]","0","1","","","9996","12","3","3","lose","go","1"
"pit-trial","133","976684","0.0-16.0","battery-v0.2","","""event"",""trial"",""time""
""blur"",""1"",""3784""
""focus"",""1"",""15086""
""fullscreenenter"",""1"",""33488""
","""event"",""trial"",""time""
""blur"",""1"",""3784""
","""event"",""trial"",""time""
""focus"",""1"",""15086""
","""event"",""trial"",""time""
""fullscreenenter"",""1"",""33488""
","
","","","877.6999999999534","","","18","9996","4683","&#9730;","elianto","#3366ff99"," "," ","1","+10","[1732]","1","1","","","9996","13","1","1","win","go","0"
"pit-trial","134","980140","0.0-17.0","battery-v0.2","","""event"",""trial"",""time""
""blur"",""1"",""3784""
""focus"",""1"",""15086""
""fullscreenenter"",""1"",""33488""
","""event"",""trial"",""time""
""blur"",""1"",""3784""
","""event"",""trial"",""time""
""focus"",""1"",""15086""
","""event"",""trial"",""time""
""fullscreenenter"",""1"",""33488""
","
","","","594.2999999998137","","","18","9996","4683","&#9733;","elianto","#3366ff99","-1"," ","0","+10","[1449.5]","1","1","","","9996","14","2","2","win","no-go","1"
"pit-trial","135","985004","0.0-18.0","battery-v0.2","","""event"",""trial"",""time""
""blur"",""1"",""3784""
""focus"",""1"",""15086""
""fullscreenenter"",""1"",""33488""
","""event"",""trial"",""time""
""blur"",""1"",""3784""
","""event"",""trial"",""time""
""focus"",""1"",""15086""
","""event"",""trial"",""time""
""fullscreenenter"",""1"",""33488""
","
","","","-1","","","18","9996","4683","&#9728;","elianto","#f73b6a7A","-1","-1","1","-10","[]","0","1","","","9996","15","0","4","lose","no-go","1"
"pit-trial","136","989868","0.0-19.0","battery-v0.2","","""event"",""trial"",""time""
""blur"",""1"",""3784""
""focus"",""1"",""15086""
""fullscreenenter"",""1"",""33488""
","""event"",""trial"",""time""
""blur"",""1"",""3784""
","""event"",""trial"",""time""
""focus"",""1"",""15086""
","""event"",""trial"",""time""
""fullscreenenter"",""1"",""33488""
","
","","","-1","","","18","9996","4683","&#9752;","elianto","#f73b6a7A"," ","-1","0","-10","[]","0","1","","","9996","16","3","3","lose","go","0"
"pit-trial","137","993196","0.0-20.0","battery-v0.2","","""event"",""trial"",""time""
""blur"",""1"",""3784""
""focus"",""1"",""15086""
""fullscreenenter"",""1"",""33488""
","""event"",""trial"",""time""
""blur"",""1"",""3784""
","""event"",""trial"",""time""
""focus"",""1"",""15086""
","""event"",""trial"",""time""
""fullscreenenter"",""1"",""33488""
","
","","","465.29999999981374","","","18","9996","4683","&#9733;","elianto","#3366ff99","-1"," ","0","+10","[1318.5]","1","1","","","9996","17","2","2","win","no-go","1"
"pit-trial","138","996460","0.0-21.0","battery-v0.2","","""event"",""trial"",""time""
""blur"",""1"",""3784""
""focus"",""1"",""15086""
""fullscreenenter"",""1"",""33488""
","""event"",""trial"",""time""
""blur"",""1"",""3784""
","""event"",""trial"",""time""
""focus"",""1"",""15086""
","""event"",""trial"",""time""
""fullscreenenter"",""1"",""33488""
","
","","","403.10000000009313","","","18","9996","4683","&#9730;","elianto","#3366ff99"," "," ","1","0","[1255.2000000001863]","1","1","","","9996","18","1","1","win","go","1"
"pit-trial","139","1000413","0.0-22.0","battery-v0.2","","""event"",""trial"",""time""
""blur"",""1"",""3784""
""focus"",""1"",""15086""
""fullscreenenter"",""1"",""33488""
","""event"",""trial"",""time""
""blur"",""1"",""3784""
","""event"",""trial"",""time""
""focus"",""1"",""15086""
","""event"",""trial"",""time""
""fullscreenenter"",""1"",""33488""
","
","","","1086.2000000001863","","","18","9996","4683","&#9752;","elianto","#f73b6a7A"," "," ","1","0","[1941.3000000000466]","1","1","","","9996","19","3","3","lose","go","0"
"pit-trial","140","1005276","0.0-23.0","battery-v0.2","","""event"",""trial"",""time""
""blur"",""1"",""3784""
""focus"",""1"",""15086""
""fullscreenenter"",""1"",""33488""
","""event"",""trial"",""time""
""blur"",""1"",""3784""
","""event"",""trial"",""time""
""focus"",""1"",""15086""
","""event"",""trial"",""time""
""fullscreenenter"",""1"",""33488""
","
","","","-1","","","18","9996","4683","&#9728;","elianto","#f73b6a7A","-1","-1","1","0","[]","0","1","","","9996","20","0","4","lose","no-go","0"
"pit-instructions","141","1066796","0.0-24.0","battery-v0.2","","""event"",""trial"",""time""
""blur"",""1"",""3784""
""focus"",""1"",""15086""
""fullscreenenter"",""1"",""33488""
","""event"",""trial"",""time""
""blur"",""1"",""3784""
","""event"",""trial"",""time""
""focus"",""1"",""15086""
","""event"",""trial"",""time""
""fullscreenenter"",""1"",""33488""
","
","","[{""page_index"":0,""viewing_time"":54458.59999999986},{""page_index"":1,""viewing_time"":7059.800000000047}]","61518.5","","","","","","","","","","","","","","","","","","","","","","","",""
"pit-trial","142","1070668","0.0-25.0","battery-v0.2","","""event"",""trial"",""time""
""blur"",""1"",""3784""
""focus"",""1"",""15086""
""fullscreenenter"",""1"",""33488""
","""event"",""trial"",""time""
""blur"",""1"",""3784""
","""event"",""trial"",""time""
""focus"",""1"",""15086""
","""event"",""trial"",""time""
""fullscreenenter"",""1"",""33488""
","
","","","1014.1000000000931","","","18","9996","4683","b","elianto","#f73b6a7A","-1"," ","0","-10","[1867.5999999998603]","1","2","","","9996","21","3","4","lose","no-go","0"
"pit-trial","143","1074459","0.0-26.0","battery-v0.2","","""event"",""trial"",""time""
""blur"",""1"",""3784""
""focus"",""1"",""15086""
""fullscreenenter"",""1"",""33488""
","""event"",""trial"",""time""
""blur"",""1"",""3784""
","""event"",""trial"",""time""
""focus"",""1"",""15086""
","""event"",""trial"",""time""
""fullscreenenter"",""1"",""33488""
","
","","","930.9000000001397","","","18","9996","4683","t","elianto","#f73b6a7A"," "," ","1","-10","[1785.1999999999534]","1","2","","","9996","22","2","3","lose","go","1"
"pit-trial","144","1079325","0.0-27.0","battery-v0.2","","""event"",""trial"",""time""
""blur"",""1"",""3784""
""focus"",""1"",""15086""
""fullscreenenter"",""1"",""33488""
","""event"",""trial"",""time""
""blur"",""1"",""3784""
","""event"",""trial"",""time""
""focus"",""1"",""15086""
","""event"",""trial"",""time""
""fullscreenenter"",""1"",""33488""
","
","","","-1","","","18","9996","4683","n","elianto","#f73b6a7A"," ","-1","0","0","[]","0","2","","","9996","23","0","3","lose","go","1"
"pit-trial","145","1082875","0.0-28.0","battery-v0.2","","""event"",""trial"",""time""
""blur"",""1"",""3784""
""focus"",""1"",""15086""
""fullscreenenter"",""1"",""33488""
","""event"",""trial"",""time""
""blur"",""1"",""3784""
","""event"",""trial"",""time""
""focus"",""1"",""15086""
","""event"",""trial"",""time""
""fullscreenenter"",""1"",""33488""
","
","","","695.5999999998603","","","18","9996","4683","f","elianto","#3366ff99","-1"," ","0","0","[1547.1999999999534]","1","2","","","9996","24","1","2","win","no-go","0"
"pit-trial","146","1087740","0.0-29.0","battery-v0.2","","""event"",""trial"",""time""
""blur"",""1"",""3784""
""focus"",""1"",""15086""
""fullscreenenter"",""1"",""33488""
","""event"",""trial"",""time""
""blur"",""1"",""3784""
","""event"",""trial"",""time""
""focus"",""1"",""15086""
","""event"",""trial"",""time""
""fullscreenenter"",""1"",""33488""
","
","","","-1","","","18","9996","4683","f","elianto","#3366ff99","-1","-1","1","+10","[]","0","2","","","9996","25","1","2","win","no-go","0"
"pit-trial","147","1091909","0.0-30.0","battery-v0.2","","""event"",""trial"",""time""
""blur"",""1"",""3784""
""focus"",""1"",""15086""
""fullscreenenter"",""1"",""33488""
","""event"",""trial"",""time""
""blur"",""1"",""3784""
","""event"",""trial"",""time""
""focus"",""1"",""15086""
","""event"",""trial"",""time""
""fullscreenenter"",""1"",""33488""
","
","","","1313.5","","","18","9996","4683","n","elianto","#f73b6a7A"," "," ","1","0","[2165]","1","2","","","9996","26","0","3","lose","go","0"
"pit-trial","148","1096772","0.0-31.0","battery-v0.2","","""event"",""trial"",""time""
""blur"",""1"",""3784""
""focus"",""1"",""15086""
""fullscreenenter"",""1"",""33488""
","""event"",""trial"",""time""
""blur"",""1"",""3784""
","""event"",""trial"",""time""
""focus"",""1"",""15086""
","""event"",""trial"",""time""
""fullscreenenter"",""1"",""33488""
","
","","","-1","","","18","9996","4683","t","elianto","#f73b6a7A"," ","-1","0","-10","[]","0","2","","","9996","27","2","3","lose","go","0"
"pit-trial","149","1101637","0.0-32.0","battery-v0.2","","""event"",""trial"",""time""
""blur"",""1"",""3784""
""focus"",""1"",""15086""
""fullscreenenter"",""1"",""33488""
","""event"",""trial"",""time""
""blur"",""1"",""3784""
","""event"",""trial"",""time""
""focus"",""1"",""15086""
","""event"",""trial"",""time""
""fullscreenenter"",""1"",""33488""
","
","","","-1","","","18","9996","4683","b","elianto","#f73b6a7A","-1","-1","1","0","[]","0","2","","","9996","28","3","4","lose","no-go","0"
"pit-trial","150","1105397","0.0-33.0","battery-v0.2","","""event"",""trial"",""time""
""blur"",""1"",""3784""
""focus"",""1"",""15086""
""fullscreenenter"",""1"",""33488""
","""event"",""trial"",""time""
""blur"",""1"",""3784""
","""event"",""trial"",""time""
""focus"",""1"",""15086""
","""event"",""trial"",""time""
""fullscreenenter"",""1"",""33488""
","
","","","900.1000000000931","","","18","9996","4683","n","elianto","#f73b6a7A"," "," ","1","-10","[1754.1000000000931]","1","2","","","9996","29","0","3","lose","go","1"
"pit-trial","151","1110261","0.0-34.0","battery-v0.2","","""event"",""trial"",""time""
""blur"",""1"",""3784""
""focus"",""1"",""15086""
""fullscreenenter"",""1"",""33488""
","""event"",""trial"",""time""
""blur"",""1"",""3784""
","""event"",""trial"",""time""
""focus"",""1"",""15086""
","""event"",""trial"",""time""
""fullscreenenter"",""1"",""33488""
","
","","","-1","","","18","9996","4683","b","elianto","#f73b6a7A","-1","-1","1","0","[]","0","2","","","9996","30","3","4","lose","no-go","0"
"pit-trial","152","1114197","0.0-35.0","battery-v0.2","","""event"",""trial"",""time""
""blur"",""1"",""3784""
""focus"",""1"",""15086""
""fullscreenenter"",""1"",""33488""
","""event"",""trial"",""time""
""blur"",""1"",""3784""
","""event"",""trial"",""time""
""focus"",""1"",""15086""
","""event"",""trial"",""time""
""fullscreenenter"",""1"",""33488""
","
","","","1074.6999999999534","","","18","9996","4683","t","elianto","#f73b6a7A"," "," ","1","0","[1926.8999999999069]","1","2","","","9996","31","2","3","lose","go","0"
"pit-trial","153","1118261","0.0-36.0","battery-v0.2","","""event"",""trial"",""time""
""blur"",""1"",""3784""
""focus"",""1"",""15086""
""fullscreenenter"",""1"",""33488""
","""event"",""trial"",""time""
""blur"",""1"",""3784""
","""event"",""trial"",""time""
""focus"",""1"",""15086""
","""event"",""trial"",""time""
""fullscreenenter"",""1"",""33488""
","
","","","1202.1000000000931","","","18","9996","4683","f","elianto","#3366ff99","-1"," ","0","0","[2056.100000000093]","1","2","","","9996","32","1","2","win","no-go","0"
"pit-trial","154","1123126","0.0-37.0","battery-v0.2","","""event"",""trial"",""time""
""blur"",""1"",""3784""
""focus"",""1"",""15086""
""fullscreenenter"",""1"",""33488""
","""event"",""trial"",""time""
""blur"",""1"",""3784""
","""event"",""trial"",""time""
""focus"",""1"",""15086""
","""event"",""trial"",""time""
""fullscreenenter"",""1"",""33488""
","
","","","-1","","","18","9996","4683","n","elianto","#f73b6a7A"," ","-1","0","-10","[]","0","2","","","9996","33","0","3","lose","go","0"
"pit-trial","155","1126637","0.0-38.0","battery-v0.2","","""event"",""trial"",""time""
""blur"",""1"",""3784""
""focus"",""1"",""15086""
""fullscreenenter"",""1"",""33488""
","""event"",""trial"",""time""
""blur"",""1"",""3784""
","""event"",""trial"",""time""
""focus"",""1"",""15086""
","""event"",""trial"",""time""
""fullscreenenter"",""1"",""33488""
","
","","","649.5","","","18","9996","4683","t","elianto","#f73b6a7A"," "," ","1","0","[1503.3000000000466]","1","2","","","9996","34","2","3","lose","go","0"
"pit-trial","156","1131500","0.0-39.0","battery-v0.2","","""event"",""trial"",""time""
""blur"",""1"",""3784""
""focus"",""1"",""15086""
""fullscreenenter"",""1"",""33488""
","""event"",""trial"",""time""
""blur"",""1"",""3784""
","""event"",""trial"",""time""
""focus"",""1"",""15086""
","""event"",""trial"",""time""
""fullscreenenter"",""1"",""33488""
","
","","","-1","","","18","9996","4683","b","elianto","#f73b6a7A","-1","-1","1","-10","[]","0","2","","","9996","35","3","4","lose","no-go","1"
"pit-trial","157","1136365","0.0-40.0","battery-v0.2","","""event"",""trial"",""time""
""blur"",""1"",""3784""
""focus"",""1"",""15086""
""fullscreenenter"",""1"",""33488""
","""event"",""trial"",""time""
""blur"",""1"",""3784""
","""event"",""trial"",""time""
""focus"",""1"",""15086""
","""event"",""trial"",""time""
""fullscreenenter"",""1"",""33488""
","
","","","-1","","","18","9996","4683","f","elianto","#3366ff99","-1","-1","1","0","[]","0","2","","","9996","36","1","2","win","no-go","1"
"pit-trial","158","1140598","0.0-41.0","battery-v0.2","","""event"",""trial"",""time""
""blur"",""1"",""3784""
""focus"",""1"",""15086""
""fullscreenenter"",""1"",""33488""
","""event"",""trial"",""time""
""blur"",""1"",""3784""
","""event"",""trial"",""time""
""focus"",""1"",""15086""
","""event"",""trial"",""time""
""fullscreenenter"",""1"",""33488""
","
","","","1372.8000000000466","","","18","9996","4683","b","elianto","#f73b6a7A","-1"," ","0","-10","[2226.899999999907]","1","2","","","9996","37","3","4","lose","no-go","0"
"pit-trial","159","1144037","0.0-42.0","battery-v0.2","","""event"",""trial"",""time""
""blur"",""1"",""3784""
""focus"",""1"",""15086""
""fullscreenenter"",""1"",""33488""
","""event"",""trial"",""time""
""blur"",""1"",""3784""
","""event"",""trial"",""time""
""focus"",""1"",""15086""
","""event"",""trial"",""time""
""fullscreenenter"",""1"",""33488""
","
","","","579.1000000000931","","","18","9996","4683","t","elianto","#f73b6a7A"," "," ","1","0","[1433]","1","2","","","9996","38","2","3","lose","go","0"
"pit-trial","160","1147421","0.0-43.0","battery-v0.2","","""event"",""trial"",""time""
""blur"",""1"",""3784""
""focus"",""1"",""15086""
""fullscreenenter"",""1"",""33488""
","""event"",""trial"",""time""
""blur"",""1"",""3784""
","""event"",""trial"",""time""
""focus"",""1"",""15086""
","""event"",""trial"",""time""
""fullscreenenter"",""1"",""33488""
","
","","","525.3000000000466","","","18","9996","4683","n","elianto","#f73b6a7A"," "," ","1","0","[1376.5999999998603]","1","2","","","9996","39","0","3","lose","go","0"
"pit-trial","161","1151197","0.0-44.0","battery-v0.2","","""event"",""trial"",""time""
""blur"",""1"",""3784""
""focus"",""1"",""15086""
""fullscreenenter"",""1"",""33488""
","""event"",""trial"",""time""
""blur"",""1"",""3784""
","""event"",""trial"",""time""
""focus"",""1"",""15086""
","""event"",""trial"",""time""
""fullscreenenter"",""1"",""33488""
","
","","","916.3999999999069","","","18","9996","4683","f","elianto","#3366ff99","-1"," ","0","0","[1766.5999999998603]","1","2","","","9996","40","1","2","win","no-go","0"
"pit-trial","162","1155037","0.0-45.0","battery-v0.2","","""event"",""trial"",""time""
""blur"",""1"",""3784""
""focus"",""1"",""15086""
""fullscreenenter"",""1"",""33488""
","""event"",""trial"",""time""
""blur"",""1"",""3784""
","""event"",""trial"",""time""
""focus"",""1"",""15086""
","""event"",""trial"",""time""
""fullscreenenter"",""1"",""33488""
","
","","","977.9000000001397","","","18","9996","4683","n","elianto","#f73b6a7A"," "," ","1","0","[1831.3999999999069]","1","2","","","9996","41","0","3","lose","go","0"
"pit-trial","163","1159445","0.0-46.0","battery-v0.2","","""event"",""trial"",""time""
""blur"",""1"",""3784""
""focus"",""1"",""15086""
""fullscreenenter"",""1"",""33488""
","""event"",""trial"",""time""
""blur"",""1"",""3784""
","""event"",""trial"",""time""
""focus"",""1"",""15086""
","""event"",""trial"",""time""
""fullscreenenter"",""1"",""33488""
","
","","","1543.1000000000931","","","18","9996","4683","f","elianto","#3366ff99","-1"," ","0","+10","[2397.4000000001397]","1","2","","","9996","42","1","2","win","no-go","1"
"pit-trial","164","1164309","0.0-47.0","battery-v0.2","","""event"",""trial"",""time""
""blur"",""1"",""3784""
""focus"",""1"",""15086""
""fullscreenenter"",""1"",""33488""
","""event"",""trial"",""time""
""blur"",""1"",""3784""
","""event"",""trial"",""time""
""focus"",""1"",""15086""
","""event"",""trial"",""time""
""fullscreenenter"",""1"",""33488""
","
","","","-1","","","18","9996","4683","b","elianto","#f73b6a7A","-1","-1","1","0","[]","0","2","","","9996","43","3","4","lose","no-go","0"
"pit-trial","165","1167733","0.0-48.0","battery-v0.2","","""event"",""trial"",""time""
""blur"",""1"",""3784""
""focus"",""1"",""15086""
""fullscreenenter"",""1"",""33488""
","""event"",""trial"",""time""
""blur"",""1"",""3784""
","""event"",""trial"",""time""
""focus"",""1"",""15086""
","""event"",""trial"",""time""
""fullscreenenter"",""1"",""33488""
","
","","","560.5","","","18","9996","4683","t","elianto","#f73b6a7A"," "," ","1","0","[1414.8999999999069]","1","2","","","9996","44","2","3","lose","go","0"
"pit-trial","166","1171565","0.0-49.0","battery-v0.2","","""event"",""trial"",""time""
""blur"",""1"",""3784""
""focus"",""1"",""15086""
""fullscreenenter"",""1"",""33488""
","""event"",""trial"",""time""
""blur"",""1"",""3784""
","""event"",""trial"",""time""
""focus"",""1"",""15086""
","""event"",""trial"",""time""
""fullscreenenter"",""1"",""33488""
","
","","","971.8000000000466","","","18","9996","4683","f","elianto","#3366ff99","-1"," ","0","+10","[1821.9000000001397]","1","2","","","9996","45","1","2","win","no-go","1"
"pit-trial","167","1175141","0.0-50.0","battery-v0.2","","""event"",""trial"",""time""
""blur"",""1"",""3784""
""focus"",""1"",""15086""
""fullscreenenter"",""1"",""33488""
","""event"",""trial"",""time""
""blur"",""1"",""3784""
","""event"",""trial"",""time""
""focus"",""1"",""15086""
","""event"",""trial"",""time""
""fullscreenenter"",""1"",""33488""
","
","","","713.1999999999534","","","18","9996","4683","n","elianto","#f73b6a7A"," "," ","1","0","[1565.2999999998137]","1","2","","","9996","46","0","3","lose","go","0"
"pit-trial","168","1178669","0.0-51.0","battery-v0.2","","""event"",""trial"",""time""
""blur"",""1"",""3784""
""focus"",""1"",""15086""
""fullscreenenter"",""1"",""33488""
","""event"",""trial"",""time""
""blur"",""1"",""3784""
","""event"",""trial"",""time""
""focus"",""1"",""15086""
","""event"",""trial"",""time""
""fullscreenenter"",""1"",""33488""
","
","","","669.6999999999534","","","18","9996","4683","t","elianto","#f73b6a7A"," "," ","1","-10","[1520.1000000000931]","1","2","","","9996","47","2","3","lose","go","1"
"pit-trial","169","1183533","0.0-52.0","battery-v0.2","","""event"",""trial"",""time""
""blur"",""1"",""3784""
""focus"",""1"",""15086""
""fullscreenenter"",""1"",""33488""
","""event"",""trial"",""time""
""blur"",""1"",""3784""
","""event"",""trial"",""time""
""focus"",""1"",""15086""
","""event"",""trial"",""time""
""fullscreenenter"",""1"",""33488""
","
","","","-1","","","18","9996","4683","b","elianto","#f73b6a7A","-1","-1","1","0","[]","0","2","","","9996","48","3","4","lose","no-go","0"
"pit-trial","170","1188397","0.0-53.0","battery-v0.2","","""event"",""trial"",""time""
""blur"",""1"",""3784""
""focus"",""1"",""15086""
""fullscreenenter"",""1"",""33488""
","""event"",""trial"",""time""
""blur"",""1"",""3784""
","""event"",""trial"",""time""
""focus"",""1"",""15086""
","""event"",""trial"",""time""
""fullscreenenter"",""1"",""33488""
","
","","","-1","","","18","9996","4683","b","elianto","#f73b6a7A","-1","-1","1","0","[]","0","2","","","9996","49","3","4","lose","no-go","0"
"pit-trial","171","1192013","0.0-54.0","battery-v0.2","","""event"",""trial"",""time""
""blur"",""1"",""3784""
""focus"",""1"",""15086""
""fullscreenenter"",""1"",""33488""
","""event"",""trial"",""time""
""blur"",""1"",""3784""
","""event"",""trial"",""time""
""focus"",""1"",""15086""
","""event"",""trial"",""time""
""fullscreenenter"",""1"",""33488""
","
","","","750.3999999999069","","","18","9996","4683","f","elianto","#3366ff99","-1"," ","0","0","[1605.8000000000466]","1","2","","","9996","50","1","2","win","no-go","0"
"pit-trial","172","1195558","0.0-55.0","battery-v0.2","","""event"",""trial"",""time""
""blur"",""1"",""3784""
""focus"",""1"",""15086""
""fullscreenenter"",""1"",""33488""
","""event"",""trial"",""time""
""blur"",""1"",""3784""
","""event"",""trial"",""time""
""focus"",""1"",""15086""
","""event"",""trial"",""time""
""fullscreenenter"",""1"",""33488""
","
","","","681.8999999999069","","","18","9996","4683","n","elianto","#f73b6a7A"," "," ","1","0","[1536.2999999998137]","1","2","","","9996","51","0","3","lose","go","0"
"pit-trial","173","1198934","0.0-56.0","battery-v0.2","","""event"",""trial"",""time""
""blur"",""1"",""3784""
""focus"",""1"",""15086""
""fullscreenenter"",""1"",""33488""
","""event"",""trial"",""time""
""blur"",""1"",""3784""
","""event"",""trial"",""time""
""focus"",""1"",""15086""
","""event"",""trial"",""time""
""fullscreenenter"",""1"",""33488""
","
","","","518.1000000000931","","","18","9996","4683","t","elianto","#f73b6a7A"," "," ","1","-10","[1371.6000000000931]","1","2","","","9996","52","2","3","lose","go","1"
"pit-trial","174","1203798","0.0-57.0","battery-v0.2","","""event"",""trial"",""time""
""blur"",""1"",""3784""
""focus"",""1"",""15086""
""fullscreenenter"",""1"",""33488""
","""event"",""trial"",""time""
""blur"",""1"",""3784""
","""event"",""trial"",""time""
""focus"",""1"",""15086""
","""event"",""trial"",""time""
""fullscreenenter"",""1"",""33488""
","
","","","-1","","","18","9996","4683","b","elianto","#f73b6a7A","-1","-1","1","0","[]","0","2","","","9996","53","3","4","lose","no-go","0"
"pit-trial","175","1208662","0.0-58.0","battery-v0.2","","""event"",""trial"",""time""
""blur"",""1"",""3784""
""focus"",""1"",""15086""
""fullscreenenter"",""1"",""33488""
","""event"",""trial"",""time""
""blur"",""1"",""3784""
","""event"",""trial"",""time""
""focus"",""1"",""15086""
","""event"",""trial"",""time""
""fullscreenenter"",""1"",""33488""
","
","","","-1","","","18","9996","4683","t","elianto","#f73b6a7A"," ","-1","0","-10","[]","0","2","","","9996","54","2","3","lose","go","0"
"pit-trial","176","1212205","0.0-59.0","battery-v0.2","","""event"",""trial"",""time""
""blur"",""1"",""3784""
""focus"",""1"",""15086""
""fullscreenenter"",""1"",""33488""
","""event"",""trial"",""time""
""blur"",""1"",""3784""
","""event"",""trial"",""time""
""focus"",""1"",""15086""
","""event"",""trial"",""time""
""fullscreenenter"",""1"",""33488""
","
","","","678.8000000000466","","","18","9996","4683","n","elianto","#f73b6a7A"," "," ","1","-10","[1533.1999999999534]","1","2","","","9996","55","0","3","lose","go","1"
"pit-trial","177","1215701","0.0-60.0","battery-v0.2","","""event"",""trial"",""time""
""blur"",""1"",""3784""
""focus"",""1"",""15086""
""fullscreenenter"",""1"",""33488""
","""event"",""trial"",""time""
""blur"",""1"",""3784""
","""event"",""trial"",""time""
""focus"",""1"",""15086""
","""event"",""trial"",""time""
""fullscreenenter"",""1"",""33488""
","
","","","640.1999999999534","","","18","9996","4683","f","elianto","#3366ff99","-1"," ","0","0","[1490.3999999999069]","1","2","","","9996","56","1","2","win","no-go","0"
"pit-trial","178","1220566","0.0-61.0","battery-v0.2","","""event"",""trial"",""time""
""blur"",""1"",""3784""
""focus"",""1"",""15086""
""fullscreenenter"",""1"",""33488""
","""event"",""trial"",""time""
""blur"",""1"",""3784""
","""event"",""trial"",""time""
""focus"",""1"",""15086""
","""event"",""trial"",""time""
""fullscreenenter"",""1"",""33488""
","
","","","-1","","","18","9996","4683","b","elianto","#f73b6a7A","-1","-1","1","0","[]","0","2","","","9996","57","3","4","lose","no-go","0"
"pit-trial","179","1224285","0.0-62.0","battery-v0.2","","""event"",""trial"",""time""
""blur"",""1"",""3784""
""focus"",""1"",""15086""
""fullscreenenter"",""1"",""33488""
","""event"",""trial"",""time""
""blur"",""1"",""3784""
","""event"",""trial"",""time""
""focus"",""1"",""15086""
","""event"",""trial"",""time""
""fullscreenenter"",""1"",""33488""
","
","","","858.6999999999534","","","18","9996","4683","c","elianto","#3366ff99"," "," ","1","+10","[1709.3999999999069]","1","2","","","9996","58","4","1","win","go","0"
"pit-trial","180","1228021","0.0-63.0","battery-v0.2","","""event"",""trial"",""time""
""blur"",""1"",""3784""
""focus"",""1"",""15086""
""fullscreenenter"",""1"",""33488""
","""event"",""trial"",""time""
""blur"",""1"",""3784""
","""event"",""trial"",""time""
""focus"",""1"",""15086""
","""event"",""trial"",""time""
""fullscreenenter"",""1"",""33488""
","
","","","875.0999999998603","","","18","9996","4683","n","elianto","#f73b6a7A"," "," ","1","0","[1729.6999999999534]","1","2","","","9996","59","0","3","lose","go","0"
"pit-trial","181","1231670","0.0-64.0","battery-v0.2","","""event"",""trial"",""time""
""blur"",""1"",""3784""
""focus"",""1"",""15086""
""fullscreenenter"",""1"",""33488""
","""event"",""trial"",""time""
""blur"",""1"",""3784""
","""event"",""trial"",""time""
""focus"",""1"",""15086""
","""event"",""trial"",""time""
""fullscreenenter"",""1"",""33488""
","
","","","788.3999999999069","","","18","9996","4683","t","elianto","#f73b6a7A"," "," ","1","0","[1641.6999999999534]","1","2","","","9996","60","2","3","lose","go","0"
"pit-trial","182","1236533","0.0-65.0","battery-v0.2","","""event"",""trial"",""time""
""blur"",""1"",""3784""
""focus"",""1"",""15086""
""fullscreenenter"",""1"",""33488""
","""event"",""trial"",""time""
""blur"",""1"",""3784""
","""event"",""trial"",""time""
""focus"",""1"",""15086""
","""event"",""trial"",""time""
""fullscreenenter"",""1"",""33488""
","
","","","-1","","","18","9996","4683","b","elianto","#f73b6a7A","-1","-1","1","-10","[]","0","2","","","9996","61","3","4","lose","no-go","1"
"pit-trial","183","1240310","0.0-66.0","battery-v0.2","","""event"",""trial"",""time""
""blur"",""1"",""3784""
""focus"",""1"",""15086""
""fullscreenenter"",""1"",""33488""
","""event"",""trial"",""time""
""blur"",""1"",""3784""
","""event"",""trial"",""time""
""focus"",""1"",""15086""
","""event"",""trial"",""time""
""fullscreenenter"",""1"",""33488""
","
","","","912.7000000001863","","","18","9996","4683","t","elianto","#f73b6a7A"," "," ","1","-10","[1766.8000000000466]","1","2","","","9996","62","2","3","lose","go","1"
"pit-trial","184","1244262","0.0-67.0","battery-v0.2","","""event"",""trial"",""time""
""blur"",""1"",""3784""
""focus"",""1"",""15086""
""fullscreenenter"",""1"",""33488""
","""event"",""trial"",""time""
""blur"",""1"",""3784""
","""event"",""trial"",""time""
""focus"",""1"",""15086""
","""event"",""trial"",""time""
""fullscreenenter"",""1"",""33488""
","
","","","1091.8000000000466","","","18","9996","4683","f","elianto","#3366ff99","-1"," ","0","0","[1945.6000000000931]","1","2","","","9996","63","1","2","win","no-go","0"
"pit-trial","185","1247934","0.0-68.0","battery-v0.2","","""event"",""trial"",""time""
""blur"",""1"",""3784""
""focus"",""1"",""15086""
""fullscreenenter"",""1"",""33488""
","""event"",""trial"",""time""
""blur"",""1"",""3784""
