"trial_type","trial_index","time_elapsed","internal_node_id","task_version","subject_id","interactions","blur_events","focus_events","fullscreenenter_events","fullscreenexit_events","success","view_history","rt","responses","num_errors","age","subject","participantId","rune","rune_set","hex","correct","choice","accuracy","outcome","keys","total_keys","block","practice","value","sub","trial","stimulus","robot","valence","action","sham"
"pavlovia","0","8","0.0-0.0","battery-v0.2","","""event"",""trial"",""time""
""fullscreenenter"",""1"",""4765""
","
","
","""event"",""trial"",""time""
""fullscreenenter"",""1"",""4765""
","
","","","","","","","","","","","","","","","","","","","","","","","","","","",""
"fullscreen","1","5728","0.0-1.0","battery-v0.2","","""event"",""trial"",""time""
""fullscreenenter"",""1"",""4765""
","
","
","""event"",""trial"",""time""
""fullscreenenter"",""1"",""4765""
","
","true","","","","","","","","","","","","","","","","","","","","","","","","","",""
"pit-instructions","2","13125","0.0-2.0-0.0","battery-v0.2","","""event"",""trial"",""time""
""fullscreenenter"",""1"",""4765""
","
","
","""event"",""trial"",""time""
""fullscreenenter"",""1"",""4765""
","
","","[{""page_index"":0,""viewing_time"":7393.300000000745}]","7394.100000000559","","","","","","","","","","","","","","","","","","","","","","","",""
"pit-comprehension","3","19529","0.0-2.0-1.0-0.0","battery-v0.2","","""event"",""trial"",""time""
""fullscreenenter"",""1"",""4765""
","
","
","""event"",""trial"",""time""
""fullscreenenter"",""1"",""4765""
","
","","","6397.200000000186","[""turtle""]","1","21","10374","786","","","","","","","","","","","","","","","","","","",""
"pit-instructions","4","25674","0.0-2.0-1.0-1.0","battery-v0.2","","""event"",""trial"",""time""
""fullscreenenter"",""1"",""4765""
","
","
","""event"",""trial"",""time""
""fullscreenenter"",""1"",""4765""
","
","","[{""page_index"":0,""viewing_time"":6125.799999999814}]","6126","","","","","","","","","","","","","","","","","","","","","","","",""
"pit-instructions","5","31524","0.0-2.0-1.0-2.0-0.0","battery-v0.2","","""event"",""trial"",""time""
""fullscreenenter"",""1"",""4765""
","
","
","""event"",""trial"",""time""
""fullscreenenter"",""1"",""4765""
","
","","[{""page_index"":0,""viewing_time"":5847.299999999814}]","5847.799999999814","","","","","","","","","","","","","","","","","","","","","","","",""
"pit-comprehension","6","35469","0.0-2.0-1.1-0.1","battery-v0.2","","""event"",""trial"",""time""
""fullscreenenter"",""1"",""4765""
","
","
","""event"",""trial"",""time""
""fullscreenenter"",""1"",""4765""
","
","","","3940.800000000745","[""shark""]","0","21","10374","786","","","","","","","","","","","","","","","","","","",""
"pit-instructions","7","36561","0.0-2.0-1.1-1.1","battery-v0.2","","""event"",""trial"",""time""
""fullscreenenter"",""1"",""4765""
","
","
","""event"",""trial"",""time""
""fullscreenenter"",""1"",""4765""
","
","","[{""page_index"":0,""viewing_time"":1088}]","1088.3999999994412","","","","","","","","","","","","","","","","","","","","","","","",""
"pit-comprehension","8","39365","0.0-2.0-2.0-0.0","battery-v0.2","","""event"",""trial"",""time""
""fullscreenenter"",""1"",""4765""
","
","
","""event"",""trial"",""time""
""fullscreenenter"",""1"",""4765""
","
","","","2800","[""tiger""]","0","21","10374","786","","","","","","","","","","","","","","","","","","",""
"pit-instructions","9","40749","0.0-2.0-2.0-1.0","battery-v0.2","","""event"",""trial"",""time""
""fullscreenenter"",""1"",""4765""
","
","
","""event"",""trial"",""time""
""fullscreenenter"",""1"",""4765""
","
","","[{""page_index"":0,""viewing_time"":1375}]","1375.5999999996275","","","","","","","","","","","","","","","","","","","","","","","",""
"pit-instructions","10","143541","0.0-2.0-3.0","battery-v0.2","","""event"",""trial"",""time""
""fullscreenenter"",""1"",""4765""
","
","
","""event"",""trial"",""time""
""fullscreenenter"",""1"",""4765""
","
","","[{""page_index"":0,""viewing_time"":8588.400000000373},{""page_index"":1,""viewing_time"":6930.5999999996275},{""page_index"":2,""viewing_time"":8247.5},{""page_index"":3,""viewing_time"":8349.200000000186},{""page_index"":4,""viewing_time"":8356.899999999441},{""page_index"":5,""viewing_time"":6488.700000000186},{""page_index"":6,""viewing_time"":6249.299999999814},{""page_index"":7,""viewing_time"":7802.9000000003725},{""page_index"":8,""viewing_time"":7816.0999999996275},{""page_index"":9,""viewing_time"":5871.800000000745},{""page_index"":10,""viewing_time"":8379.5},{""page_index"":11,""viewing_time"":6633.199999999255},{""page_index"":12,""viewing_time"":7178},{""page_index"":13,""viewing_time"":5892.800000000745}]","102785.59999999963","","","","","","","","","","","","","","","","","","","","","","","",""
"pit-trial","11","147019","0.0-2.0-4.0-0.0","battery-v0.2","","""event"",""trial"",""time""
""fullscreenenter"",""1"",""4765""
","
","
","""event"",""trial"",""time""
""fullscreenenter"",""1"",""4765""
","
","","","604.7999999998137","","","21","10374","786","&#9784;","elianto","#FFFFF080"," "," ","1","&#10004","[1459.7999999998137]","1","0","0","","","","","","","",""
"pit-trial","12","150377","0.0-2.0-4.1-0.1","battery-v0.2","","""event"",""trial"",""time""
""fullscreenenter"",""1"",""4765""
","
","
","""event"",""trial"",""time""
""fullscreenenter"",""1"",""4765""
","
","","","487.29999999981374","","","21","10374","786","&#9784;","elianto","#FFFFF080"," "," ","1","&#10004","[1339.0999999996275]","1","0","0","","","","","","","",""
"pit-trial","13","155232","0.0-2.0-4.2-0.2","battery-v0.2","","""event"",""trial"",""time""
""fullscreenenter"",""1"",""4765""
","
","
","""event"",""trial"",""time""
""fullscreenenter"",""1"",""4765""
","
","","","-1","","","21","10374","786","&#9784;","elianto","#FFFFF080"," ","-1","0","&#10060","[]","0","0","0","","","","","","","",""
"pit-trial","14","159001","0.0-2.0-4.3-0.3","battery-v0.2","","""event"",""trial"",""time""
""fullscreenenter"",""1"",""4765""
","
","
","""event"",""trial"",""time""
""fullscreenenter"",""1"",""4765""
","
","","","897.2000000001863","","","21","10374","786","&#9784;","elianto","#FFFFF080"," "," ","1","&#10004","[1750.3999999994412]","1","0","0","","","","","","","",""
"pit-trial","15","162644","0.0-2.0-4.4-0.4","battery-v0.2","","""event"",""trial"",""time""
""fullscreenenter"",""1"",""4765""
","
","
","""event"",""trial"",""time""
""fullscreenenter"",""1"",""4765""
","
","","","787","","","21","10374","786","&#9784;","elianto","#FFFFF080"," "," ","1","&#10004","[1638.7000000001863]","1","0","0","","","","","","","",""
"pit-trial","16","166000","0.0-2.0-4.5-0.5","battery-v0.2","","""event"",""trial"",""time""
""fullscreenenter"",""1"",""4765""
","
","
","""event"",""trial"",""time""
""fullscreenenter"",""1"",""4765""
","
","","","490.59999999962747","","","21","10374","786","&#9784;","elianto","#FFFFF080"," "," ","1","&#10004","[1343.5999999996275]","1","0","0","","","","","","","",""
"pit-instructions","17","190674","0.0-2.0-5.0","battery-v0.2","","""event"",""trial"",""time""
""fullscreenenter"",""1"",""4765""
","
","
","""event"",""trial"",""time""
""fullscreenenter"",""1"",""4765""
","
","","[{""page_index"":0,""viewing_time"":7188},{""page_index"":1,""viewing_time"":5061.600000000559},{""page_index"":2,""viewing_time"":6092},{""page_index"":3,""viewing_time"":6327.5}]","24669.799999999814","","","","","","","","","","","","","","","","","","","","","","","",""
"pit-trial","18","195549","0.0-2.0-6.0-0.0","battery-v0.2","","""event"",""trial"",""time""
""fullscreenenter"",""1"",""4765""
","
","
","""event"",""trial"",""time""
""fullscreenenter"",""1"",""4765""
","
","","","-1","","","21","10374","786","&#9854;","elianto","#FFFFF080","-1","-1","1","&#10004","[]","0","0","1","","","","","","","",""
"pit-trial","19","200418","0.0-2.0-6.1-0.1","battery-v0.2","","""event"",""trial"",""time""
""fullscreenenter"",""1"",""4765""
","
","
","""event"",""trial"",""time""
""fullscreenenter"",""1"",""4765""
","
","","","-1","","","21","10374","786","&#9854;","elianto","#FFFFF080","-1","-1","1","&#10004","[]","0","0","1","","","","","","","",""
"pit-trial","20","205274","0.0-2.0-6.2-0.2","battery-v0.2","","""event"",""trial"",""time""
""fullscreenenter"",""1"",""4765""
","
","
","""event"",""trial"",""time""
""fullscreenenter"",""1"",""4765""
","
","","","-1","","","21","10374","786","&#9854;","elianto","#FFFFF080","-1","-1","1","&#10004","[]","0","0","1","","","","","","","",""
"pit-trial","21","210134","0.0-2.0-6.3-0.3","battery-v0.2","","""event"",""trial"",""time""
""fullscreenenter"",""1"",""4765""
","
","
","""event"",""trial"",""time""
""fullscreenenter"",""1"",""4765""
","
","","","-1","","","21","10374","786","&#9854;","elianto","#FFFFF080","-1","-1","1","&#10004","[]","0","0","1","","","","","","","",""
"pit-trial","22","214998","0.0-2.0-6.4-0.4","battery-v0.2","","""event"",""trial"",""time""
""fullscreenenter"",""1"",""4765""
","
","
","""event"",""trial"",""time""
""fullscreenenter"",""1"",""4765""
","
","","","-1","","","21","10374","786","&#9854;","elianto","#FFFFF080","-1","-1","1","&#10004","[]","0","0","1","","","","","","","",""
"pit-instructions","23","420786","0.0-2.0-7.0","battery-v0.2","","""event"",""trial"",""time""
""fullscreenenter"",""1"",""4765""
","
","
","""event"",""trial"",""time""
""fullscreenenter"",""1"",""4765""
","
","","[{""page_index"":0,""viewing_time"":10252.5},{""page_index"":1,""viewing_time"":76922},{""page_index"":2,""viewing_time"":7467.800000000745},{""page_index"":3,""viewing_time"":7040.0999999996275},{""page_index"":4,""viewing_time"":5315.299999999814},{""page_index"":5,""viewing_time"":7352},{""page_index"":6,""viewing_time"":7599.799999999814},{""page_index"":7,""viewing_time"":7548.700000000186},{""page_index"":8,""viewing_time"":7831.600000000559},{""page_index"":9,""viewing_time"":6986.199999999255},{""page_index"":10,""viewing_time"":7934.200000000186},{""page_index"":11,""viewing_time"":9122.5},{""page_index"":12,""viewing_time"":6556.100000000559},{""page_index"":13,""viewing_time"":7373.399999999441},{""page_index"":14,""viewing_time"":8860.200000000186},{""page_index"":15,""viewing_time"":8248.599999999627},{""page_index"":16,""viewing_time"":6547.800000000745},{""page_index"":17,""viewing_time"":6824}]","205783.2000000002","","","","","","","","","","","","","","","","","","","","","","","",""
"pit-trial","24","424385","0.0-2.0-8.0-0.0","battery-v0.2","","""event"",""trial"",""time""
""fullscreenenter"",""1"",""4765""
","
","
","""event"",""trial"",""time""
""fullscreenenter"",""1"",""4765""
","
","","","734","","","21","10374","786","&#9776;","elianto","#3366ff99"," "," ","1","+10","[1584.4000000003725]","1","0","1","","","","","","","",""
"pit-trial","25","428698","0.0-2.0-8.0-1.0","battery-v0.2","","""event"",""trial"",""time""
""fullscreenenter"",""1"",""4765""
","
","
","""event"",""trial"",""time""
""fullscreenenter"",""1"",""4765""
","
","","","1457.3999999994412","","","21","10374","786","&#9776;","elianto","#3366ff99"," "," ","1","+10","[2307.7000000001863]","1","0","1","","","","","","","",""
"pit-trial","26","432327","0.0-2.0-8.0-2.0","battery-v0.2","","""event"",""trial"",""time""
""fullscreenenter"",""1"",""4765""
","
","
","""event"",""trial"",""time""
""fullscreenenter"",""1"",""4765""
","
","","","770.2999999998137","","","21","10374","786","&#9776;","elianto","#3366ff99"," "," ","1","+10","[1621.4000000003725]","1","0","1","","","","","","","",""
"pit-trial","27","435897","0.0-2.0-8.0-3.0","battery-v0.2","","""event"",""trial"",""time""
""fullscreenenter"",""1"",""4765""
","
","
","""event"",""trial"",""time""
""fullscreenenter"",""1"",""4765""
","
","","","706.2000000001863","","","21","10374","786","&#9776;","elianto","#3366ff99"," "," ","1","0","[1558.2999999998137]","1","0","1","","","","","","","",""
"pit-trial","28","439288","0.0-2.0-8.0-4.0","battery-v0.2","","""event"",""trial"",""time""
""fullscreenenter"",""1"",""4765""
","
","
","""event"",""trial"",""time""
""fullscreenenter"",""1"",""4765""
","
","","","529.9000000003725","","","21","10374","786","&#9776;","elianto","#3366ff99"," "," ","1","+10","[1385.9000000003725]","1","0","1","","","","","","","",""
"pit-trial","29","442668","0.0-2.0-8.1-0.1","battery-v0.2","","""event"",""trial"",""time""
""fullscreenenter"",""1"",""4765""
","
","
","""event"",""trial"",""time""
""fullscreenenter"",""1"",""4765""
","
","","","520.7000000001863","","","21","10374","786","&#9776;","elianto","#3366ff99"," "," ","1","+10","[1373.7999999998137]","1","0","1","","","","","","","",""
"pit-trial","30","446154","0.0-2.0-8.1-1.1","battery-v0.2","","""event"",""trial"",""time""
""fullscreenenter"",""1"",""4765""
","
","
","""event"",""trial"",""time""
""fullscreenenter"",""1"",""4765""
","
","","","625.5999999996275","","","21","10374","786","&#9776;","elianto","#3366ff99"," "," ","1","+10","[1477.8999999994412]","1","0","1","","","","","","","",""
"pit-trial","31","449687","0.0-2.0-8.1-2.1","battery-v0.2","","""event"",""trial"",""time""
""fullscreenenter"",""1"",""4765""
","
","
","""event"",""trial"",""time""
""fullscreenenter"",""1"",""4765""
","
","","","659.6000000005588","","","21","10374","786","&#9776;","elianto","#3366ff99"," "," ","1","+10","[1516.0999999996275]","1","0","1","","","","","","","",""
"pit-trial","32","452996","0.0-2.0-8.1-3.1","battery-v0.2","","""event"",""trial"",""time""
""fullscreenenter"",""1"",""4765""
","
","
","""event"",""trial"",""time""
""fullscreenenter"",""1"",""4765""
","
","","","453.29999999981374","","","21","10374","786","&#9776;","elianto","#3366ff99"," "," ","1","0","[1304.5]","1","0","1","","","","","","","",""
"pit-trial","33","456319","0.0-2.0-8.1-4.1","battery-v0.2","","""event"",""trial"",""time""
""fullscreenenter"",""1"",""4765""
","
","
","""event"",""trial"",""time""
""fullscreenenter"",""1"",""4765""
","
","","","469.1000000005588","","","21","10374","786","&#9776;","elianto","#3366ff99"," "," ","1","+10","[1319.5999999996275]","1","0","1","","","","","","","",""
"pit-trial","34","459884","0.0-2.0-8.2-0.2","battery-v0.2","","""event"",""trial"",""time""
""fullscreenenter"",""1"",""4765""
","
","
","""event"",""trial"",""time""
""fullscreenenter"",""1"",""4765""
","
","","","709.4000000003725","","","21","10374","786","&#9776;","elianto","#3366ff99"," "," ","1","+10","[1560.300000000745]","1","0","1","","","","","","","",""
"pit-trial","35","463214","0.0-2.0-8.2-1.2","battery-v0.2","","""event"",""trial"",""time""
""fullscreenenter"",""1"",""4765""
","
","
","""event"",""trial"",""time""
""fullscreenenter"",""1"",""4765""
","
","","","475","","","21","10374","786","&#9776;","elianto","#3366ff99"," "," ","1","+10","[1326.5]","1","0","1","","","","","","","",""
"pit-trial","36","467576","0.0-2.0-8.2-2.2","battery-v0.2","","""event"",""trial"",""time""
""fullscreenenter"",""1"",""4765""
","
","
","""event"",""trial"",""time""
""fullscreenenter"",""1"",""4765""
","
","","","1508.2999999998137","","","21","10374","786","&#9776;","elianto","#3366ff99"," "," ","1","+10","[2358.7000000001863]","1","0","1","","","","","","","",""
"pit-trial","37","472048","0.0-2.0-8.2-3.2","battery-v0.2","","""event"",""trial"",""time""
""fullscreenenter"",""1"",""4765""
","
","
","""event"",""trial"",""time""
""fullscreenenter"",""1"",""4765""
","
","","","1617","","","21","10374","786","&#9776;","elianto","#3366ff99"," "," ","1","0","[2468]","1","0","1","","","","","","","",""
"pit-trial","38","475483","0.0-2.0-8.2-4.2","battery-v0.2","","""event"",""trial"",""time""
""fullscreenenter"",""1"",""4765""
","
","
","""event"",""trial"",""time""
""fullscreenenter"",""1"",""4765""
","
","","","580.5999999996275","","","21","10374","786","&#9776;","elianto","#3366ff99"," "," ","1","+10","[1431.2000000001863]","1","0","1","","","","","","","",""
"call-function","39","475486","0.0-2.0-9.0","battery-v0.2","","""event"",""trial"",""time""
""fullscreenenter"",""1"",""4765""
","
","
","""event"",""trial"",""time""
""fullscreenenter"",""1"",""4765""
","
","","","","","","","","","","","","","","","","","","","","","","","","","","",""
"pit-instructions","40","520532","0.0-2.0-10.0","battery-v0.2","","""event"",""trial"",""time""
""fullscreenenter"",""1"",""4765""
","
","
","""event"",""trial"",""time""
""fullscreenenter"",""1"",""4765""
","
","","[{""page_index"":0,""viewing_time"":9252.799999999814},{""page_index"":1,""viewing_time"":9840.099999999627},{""page_index"":2,""viewing_time"":9188.700000000186},{""page_index"":3,""viewing_time"":9744.600000000559},{""page_index"":4,""viewing_time"":7018.699999999255}]","45045.59999999963","","","","","","","","","","","","","","","","","","","","","","","",""
"pit-trial","41","524130","0.0-2.0-11.0-0.0","battery-v0.2","","""event"",""trial"",""time""
""fullscreenenter"",""1"",""4765""
","
","
","""event"",""trial"",""time""
""fullscreenenter"",""1"",""4765""
","
","","","731.5","","","21","10374","786","&#9761;","elianto","#3366ff99","-1"," ","0","0","[1582.7000000001863]","1","0","2","","","","","","","",""
"pit-trial","42","528996","0.0-2.0-11.0-1.0","battery-v0.2","","""event"",""trial"",""time""
""fullscreenenter"",""1"",""4765""
","
","
","""event"",""trial"",""time""
""fullscreenenter"",""1"",""4765""
","
","","","-1","","","21","10374","786","&#9761;","elianto","#3366ff99","-1","-1","1","+10","[]","0","0","2","","","","","","","",""
"pit-trial","43","533855","0.0-2.0-11.0-2.0","battery-v0.2","","""event"",""trial"",""time""
""fullscreenenter"",""1"",""4765""
","
","
","""event"",""trial"",""time""
""fullscreenenter"",""1"",""4765""
","
","","","-1","","","21","10374","786","&#9761;","elianto","#3366ff99","-1","-1","1","+10","[]","0","0","2","","","","","","","",""
"pit-trial","44","538728","0.0-2.0-11.0-3.0","battery-v0.2","","""event"",""trial"",""time""
""fullscreenenter"",""1"",""4765""
","
","
","""event"",""trial"",""time""
""fullscreenenter"",""1"",""4765""
","
","","","-1","","","21","10374","786","&#9761;","elianto","#3366ff99","-1","-1","1","0","[]","0","0","2","","","","","","","",""
"pit-trial","45","543594","0.0-2.0-11.0-4.0","battery-v0.2","","""event"",""trial"",""time""
""fullscreenenter"",""1"",""4765""
","
","
","""event"",""trial"",""time""
""fullscreenenter"",""1"",""4765""
","
","","","-1","","","21","10374","786","&#9761;","elianto","#3366ff99","-1","-1","1","+10","[]","0","0","2","","","","","","","",""
"pit-trial","46","548468","0.0-2.0-11.1-0.1","battery-v0.2","","""event"",""trial"",""time""
""fullscreenenter"",""1"",""4765""
","
","
","""event"",""trial"",""time""
""fullscreenenter"",""1"",""4765""
","
","","","-1","","","21","10374","786","&#9761;","elianto","#3366ff99","-1","-1","1","+10","[]","0","0","2","","","","","","","",""
"pit-trial","47","553323","0.0-2.0-11.1-1.1","battery-v0.2","","""event"",""trial"",""time""
""fullscreenenter"",""1"",""4765""
","
","
","""event"",""trial"",""time""
""fullscreenenter"",""1"",""4765""
","
","","","-1","","","21","10374","786","&#9761;","elianto","#3366ff99","-1","-1","1","+10","[]","0","0","2","","","","","","","",""
"pit-trial","48","558178","0.0-2.0-11.1-2.1","battery-v0.2","","""event"",""trial"",""time""
""fullscreenenter"",""1"",""4765""
","
","
","""event"",""trial"",""time""
""fullscreenenter"",""1"",""4765""
","
","","","-1","","","21","10374","786","&#9761;","elianto","#3366ff99","-1","-1","1","+10","[]","0","0","2","","","","","","","",""
"pit-trial","49","563032","0.0-2.0-11.1-3.1","battery-v0.2","","""event"",""trial"",""time""
""fullscreenenter"",""1"",""4765""
","
","
","""event"",""trial"",""time""
""fullscreenenter"",""1"",""4765""
","
","","","-1","","","21","10374","786","&#9761;","elianto","#3366ff99","-1","-1","1","0","[]","0","0","2","","","","","","","",""
"pit-trial","50","567886","0.0-2.0-11.1-4.1","battery-v0.2","","""event"",""trial"",""time""
""fullscreenenter"",""1"",""4765""
","
","
","""event"",""trial"",""time""
""fullscreenenter"",""1"",""4765""
","
","","","-1","","","21","10374","786","&#9761;","elianto","#3366ff99","-1","-1","1","+10","[]","0","0","2","","","","","","","",""
"pit-trial","51","572741","0.0-2.0-11.2-0.2","battery-v0.2","","""event"",""trial"",""time""
""fullscreenenter"",""1"",""4765""
","
","
","""event"",""trial"",""time""
""fullscreenenter"",""1"",""4765""
","
","","","-1","","","21","10374","786","&#9761;","elianto","#3366ff99","-1","-1","1","+10","[]","0","0","2","","","","","","","",""
"pit-trial","52","577596","0.0-2.0-11.2-1.2","battery-v0.2","","""event"",""trial"",""time""
""fullscreenenter"",""1"",""4765""
","
","
","""event"",""trial"",""time""
""fullscreenenter"",""1"",""4765""
","
","","","-1","","","21","10374","786","&#9761;","elianto","#3366ff99","-1","-1","1","+10","[]","0","0","2","","","","","","","",""
"pit-trial","53","582450","0.0-2.0-11.2-2.2","battery-v0.2","","""event"",""trial"",""time""
""fullscreenenter"",""1"",""4765""
","
","
","""event"",""trial"",""time""
""fullscreenenter"",""1"",""4765""
","
","","","-1","","","21","10374","786","&#9761;","elianto","#3366ff99","-1","-1","1","+10","[]","0","0","2","","","","","","","",""
"pit-trial","54","587304","0.0-2.0-11.2-3.2","battery-v0.2","","""event"",""trial"",""time""
""fullscreenenter"",""1"",""4765""
","
","
","""event"",""trial"",""time""
""fullscreenenter"",""1"",""4765""
","
","","","-1","","","21","10374","786","&#9761;","elianto","#3366ff99","-1","-1","1","0","[]","0","0","2","","","","","","","",""
"pit-trial","55","592159","0.0-2.0-11.2-4.2","battery-v0.2","","""event"",""trial"",""time""
""fullscreenenter"",""1"",""4765""
","
","
","""event"",""trial"",""time""
""fullscreenenter"",""1"",""4765""
","
","","","-1","","","21","10374","786","&#9761;","elianto","#3366ff99","-1","-1","1","+10","[]","0","0","2","","","","","","","",""
"pit-trial","56","597014","0.0-2.0-11.3-0.3","battery-v0.2","","""event"",""trial"",""time""
""fullscreenenter"",""1"",""4765""
","
","
","""event"",""trial"",""time""
""fullscreenenter"",""1"",""4765""
","
","","","-1","","","21","10374","786","&#9761;","elianto","#3366ff99","-1","-1","1","+10","[]","0","0","2","","","","","","","",""
"pit-trial","57","601869","0.0-2.0-11.3-1.3","battery-v0.2","","""event"",""trial"",""time""
""fullscreenenter"",""1"",""4765""
","
","
","""event"",""trial"",""time""
""fullscreenenter"",""1"",""4765""
","
","","","-1","","","21","10374","786","&#9761;","elianto","#3366ff99","-1","-1","1","+10","[]","0","0","2","","","","","","","",""
"pit-trial","58","606724","0.0-2.0-11.3-2.3","battery-v0.2","","""event"",""trial"",""time""
""fullscreenenter"",""1"",""4765""
","
","
","""event"",""trial"",""time""
""fullscreenenter"",""1"",""4765""
","
","","","-1","","","21","10374","786","&#9761;","elianto","#3366ff99","-1","-1","1","+10","[]","0","0","2","","","","","","","",""
"pit-trial","59","611579","0.0-2.0-11.3-3.3","battery-v0.2","","""event"",""trial"",""time""
""fullscreenenter"",""1"",""4765""
","
","
","""event"",""trial"",""time""
""fullscreenenter"",""1"",""4765""
","
","","","-1","","","21","10374","786","&#9761;","elianto","#3366ff99","-1","-1","1","0","[2995.300000000745]","1","0","2","","","","","","","",""
"pit-trial","60","616433","0.0-2.0-11.3-4.3","battery-v0.2","","""event"",""trial"",""time""
""fullscreenenter"",""1"",""4765""
","
","
","""event"",""trial"",""time""
""fullscreenenter"",""1"",""4765""
","
","","","-1","","","21","10374","786","&#9761;","elianto","#3366ff99","-1","-1","1","+10","[]","0","0","2","","","","","","","",""
"call-function","61","616436","0.0-2.0-12.0","battery-v0.2","","""event"",""trial"",""time""
""fullscreenenter"",""1"",""4765""
","
","
","""event"",""trial"",""time""
""fullscreenenter"",""1"",""4765""
","
","","","","","","","","","","","","","","","","","","","","","","","","","","",""
"pit-instructions","62","651323","0.0-2.0-13.0","battery-v0.2","","""event"",""trial"",""time""
""fullscreenenter"",""1"",""4765""
","
","
","""event"",""trial"",""time""
""fullscreenenter"",""1"",""4765""
","
","","[{""page_index"":0,""viewing_time"":5370.5999999996275},{""page_index"":1,""viewing_time"":7521.60000000149},{""page_index"":2,""viewing_time"":6555.5999999996275},{""page_index"":3,""viewing_time"":10056.299999998882},{""page_index"":4,""viewing_time"":5381.5}]","34886.300000000745","","","","","","","","","","","","","","","","","","","","","","","",""
"pit-trial","63","656196","0.0-2.0-14.0-0.0","battery-v0.2","","""event"",""trial"",""time""
""fullscreenenter"",""1"",""4765""
","
","
","""event"",""trial"",""time""
""fullscreenenter"",""1"",""4765""
","
","","","-1","","","21","10374","786","&#9826;","elianto","#f73b6a7A","-1","-1","1","0","[]","0","0","3","","","","","","","",""
"pit-trial","64","661069","0.0-2.0-14.0-1.0","battery-v0.2","","""event"",""trial"",""time""
""fullscreenenter"",""1"",""4765""
","
","
","""event"",""trial"",""time""
""fullscreenenter"",""1"",""4765""
","
","","","-1","","","21","10374","786","&#9826;","elianto","#f73b6a7A","-1","-1","1","0","[]","0","0","3","","","","","","","",""
"pit-trial","65","665944","0.0-2.0-14.0-2.0","battery-v0.2","","""event"",""trial"",""time""
""fullscreenenter"",""1"",""4765""
","
","
","""event"",""trial"",""time""
""fullscreenenter"",""1"",""4765""
","
","","","-1","","","21","10374","786","&#9826;","elianto","#f73b6a7A","-1","-1","1","0","[]","0","0","3","","","","","","","",""
"pit-trial","66","669468","0.0-2.0-14.0-3.0","battery-v0.2","","""event"",""trial"",""time""
""fullscreenenter"",""1"",""4765""
","
","
","""event"",""trial"",""time""
""fullscreenenter"",""1"",""4765""
","
","","","652.5","","","21","10374","786","&#9826;","elianto","#f73b6a7A","-1"," ","0","0","[1507.800000000745]","1","0","3","","","","","","","",""
"pit-trial","67","672825","0.0-2.0-14.0-4.0","battery-v0.2","","""event"",""trial"",""time""
""fullscreenenter"",""1"",""4765""
","
","
","""event"",""trial"",""time""
""fullscreenenter"",""1"",""4765""
","
","","","487.7000000011176","","","21","10374","786","&#9826;","elianto","#f73b6a7A","-1"," ","0","-10","[1339.2000000011176]","1","0","3","","","","","","","",""
"pit-trial","68","676106","0.0-2.0-14.1-0.1","battery-v0.2","","""event"",""trial"",""time""
""fullscreenenter"",""1"",""4765""
","
","
","""event"",""trial"",""time""
""fullscreenenter"",""1"",""4765""
","
","","","416.19999999925494","","","21","10374","786","&#9826;","elianto","#f73b6a7A","-1"," ","0","-10","[1268]","1","0","3","","","","","","","",""
"pit-trial","69","680969","0.0-2.0-14.1-1.1","battery-v0.2","","""event"",""trial"",""time""
""fullscreenenter"",""1"",""4765""
","
","
","""event"",""trial"",""time""
""fullscreenenter"",""1"",""4765""
","
","","","-1","","","21","10374","786","&#9826;","elianto","#f73b6a7A","-1","-1","1","0","[]","0","0","3","","","","","","","",""
"pit-trial","70","685823","0.0-2.0-14.1-2.1","battery-v0.2","","""event"",""trial"",""time""
""fullscreenenter"",""1"",""4765""
","
","
","""event"",""trial"",""time""
""fullscreenenter"",""1"",""4765""
","
","","","-1","","","21","10374","786","&#9826;","elianto","#f73b6a7A","-1","-1","1","0","[]","0","0","3","","","","","","","",""
"pit-trial","71","690676","0.0-2.0-14.1-3.1","battery-v0.2","","""event"",""trial"",""time""
""fullscreenenter"",""1"",""4765""
","
","
","""event"",""trial"",""time""
""fullscreenenter"",""1"",""4765""
","
","","","-1","","","21","10374","786","&#9826;","elianto","#f73b6a7A","-1","-1","1","-10","[]","0","0","3","","","","","","","",""
"pit-trial","72","695530","0.0-2.0-14.1-4.1","battery-v0.2","","""event"",""trial"",""time""
""fullscreenenter"",""1"",""4765""
","
","
","""event"",""trial"",""time""
""fullscreenenter"",""1"",""4765""
","
","","","-1","","","21","10374","786","&#9826;","elianto","#f73b6a7A","-1","-1","1","0","[]","0","0","3","","","","","","","",""
"pit-trial","73","700386","0.0-2.0-14.2-0.2","battery-v0.2","","""event"",""trial"",""time""
""fullscreenenter"",""1"",""4765""
","
","
","""event"",""trial"",""time""
""fullscreenenter"",""1"",""4765""
","
","","","-1","","","21","10374","786","&#9826;","elianto","#f73b6a7A","-1","-1","1","0","[]","0","0","3","","","","","","","",""
"pit-trial","74","705242","0.0-2.0-14.2-1.2","battery-v0.2","","""event"",""trial"",""time""
""fullscreenenter"",""1"",""4765""
","
","
","""event"",""trial"",""time""
""fullscreenenter"",""1"",""4765""
","
","","","-1","","","21","10374","786","&#9826;","elianto","#f73b6a7A","-1","-1","1","0","[]","0","0","3","","","","","","","",""
"pit-trial","75","710097","0.0-2.0-14.2-2.2","battery-v0.2","","""event"",""trial"",""time""
""fullscreenenter"",""1"",""4765""
","
","
","""event"",""trial"",""time""
""fullscreenenter"",""1"",""4765""
","
","","","-1","","","21","10374","786","&#9826;","elianto","#f73b6a7A","-1","-1","1","0","[]","0","0","3","","","","","","","",""
"pit-trial","76","714951","0.0-2.0-14.2-3.2","battery-v0.2","","""event"",""trial"",""time""
""fullscreenenter"",""1"",""4765""
","
","
","""event"",""trial"",""time""
""fullscreenenter"",""1"",""4765""
","
","","","-1","","","21","10374","786","&#9826;","elianto","#f73b6a7A","-1","-1","1","-10","[]","0","0","3","","","","","","","",""
"pit-trial","77","719805","0.0-2.0-14.2-4.2","battery-v0.2","","""event"",""trial"",""time""
""fullscreenenter"",""1"",""4765""
","
","
","""event"",""trial"",""time""
""fullscreenenter"",""1"",""4765""
","
","","","-1","","","21","10374","786","&#9826;","elianto","#f73b6a7A","-1","-1","1","0","[]","0","0","3","","","","","","","",""
"pit-trial","78","724668","0.0-2.0-14.3-0.3","battery-v0.2","","""event"",""trial"",""time""
""fullscreenenter"",""1"",""4765""
","
","
","""event"",""trial"",""time""
""fullscreenenter"",""1"",""4765""
","
","","","-1","","","21","10374","786","&#9826;","elianto","#f73b6a7A","-1","-1","1","0","[]","0","0","3","","","","","","","",""
"pit-trial","79","729521","0.0-2.0-14.3-1.3","battery-v0.2","","""event"",""trial"",""time""
""fullscreenenter"",""1"",""4765""
","
","
","""event"",""trial"",""time""
""fullscreenenter"",""1"",""4765""
","
","","","-1","","","21","10374","786","&#9826;","elianto","#f73b6a7A","-1","-1","1","0","[]","0","0","3","","","","","","","",""
"pit-trial","80","734374","0.0-2.0-14.3-2.3","battery-v0.2","","""event"",""trial"",""time""
""fullscreenenter"",""1"",""4765""
","
","
","""event"",""trial"",""time""
""fullscreenenter"",""1"",""4765""
","
","","","-1","","","21","10374","786","&#9826;","elianto","#f73b6a7A","-1","-1","1","0","[]","0","0","3","","","","","","","",""
"pit-trial","81","739228","0.0-2.0-14.3-3.3","battery-v0.2","","""event"",""trial"",""time""
""fullscreenenter"",""1"",""4765""
","
","
","""event"",""trial"",""time""
""fullscreenenter"",""1"",""4765""
","
","","","-1","","","21","10374","786","&#9826;","elianto","#f73b6a7A","-1","-1","1","-10","[]","0","0","3","","","","","","","",""
"pit-trial","82","744083","0.0-2.0-14.3-4.3","battery-v0.2","","""event"",""trial"",""time""
""fullscreenenter"",""1"",""4765""
","
","
","""event"",""trial"",""time""
""fullscreenenter"",""1"",""4765""
","
","","","-1","","","21","10374","786","&#9826;","elianto","#f73b6a7A","-1","-1","1","0","[]","0","0","3","","","","","","","",""
"call-function","83","744086","0.0-2.0-15.0","battery-v0.2","","""event"",""trial"",""time""
""fullscreenenter"",""1"",""4765""
","
","
","""event"",""trial"",""time""
""fullscreenenter"",""1"",""4765""
","
","","","","","","","","","","","","","","","","","","","","","","","","","","",""
"pit-instructions","84","773749","0.0-2.0-16.0","battery-v0.2","","""event"",""trial"",""time""
""fullscreenenter"",""1"",""4765""
","
","
","""event"",""trial"",""time""
""fullscreenenter"",""1"",""4765""
","
","","[{""page_index"":0,""viewing_time"":7393.699999999255},{""page_index"":1,""viewing_time"":10526},{""page_index"":2,""viewing_time"":6221.700000001118},{""page_index"":3,""viewing_time"":5520.4000000003725}]","29662.400000000373","","","","","","","","","","","","","","","","","","","","","","","",""
"pit-trial","85","777208","0.0-2.0-17.0-0.0","battery-v0.2","","""event"",""trial"",""time""
""fullscreenenter"",""1"",""4765""
","
","
","""event"",""trial"",""time""
""fullscreenenter"",""1"",""4765""
","
","","","598.3000000007451","","","21","10374","786","&#9789;","elianto","#f73b6a7A"," "," ","1","0","[1452.0999999996275]","1","0","4","","","","","","","",""
"pit-trial","86","780625","0.0-2.0-17.0-1.0","battery-v0.2","","""event"",""trial"",""time""
""fullscreenenter"",""1"",""4765""
","
","
","""event"",""trial"",""time""
""fullscreenenter"",""1"",""4765""
","
","","","560.2000000011176","","","21","10374","786","&#9789;","elianto","#f73b6a7A"," "," ","1","0","[1410.2000000011176]","1","0","4","","","","","","","",""
"pit-trial","87","783970","0.0-2.0-17.0-2.0","battery-v0.2","","""event"",""trial"",""time""
""fullscreenenter"",""1"",""4765""
","
","
","""event"",""trial"",""time""
""fullscreenenter"",""1"",""4765""
","
","","","480","","","21","10374","786","&#9789;","elianto","#f73b6a7A"," "," ","1","0","[1330.4000000003725]","1","0","4","","","","","","","",""
"pit-trial","88","787525","0.0-2.0-17.0-3.0","battery-v0.2","","""event"",""trial"",""time""
""fullscreenenter"",""1"",""4765""
","
","
","""event"",""trial"",""time""
""fullscreenenter"",""1"",""4765""
","
","","","684.1999999992549","","","21","10374","786","&#9789;","elianto","#f73b6a7A"," "," ","1","-10","[1538.4000000003725]","1","0","4","","","","","","","",""
"pit-trial","89","790905","0.0-2.0-17.0-4.0","battery-v0.2","","""event"",""trial"",""time""
""fullscreenenter"",""1"",""4765""
","
","
","""event"",""trial"",""time""
""fullscreenenter"",""1"",""4765""
","
","","","514.8000000007451","","","21","10374","786","&#9789;","elianto","#f73b6a7A"," "," ","1","0","[1371.0999999996275]","1","0","4","","","","","","","",""
"pit-trial","90","794093","0.0-2.0-17.1-0.1","battery-v0.2","","""event"",""trial"",""time""
""fullscreenenter"",""1"",""4765""
","
","
","""event"",""trial"",""time""
""fullscreenenter"",""1"",""4765""
","
","","","316.19999999925494","","","21","10374","786","&#9789;","elianto","#f73b6a7A"," "," ","1","0","[1169.699999999255]","1","0","4","","","","","","","",""
"pit-trial","91","798346","0.0-2.0-17.1-1.1","battery-v0.2","","""event"",""trial"",""time""
""fullscreenenter"",""1"",""4765""
","
","
","""event"",""trial"",""time""
""fullscreenenter"",""1"",""4765""
","
","","","1392","","","21","10374","786","&#9789;","elianto","#f73b6a7A"," "," ","1","0","[2242.5]","1","0","4","","","","","","","",""
"pit-trial","92","801300","0.0-2.0-17.1-2.1","battery-v0.2","","""event"",""trial"",""time""
""fullscreenenter"",""1"",""4765""
","
","
","""event"",""trial"",""time""
""fullscreenenter"",""1"",""4765""
","
","","","84.09999999962747","","","21","10374","786","&#9789;","elianto","#f73b6a7A"," "," ","1","0","[938.5999999996275]","1","0","4","","","","","","","",""
"pit-trial","93","805667","0.0-2.0-17.1-3.1","battery-v0.2","","""event"",""trial"",""time""
""fullscreenenter"",""1"",""4765""
","
","
","""event"",""trial"",""time""
""fullscreenenter"",""1"",""4765""
","
","","","1510.8999999985099","","","21","10374","786","&#9789;","elianto","#f73b6a7A"," "," ","1","-10","[2363.199999999255]","1","0","4","","","","","","","",""
"pit-trial","94","809720","0.0-2.0-17.1-4.1","battery-v0.2","","""event"",""trial"",""time""
""fullscreenenter"",""1"",""4765""
","
","
","""event"",""trial"",""time""
""fullscreenenter"",""1"",""4765""
","
","","","1199.800000000745","","","21","10374","786","&#9789;","elianto","#f73b6a7A"," "," ","1","0","[2050.7000000011176]","1","0","4","","","","","","","",""
"pit-trial","95","814575","0.0-2.0-17.2-0.2","battery-v0.2","","""event"",""trial"",""time""
""fullscreenenter"",""1"",""4765""
","
","
","""event"",""trial"",""time""
""fullscreenenter"",""1"",""4765""
","
","","","1999","","","21","10374","786","&#9789;","elianto","#f73b6a7A"," "," ","1","0","[2850.9000000003725]","1","0","4","","","","","","","",""
"pit-trial","96","818323","0.0-2.0-17.2-1.2","battery-v0.2","","""event"",""trial"",""time""
""fullscreenenter"",""1"",""4765""
","
","
","""event"",""trial"",""time""
""fullscreenenter"",""1"",""4765""
","
","","","893.6000000014901","","","21","10374","786","&#9789;","elianto","#f73b6a7A"," "," ","1","0","[1744.699999999255]","1","0","4","","","","","","","",""
"pit-trial","97","821890","0.0-2.0-17.2-2.2","battery-v0.2","","""event"",""trial"",""time""
""fullscreenenter"",""1"",""4765""
","
","
","""event"",""trial"",""time""
""fullscreenenter"",""1"",""4765""
","
","","","712.1999999992549","","","21","10374","786","&#9789;","elianto","#f73b6a7A"," "," ","1","0","[1562.3999999985099]","1","0","4","","","","","","","",""
"pit-trial","98","825214","0.0-2.0-17.2-3.2","battery-v0.2","","""event"",""trial"",""time""
""fullscreenenter"",""1"",""4765""
","
","
","""event"",""trial"",""time""
""fullscreenenter"",""1"",""4765""
","
","","","469.90000000037253","","","21","10374","786","&#9789;","elianto","#f73b6a7A"," "," ","1","-10","[1319.7999999988824]","1","0","4","","","","","","","",""
"pit-trial","99","828721","0.0-2.0-17.2-4.2","battery-v0.2","","""event"",""trial"",""time""
""fullscreenenter"",""1"",""4765""
","
","
","""event"",""trial"",""time""
""fullscreenenter"",""1"",""4765""
","
","","","653.0999999996275","","","21","10374","786","&#9789;","elianto","#f73b6a7A"," "," ","1","0","[1503.7999999988824]","1","0","4","","","","","","","",""
"pit-trial","100","833577","0.0-2.0-17.3-0.3","battery-v0.2","","""event"",""trial"",""time""
""fullscreenenter"",""1"",""4765""
","
","
","""event"",""trial"",""time""
""fullscreenenter"",""1"",""4765""
","
","","","-1","","","21","10374","786","&#9789;","elianto","#f73b6a7A"," ","-1","0","-10","[4710.800000000745]","1","0","4","","","","","","","",""
"pit-trial","101","836714","0.0-2.0-17.3-1.3","battery-v0.2","","""event"",""trial"",""time""
""fullscreenenter"",""1"",""4765""
","
","
","""event"",""trial"",""time""
""fullscreenenter"",""1"",""4765""
","
","","","282.7999999988824","","","21","10374","786","&#9789;","elianto","#f73b6a7A"," "," ","1","0","[1133.2999999988824]","1","0","4","","","","","","","",""
"pit-trial","102","840048","0.0-2.0-17.3-2.3","battery-v0.2","","""event"",""trial"",""time""
""fullscreenenter"",""1"",""4765""
","
","
","""event"",""trial"",""time""
""fullscreenenter"",""1"",""4765""
","
","","","465.90000000037253","","","21","10374","786","&#9789;","elianto","#f73b6a7A"," "," ","1","0","[1316.2999999988824]","1","0","4","","","","","","","",""
"pit-trial","103","843263","0.0-2.0-17.3-3.3","battery-v0.2","","""event"",""trial"",""time""
""fullscreenenter"",""1"",""4765""
","
","
","""event"",""trial"",""time""
""fullscreenenter"",""1"",""4765""
","
","","","360.6000000014901","","","21","10374","786","&#9789;","elianto","#f73b6a7A"," "," ","1","-10","[1211.8999999985099]","1","0","4","","","","","","","",""
"pit-trial","104","846419","0.0-2.0-17.3-4.3","battery-v0.2","","""event"",""trial"",""time""
""fullscreenenter"",""1"",""4765""
","
","
","""event"",""trial"",""time""
""fullscreenenter"",""1"",""4765""
","
","","","302.6000000014901","","","21","10374","786","&#9789;","elianto","#f73b6a7A"," "," ","1","0","[1152.7999999988824]","1","0","4","","","","","","","",""
"call-function","105","846422","0.0-2.0-18.0","battery-v0.2","","""event"",""trial"",""time""
""fullscreenenter"",""1"",""4765""
","
","
","""event"",""trial"",""time""
""fullscreenenter"",""1"",""4765""
","
","","","","","","","","","","","","","","","","","","","","","","","","","","",""
"pit-instructions","106","914503","0.0-2.0-19.0","battery-v0.2","","""event"",""trial"",""time""
""fullscreenenter"",""1"",""4765""
","
","
","""event"",""trial"",""time""
""fullscreenenter"",""1"",""4765""
","
","","[{""page_index"":0,""viewing_time"":7775.700000001118},{""page_index"":1,""viewing_time"":4420.39999999851},{""page_index"":2,""viewing_time"":9195.400000000373},{""page_index"":3,""viewing_time"":4935.9000000003725},{""page_index"":4,""viewing_time"":8779.5},{""page_index"":5,""viewing_time"":9924.300000000745},{""page_index"":6,""viewing_time"":6616.799999998882},{""page_index"":7,""viewing_time"":7723.5},{""page_index"":8,""viewing_time"":8708.5}]","68080.40000000037","","","","","","","","","","","","","","","","","","","","","","","",""
"pit-comprehension","107","919313","0.0-2.0-20.0-0.0","battery-v0.2","","""event"",""trial"",""time""
""fullscreenenter"",""1"",""4765""
","
","
","""event"",""trial"",""time""
""fullscreenenter"",""1"",""4765""
","
","","","4803.5","[""SPACE""]","0","21","10374","786","","","","","","","","","","","","","","","","","","",""
"pit-instructions","108","928157","0.0-2.0-20.0-1.0","battery-v0.2","","""event"",""trial"",""time""
""fullscreenenter"",""1"",""4765""
","
","
","""event"",""trial"",""time""
""fullscreenenter"",""1"",""4765""
","
","","[{""page_index"":0,""viewing_time"":8780.300000000745}]","8780.800000000745","","","","","","","","","","","","","","","","","","","","","","","",""
"pit-comprehension","109","932985","0.0-2.0-21.0-0.0","battery-v0.2","","""event"",""trial"",""time""
""fullscreenenter"",""1"",""4765""
","
","
","""event"",""trial"",""time""
""fullscreenenter"",""1"",""4765""
","
","","","4821.799999998882","[""10""]","0","21","10374","786","","","","","","","","","","","","","","","","","","",""
"pit-instructions","110","937714","0.0-2.0-21.0-1.0","battery-v0.2","","""event"",""trial"",""time""
""fullscreenenter"",""1"",""4765""
","
","
","""event"",""trial"",""time""
""fullscreenenter"",""1"",""4765""
","
","","[{""page_index"":0,""viewing_time"":4673.4000000003725}]","4673.800000000745","","","","","","","","","","","","","","","","","","","","","","","",""
"pit-comprehension","111","944536","0.0-2.0-22.0-0.0","battery-v0.2","","""event"",""trial"",""time""
""fullscreenenter"",""1"",""4765""
","
","
","""event"",""trial"",""time""
""fullscreenenter"",""1"",""4765""
","
","","","6815.700000001118","[""0""]","0","21","10374","786","","","","","","","","","","","","","","","","","","",""
"pit-instructions","112","947217","0.0-2.0-22.0-1.0","battery-v0.2","","""event"",""trial"",""time""
""fullscreenenter"",""1"",""4765""
","
","
","""event"",""trial"",""time""
""fullscreenenter"",""1"",""4765""
","
","","[{""page_index"":0,""viewing_time"":2634.2000000011176}]","2634.7000000011176","","","","","","","","","","","","","","","","","","","","","","","",""
"pit-comprehension","113","955285","0.0-2.0-23.0-0.0","battery-v0.2","","""event"",""trial"",""time""
""fullscreenenter"",""1"",""4765""
","
","
","""event"",""trial"",""time""
""fullscreenenter"",""1"",""4765""
","
","","","8061.5","[""True""]","0","21","10374","786","","","","","","","","","","","","","","","","","","",""
"pit-instructions","114","956700","0.0-2.0-23.0-1.0","battery-v0.2","","""event"",""trial"",""time""
""fullscreenenter"",""1"",""4765""
","
","
","""event"",""trial"",""time""
""fullscreenenter"",""1"",""4765""
","
","","[{""page_index"":0,""viewing_time"":1355.4000000003725}]","1355.9000000003725","","","","","","","","","","","","","","","","","","","","","","","",""
"pit-comprehension","115","964360","0.0-2.0-24.0-0.0","battery-v0.2","","""event"",""trial"",""time""
""fullscreenenter"",""1"",""4765""
","
","
","""event"",""trial"",""time""
""fullscreenenter"",""1"",""4765""
","
","","","7654.200000001118","[""True""]","0","21","10374","786","","","","","","","","","","","","","","","","","","",""
"pit-instructions","116","966064","0.0-2.0-24.0-1.0","battery-v0.2","","""event"",""trial"",""time""
""fullscreenenter"",""1"",""4765""
","
","
","""event"",""trial"",""time""
""fullscreenenter"",""1"",""4765""
","
","","[{""page_index"":0,""viewing_time"":1647}]","1647.4000000003725","","","","","","","","","","","","","","","","","","","","","","","",""
"pit-comprehension","117","973196","0.0-2.0-25.0-0.0","battery-v0.2","","""event"",""trial"",""time""
""fullscreenenter"",""1"",""4765""
","
","
","""event"",""trial"",""time""
""fullscreenenter"",""1"",""4765""
","
","","","7127.0999999996275","[""True""]","0","21","10374","786","","","","","","","","","","","","","","","","","","",""
"pit-instructions","118","975029","0.0-2.0-25.0-1.0","battery-v0.2","","""event"",""trial"",""time""
""fullscreenenter"",""1"",""4765""
","
","
","""event"",""trial"",""time""
""fullscreenenter"",""1"",""4765""
","
","","[{""page_index"":0,""viewing_time"":1783.199999999255}]","1783.699999999255","","","","","","","","","","","","","","","","","","","","","","","",""
"pit-comprehension","119","981541","0.0-2.0-26.0-0.0","battery-v0.2","","""event"",""trial"",""time""
""fullscreenenter"",""1"",""4765""
","
","
","""event"",""trial"",""time""
""fullscreenenter"",""1"",""4765""
","
","","","6506.700000001118","[""False""]","0","21","10374","786","","","","","","","","","","","","","","","","","","",""
"pit-instructions","120","984021","0.0-2.0-26.0-1.0","battery-v0.2","","""event"",""trial"",""time""
""fullscreenenter"",""1"",""4765""
","
","
","""event"",""trial"",""time""
""fullscreenenter"",""1"",""4765""
","
","","[{""page_index"":0,""viewing_time"":2423}]","2423.4000000003725","","","","","","","","","","","","","","","","","","","","","","","",""
"pit-instructions","121","1003309","0.0-3.0","battery-v0.2","","""event"",""trial"",""time""
""fullscreenenter"",""1"",""4765""
","
","
","""event"",""trial"",""time""
""fullscreenenter"",""1"",""4765""
","
","","[{""page_index"":0,""viewing_time"":4273.5},{""page_index"":1,""viewing_time"":7037.200000001118},{""page_index"":2,""viewing_time"":7973.5999999996275}]","19284.900000000373","","","","","","","","","","","","","","","","","","","","","","","",""
"pit-trial","122","1008146","0.0-4.0","battery-v0.2","","""event"",""trial"",""time""
""fullscreenenter"",""1"",""4765""
","
","
","""event"",""trial"",""time""
""fullscreenenter"",""1"",""4765""
","
","","","1968.699999999255","","","21","10374","786","&#9728;","elianto","#f73b6a7A","-1"," ","0","-10","[2825.5999999996275]","1","1","","","10374","1","0","4","lose","no-go","0"
"pit-trial","123","1011922","0.0-5.0","battery-v0.2","","""event"",""trial"",""time""
""fullscreenenter"",""1"",""4765""
","
","
","""event"",""trial"",""time""
""fullscreenenter"",""1"",""4765""
","
","","","917.5","","","21","10374","786","&#9730;","elianto","#3366ff99"," "," ","1","0","[1771.3999999985099]","1","1","","","10374","2","1","1","win","go","1"
"pit-trial","124","1015725","0.0-6.0","battery-v0.2","","""event"",""trial"",""time""
""fullscreenenter"",""1"",""4765""
","
","
","""event"",""trial"",""time""
""fullscreenenter"",""1"",""4765""
","
","","","937","","","21","10374","786","&#9752;","elianto","#f73b6a7A"," "," ","1","0","[1787.5999999996275]","1","1","","","10374","3","3","3","lose","go","0"
"pit-trial","125","1019409","0.0-7.0","battery-v0.2","","""event"",""trial"",""time""
""fullscreenenter"",""1"",""4765""
","
","
","""event"",""trial"",""time""
""fullscreenenter"",""1"",""4765""
","
","","","823.0999999996275","","","21","10374","786","&#9733;","elianto","#3366ff99","-1"," ","0","0","[1676]","1","1","","","10374","4","2","2","win","no-go","0"
"pit-trial","126","1024285","0.0-8.0","battery-v0.2","","""event"",""trial"",""time""
""fullscreenenter"",""1"",""4765""
","
","
","""event"",""trial"",""time""
""fullscreenenter"",""1"",""4765""
","
","","","-1","","","21","10374","786","&#9728;","elianto","#f73b6a7A","-1","-1","1","0","[]","0","1","","","10374","5","0","4","lose","no-go","0"
"pit-trial","127","1027883","0.0-9.0","battery-v0.2","","""event"",""trial"",""time""
""fullscreenenter"",""1"",""4765""
","
","
","""event"",""trial"",""time""
""fullscreenenter"",""1"",""4765""
","
","","","741.6999999992549","","","21","10374","786","&#9752;","elianto","#f73b6a7A"," "," ","1","0","[1593.8999999985099]","1","1","","","10374","6","3","3","lose","go","0"
"pit-trial","128","1032750","0.0-10.0","battery-v0.2","","""event"",""trial"",""time""
""fullscreenenter"",""1"",""4765""
","
","
","""event"",""trial"",""time""
""fullscreenenter"",""1"",""4765""
","
","","","-1","","","21","10374","786","&#9730;","elianto","#3366ff99"," ","-1","0","0","[]","0","1","","","10374","7","1","1","win","go","0"
"pit-trial","129","1037109","0.0-11.0","battery-v0.2","","""event"",""trial"",""time""
""fullscreenenter"",""1"",""4765""
","
","
","""event"",""trial"",""time""
""fullscreenenter"",""1"",""4765""
","
","","","1504.7999999988824","","","21","10374","786","&#9733;","elianto","#3366ff99","-1"," ","0","+10","[2355.9000000003725]","1","1","","","10374","8","2","2","win","no-go","1"
"pit-trial","130","1041704","0.0-12.0","battery-v0.2","","""event"",""trial"",""time""
""fullscreenenter"",""1"",""4765""
","
","
","""event"",""trial"",""time""
""fullscreenenter"",""1"",""4765""
","
","","","1740.5","","","21","10374","786","&#9730;","elianto","#3366ff99"," "," ","1","0","[2591.4000000003725]","1","1","","","10374","9","1","1","win","go","1"
"pit-trial","131","1046560","0.0-13.0","battery-v0.2","","""event"",""trial"",""time""
""fullscreenenter"",""1"",""4765""
","
","
","""event"",""trial"",""time""
""fullscreenenter"",""1"",""4765""
","
","","","-1","","","21","10374","786","&#9728;","elianto","#f73b6a7A","-1","-1","1","0","[]","0","1","","","10374","10","0","4","lose","no-go","0"
"pit-trial","132","1050367","0.0-14.0","battery-v0.2","","""event"",""trial"",""time""
""fullscreenenter"",""1"",""4765""
","
","
","""event"",""trial"",""time""
""fullscreenenter"",""1"",""4765""
","
","","","952.5","","","21","10374","786","&#9733;","elianto","#3366ff99","-1"," ","0","0","[1802.7999999988824]","1","1","","","10374","11","2","2","win","no-go","0"
"pit-trial","133","1054192","0.0-15.0","battery-v0.2","","""event"",""trial"",""time""
""fullscreenenter"",""1"",""4765""
","
","
","""event"",""trial"",""time""
""fullscreenenter"",""1"",""4765""
","
","","","969.6999999992549","","","21","10374","786","&#9752;","elianto","#f73b6a7A"," "," ","1","0","[1821.0999999996275]","1","1","","","10374","12","3","3","lose","go","0"
"pit-trial","134","1059046","0.0-16.0","battery-v0.2","","""event"",""trial"",""time""
""fullscreenenter"",""1"",""4765""
","
","
","""event"",""trial"",""time""
""fullscreenenter"",""1"",""4765""
","
","","","-1","","","21","10374","786","&#9728;","elianto","#f73b6a7A","-1","-1","1","0","[]","0","1","","","10374","13","0","4","lose","no-go","0"
"pit-trial","135","1062652","0.0-17.0","battery-v0.2","","""event"",""trial"",""time""
""fullscreenenter"",""1"",""4765""
","
","
","""event"",""trial"",""time""
""fullscreenenter"",""1"",""4765""
","
","","","751.2999999988824","","","21","10374","786","&#9752;","elianto","#f73b6a7A"," "," ","1","0","[1602.5999999996275]","1","1","","","10374","14","3","3","lose","go","0"
"pit-trial","136","1067128","0.0-18.0","battery-v0.2","","""event"",""trial"",""time""
""fullscreenenter"",""1"",""4765""
","
","
","""event"",""trial"",""time""
""fullscreenenter"",""1"",""4765""
","
","","","1620.9000000003725","","","21","10374","786","&#9733;","elianto","#3366ff99","-1"," ","0","+10","[2472.2000000011176]","1","1","","","10374","15","2","2","win","no-go","1"
"pit-trial","137","1071984","0.0-19.0","battery-v0.2","","""event"",""trial"",""time""
""fullscreenenter"",""1"",""4765""
","
","
","""event"",""trial"",""time""
""fullscreenenter"",""1"",""4765""
","
","","","-1","","","21","10374","786","&#9730;","elianto","#3366ff99"," ","-1","0","0","[]","0","1","","","10374","16","1","1","win","go","0"
"pit-trial","138","1076840","0.0-20.0","battery-v0.2","","""event"",""trial"",""time""
""fullscreenenter"",""1"",""4765""
","
","
","""event"",""trial"",""time""
""fullscreenenter"",""1"",""4765""
","
","","","-1","","","21","10374","786","&#9728;","elianto","#f73b6a7A","-1","-1","1","0","[]","0","1","","","10374","17","0","4","lose","no-go","0"
"pit-trial","139","1080587","0.0-21.0","battery-v0.2","","""event"",""trial"",""time""
""fullscreenenter"",""1"",""4765""
","
","
","""event"",""trial"",""time""
""fullscreenenter"",""1"",""4765""
","
","","","893.0999999996275","","","21","10374","786","&#9752;","elianto","#f73b6a7A"," "," ","1","-10","[1743.2999999988824]","1","1","","","10374","18","3","3","lose","go","1"
"pit-trial","140","1084333","0.0-22.0","battery-v0.2","","""event"",""trial"",""time""
""fullscreenenter"",""1"",""4765""
","
","
","""event"",""trial"",""time""
""fullscreenenter"",""1"",""4765""
","
","","","891.7000000011176","","","21","10374","786","&#9733;","elianto","#3366ff99","-1"," ","0","0","[1742.5]","1","1","","","10374","19","2","2","win","no-go","0"
"pit-trial","141","1089189","0.0-23.0","battery-v0.2","","""event"",""trial"",""time""
""fullscreenenter"",""1"",""4765""
","
","
","""event"",""trial"",""time""
""fullscreenenter"",""1"",""4765""
","
","","","-1","","","21","10374","786","&#9730;","elianto","#3366ff99"," ","-1","0","0","[]","0","1","","","10374","20","1","1","win","go","0"
"pit-instructions","142","1102963","0.0-24.0","battery-v0.2","","""event"",""trial"",""time""
""fullscreenenter"",""1"",""4765""
","
","
","""event"",""trial"",""time""
""fullscreenenter"",""1"",""4765""
","
","","[{""page_index"":0,""viewing_time"":6427},{""page_index"":1,""viewing_time"":7343.9000000003725}]","13771.5","","","","","","","","","","","","","","","","","","","","","","","",""
"pit-trial","143","1106759","0.0-25.0","battery-v0.2","","""event"",""trial"",""time""
""fullscreenenter"",""1"",""4765""
","
","
","""event"",""trial"",""time""
""fullscreenenter"",""1"",""4765""
","
","","","922.3000000007451","","","21","10374","786","y","elianto","#f73b6a7A","-1"," ","0","-10","[1779.5999999996275]","1","2","","","10374","21","2","4","lose","no-go","0"
"pit-trial","144","1111342","0.0-26.0","battery-v0.2","","""event"",""trial"",""time""
""fullscreenenter"",""1"",""4765""
","
","
","""event"",""trial"",""time""
""fullscreenenter"",""1"",""4765""
","
","","","1722.800000000745","","","21","10374","786","r","elianto","#3366ff99"," "," ","1","+10","[2573.4000000003725]","1","2","","","10374","22","1","1","win","go","0"
"pit-trial","145","1115028","0.0-27.0","battery-v0.2","","""event"",""trial"",""time""
""fullscreenenter"",""1"",""4765""
","
","
","""event"",""trial"",""time""
""fullscreenenter"",""1"",""4765""
","
","","","824.5999999996275","","","21","10374","786","m","elianto","#f73b6a7A","-1"," ","0","-10","[1682.5999999996275]","1","2","","","10374","23","0","4","lose","no-go","0"
"pit-trial","146","1119063","0.0-28.0","battery-v0.2","","""event"",""trial"",""time""
""fullscreenenter"",""1"",""4765""
","
","
","""event"",""trial"",""time""
""fullscreenenter"",""1"",""4765""
","
","","","1178.5","","","21","10374","786","h","elianto","#f73b6a7A"," "," ","1","0","[2030.0999999996275]","1","2","","","10374","24","3","3","lose","go","0"
"pit-trial","147","1123932","0.0-29.0","battery-v0.2","","""event"",""trial"",""time""
""fullscreenenter"",""1"",""4765""
","
","
","""event"",""trial"",""time""
""fullscreenenter"",""1"",""4765""
","
","","","-1","","","21","10374","786","m","elianto","#f73b6a7A","-1","-1","1","0","[]","0","2","","","10374","25","0","4","lose","no-go","0"
"pit-trial","148","1128102","0.0-30.0","battery-v0.2","","""event"",""trial"",""time""
""fullscreenenter"",""1"",""4765""
","
","
","""event"",""trial"",""time""
""fullscreenenter"",""1"",""4765""
","
","","","1296.9000000003725","","","21","10374","786","h","elianto","#f73b6a7A"," "," ","1","0","[2151.7000000011176]","1","2","","","10374","26","3","3","lose","go","0"
"pit-trial","149","1131738","0.0-31.0","battery-v0.2","","""event"",""trial"",""time""
""fullscreenenter"",""1"",""4765""
","
","
","""event"",""trial"",""time""
""fullscreenenter"",""1"",""4765""
","
","","","769","","","21","10374","786","r","elianto","#3366ff99"," "," ","1","+10","[1622.8999999985099]","1","2","","","10374","27","1","1","win","go","0"
"pit-trial","150","1136103","0.0-32.0","battery-v0.2","","""event"",""trial"",""time""
""fullscreenenter"",""1"",""4765""
","
","
","""event"",""trial"",""time""
""fullscreenenter"",""1"",""4765""
","
","","","1510.800000000745","","","21","10374","786","y","elianto","#f73b6a7A","-1"," ","0","-10","[2361]","1","2","","","10374","28","2","4","lose","no-go","0"
"pit-trial","151","1140861","0.0-33.0","battery-v0.2","","""event"",""trial"",""time""
""fullscreenenter"",""1"",""4765""
","
","
","""event"",""trial"",""time""
""fullscreenenter"",""1"",""4765""
","
","","","1902.699999999255","","","21","10374","786","h","elianto","#f73b6a7A"," "," ","1","0","[2754.5999999996275]","1","2","","","10374","29","3","3","lose","go","0"
"pit-trial","152","1145715","0.0-34.0","battery-v0.2","","""event"",""trial"",""time""
""fullscreenenter"",""1"",""4765""
","
","
","""event"",""trial"",""time""
""fullscreenenter"",""1"",""4765""
","
","","","-1","","","21","10374","786","m","elianto","#f73b6a7A","-1","-1","1","0","[]","0","2","","","10374","30","0","4","lose","no-go","0"
"pit-trial","153","1149666","0.0-35.0","battery-v0.2","","""event"",""trial"",""time""
""fullscreenenter"",""1"",""4765""
","
","
","""event"",""trial"",""time""
""fullscreenenter"",""1"",""4765""
","
","","","1097.7999999988824","","","21","10374","786","r","elianto","#3366ff99"," "," ","1","+10","[1948.2999999988824]","1","2","","","10374","31","1","1","win","go","0"
"pit-trial","154","1154522","0.0-36.0","battery-v0.2","","""event"",""trial"",""time""
""fullscreenenter"",""1"",""4765""
","
","
","""event"",""trial"",""time""
""fullscreenenter"",""1"",""4765""
","
","","","-1","","","21","10374","786","y","elianto","#f73b6a7A","-1","-1","1","0","[]","0","2","","","10374","32","2","4","lose","no-go","0"
"pit-trial","155","1158166","0.0-37.0","battery-v0.2","","""event"",""trial"",""time""
""fullscreenenter"",""1"",""4765""
","
","
","""event"",""trial"",""time""
""fullscreenenter"",""1"",""4765""
","
","","","788.6999999992549","","","21","10374","786","r","elianto","#3366ff99"," "," ","1","+10","[1640.4000000003725]","1","2","","","10374","33","1","1","win","go","0"
"pit-trial","156","1163020","0.0-38.0","battery-v0.2","","""event"",""trial"",""time""
""fullscreenenter"",""1"",""4765""
","
","
","""event"",""trial"",""time""
""fullscreenenter"",""1"",""4765""
","
","","","-1","","","21","10374","786","h","elianto","#f73b6a7A"," ","-1","0","-10","[3003.4000000003725]","1","2","","","10374","34","3","3","lose","go","0"
"pit-trial","157","1167875","0.0-39.0","battery-v0.2","","""event"",""trial"",""time""
""fullscreenenter"",""1"",""4765""
","
","
","""event"",""trial"",""time""
""fullscreenenter"",""1"",""4765""
","
","","","-1","","","21","10374","786","m","elianto","#f73b6a7A","-1","-1","1","0","[]","0","2","","","10374","35","0","4","lose","no-go","0"
"pit-trial","158","1172729","0.0-40.0","battery-v0.2","","""event"",""trial"",""time""
""fullscreenenter"",""1"",""4765""
","
","
","""event"",""trial"",""time""
""fullscreenenter"",""1"",""4765""
","
","","","-1","","","21","10374","786","y","elianto","#f73b6a7A","-1","-1","1","0","[]","0","2","","","10374","36","2","4","lose","no-go","0"
"pit-trial","159","1176409","0.0-41.0","battery-v0.2","","""event"",""trial"",""time""
""fullscreenenter"",""1"",""4765""
","
","
","""event"",""trial"",""time""
""fullscreenenter"",""1"",""4765""
","
","","","826.3000000007451","","","21","10374","786","r","elianto","#3366ff99"," "," ","1","+10","[1676.5999999996275]","1","2","","","10374","37","1","1","win","go","0"
"pit-trial","160","1181263","0.0-42.0","battery-v0.2","","""event"",""trial"",""time""
""fullscreenenter"",""1"",""4765""
","
","
","""event"",""trial"",""time""
""fullscreenenter"",""1"",""4765""
","
","","","-1","","","21","10374","786","y","elianto","#f73b6a7A","-1","-1","1","0","[]","0","2","","","10374","38","2","4","lose","no-go","0"
"pit-trial","161","1185497","0.0-43.0","battery-v0.2","","""event"",""trial"",""time""
""fullscreenenter"",""1"",""4765""
","
","
","""event"",""trial"",""time""
""fullscreenenter"",""1"",""4765""
","
","","","1379.5999999996275","","","21","10374","786","h","elianto","#f73b6a7A"," "," ","1","-10","[2230.7999999988824]","1","2","","","10374","39","3","3","lose","go","1"
"pit-trial","162","1190352","0.0-44.0","battery-v0.2","","""event"",""trial"",""time""
""fullscreenenter"",""1"",""4765""
","
","
","""event"",""trial"",""time""
""fullscreenenter"",""1"",""4765""
","
","","","-1","","","21","10374","786","m","elianto","#f73b6a7A","-1","-1","1","-10","[]","0","2","","","10374","40","0","4","lose","no-go","1"
"pit-trial","163","1193972","0.0-45.0","battery-v0.2","","""event"",""trial"",""time""
""fullscreenenter"",""1"",""4765""
","
","
","""event"",""trial"",""time""
""fullscreenenter"",""1"",""4765""
","
","","","754.2999999988824","","","21","10374","786","r","elianto","#3366ff99"," "," ","1","+10","[1605.5]","1","2","","","10374","41","1","1","win","go","0"
"pit-trial","164","1198827","0.0-46.0","battery-v0.2","","""event"",""trial"",""time""
""fullscreenenter"",""1"",""4765""
","
","
","""event"",""trial"",""time""
""fullscreenenter"",""1"",""4765""
","
","","","-1","","","21","10374","786","y","elianto","#f73b6a7A","-1","-1","1","0","[]","0","2","","","10374","42","2","4","lose","no-go","0"
"pit-trial","165","1202542","0.0-47.0","battery-v0.2","","""event"",""trial"",""time""
""fullscreenenter"",""1"",""4765""
","
","
","""event"",""trial"",""time""
""fullscreenenter"",""1"",""4765""
","
","","","857.0999999996275","","","21","10374","786","h","elianto","#f73b6a7A"," "," ","1","-10","[1710.2000000011176]","1","2","","","10374","43","3","3","lose","go","1"
"pit-trial","166","1207398","0.0-48.0","battery-v0.2","","""event"",""trial"",""time""
""fullscreenenter"",""1"",""4765""
","
","
","""event"",""trial"",""time""
""fullscreenenter"",""1"",""4765""
","
","","","-1","","","21","10374","786","m","elianto","#f73b6a7A","-1","-1","1","-10","[]","0","2","","","10374","44","0","4","lose","no-go","1"
"pit-trial","167","1210982","0.0-49.0","battery-v0.2","","""event"",""trial"",""time""
""fullscreenenter"",""1"",""4765""
","
","
","""event"",""trial"",""time""
""fullscreenenter"",""1"",""4765""
","
","","","728.0999999996275","","","21","10374","786","h","elianto","#f73b6a7A"," "," ","1","0","[1580.0999999996275]","1","2","","","10374","45","3","3","lose","go","0"
"pit-trial","168","1215147","0.0-50.0","battery-v0.2","","""event"",""trial"",""time""
""fullscreenenter"",""1"",""4765""
","
","
","""event"",""trial"",""time""
""fullscreenenter"",""1"",""4765""
","
","","","1309.0999999996275","","","21","10374","786","z","elianto","#3366ff99","-1"," ","0","0","[2160]","1","2","","","10374","46","4","2","win","no-go","0"
"pit-trial","169","1220000","0.0-51.0","battery-v0.2","","""event"",""trial"",""time""
""fullscreenenter"",""1"",""4765""
","
","
","""event"",""trial"",""time""
""fullscreenenter"",""1"",""4765""
","
","","","-1","","","21","10374","786","m","elianto","#f73b6a7A","-1","-1","1","-10","[]","0","2","","","10374","47","0","4","lose","no-go","1"
"pit-trial","170","1224855","0.0-52.0","battery-v0.2","","""event"",""trial"",""time""
""fullscreenenter"",""1"",""4765""
","
","
","""event"",""trial"",""time""
""fullscreenenter"",""1"",""4765""
","
","","","-1","","","21","10374","786","y","elianto","#f73b6a7A","-1","-1","1","0","[]","0","2","","","10374","48","2","4","lose","no-go","0"
"pit-trial","171","1228898","0.0-53.0","battery-v0.2","","""event"",""trial"",""time""
""fullscreenenter"",""1"",""4765""
","
","
","""event"",""trial"",""time""
""fullscreenenter"",""1"",""4765""
","
","","","1189.9000000003725","","","21","10374","786","z","elianto","#3366ff99","-1"," ","0","0","[2040.0999999996275]","1","2","","","10374","49","4","2","win","no-go","0"
"pit-trial","172","1232474","0.0-54.0","battery-v0.2","","""event"",""trial"",""time""
""fullscreenenter"",""1"",""4765""
","
","
","""event"",""trial"",""time""
""fullscreenenter"",""1"",""4765""
","
","","","720.5","","","21","10374","786","r","elianto","#3366ff99"," "," ","1","+10","[1571]","1","2","","","10374","50","1","1","win","go","0"
"pit-trial","173","1236237","0.0-55.0","battery-v0.2","","""event"",""trial"",""time""
""fullscreenenter"",""1"",""4765""
","
","
","""event"",""trial"",""time""
""fullscreenenter"",""1"",""4765""
","
","","","909.0999999996275","","","21","10374","786","h","elianto","#f73b6a7A"," "," ","1","0","[1759.5999999996275]","1","2","","","10374","51","3","3","lose","go","0"
"pit-trial","174","1241092","0.0-56.0","battery-v0.2","","""event"",""trial"",""time""
""fullscreenenter"",""1"",""4765""
","
","
","""event"",""trial"",""time""
""fullscreenenter"",""1"",""4765""
","
","","","-1","","","21","10374","786","m","elianto","#f73b6a7A","-1","-1","1","0","[]","0","2","","","10374","52","0","4","lose","no-go","0"
"pit-trial","175","1244746","0.0-57.0","battery-v0.2","","""event"",""trial"",""time""
""fullscreenenter"",""1"",""4765""
","
","
","""event"",""trial"",""time""
""fullscreenenter"",""1"",""4765""
","
","","","795.7999999988824","","","21","10374","786","z","elianto","#3366ff99","-1"," ","0","+10","[1649.4000000003725]","1","2","","","10374","53","4","2","win","no-go","1"
"pit-trial","176","1249600","0.0-58.0","battery-v0.2","","""event"",""trial"",""time""
""fullscreenenter"",""1"",""4765""
","
","
","""event"",""trial"",""time""
""fullscreenenter"",""1"",""4765""
","
","","","-1","","","21","10374","786","y","elianto","#f73b6a7A","-1","-1","1","-10","[]","0","2","","","10374","54","2","4","lose","no-go","1"
"pit-trial","177","1254454","0.0-59.0","battery-v0.2","","""event"",""trial"",""time""
""fullscreenenter"",""1"",""4765""
","
","
","""event"",""trial"",""time""
""fullscreenenter"",""1"",""4765""
","
","","","-1","","","21","10374","786","m","elianto","#f73b6a7A","-1","-1","1","0","[]","0","2","","","10374","55","0","4","lose","no-go","0"
"pit-trial","178","1257920","0.0-60.0","battery-v0.2","","""event"",""trial"",""time""
""fullscreenenter"",""1"",""4765""
","
","
","""event"",""trial"",""time""
""fullscreenenter"",""1"",""4765""
","
","","","611.5999999996275","","","21","10374","786","r","elianto","#3366ff99"," "," ","1","+10","[1462.699999999255]","1","2","","","10374","56","1","1","win","go","0"
"pit-trial","179","1262773","0.0-61.0","battery-v0.2","","""event"",""trial"",""time""
""fullscreenenter"",""1"",""4765""
","
","
","""event"",""trial"",""time""
""fullscreenenter"",""1"",""4765""
","
","","","-1","","","21","10374","786","m","elianto","#f73b6a7A","-1","-1","1","0","[]","0","2","","","10374","57","0","4","lose","no-go","0"
"pit-trial","180","1266843","0.0-62.0","battery-v0.2","","""event"",""trial"",""time""
""fullscreenenter"",""1"",""4765""
","
","
","""event"",""trial"",""time""
""fullscreenenter"",""1"",""4765""
","
","","","1216.4000000003725","","","21","10374","786","z","elianto","#3366ff99","-1"," ","0","0","[2067]","1","2","","","10374","58","4","2","win","no-go","0"
"pit-trial","181","1270358","0.0-63.0","battery-v0.2","","""event"",""trial"",""time""
""fullscreenenter"",""1"",""4765""
","
","
","""event"",""trial"",""time""
""fullscreenenter"",""1"",""4765""
","
","","","661.0999999996275","","","21","10374","786","r","elianto","#3366ff99"," "," ","1","+10","[1511.300000000745]","1","2","","","10374","59","1","1","win","go","0"
"pit-trial","182","1274754","0.0-64.0","battery-v0.2","","""event"",""trial"",""time""
""fullscreenenter"",""1"",""4765""
","
","
","""event"",""trial"",""time""
""fullscreenenter"",""1"",""4765""
","
","","","1541.7000000011176","","","21","10374","786","h","elianto","#f73b6a7A"," "," ","1","-10","[2391.9000000003725]","1","2","","","10374","60","3","3","lose","go","1"
"pit-trial","183","1278353","0.0-65.0","battery-v0.2","","""event"",""trial"",""time""
""fullscreenenter"",""1"",""4765""
","
","
","""event"",""trial"",""time""
""fullscreenenter"",""1"",""4765""
","
","","","744.2000000011176","","","21","10374","786","h","elianto","#f73b6a7A"," "," ","1","0","[1594.699999999255]","1","2","","","10374","61","3","3","lose","go","0"
"pit-trial","184","1283209","0.0-66.0","battery-v0.2","","""event"",""trial"",""time""
""fullscreenenter"",""1"",""4765""
","
","
","""event"",""trial"",""time""
""fullscreenenter"",""1"",""4765""
","
","","","-1","","","21","10374","786","z","elianto","#3366ff99","-1","-1","1","+10","[]","0","2","","","10374","62","4","2","win","no-go","0"
"pit-trial","185","1286974","0.0-67.0","battery-v0.2","","""event"",""trial"",""time""
""fullscreenenter"",""1"",""4765""
","
","
","""event"",""trial"",""time""
""fullscreenenter"",""1"",""4765""
","
","","","909.8000000007451","","","21","10374","786","r","elianto","#3366ff99"," "," ","1","0","[1761.7000000011176]","1","2","","","10374","63","1","1","win","go","1"
"pit-trial","186","1291829","0.0-68.0","battery-v0.2","","""event"",""trial"",""time""
""fullscreenenter"",""1"",""4765""
","
","
","""event"",""trial"",""time""
""fullscreenenter"",""1"",""4765""
","
","","","-1","","","21","10374","786","y","elianto","#f73b6a7A","-1","-1","1","-10","[]","0","2","","","10374","64","2","4","lose","no-go","1"
"pit-trial","187","1296683","0.0-69.0","battery-v0.2","","""event"",""trial"",""time""
""fullscreenenter"",""1"",""4765""
","
","
","""event"",""trial"",""time""
""fullscreenenter"",""1"",""4765""
","
","","","-1","","","21","10374","786","z","elianto","#3366ff99","-1","-1","1","+10","[]","0","2","","","10374","65","4","2","win","no-go","0"
"pit-trial","188","1301538","0.0-70.0","battery-v0.2","","""event"",""trial"",""time""
""fullscreenenter"",""1"",""4765""
","
","
","""event"",""trial"",""time""
""fullscreenenter"",""1"",""4765""
","
","","","-1","","","21","10374","786","y","elianto","#f73b6a7A","-1","-1","1","0","[]","0","2","","","10374","66","2","4","lose","no-go","0"
"pit-trial","189","1306395","0.0-71.0","battery-v0.2","","""event"",""trial"",""time""
""fullscreenenter"",""1"",""4765""
","
","
","""event"",""trial"",""time""
""fullscreenenter"",""1"",""4765""
","
","","","-1","","","21","10374","786","h","elianto","#f73b6a7A"," ","-1","0","-10","[2891.9000000003725]","1","2","","","10374","67","3","3","lose","go","0"
"pit-trial","190","1309820","0.0-72.0","battery-v0.2","","""event"",""trial"",""time""
""fullscreenenter"",""1"",""4765""
","
","
","""event"",""trial"",""time""
""fullscreenenter"",""1"",""4765""
","
","","","570.5","","","21","10374","786","r","elianto","#3366ff99"," "," ","1","+10","[1421.2000000011176]","1","2","","","10374","68","1","1","win","go","0"
"pit-trial","191","1314674","0.0-73.0","battery-v0.2","","""event"",""trial"",""time""
""fullscreenenter"",""1"",""4765""
","
","
","""event"",""trial"",""time""
""fullscreenenter"",""1"",""4765""
","
","","","-1","","","21","10374","786","z","elianto","#3366ff99","-1","-1","1","0","[]","0","2","","","10374","69","4","2","win","no-go","1"
"pit-trial","192","1318339","0.0-74.0","battery-v0.2","","""event"",""trial"",""time""
""fullscreenenter"",""1"",""4765""
","
","
","""event"",""trial"",""time""
""fullscreenenter"",""1"",""4765""
","
","","","810.6999999992549","","","21","10374","786","r","elianto","#3366ff99"," "," ","1","+10","[1661.199999999255]","1","2","","","10374","70","1","1","win","go","0"
"pit-trial","193","1322137","0.0-75.0","battery-v0.2","","""event"",""trial"",""time""
""fullscreenenter"",""1"",""4765""
","
","
","""event"",""trial"",""time""
""fullscreenenter"",""1"",""4765""
","
","","","943.0999999996275","","","21","10374","786","h","elianto","#f73b6a7A"," "," ","1","0","[1794.0999999996275]","1","2","","","10374","71","3","3","lose","go","0"
"pit-trial","194","1326305","0.0-76.0","battery-v0.2","","""event"",""trial"",""time""
""fullscreenenter"",""1"",""4765""
","
","
","""event"",""trial"",""time""
""fullscreenenter"",""1"",""4765""
","
","","","1313.2999999988824","","","21","10374","786","c","elianto","#3366ff99"," "," ","1","+10","[2164.0999999996275]","1","2","","","10374","72","5","1","win","go","0"
"pit-trial","195","1331159","0.0-77.0","battery-v0.2","","""event"",""trial"",""time""
""fullscreenenter"",""1"",""4765""
","
","
","""event"",""trial"",""time""
""fullscreenenter"",""1"",""4765""
","
","","","-1","","","21","10374","786","z","elianto","#3366ff99","-1","-1","1","0","[]","0","2","","","10374","73","4","2","win","no-go","1"
"pit-trial","196","1334878","0.0-78.0","battery-v0.2","","""event"",""trial"",""time""
""fullscreenenter"",""1"",""4765""
","
","
","""event"",""trial"",""time""
""fullscreenenter"",""1"",""4765""
","
","","","864.0999999996275","","","21","10374","786","h","elianto","#f73b6a7A"," "," ","1","0","[1714.4000000003725]","1","2","","","10374","74","3","3","lose","go","0"
"pit-trial","197","1338320","0.0-79.0","battery-v0.2","","""event"",""trial"",""time""
""fullscreenenter"",""1"",""4765""
","
","
","""event"",""trial"",""time""
""fullscreenenter"",""1"",""4765""
","
","","","587.9000000003725","","","21","10374","786","c","elianto","#3366ff99"," "," ","1","+10","[1438.5999999996275]","1","2","","","10374","75","5","1","win","go","0"
"pit-trial","198","1341821","0.0-80.0","battery-v0.2","","""event"",""trial"",""time""
""fullscreenenter"",""1"",""4765""
","
","
","""event"",""trial"",""time""
""fullscreenenter"",""1"",""4765""
","
","","","646.1000000014901","","","21","10374","786","r","elianto","#3366ff99"," "," ","1","+10","[1497.8999999985099]","1","2","","","10374","76","1","1","win","go","0"
"pit-trial","199","1345530","0.0-81.0","battery-v0.2","","""event"",""trial"",""time""
""fullscreenenter"",""1"",""4765""
","
","
","""event"",""trial"",""time""
""fullscreenenter"",""1"",""4765""
","
","","","852.3000000007451","","","21","10374","786","c","elianto","#3366ff99"," "," ","1","+10","[1703.5]","1","2","","","10374","77","5","1","win","go","0"
"pit-trial","200","1349223","0.0-82.0","battery-v0.2","","""event"",""trial"",""time""
""fullscreenenter"",""1"",""4765""
","
","
","""event"",""trial"",""time""
""fullscreenenter"",""1"",""4765""
","
","","","837.5999999996275","","","21","10374","786","h","elianto","#f73b6a7A"," "," ","1","-10","[1689.4000000003725]","1","2","","","10374","78","3","3","lose","go","1"
"pit-trial","201","1354018","0.0-83.0","battery-v0.2","","""event"",""trial"",""time""
""fullscreenenter"",""1"",""4765""
","
","
","""event"",""trial"",""time""
""fullscreenenter"",""1"",""4765""
","
","","","1939.7999999988824","","","21","10374","786","b","elianto","#f73b6a7A","-1"," ","0","-10","[2790.5999999996275]","1","2","","","10374","79","6","4","lose","no-go","0"
"pit-trial","202","1358873","0.0-84.0","battery-v0.2","","""event"",""trial"",""time""
""fullscreenenter"",""1"",""4765""
","
","
","""event"",""trial"",""time""
""fullscreenenter"",""1"",""4765""
","
","","","-1","","","21","10374","786","z","elianto","#3366ff99","-1","-1","1","+10","[]","0","2","","","10374","80","4","2","win","no-go","0"
"pit-trial","203","1363020","0.0-85.0","battery-v0.2","","""event"",""trial"",""time""
""fullscreenenter"",""1"",""4765""
","
","
","""event"",""trial"",""time""
""fullscreenenter"",""1"",""4765""
","
","","","1293.8999999985099","","","21","10374","786","t","elianto","#f73b6a7A"," "," ","1","0","[2144.199999999255]","1","2","","","10374","81","7","3","lose","go","0"
"pit-trial","204","1366942","0.0-86.0","battery-v0.2","","""event"",""trial"",""time""
""fullscreenenter"",""1"",""4765""
","
","
","""event"",""trial"",""time""
""fullscreenenter"",""1"",""4765""
","
","","","1068.5999999996275","","","21","10374","786","c","elianto","#3366ff99"," "," ","1","+10","[1918.7999999988824]","1","2","","","10374","82","5","1","win","go","0"
"pit-trial","205","1371797","0.0-87.0","battery-v0.2","","""event"",""trial"",""time""
""fullscreenenter"",""1"",""4765""
","
","
","""event"",""trial"",""time""
""fullscreenenter"",""1"",""4765""
","
","","","-1","","","21","10374","786","b","elianto","#f73b6a7A","-1","-1","1","0","[]","0","2","","","10374","83","6","4","lose","no-go","0"
"pit-trial","206","1376653","0.0-88.0","battery-v0.2","","""event"",""trial"",""time""
""fullscreenenter"",""1"",""4765""
","
","
","""event"",""trial"",""time""
""fullscreenenter"",""1"",""4765""
","
","","","-1","","","21","10374","786","z","elianto","#3366ff99","-1","-1","1","+10","[602.9000000003725]","1","2","","","10374","84","4","2","win","no-go","0"
"pit-trial","207","1380355","0.0-89.0","battery-v0.2","","""event"",""trial"",""time""
""fullscreenenter"",""1"",""4765""
","
","
","""event"",""trial"",""time""
""fullscreenenter"",""1"",""4765""
","
","","","846.9000000003725","","","21","10374","786","c","elianto","#3366ff99"," "," ","1","+10","[1697.6000000014901]","1","2","","","10374","85","5","1","win","go","0"
"pit-trial","208","1384721","0.0-90.0","battery-v0.2","","""event"",""trial"",""time""
""fullscreenenter"",""1"",""4765""
","
","
","""event"",""trial"",""time""
""fullscreenenter"",""1"",""4765""
","
","","","1511","","","21","10374","786","t","elianto","#f73b6a7A"," "," ","1","0","[2362.5999999996275]","1","2","","","10374","86","7","3","lose","go","0"
"pit-trial","209","1389575","0.0-91.0","battery-v0.2","","""event"",""trial"",""time""
""fullscreenenter"",""1"",""4765""
","
","
","""event"",""trial"",""time""
""fullscreenenter"",""1"",""4765""
","
","","","-1","","","21","10374","786","z","elianto","#3366ff99","-1","-1","1","+10","[]","0","2","","","10374","87","4","2","win","no-go","0"
"pit-trial","210","1394437","0.0-92.0","battery-v0.2","","""event"",""trial"",""time""
""fullscreenenter"",""1"",""4765""
","
","
","""event"",""trial"",""time""
""fullscreenenter"",""1"",""4765""
","
","","","-1","","","21","10374","786","b","elianto","#f73b6a7A","-1","-1","1","-10","[]","0","2","","","10374","88","6","4","lose","no-go","1"
"pit-trial","211","1399291","0.0-93.0","battery-v0.2","","""event"",""trial"",""time""
""fullscreenenter"",""1"",""4765""
","
","
","""event"",""trial"",""time""
""fullscreenenter"",""1"",""4765""
","
","","","-1","","","21","10374","786","b","elianto","#f73b6a7A","-1","-1","1","0","[]","0","2","","","10374","89","6","4","lose","no-go","0"
"pit-trial","212","1404145","0.0-94.0","battery-v0.2","","""event"",""trial"",""time""
""fullscreenenter"",""1"",""4765""
","
","
","""event"",""trial"",""time""
""fullscreenenter"",""1"",""4765""
","
","","","-1","","","21","10374","786","z","elianto","#3366ff99","-1","-1","1","+10","[]","0","2","","","10374","90","4","2","win","no-go","0"
"pit-trial","213","1409001","0.0-95.0","battery-v0.2","","""event"",""trial"",""time""
""fullscreenenter"",""1"",""4765""
","
","
","""event"",""trial"",""time""
""fullscreenenter"",""1"",""4765""
","
","","","-1","","","21","10374","786","c","elianto","#3366ff99"," ","-1","0","0","[2875.0999999996275]","1","2","","","10374","91","5","1","win","go","0"
"pit-trial","214","1413715","0.0-96.0","battery-v0.2","","""event"",""trial"",""time""
""fullscreenenter"",""1"",""4765""
","
","
","""event"",""trial"",""time""
""fullscreenenter"",""1"",""4765""
","
","","","1860.6000000014901","","","21","10374","786","t","elianto","#f73b6a7A"," "," ","1","0","[2710.5]","1","2","","","10374","92","7","3","lose","go","0"
"pit-trial","215","1418570","0.0-97.0","battery-v0.2","","""event"",""trial"",""time""
""fullscreenenter"",""1"",""4765""
","
","
","""event"",""trial"",""time""
""fullscreenenter"",""1"",""4765""
","
","","","-1","","","21","10374","786","b","elianto","#f73b6a7A","-1","-1","1","0","[]","0","2","","","10374","93","6","4","lose","no-go","0"
"pit-trial","216","1422918","0.0-98.0","battery-v0.2","","""event"",""trial"",""time""
""fullscreenenter"",""1"",""4765""
","
","
","""event"",""trial"",""time""
""fullscreenenter"",""1"",""4765""
","
","","","1494.199999999255","","","21","10374","786","f","elianto","#3366ff99","-1"," ","0","0","[2344.5]","1","2","","","10374","94","8","2","win","no-go","0"
"pit-trial","217","1426412","0.0-99.0","battery-v0.2","","""event"",""trial"",""time""
""fullscreenenter"",""1"",""4765""
","
","
","""event"",""trial"",""time""
""fullscreenenter"",""1"",""4765""
","
","","","640.2000000011176","","","21","10374","786","c","elianto","#3366ff99"," "," ","1","+10","[1490.7999999988824]","1","2","","","10374","95","5","1","win","go","0"
"pit-trial","218","1431008","0.0-100.0","battery-v0.2","","""event"",""trial"",""time""
""fullscreenenter"",""1"",""4765""
","
","
","""event"",""trial"",""time""
""fullscreenenter"",""1"",""4765""
","
","","","1743","","","21","10374","786","t","elianto","#f73b6a7A"," "," ","1","0","[2593.2000000011176]","1","2","","","10374","96","7","3","lose","go","0"
"pit-trial","219","1434919","0.0-101.0","battery-v0.2","","""event"",""trial"",""time""
""fullscreenenter"",""1"",""4765""
","
","
","""event"",""trial"",""time""
""fullscreenenter"",""1"",""4765""
","
","","","1056.5999999996275","","","21","10374","786","b","elianto","#f73b6a7A","-1"," ","0","-10","[1907.2999999988824]","1","2","","","10374","97","6","4","lose","no-go","0"
"pit-trial","220","1438586","0.0-102.0","battery-v0.2","","""event"",""trial"",""time""
""fullscreenenter"",""1"",""4765""
","
","
","""event"",""trial"",""time""
""fullscreenenter"",""1"",""4765""
","
","","","812.4000000003725","","","21","10374","786","t","elianto","#f73b6a7A"," "," ","1","0","[1663]","1","2","","","10374","98","7","3","lose","go","0"
"pit-trial","221","1442093","0.0-103.0","battery-v0.2","","""event"",""trial"",""time""
""fullscreenenter"",""1"",""4765""
","
","
","""event"",""trial"",""time""
""fullscreenenter"",""1"",""4765""
","
","","","652.1000000014901","","","21","10374","786","c","elianto","#3366ff99"," "," ","1","+10","[1503.2000000011176]","1","2","","","10374","99","5","1","win","go","0"
"pit-trial","222","1446948","0.0-104.0","battery-v0.2","","""event"",""trial"",""time""
""fullscreenenter"",""1"",""4765""
","
","
","""event"",""trial"",""time""
""fullscreenenter"",""1"",""4765""
","
","","","-1","","","21","10374","786","f","elianto","#3366ff99","-1","-1","1","+10","[3039.9000000003725]","1","2","","","10374","100","8","2","win","no-go","0"
"pit-trial","223","1450983","0.0-105.0","battery-v0.2","","""event"",""trial"",""time""
""fullscreenenter"",""1"",""4765""
","
","
","""event"",""trial"",""time""
""fullscreenenter"",""1"",""4765""
","
","","","1180.9000000003725","","","21","10374","786","c","elianto","#3366ff99"," "," ","1","+10","[2031.4000000003725]","1","2","","","10374","101","5","1","win","go","0"
"pit-trial","224","1455006","0.0-106.0","battery-v0.2","","""event"",""trial"",""time""
""fullscreenenter"",""1"",""4765""
","
","
","""event"",""trial"",""time""
""fullscreenenter"",""1"",""4765""
","
","","","1168.199999999255","","","21","10374","786","n","elianto","#3366ff99","-1"," ","0","0","[2019]","1","2","","","10374","102","9","2","win","no-go","0"
"pit-trial","225","1459862","0.0-107.0","battery-v0.2","","""event"",""trial"",""time""
""fullscreenenter"",""1"",""4765""
","
","
","""event"",""trial"",""time""
""fullscreenenter"",""1"",""4765""
","
","","","-1","","","21","10374","786","f","elianto","#3366ff99","-1","-1","1","+10","[3052.699999999255]","1","2","","","10374","103","8","2","win","no-go","0"
"pit-trial","226","1464716","0.0-108.0","battery-v0.2","","""event"",""trial"",""time""
""fullscreenenter"",""1"",""4765""
","
","
","""event"",""trial"",""time""
""fullscreenenter"",""1"",""4765""
","
","","","-1","","","21","10374","786","b","elianto","#f73b6a7A","-1","-1","1","0","[]","0","2","","","10374","104","6","4","lose","no-go","0"
"pit-trial","227","1469571","0.0-109.0","battery-v0.2","","""event"",""trial"",""time""
""fullscreenenter"",""1"",""4765""
","
","
","""event"",""trial"",""time""
""fullscreenenter"",""1"",""4765""
","
","","","-1","","","21","10374","786","b","elianto","#f73b6a7A","-1","-1","1","0","[]","0","2","","","10374","105","6","4","lose","no-go","0"
"pit-trial","228","1474114","0.0-110.0","battery-v0.2","","""event"",""trial"",""time""
""fullscreenenter"",""1"",""4765""
","
","
","""event"",""trial"",""time""
""fullscreenenter"",""1"",""4765""
","
","","","1685.699999999255","","","21","10374","786","n","elianto","#3366ff99","-1"," ","0","0","[2538.800000000745]","1","2","","","10374","106","9","2","win","no-go","0"
"pit-trial","229","1477611","0.0-111.0","battery-v0.2","","""event"",""trial"",""time""
""fullscreenenter"",""1"",""4765""
","
","
","""event"",""trial"",""time""
""fullscreenenter"",""1"",""4765""
","
","","","642.0999999996275","","","21","10374","786","c","elianto","#3366ff99"," "," ","1","+10","[1493.4000000003725]","1","2","","","10374","107","5","1","win","go","0"
"pit-trial","230","1481767","0.0-112.0","battery-v0.2","","""event"",""trial"",""time""
""fullscreenenter"",""1"",""4765""
","
","
","""event"",""trial"",""time""
""fullscreenenter"",""1"",""4765""
","
","","","1300.4000000003725","","","21","10374","786","f","elianto","#3366ff99","-1"," ","0","0","[2152.0999999996275]","1","2","","","10374","108","8","2","win","no-go","0"
"pit-trial","231","1486060","0.0-113.0","battery-v0.2","","""event"",""trial"",""time""
""fullscreenenter"",""1"",""4765""
","
","
","""event"",""trial"",""time""
""fullscreenenter"",""1"",""4765""
","
","","","1436.5","","","21","10374","786","f","elianto","#3366ff99","-1"," ","0","0","[2287.9000000003725]","1","2","","","10374","109","8","2","win","no-go","0"
"pit-trial","232","1490915","0.0-114.0","battery-v0.2","","""event"",""trial"",""time""
""fullscreenenter"",""1"",""4765""
","
","
","""event"",""trial"",""time""
""fullscreenenter"",""1"",""4765""
","
","","","-1","","","21","10374","786","b","elianto","#f73b6a7A","-1","-1","1","0","[]","0","2","","","10374","110","6","4","lose","no-go","0"
"pit-trial","233","1495770","0.0-115.0","battery-v0.2","","""event"",""trial"",""time""
""fullscreenenter"",""1"",""4765""
","
","
","""event"",""trial"",""time""
""fullscreenenter"",""1"",""4765""
","
","","","-1","","","21","10374","786","n","elianto","#3366ff99","-1","-1","1","+10","[]","0","2","","","10374","111","9","2","win","no-go","0"
"pit-trial","234","1500393","0.0-116.0","battery-v0.2","","""event"",""trial"",""time""
""fullscreenenter"",""1"",""4765""
","
","
","""event"",""trial"",""time""
""fullscreenenter"",""1"",""4765""
","
","","","1767.7000000011176","","","21","10374","786","c","elianto","#3366ff99"," "," ","1","+10","[2618.300000000745]","1","2","","","10374","112","5","1","win","go","0"
"pit-trial","235","1505248","0.0-117.0","battery-v0.2","","""event"",""trial"",""time""
""fullscreenenter"",""1"",""4765""
","
","
","""event"",""trial"",""time""
""fullscreenenter"",""1"",""4765""
","
","","","-1","","","21","10374","786","n","elianto","#3366ff99","-1","-1","1","+10","[]","0","2","","","10374","113","9","2","win","no-go","0"
"pit-trial","236","1509518","0.0-118.0","battery-v0.2","","""event"",""trial"",""time""
""fullscreenenter"",""1"",""4765""
","
","
","""event"",""trial"",""time""
""fullscreenenter"",""1"",""4765""
","
","","","1416","","","21","10374","786","t","elianto","#f73b6a7A"," "," ","1","-10","[2266.4000000003725]","1","2","","","10374","114","7","3","lose","go","1"
"pit-trial","237","1514373","0.0-119.0","battery-v0.2","","""event"",""trial"",""time""
""fullscreenenter"",""1"",""4765""
","
","
","""event"",""trial"",""time""
""fullscreenenter"",""1"",""4765""
","
","","","-1","","","21","10374","786","f","elianto","#3366ff99","-1","-1","1","0","[]","0","2","","","10374","115","8","2","win","no-go","1"
"pit-trial","238","1519242","0.0-120.0","battery-v0.2","","""event"",""trial"",""time""
""fullscreenenter"",""1"",""4765""
","
","
","""event"",""trial"",""time""
""fullscreenenter"",""1"",""4765""
","
","","","-1","","","21","10374","786","c","elianto","#3366ff99"," ","-1","0","0","[]","0","2","","","10374","116","5","1","win","go","0"
"pit-trial","239","1524097","0.0-121.0","battery-v0.2","","""event"",""trial"",""time""
""fullscreenenter"",""1"",""4765""
","
","
","""event"",""trial"",""time""
""fullscreenenter"",""1"",""4765""
","
","","","-1","","","21","10374","786","f","elianto","#3366ff99","-1","-1","1","+10","[]","0","2","","","10374","117","8","2","win","no-go","0"
"pit-trial","240","1528949","0.0-122.0","battery-v0.2","","""event"",""trial"",""time""
""fullscreenenter"",""1"",""4765""
","
","
","""event"",""trial"",""time""
""fullscreenenter"",""1"",""4765""
","
","","","1999.7000000011176","","","21","10374","786","b","elianto","#f73b6a7A","-1"," ","0","-10","[2849.89999999851]","1","2","","","10374","118","6","4","lose","no-go","0"
"pit-trial","241","1533804","0.0-123.0","battery-v0.2","","""event"",""trial"",""time""
""fullscreenenter"",""1"",""4765""
","
","
","""event"",""trial"",""time""
""fullscreenenter"",""1"",""4765""
","
","","","-1","","","21","10374","786","n","elianto","#3366ff99","-1","-1","1","+10","[]","0","2","","","10374","119","9","2","win","no-go","0"
"pit-trial","242","1537688","0.0-124.0","battery-v0.2","","""event"",""trial"",""time""
""fullscreenenter"",""1"",""4765""
","
","
","""event"",""trial"",""time""
""fullscreenenter"",""1"",""4765""
","
","","","1029.699999999255","","","21","10374","786","c","elianto","#3366ff99"," "," ","1","+10","[1880.3999999985099]","1","2","","","10374","120","5","1","win","go","0"
"pit-trial","243","1541477","0.0-125.0","battery-v0.2","","""event"",""trial"",""time""
""fullscreenenter"",""1"",""4765""
","
","
","""event"",""trial"",""time""
""fullscreenenter"",""1"",""4765""
","
","","","932.3000000007451","","","21","10374","786","c","elianto","#3366ff99"," "," ","1","+10","[1784]","1","2","","","10374","121","5","1","win","go","0"
"pit-trial","244","1545331","0.0-126.0","battery-v0.2","","""event"",""trial"",""time""
""fullscreenenter"",""1"",""4765""
","
","
","""event"",""trial"",""time""
""fullscreenenter"",""1"",""4765""
","
","","","999.6999999992549","","","21","10374","786","t","elianto","#f73b6a7A"," "," ","1","0","[1850.4000000003725]","1","2","","","10374","122","7","3","lose","go","0"
"pit-trial","245","1549685","0.0-127.0","battery-v0.2","","""event"",""trial"",""time""
""fullscreenenter"",""1"",""4765""
","
","
","""event"",""trial"",""time""
""fullscreenenter"",""1"",""4765""
","
","","","1499.5","","","21","10374","786","f","elianto","#3366ff99","-1"," ","0","0","[2350.0999999996275]","1","2","","","10374","123","8","2","win","no-go","0"
"pit-trial","246","1554539","0.0-128.0","battery-v0.2","","""event"",""trial"",""time""
""fullscreenenter"",""1"",""4765""
","
","
","""event"",""trial"",""time""
""fullscreenenter"",""1"",""4765""
","
","","","-1","","","21","10374","786","n","elianto","#3366ff99","-1","-1","1","+10","[]","0","2","","","10374","124","9","2","win","no-go","0"
"pit-trial","247","1559395","0.0-129.0","battery-v0.2","","""event"",""trial"",""time""
""fullscreenenter"",""1"",""4765""
","
","
","""event"",""trial"",""time""
""fullscreenenter"",""1"",""4765""
","
","","","-1","","","21","10374","786","b","elianto","#f73b6a7A","-1","-1","1","0","[]","0","2","","","10374","125","6","4","lose","no-go","0"
"pit-trial","248","1564249","0.0-130.0","battery-v0.2","","""event"",""trial"",""time""
""fullscreenenter"",""1"",""4765""
","
","
","""event"",""trial"",""time""
""fullscreenenter"",""1"",""4765""
","
","","","-1","","","21","10374","786","n","elianto","#3366ff99","-1","-1","1","0","[]","0","2","","","10374","126","9","2","win","no-go","1"
"pit-trial","249","1568388","0.0-131.0","battery-v0.2","","""event"",""trial"",""time""
""fullscreenenter"",""1"",""4765""
","
","
","""event"",""trial"",""time""
""fullscreenenter"",""1"",""4765""
","
","","","1282.2000000011176","","","21","10374","786","t","elianto","#f73b6a7A"," "," ","1","0","[2133.0999999996275]","1","2","","","10374","127","7","3","lose","go","0"
"pit-trial","250","1573245","0.0-132.0","battery-v0.2","","""event"",""trial"",""time""
""fullscreenenter"",""1"",""4765""
","
","
","""event"",""trial"",""time""
""fullscreenenter"",""1"",""4765""
","
","","","-1","","","21","10374","786","f","elianto","#3366ff99","-1","-1","1","+10","[]","0","2","","","10374","128","8","2","win","no-go","0"
"pit-trial","251","1578100","0.0-133.0","battery-v0.2","","""event"",""trial"",""time""
""fullscreenenter"",""1"",""4765""
","
","
","""event"",""trial"",""time""
""fullscreenenter"",""1"",""4765""
","
","","","-1","","","21","10374","786","b","elianto","#f73b6a7A","-1","-1","1","-10","[]","0","2","","","10374","129","6","4","lose","no-go","1"
"pit-trial","252","1581613","0.0-134.0","battery-v0.2","","""event"",""trial"",""time""
""fullscreenenter"",""1"",""4765""
","
","
","""event"",""trial"",""time""
""fullscreenenter"",""1"",""4765""
","
","","","658.1000000014901","","","21","10374","786","t","elianto","#f73b6a7A"," "," ","1","0","[1508.2999999988824]","1","2","","","10374","130","7","3","lose","go","0"
"pit-trial","253","1586469","0.0-135.0","battery-v0.2","","""event"",""trial"",""time""
""fullscreenenter"",""1"",""4765""
","
","
","""event"",""trial"",""time""
""fullscreenenter"",""1"",""4765""
","
","","","-1","","","21","10374","786","f","elianto","#3366ff99","-1","-1","1","0","[3662.5]","1","2","","","10374","131","8","2","win","no-go","1"
"pit-trial","254","1591324","0.0-136.0","battery-v0.2","","""event"",""trial"",""time""
""fullscreenenter"",""1"",""4765""
","
","
","""event"",""trial"",""time""
""fullscreenenter"",""1"",""4765""
","
","","","-1","","","21","10374","786","n","elianto","#3366ff99","-1","-1","1","+10","[]","0","2","","","10374","132","9","2","win","no-go","0"
"pit-trial","255","1596180","0.0-137.0","battery-v0.2","","""event"",""trial"",""time""
""fullscreenenter"",""1"",""4765""
","
","
","""event"",""trial"",""time""
""fullscreenenter"",""1"",""4765""
","
","","","-1","","","21","10374","786","b","elianto","#f73b6a7A","-1","-1","1","0","[]","0","2","","","10374","133","6","4","lose","no-go","0"
"pit-trial","256","1599722","0.0-138.0","battery-v0.2","","""event"",""trial"",""time""
""fullscreenenter"",""1"",""4765""
","
","
","""event"",""trial"",""time""
""fullscreenenter"",""1"",""4765""
","
","","","688","","","21","10374","786","t","elianto","#f73b6a7A"," "," ","1","0","[1538.5999999996275]","1","2","","","10374","134","7","3","lose","go","0"
"pit-trial","257","1604576","0.0-139.0","battery-v0.2","","""event"",""trial"",""time""
""fullscreenenter"",""1"",""4765""
","
","
","""event"",""trial"",""time""
""fullscreenenter"",""1"",""4765""
","
","","","-1","","","21","10374","786","n","elianto","#3366ff99","-1","-1","1","+10","[]","0","2","","","10374","135","9","2","win","no-go","0"
"pit-trial","258","1608657","0.0-140.0","battery-v0.2","","""event"",""trial"",""time""
""fullscreenenter"",""1"",""4765""
","
","
","""event"",""trial"",""time""
""fullscreenenter"",""1"",""4765""
","
","","","1226.5999999996275","","","21","10374","786","f","elianto","#3366ff99","-1"," ","0","0","[2077.199999999255]","1","2","","","10374","136","8","2","win","no-go","0"
"pit-trial","259","1612151","0.0-141.0","battery-v0.2","","""event"",""trial"",""time""
""fullscreenenter"",""1"",""4765""
","
","
","""event"",""trial"",""time""
""fullscreenenter"",""1"",""4765""
","
","","","635","","","21","10374","786","t","elianto","#f73b6a7A"," "," ","1","0","[1489.5]","1","2","","","10374","137","7","3","lose","go","0"
"pit-trial","260","1617004","0.0-142.0","battery-v0.2","","""event"",""trial"",""time""
""fullscreenenter"",""1"",""4765""
","
","
","""event"",""trial"",""time""
""fullscreenenter"",""1"",""4765""
","
","","","1998.5","","","21","10374","786","n","elianto","#3366ff99","-1"," ","0","0","[2849.39999999851]","1","2","","","10374","138","9","2","win","no-go","0"
"pit-trial","261","1621869","0.0-143.0","battery-v0.2","","""event"",""trial"",""time""
""fullscreenenter"",""1"",""4765""
","
","
","""event"",""trial"",""time""
""fullscreenenter"",""1"",""4765""
","
","","","-1","","","21","10374","786","f","elianto","#3366ff99","-1","-1","1","+10","[3681]","1","2","","","10374","139","8","2","win","no-go","0"
"pit-trial","262","1626724","0.0-144.0","battery-v0.2","","""event"",""trial"",""time""
""fullscreenenter"",""1"",""4765""
","
","
","""event"",""trial"",""time""
""fullscreenenter"",""1"",""4765""
","
","","","-1","","","21","10374","786","b","elianto","#f73b6a7A","-1","-1","1","0","[]","0","2","","","10374","140","6","4","lose","no-go","0"
"pit-instructions","263","1641217","0.0-145.0","battery-v0.2","","""event"",""trial"",""time""
""fullscreenenter"",""1"",""4765""
","
","
","""event"",""trial"",""time""
""fullscreenenter"",""1"",""4765""
","
","","[{""page_index"":0,""viewing_time"":6021},{""page_index"":1,""viewing_time"":8468.5}]","14490","","","","","","","","","","","","","","","","","","","","","","","",""
"pit-trial","264","1645205","0.0-146.0","battery-v0.2","","""event"",""trial"",""time""
""fullscreenenter"",""1"",""4765""
","
","
","""event"",""trial"",""time""
""fullscreenenter"",""1"",""4765""
","
","","","1117.5999999996275","","","21","10374","786","g","elianto","#f73b6a7A","-1"," ","0","-10","[1968.7000000011176]","1","3","","","10374","141","3","4","lose","no-go","0"
"pit-trial","265","1649250","0.0-147.0","battery-v0.2","","""event"",""trial"",""time""
""fullscreenenter"",""1"",""4765""
","
","
","""event"",""trial"",""time""
""fullscreenenter"",""1"",""4765""
","
","","","1182.9000000003725","","","21","10374","786","a","elianto","#f73b6a7A"," "," ","1","0","[2036.0999999996275]","1","3","","","10374","142","2","3","lose","go","0"
"pit-trial","266","1652972","0.0-148.0","battery-v0.2","","""event"",""trial"",""time""
""fullscreenenter"",""1"",""4765""
","
","
","""event"",""trial"",""time""
""fullscreenenter"",""1"",""4765""
","
","","","853.3000000007451","","","21","10374","786","u","elianto","#f73b6a7A"," "," ","1","0","[1708.7000000011176]","1","3","","","10374","143","0","3","lose","go","0"
"pit-trial","267","1656461","0.0-149.0","battery-v0.2","","""event"",""trial"",""time""
