"trial_type","trial_index","time_elapsed","internal_node_id","task_version","subject_id","interactions","blur_events","focus_events","fullscreenenter_events","fullscreenexit_events","success","view_history","rt","responses","num_errors","age","subject","participantId","rune","rune_set","hex","correct","choice","accuracy","outcome","keys","total_keys","block","practice","value","sub","trial","stimulus","robot","valence","action","sham"
"pavlovia","0","16","0.0-0.0","battery-v0.2","","""event"",""trial"",""time""
""fullscreenenter"",""1"",""1689""
","
","
","""event"",""trial"",""time""
""fullscreenenter"",""1"",""1689""
","
","","","","","","","","","","","","","","","","","","","","","","","","","","",""
"fullscreen","1","2685","0.0-1.0","battery-v0.2","","""event"",""trial"",""time""
""fullscreenenter"",""1"",""1689""
","
","
","""event"",""trial"",""time""
""fullscreenenter"",""1"",""1689""
","
","true","","","","","","","","","","","","","","","","","","","","","","","","","",""
"pit-instructions","2","7103","0.0-2.0-0.0","battery-v0.2","","""event"",""trial"",""time""
""fullscreenenter"",""1"",""1689""
","
","
","""event"",""trial"",""time""
""fullscreenenter"",""1"",""1689""
","
","","[{""page_index"":0,""viewing_time"":4413.700000000012}]","4414.200000000012","","","","","","","","","","","","","","","","","","","","","","","",""
"pit-comprehension","3","11423","0.0-2.0-1.0-0.0","battery-v0.2","","""event"",""trial"",""time""
""fullscreenenter"",""1"",""1689""
","
","
","""event"",""trial"",""time""
""fullscreenenter"",""1"",""1689""
","
","","","4314","[""shark""]","0","21","9763","4389","","","","","","","","","","","","","","","","","","",""
"pit-instructions","4","15800","0.0-2.0-1.0-1.0","battery-v0.2","","""event"",""trial"",""time""
""fullscreenenter"",""1"",""1689""
","
","
","""event"",""trial"",""time""
""fullscreenenter"",""1"",""1689""
","
","","[{""page_index"":0,""viewing_time"":4369.100000000035}]","4369.400000000023","","","","","","","","","","","","","","","","","","","","","","","",""
"pit-comprehension","5","19224","0.0-2.0-2.0-0.0","battery-v0.2","","""event"",""trial"",""time""
""fullscreenenter"",""1"",""1689""
","
","
","""event"",""trial"",""time""
""fullscreenenter"",""1"",""1689""
","
","","","3419.2999999999884","[""tiger""]","0","21","9763","4389","","","","","","","","","","","","","","","","","","",""
"pit-instructions","6","23291","0.0-2.0-2.0-1.0","battery-v0.2","","""event"",""trial"",""time""
""fullscreenenter"",""1"",""1689""
","
","
","""event"",""trial"",""time""
""fullscreenenter"",""1"",""1689""
","
","","[{""page_index"":0,""viewing_time"":4062.7000000000116}]","4063.0999999999767","","","","","","","","","","","","","","","","","","","","","","","",""
"pit-instructions","7","113519","0.0-2.0-3.0","battery-v0.2","","""event"",""trial"",""time""
""fullscreenenter"",""1"",""1689""
","
","
","""event"",""trial"",""time""
""fullscreenenter"",""1"",""1689""
","
","","[{""page_index"":0,""viewing_time"":8409.400000000023},{""page_index"":1,""viewing_time"":5572.299999999988},{""page_index"":2,""viewing_time"":6298.299999999988},{""page_index"":3,""viewing_time"":5155.400000000023},{""page_index"":4,""viewing_time"":5209.099999999977},{""page_index"":5,""viewing_time"":6693.100000000035},{""page_index"":6,""viewing_time"":5244.599999999977},{""page_index"":7,""viewing_time"":6791.700000000012},{""page_index"":8,""viewing_time"":7227.599999999977},{""page_index"":9,""viewing_time"":7362.900000000023},{""page_index"":10,""viewing_time"":7682.399999999965},{""page_index"":11,""viewing_time"":6754},{""page_index"":12,""viewing_time"":7032.5},{""page_index"":13,""viewing_time"":4788.600000000035}]","90222.29999999999","","","","","","","","","","","","","","","","","","","","","","","",""
"pit-trial","8","116913","0.0-2.0-4.0-0.0","battery-v0.2","","""event"",""trial"",""time""
""fullscreenenter"",""1"",""1689""
","
","
","""event"",""trial"",""time""
""fullscreenenter"",""1"",""1689""
","
","","","527.2000000000116","","","21","9763","4389","&#9784;","elianto","#FFFFF080"," "," ","1","&#10004","[1382.3000000000466]","1","0","0","","","","","","","",""
"pit-trial","9","120323","0.0-2.0-4.1-0.1","battery-v0.2","","""event"",""trial"",""time""
""fullscreenenter"",""1"",""1689""
","
","
","""event"",""trial"",""time""
""fullscreenenter"",""1"",""1689""
","
","","","540.2999999999884","","","21","9763","4389","&#9784;","elianto","#FFFFF080"," "," ","1","&#10004","[1398.9000000000233]","1","0","0","","","","","","","",""
"pit-trial","10","123668","0.0-2.0-4.2-0.2","battery-v0.2","","""event"",""trial"",""time""
""fullscreenenter"",""1"",""1689""
","
","
","""event"",""trial"",""time""
""fullscreenenter"",""1"",""1689""
","
","","","475.9000000000233","","","21","9763","4389","&#9784;","elianto","#FFFFF080"," "," ","1","&#10004","[1330.7999999999884]","1","0","0","","","","","","","",""
"pit-trial","11","127040","0.0-2.0-4.3-0.3","battery-v0.2","","""event"",""trial"",""time""
""fullscreenenter"",""1"",""1689""
","
","
","""event"",""trial"",""time""
""fullscreenenter"",""1"",""1689""
","
","","","508.0999999999767","","","21","9763","4389","&#9784;","elianto","#FFFFF080"," "," ","1","&#10004","[1365.4000000000233]","1","0","0","","","","","","","",""
"pit-trial","12","130441","0.0-2.0-4.4-0.4","battery-v0.2","","""event"",""trial"",""time""
""fullscreenenter"",""1"",""1689""
","
","
","""event"",""trial"",""time""
""fullscreenenter"",""1"",""1689""
","
","","","540.1000000000349","","","21","9763","4389","&#9784;","elianto","#FFFFF080"," "," ","1","&#10004","[1394.2999999999884]","1","0","0","","","","","","","",""
"pit-instructions","13","152415","0.0-2.0-5.0","battery-v0.2","","""event"",""trial"",""time""
""fullscreenenter"",""1"",""1689""
","
","
","""event"",""trial"",""time""
""fullscreenenter"",""1"",""1689""
","
","","[{""page_index"":0,""viewing_time"":5409.600000000035},{""page_index"":1,""viewing_time"":5887.700000000012},{""page_index"":2,""viewing_time"":5527.699999999953},{""page_index"":3,""viewing_time"":5144.5}]","21970","","","","","","","","","","","","","","","","","","","","","","","",""
"pit-trial","14","157280","0.0-2.0-6.0-0.0","battery-v0.2","","""event"",""trial"",""time""
""fullscreenenter"",""1"",""1689""
","
","
","""event"",""trial"",""time""
""fullscreenenter"",""1"",""1689""
","
","","","-1","","","21","9763","4389","&#9854;","elianto","#FFFFF080","-1","-1","1","&#10004","[]","0","0","1","","","","","","","",""
"pit-trial","15","162147","0.0-2.0-6.1-0.1","battery-v0.2","","""event"",""trial"",""time""
""fullscreenenter"",""1"",""1689""
","
","
","""event"",""trial"",""time""
""fullscreenenter"",""1"",""1689""
","
","","","-1","","","21","9763","4389","&#9854;","elianto","#FFFFF080","-1","-1","1","&#10004","[]","0","0","1","","","","","","","",""
"pit-trial","16","167020","0.0-2.0-6.2-0.2","battery-v0.2","","""event"",""trial"",""time""
""fullscreenenter"",""1"",""1689""
","
","
","""event"",""trial"",""time""
""fullscreenenter"",""1"",""1689""
","
","","","-1","","","21","9763","4389","&#9854;","elianto","#FFFFF080","-1","-1","1","&#10004","[]","0","0","1","","","","","","","",""
"pit-trial","17","171888","0.0-2.0-6.3-0.3","battery-v0.2","","""event"",""trial"",""time""
""fullscreenenter"",""1"",""1689""
","
","
","""event"",""trial"",""time""
""fullscreenenter"",""1"",""1689""
","
","","","-1","","","21","9763","4389","&#9854;","elianto","#FFFFF080","-1","-1","1","&#10004","[]","0","0","1","","","","","","","",""
"pit-trial","18","176755","0.0-2.0-6.4-0.4","battery-v0.2","","""event"",""trial"",""time""
""fullscreenenter"",""1"",""1689""
","
","
","""event"",""trial"",""time""
""fullscreenenter"",""1"",""1689""
","
","","","-1","","","21","9763","4389","&#9854;","elianto","#FFFFF080","-1","-1","1","&#10004","[]","0","0","1","","","","","","","",""
"pit-instructions","19","306950","0.0-2.0-7.0","battery-v0.2","","""event"",""trial"",""time""
""fullscreenenter"",""1"",""1689""
","
","
","""event"",""trial"",""time""
""fullscreenenter"",""1"",""1689""
","
","","[{""page_index"":0,""viewing_time"":5624.699999999953},{""page_index"":1,""viewing_time"":7112.5},{""page_index"":2,""viewing_time"":8394.400000000023},{""page_index"":3,""viewing_time"":8305.900000000023},{""page_index"":4,""viewing_time"":6912.099999999977},{""page_index"":5,""viewing_time"":5519.900000000023},{""page_index"":6,""viewing_time"":7785.099999999977},{""page_index"":7,""viewing_time"":9421.599999999977},{""page_index"":8,""viewing_time"":7757},{""page_index"":9,""viewing_time"":5414.900000000023},{""page_index"":10,""viewing_time"":6410.300000000047},{""page_index"":11,""viewing_time"":4142.79999999993},{""page_index"":12,""viewing_time"":8657.70000000007},{""page_index"":13,""viewing_time"":9261.099999999977},{""page_index"":14,""viewing_time"":7292.900000000023},{""page_index"":15,""viewing_time"":6352.29999999993},{""page_index"":16,""viewing_time"":6797.099999999977},{""page_index"":17,""viewing_time"":9026}]","130188.69999999995","","","","","","","","","","","","","","","","","","","","","","","",""
"pit-trial","20","310306","0.0-2.0-8.0-0.0","battery-v0.2","","""event"",""trial"",""time""
""fullscreenenter"",""1"",""1689""
","
","
","""event"",""trial"",""time""
""fullscreenenter"",""1"",""1689""
","
","","","492.19999999995343","","","21","9763","4389","&#9776;","elianto","#3366ff99"," "," ","1","+10","[1351.0999999999767]","1","0","1","","","","","","","",""
"pit-trial","21","313742","0.0-2.0-8.0-1.0","battery-v0.2","","""event"",""trial"",""time""
""fullscreenenter"",""1"",""1689""
","
","
","""event"",""trial"",""time""
""fullscreenenter"",""1"",""1689""
","
","","","574.8000000000466","","","21","9763","4389","&#9776;","elianto","#3366ff99"," "," ","1","+10","[1427.1999999999534]","1","0","1","","","","","","","",""
"pit-trial","22","317100","0.0-2.0-8.0-2.0","battery-v0.2","","""event"",""trial"",""time""
""fullscreenenter"",""1"",""1689""
","
","
","""event"",""trial"",""time""
""fullscreenenter"",""1"",""1689""
","
","","","499.89999999990687","","","21","9763","4389","&#9776;","elianto","#3366ff99"," "," ","1","+10","[1350.0999999999767]","1","0","1","","","","","","","",""
"pit-trial","23","320518","0.0-2.0-8.0-3.0","battery-v0.2","","""event"",""trial"",""time""
""fullscreenenter"",""1"",""1689""
","
","
","""event"",""trial"",""time""
""fullscreenenter"",""1"",""1689""
","
","","","552.3000000000466","","","21","9763","4389","&#9776;","elianto","#3366ff99"," "," ","1","0","[1404.0999999999767]","1","0","1","","","","","","","",""
"pit-trial","24","323910","0.0-2.0-8.0-4.0","battery-v0.2","","""event"",""trial"",""time""
""fullscreenenter"",""1"",""1689""
","
","
","""event"",""trial"",""time""
""fullscreenenter"",""1"",""1689""
","
","","","527.1000000000931","","","21","9763","4389","&#9776;","elianto","#3366ff99"," "," ","1","+10","[1381.1000000000931]","1","0","1","","","","","","","",""
"pit-trial","25","327278","0.0-2.0-8.1-0.1","battery-v0.2","","""event"",""trial"",""time""
""fullscreenenter"",""1"",""1689""
","
","
","""event"",""trial"",""time""
""fullscreenenter"",""1"",""1689""
","
","","","497.4000000000233","","","21","9763","4389","&#9776;","elianto","#3366ff99"," "," ","1","+10","[1354.4000000000233]","1","0","1","","","","","","","",""
"pit-trial","26","330703","0.0-2.0-8.1-1.1","battery-v0.2","","""event"",""trial"",""time""
""fullscreenenter"",""1"",""1689""
","
","
","""event"",""trial"",""time""
""fullscreenenter"",""1"",""1689""
","
","","","562.2000000000698","","","21","9763","4389","&#9776;","elianto","#3366ff99"," "," ","1","+10","[1414]","1","0","1","","","","","","","",""
"pit-trial","27","333967","0.0-2.0-8.1-2.1","battery-v0.2","","""event"",""trial"",""time""
""fullscreenenter"",""1"",""1689""
","
","
","""event"",""trial"",""time""
""fullscreenenter"",""1"",""1689""
","
","","","395.10000000009313","","","21","9763","4389","&#9776;","elianto","#3366ff99"," "," ","1","+10","[1252.9000000000233]","1","0","1","","","","","","","",""
"pit-trial","28","337285","0.0-2.0-8.1-3.1","battery-v0.2","","""event"",""trial"",""time""
""fullscreenenter"",""1"",""1689""
","
","
","""event"",""trial"",""time""
""fullscreenenter"",""1"",""1689""
","
","","","453.9000000000233","","","21","9763","4389","&#9776;","elianto","#3366ff99"," "," ","1","0","[1311]","1","0","1","","","","","","","",""
"pit-trial","29","340650","0.0-2.0-8.1-4.1","battery-v0.2","","""event"",""trial"",""time""
""fullscreenenter"",""1"",""1689""
","
","
","""event"",""trial"",""time""
""fullscreenenter"",""1"",""1689""
","
","","","503.4000000000233","","","21","9763","4389","&#9776;","elianto","#3366ff99"," "," ","1","+10","[1354.7000000000698]","1","0","1","","","","","","","",""
"pit-trial","30","343909","0.0-2.0-8.2-0.2","battery-v0.2","","""event"",""trial"",""time""
""fullscreenenter"",""1"",""1689""
","
","
","""event"",""trial"",""time""
""fullscreenenter"",""1"",""1689""
","
","","","397.19999999995343","","","21","9763","4389","&#9776;","elianto","#3366ff99"," "," ","1","+10","[1252]","1","0","1","","","","","","","",""
"pit-trial","31","347194","0.0-2.0-8.2-1.2","battery-v0.2","","""event"",""trial"",""time""
""fullscreenenter"",""1"",""1689""
","
","
","""event"",""trial"",""time""
""fullscreenenter"",""1"",""1689""
","
","","","427.4000000000233","","","21","9763","4389","&#9776;","elianto","#3366ff99"," "," ","1","+10","[1278.8000000000466]","1","0","1","","","","","","","",""
"pit-trial","32","350602","0.0-2.0-8.2-2.2","battery-v0.2","","""event"",""trial"",""time""
""fullscreenenter"",""1"",""1689""
","
","
","""event"",""trial"",""time""
""fullscreenenter"",""1"",""1689""
","
","","","546","","","21","9763","4389","&#9776;","elianto","#3366ff99"," "," ","1","+10","[1400]","1","0","1","","","","","","","",""
"pit-trial","33","353876","0.0-2.0-8.2-3.2","battery-v0.2","","""event"",""trial"",""time""
""fullscreenenter"",""1"",""1689""
","
","
","""event"",""trial"",""time""
""fullscreenenter"",""1"",""1689""
","
","","","413.5999999999767","","","21","9763","4389","&#9776;","elianto","#3366ff99"," "," ","1","0","[1268.3000000000466]","1","0","1","","","","","","","",""
"pit-trial","34","357093","0.0-2.0-8.2-4.2","battery-v0.2","","""event"",""trial"",""time""
""fullscreenenter"",""1"",""1689""
","
","
","""event"",""trial"",""time""
""fullscreenenter"",""1"",""1689""
","
","","","353.20000000006985","","","21","9763","4389","&#9776;","elianto","#3366ff99"," "," ","1","+10","[1205.3000000000466]","1","0","1","","","","","","","",""
"call-function","35","357095","0.0-2.0-9.0","battery-v0.2","","""event"",""trial"",""time""
""fullscreenenter"",""1"",""1689""
","
","
","""event"",""trial"",""time""
""fullscreenenter"",""1"",""1689""
","
","","","","","","","","","","","","","","","","","","","","","","","","","","",""
"pit-instructions","36","401676","0.0-2.0-10.0","battery-v0.2","","""event"",""trial"",""time""
""fullscreenenter"",""1"",""1689""
","
","
","""event"",""trial"",""time""
""fullscreenenter"",""1"",""1689""
","
","","[{""page_index"":0,""viewing_time"":5745.099999999977},{""page_index"":1,""viewing_time"":6978.100000000093},{""page_index"":2,""viewing_time"":9393.5},{""page_index"":3,""viewing_time"":9143},{""page_index"":4,""viewing_time"":13319.699999999953}]","44579.80000000005","","","","","","","","","","","","","","","","","","","","","","","",""
"pit-trial","37","405019","0.0-2.0-11.0-0.0","battery-v0.2","","""event"",""trial"",""time""
""fullscreenenter"",""1"",""1689""
","
","
","""event"",""trial"",""time""
""fullscreenenter"",""1"",""1689""
","
","","","486.19999999995343","","","21","9763","4389","&#9761;","elianto","#3366ff99","-1"," ","0","0","[1338.1999999999534]","1","0","2","","","","","","","",""
"pit-trial","38","409888","0.0-2.0-11.0-1.0","battery-v0.2","","""event"",""trial"",""time""
""fullscreenenter"",""1"",""1689""
","
","
","""event"",""trial"",""time""
""fullscreenenter"",""1"",""1689""
","
","","","-1","","","21","9763","4389","&#9761;","elianto","#3366ff99","-1","-1","1","+10","[]","0","0","2","","","","","","","",""
"pit-trial","39","414760","0.0-2.0-11.0-2.0","battery-v0.2","","""event"",""trial"",""time""
""fullscreenenter"",""1"",""1689""
","
","
","""event"",""trial"",""time""
""fullscreenenter"",""1"",""1689""
","
","","","-1","","","21","9763","4389","&#9761;","elianto","#3366ff99","-1","-1","1","+10","[]","0","0","2","","","","","","","",""
"pit-trial","40","419627","0.0-2.0-11.0-3.0","battery-v0.2","","""event"",""trial"",""time""
""fullscreenenter"",""1"",""1689""
","
","
","""event"",""trial"",""time""
""fullscreenenter"",""1"",""1689""
","
","","","-1","","","21","9763","4389","&#9761;","elianto","#3366ff99","-1","-1","1","0","[]","0","0","2","","","","","","","",""
"pit-trial","41","424491","0.0-2.0-11.0-4.0","battery-v0.2","","""event"",""trial"",""time""
""fullscreenenter"",""1"",""1689""
","
","
","""event"",""trial"",""time""
""fullscreenenter"",""1"",""1689""
","
","","","-1","","","21","9763","4389","&#9761;","elianto","#3366ff99","-1","-1","1","+10","[]","0","0","2","","","","","","","",""
"pit-trial","42","429359","0.0-2.0-11.1-0.1","battery-v0.2","","""event"",""trial"",""time""
""fullscreenenter"",""1"",""1689""
","
","
","""event"",""trial"",""time""
""fullscreenenter"",""1"",""1689""
","
","","","-1","","","21","9763","4389","&#9761;","elianto","#3366ff99","-1","-1","1","+10","[]","0","0","2","","","","","","","",""
"pit-trial","43","434230","0.0-2.0-11.1-1.1","battery-v0.2","","""event"",""trial"",""time""
""fullscreenenter"",""1"",""1689""
","
","
","""event"",""trial"",""time""
""fullscreenenter"",""1"",""1689""
","
","","","-1","","","21","9763","4389","&#9761;","elianto","#3366ff99","-1","-1","1","+10","[]","0","0","2","","","","","","","",""
"pit-trial","44","439100","0.0-2.0-11.1-2.1","battery-v0.2","","""event"",""trial"",""time""
""fullscreenenter"",""1"",""1689""
","
","
","""event"",""trial"",""time""
""fullscreenenter"",""1"",""1689""
","
","","","-1","","","21","9763","4389","&#9761;","elianto","#3366ff99","-1","-1","1","+10","[]","0","0","2","","","","","","","",""
"pit-trial","45","443964","0.0-2.0-11.1-3.1","battery-v0.2","","""event"",""trial"",""time""
""fullscreenenter"",""1"",""1689""
","
","
","""event"",""trial"",""time""
""fullscreenenter"",""1"",""1689""
","
","","","-1","","","21","9763","4389","&#9761;","elianto","#3366ff99","-1","-1","1","0","[]","0","0","2","","","","","","","",""
"pit-trial","46","448832","0.0-2.0-11.1-4.1","battery-v0.2","","""event"",""trial"",""time""
""fullscreenenter"",""1"",""1689""
","
","
","""event"",""trial"",""time""
""fullscreenenter"",""1"",""1689""
","
","","","-1","","","21","9763","4389","&#9761;","elianto","#3366ff99","-1","-1","1","+10","[]","0","0","2","","","","","","","",""
"pit-trial","47","453701","0.0-2.0-11.2-0.2","battery-v0.2","","""event"",""trial"",""time""
""fullscreenenter"",""1"",""1689""
","
","
","""event"",""trial"",""time""
""fullscreenenter"",""1"",""1689""
","
","","","-1","","","21","9763","4389","&#9761;","elianto","#3366ff99","-1","-1","1","+10","[]","0","0","2","","","","","","","",""
"pit-trial","48","458567","0.0-2.0-11.2-1.2","battery-v0.2","","""event"",""trial"",""time""
""fullscreenenter"",""1"",""1689""
","
","
","""event"",""trial"",""time""
""fullscreenenter"",""1"",""1689""
","
","","","-1","","","21","9763","4389","&#9761;","elianto","#3366ff99","-1","-1","1","+10","[]","0","0","2","","","","","","","",""
"pit-trial","49","463431","0.0-2.0-11.2-2.2","battery-v0.2","","""event"",""trial"",""time""
""fullscreenenter"",""1"",""1689""
","
","
","""event"",""trial"",""time""
""fullscreenenter"",""1"",""1689""
","
","","","-1","","","21","9763","4389","&#9761;","elianto","#3366ff99","-1","-1","1","+10","[]","0","0","2","","","","","","","",""
"pit-trial","50","468295","0.0-2.0-11.2-3.2","battery-v0.2","","""event"",""trial"",""time""
""fullscreenenter"",""1"",""1689""
","
","
","""event"",""trial"",""time""
""fullscreenenter"",""1"",""1689""
","
","","","-1","","","21","9763","4389","&#9761;","elianto","#3366ff99","-1","-1","1","0","[]","0","0","2","","","","","","","",""
"pit-trial","51","472636","0.0-2.0-11.2-4.2","battery-v0.2","","""event"",""trial"",""time""
""fullscreenenter"",""1"",""1689""
","
","
","""event"",""trial"",""time""
""fullscreenenter"",""1"",""1689""
","
","","","1476.8000000000466","","","21","9763","4389","&#9761;","elianto","#3366ff99","-1"," ","0","0","[2336]","1","0","2","","","","","","","",""
"pit-trial","52","477500","0.0-2.0-11.3-0.3","battery-v0.2","","""event"",""trial"",""time""
""fullscreenenter"",""1"",""1689""
","
","
","""event"",""trial"",""time""
""fullscreenenter"",""1"",""1689""
","
","","","-1","","","21","9763","4389","&#9761;","elianto","#3366ff99","-1","-1","1","+10","[]","0","0","2","","","","","","","",""
"pit-trial","53","482368","0.0-2.0-11.3-1.3","battery-v0.2","","""event"",""trial"",""time""
""fullscreenenter"",""1"",""1689""
","
","
","""event"",""trial"",""time""
""fullscreenenter"",""1"",""1689""
","
","","","-1","","","21","9763","4389","&#9761;","elianto","#3366ff99","-1","-1","1","+10","[]","0","0","2","","","","","","","",""
"pit-trial","54","487239","0.0-2.0-11.3-2.3","battery-v0.2","","""event"",""trial"",""time""
""fullscreenenter"",""1"",""1689""
","
","
","""event"",""trial"",""time""
""fullscreenenter"",""1"",""1689""
","
","","","-1","","","21","9763","4389","&#9761;","elianto","#3366ff99","-1","-1","1","+10","[]","0","0","2","","","","","","","",""
"pit-trial","55","492100","0.0-2.0-11.3-3.3","battery-v0.2","","""event"",""trial"",""time""
""fullscreenenter"",""1"",""1689""
","
","
","""event"",""trial"",""time""
""fullscreenenter"",""1"",""1689""
","
","","","-1","","","21","9763","4389","&#9761;","elianto","#3366ff99","-1","-1","1","0","[]","0","0","2","","","","","","","",""
"pit-trial","56","496967","0.0-2.0-11.3-4.3","battery-v0.2","","""event"",""trial"",""time""
""fullscreenenter"",""1"",""1689""
","
","
","""event"",""trial"",""time""
""fullscreenenter"",""1"",""1689""
","
","","","-1","","","21","9763","4389","&#9761;","elianto","#3366ff99","-1","-1","1","+10","[]","0","0","2","","","","","","","",""
"call-function","57","496969","0.0-2.0-12.0","battery-v0.2","","""event"",""trial"",""time""
""fullscreenenter"",""1"",""1689""
","
","
","""event"",""trial"",""time""
""fullscreenenter"",""1"",""1689""
","
","","","","","","","","","","","","","","","","","","","","","","","","","","",""
"pit-instructions","58","536005","0.0-2.0-13.0","battery-v0.2","","""event"",""trial"",""time""
""fullscreenenter"",""1"",""1689""
","
","
","""event"",""trial"",""time""
""fullscreenenter"",""1"",""1689""
","
","","[{""page_index"":0,""viewing_time"":6411.300000000047},{""page_index"":1,""viewing_time"":8721.199999999953},{""page_index"":2,""viewing_time"":4845.900000000023},{""page_index"":3,""viewing_time"":11410.600000000035},{""page_index"":4,""viewing_time"":7644.899999999907}]","39034.300000000105","","","","","","","","","","","","","","","","","","","","","","","",""
"pit-trial","59","540870","0.0-2.0-14.0-0.0","battery-v0.2","","""event"",""trial"",""time""
""fullscreenenter"",""1"",""1689""
","
","
","""event"",""trial"",""time""
""fullscreenenter"",""1"",""1689""
","
","","","-1","","","21","9763","4389","&#9826;","elianto","#f73b6a7A","-1","-1","1","0","[]","0","0","3","","","","","","","",""
"pit-trial","60","544288","0.0-2.0-14.0-1.0","battery-v0.2","","""event"",""trial"",""time""
""fullscreenenter"",""1"",""1689""
","
","
","""event"",""trial"",""time""
""fullscreenenter"",""1"",""1689""
","
","","","557.3999999999069","","","21","9763","4389","&#9826;","elianto","#f73b6a7A","-1"," ","0","-10","[1408.6999999999534]","1","0","3","","","","","","","",""
"pit-trial","61","549162","0.0-2.0-14.0-2.0","battery-v0.2","","""event"",""trial"",""time""
""fullscreenenter"",""1"",""1689""
","
","
","""event"",""trial"",""time""
""fullscreenenter"",""1"",""1689""
","
","","","-1","","","21","9763","4389","&#9826;","elianto","#f73b6a7A","-1","-1","1","0","[]","0","0","3","","","","","","","",""
"pit-trial","62","554033","0.0-2.0-14.0-3.0","battery-v0.2","","""event"",""trial"",""time""
""fullscreenenter"",""1"",""1689""
","
","
","""event"",""trial"",""time""
""fullscreenenter"",""1"",""1689""
","
","","","-1","","","21","9763","4389","&#9826;","elianto","#f73b6a7A","-1","-1","1","-10","[]","0","0","3","","","","","","","",""
"pit-trial","63","558905","0.0-2.0-14.0-4.0","battery-v0.2","","""event"",""trial"",""time""
""fullscreenenter"",""1"",""1689""
","
","
","""event"",""trial"",""time""
""fullscreenenter"",""1"",""1689""
","
","","","-1","","","21","9763","4389","&#9826;","elianto","#f73b6a7A","-1","-1","1","0","[]","0","0","3","","","","","","","",""
"pit-trial","64","563773","0.0-2.0-14.1-0.1","battery-v0.2","","""event"",""trial"",""time""
""fullscreenenter"",""1"",""1689""
","
","
","""event"",""trial"",""time""
""fullscreenenter"",""1"",""1689""
","
","","","-1","","","21","9763","4389","&#9826;","elianto","#f73b6a7A","-1","-1","1","0","[]","0","0","3","","","","","","","",""
"pit-trial","65","568637","0.0-2.0-14.1-1.1","battery-v0.2","","""event"",""trial"",""time""
""fullscreenenter"",""1"",""1689""
","
","
","""event"",""trial"",""time""
""fullscreenenter"",""1"",""1689""
","
","","","-1","","","21","9763","4389","&#9826;","elianto","#f73b6a7A","-1","-1","1","0","[]","0","0","3","","","","","","","",""
"pit-trial","66","573501","0.0-2.0-14.1-2.1","battery-v0.2","","""event"",""trial"",""time""
""fullscreenenter"",""1"",""1689""
","
","
","""event"",""trial"",""time""
""fullscreenenter"",""1"",""1689""
","
","","","-1","","","21","9763","4389","&#9826;","elianto","#f73b6a7A","-1","-1","1","0","[]","0","0","3","","","","","","","",""
"pit-trial","67","578365","0.0-2.0-14.1-3.1","battery-v0.2","","""event"",""trial"",""time""
""fullscreenenter"",""1"",""1689""
","
","
","""event"",""trial"",""time""
""fullscreenenter"",""1"",""1689""
","
","","","-1","","","21","9763","4389","&#9826;","elianto","#f73b6a7A","-1","-1","1","-10","[]","0","0","3","","","","","","","",""
"pit-trial","68","583229","0.0-2.0-14.1-4.1","battery-v0.2","","""event"",""trial"",""time""
""fullscreenenter"",""1"",""1689""
","
","
","""event"",""trial"",""time""
""fullscreenenter"",""1"",""1689""
","
","","","-1","","","21","9763","4389","&#9826;","elianto","#f73b6a7A","-1","-1","1","0","[]","0","0","3","","","","","","","",""
"pit-trial","69","588093","0.0-2.0-14.2-0.2","battery-v0.2","","""event"",""trial"",""time""
""fullscreenenter"",""1"",""1689""
","
","
","""event"",""trial"",""time""
""fullscreenenter"",""1"",""1689""
","
","","","-1","","","21","9763","4389","&#9826;","elianto","#f73b6a7A","-1","-1","1","0","[]","0","0","3","","","","","","","",""
"pit-trial","70","592962","0.0-2.0-14.2-1.2","battery-v0.2","","""event"",""trial"",""time""
""fullscreenenter"",""1"",""1689""
","
","
","""event"",""trial"",""time""
""fullscreenenter"",""1"",""1689""
","
","","","-1","","","21","9763","4389","&#9826;","elianto","#f73b6a7A","-1","-1","1","0","[]","0","0","3","","","","","","","",""
"pit-trial","71","597832","0.0-2.0-14.2-2.2","battery-v0.2","","""event"",""trial"",""time""
""fullscreenenter"",""1"",""1689""
","
","
","""event"",""trial"",""time""
""fullscreenenter"",""1"",""1689""
","
","","","-1","","","21","9763","4389","&#9826;","elianto","#f73b6a7A","-1","-1","1","0","[]","0","0","3","","","","","","","",""
"pit-trial","72","602696","0.0-2.0-14.2-3.2","battery-v0.2","","""event"",""trial"",""time""
""fullscreenenter"",""1"",""1689""
","
","
","""event"",""trial"",""time""
""fullscreenenter"",""1"",""1689""
","
","","","-1","","","21","9763","4389","&#9826;","elianto","#f73b6a7A","-1","-1","1","-10","[]","0","0","3","","","","","","","",""
"pit-trial","73","607560","0.0-2.0-14.2-4.2","battery-v0.2","","""event"",""trial"",""time""
""fullscreenenter"",""1"",""1689""
","
","
","""event"",""trial"",""time""
""fullscreenenter"",""1"",""1689""
","
","","","-1","","","21","9763","4389","&#9826;","elianto","#f73b6a7A","-1","-1","1","0","[]","0","0","3","","","","","","","",""
"pit-trial","74","612429","0.0-2.0-14.3-0.3","battery-v0.2","","""event"",""trial"",""time""
""fullscreenenter"",""1"",""1689""
","
","
","""event"",""trial"",""time""
""fullscreenenter"",""1"",""1689""
","
","","","-1","","","21","9763","4389","&#9826;","elianto","#f73b6a7A","-1","-1","1","0","[]","0","0","3","","","","","","","",""
"pit-trial","75","617298","0.0-2.0-14.3-1.3","battery-v0.2","","""event"",""trial"",""time""
""fullscreenenter"",""1"",""1689""
","
","
","""event"",""trial"",""time""
""fullscreenenter"",""1"",""1689""
","
","","","-1","","","21","9763","4389","&#9826;","elianto","#f73b6a7A","-1","-1","1","0","[]","0","0","3","","","","","","","",""
"pit-trial","76","622168","0.0-2.0-14.3-2.3","battery-v0.2","","""event"",""trial"",""time""
""fullscreenenter"",""1"",""1689""
","
","
","""event"",""trial"",""time""
""fullscreenenter"",""1"",""1689""
","
","","","-1","","","21","9763","4389","&#9826;","elianto","#f73b6a7A","-1","-1","1","0","[]","0","0","3","","","","","","","",""
"pit-trial","77","627033","0.0-2.0-14.3-3.3","battery-v0.2","","""event"",""trial"",""time""
""fullscreenenter"",""1"",""1689""
","
","
","""event"",""trial"",""time""
""fullscreenenter"",""1"",""1689""
","
","","","-1","","","21","9763","4389","&#9826;","elianto","#f73b6a7A","-1","-1","1","-10","[]","0","0","3","","","","","","","",""
"pit-trial","78","631896","0.0-2.0-14.3-4.3","battery-v0.2","","""event"",""trial"",""time""
""fullscreenenter"",""1"",""1689""
","
","
","""event"",""trial"",""time""
""fullscreenenter"",""1"",""1689""
","
","","","-1","","","21","9763","4389","&#9826;","elianto","#f73b6a7A","-1","-1","1","0","[]","0","0","3","","","","","","","",""
"call-function","79","631898","0.0-2.0-15.0","battery-v0.2","","""event"",""trial"",""time""
""fullscreenenter"",""1"",""1689""
","
","
","""event"",""trial"",""time""
""fullscreenenter"",""1"",""1689""
","
","","","","","","","","","","","","","","","","","","","","","","","","","","",""
"pit-instructions","80","661122","0.0-2.0-16.0","battery-v0.2","","""event"",""trial"",""time""
""fullscreenenter"",""1"",""1689""
","
","
","""event"",""trial"",""time""
""fullscreenenter"",""1"",""1689""
","
","","[{""page_index"":0,""viewing_time"":8161.5},{""page_index"":1,""viewing_time"":10254.59999999986},{""page_index"":2,""viewing_time"":5477.800000000047},{""page_index"":3,""viewing_time"":5328.199999999953}]","29222.59999999986","","","","","","","","","","","","","","","","","","","","","","","",""
"pit-trial","81","664430","0.0-2.0-17.0-0.0","battery-v0.2","","""event"",""trial"",""time""
""fullscreenenter"",""1"",""1689""
","
","
","""event"",""trial"",""time""
""fullscreenenter"",""1"",""1689""
","
","","","446.30000000004657","","","21","9763","4389","&#9789;","elianto","#f73b6a7A"," "," ","1","0","[1301]","1","0","4","","","","","","","",""
"pit-trial","82","669119","0.0-2.0-17.0-1.0","battery-v0.2","","""event"",""trial"",""time""
""fullscreenenter"",""1"",""1689""
","
","
","""event"",""trial"",""time""
""fullscreenenter"",""1"",""1689""
","
","","","1823.5","","","21","9763","4389","&#9789;","elianto","#f73b6a7A"," "," ","1","0","[2678.100000000093]","1","0","4","","","","","","","",""
"pit-trial","83","673147","0.0-2.0-17.0-2.0","battery-v0.2","","""event"",""trial"",""time""
""fullscreenenter"",""1"",""1689""
","
","
","""event"",""trial"",""time""
""fullscreenenter"",""1"",""1689""
","
","","","1165.3000000000466","","","21","9763","4389","&#9789;","elianto","#f73b6a7A"," "," ","1","0","[2019.6000000000931]","1","0","4","","","","","","","",""
"pit-trial","84","676431","0.0-2.0-17.0-3.0","battery-v0.2","","""event"",""trial"",""time""
""fullscreenenter"",""1"",""1689""
","
","
","""event"",""trial"",""time""
""fullscreenenter"",""1"",""1689""
","
","","","417.19999999995343","","","21","9763","4389","&#9789;","elianto","#f73b6a7A"," "," ","1","-10","[1276]","1","0","4","","","","","","","",""
"pit-trial","85","679722","0.0-2.0-17.0-4.0","battery-v0.2","","""event"",""trial"",""time""
""fullscreenenter"",""1"",""1689""
","
","
","""event"",""trial"",""time""
""fullscreenenter"",""1"",""1689""
","
","","","430.5","","","21","9763","4389","&#9789;","elianto","#f73b6a7A"," "," ","1","0","[1284.6999999999534]","1","0","4","","","","","","","",""
"pit-trial","86","683033","0.0-2.0-17.1-0.1","battery-v0.2","","""event"",""trial"",""time""
""fullscreenenter"",""1"",""1689""
","
","
","""event"",""trial"",""time""
""fullscreenenter"",""1"",""1689""
","
","","","450","","","21","9763","4389","&#9789;","elianto","#f73b6a7A"," "," ","1","0","[1301.1000000000931]","1","0","4","","","","","","","",""
"pit-trial","87","686466","0.0-2.0-17.1-1.1","battery-v0.2","","""event"",""trial"",""time""
""fullscreenenter"",""1"",""1689""
","
","
","""event"",""trial"",""time""
""fullscreenenter"",""1"",""1689""
","
","","","567.4000000001397","","","21","9763","4389","&#9789;","elianto","#f73b6a7A"," "," ","1","0","[1419.3000000000466]","1","0","4","","","","","","","",""
"pit-trial","88","689947","0.0-2.0-17.1-2.1","battery-v0.2","","""event"",""trial"",""time""
""fullscreenenter"",""1"",""1689""
","
","
","""event"",""trial"",""time""
""fullscreenenter"",""1"",""1689""
","
","","","611.5","","","21","9763","4389","&#9789;","elianto","#f73b6a7A"," "," ","1","0","[1472.8000000000466]","1","0","4","","","","","","","",""
"pit-trial","89","693144","0.0-2.0-17.1-3.1","battery-v0.2","","""event"",""trial"",""time""
""fullscreenenter"",""1"",""1689""
","
","
","""event"",""trial"",""time""
""fullscreenenter"",""1"",""1689""
","
","","","330.60000000009313","","","21","9763","4389","&#9789;","elianto","#f73b6a7A"," "," ","1","-10","[1190]","1","0","4","","","","","","","",""
"pit-trial","90","696505","0.0-2.0-17.1-4.1","battery-v0.2","","""event"",""trial"",""time""
""fullscreenenter"",""1"",""1689""
","
","
","""event"",""trial"",""time""
""fullscreenenter"",""1"",""1689""
","
","","","497","","","21","9763","4389","&#9789;","elianto","#f73b6a7A"," "," ","1","0","[1348.1000000000931]","1","0","4","","","","","","","",""
"pit-trial","91","699801","0.0-2.0-17.2-0.2","battery-v0.2","","""event"",""trial"",""time""
""fullscreenenter"",""1"",""1689""
","
","
","""event"",""trial"",""time""
""fullscreenenter"",""1"",""1689""
","
","","","432.0999999998603","","","21","9763","4389","&#9789;","elianto","#f73b6a7A"," "," ","1","0","[1282.8999999999069]","1","0","4","","","","","","","",""
"pit-trial","92","702930","0.0-2.0-17.2-1.2","battery-v0.2","","""event"",""trial"",""time""
""fullscreenenter"",""1"",""1689""
","
","
","""event"",""trial"",""time""
""fullscreenenter"",""1"",""1689""
","
","","","269.5","","","21","9763","4389","&#9789;","elianto","#f73b6a7A"," "," ","1","0","[1120.6999999999534]","1","0","4","","","","","","","",""
"pit-trial","93","706178","0.0-2.0-17.2-2.2","battery-v0.2","","""event"",""trial"",""time""
""fullscreenenter"",""1"",""1689""
","
","
","""event"",""trial"",""time""
""fullscreenenter"",""1"",""1689""
","
","","","386.20000000018626","","","21","9763","4389","&#9789;","elianto","#f73b6a7A"," "," ","1","0","[1236.8000000000466]","1","0","4","","","","","","","",""
"pit-trial","94","709169","0.0-2.0-17.2-3.2","battery-v0.2","","""event"",""trial"",""time""
""fullscreenenter"",""1"",""1689""
","
","
","""event"",""trial"",""time""
""fullscreenenter"",""1"",""1689""
","
","","","132.10000000009313","","","21","9763","4389","&#9789;","elianto","#f73b6a7A"," "," ","1","-10","[984.4000000001397]","1","0","4","","","","","","","",""
"pit-trial","95","712434","0.0-2.0-17.2-4.2","battery-v0.2","","""event"",""trial"",""time""
""fullscreenenter"",""1"",""1689""
","
","
","""event"",""trial"",""time""
""fullscreenenter"",""1"",""1689""
","
","","","403.30000000004657","","","21","9763","4389","&#9789;","elianto","#f73b6a7A"," "," ","1","0","[1256.8999999999069]","1","0","4","","","","","","","",""
"pit-trial","96","715946","0.0-2.0-17.3-0.3","battery-v0.2","","""event"",""trial"",""time""
""fullscreenenter"",""1"",""1689""
","
","
","""event"",""trial"",""time""
""fullscreenenter"",""1"",""1689""
","
","","","640.1999999999534","","","21","9763","4389","&#9789;","elianto","#f73b6a7A"," "," ","1","0","[1499.1999999999534]","1","0","4","","","","","","","",""
"pit-trial","97","719369","0.0-2.0-17.3-1.3","battery-v0.2","","""event"",""trial"",""time""
""fullscreenenter"",""1"",""1689""
","
","
","""event"",""trial"",""time""
""fullscreenenter"",""1"",""1689""
","
","","","562.1999999999534","","","21","9763","4389","&#9789;","elianto","#f73b6a7A"," "," ","1","0","[1412.5]","1","0","4","","","","","","","",""
"pit-trial","98","722911","0.0-2.0-17.3-2.3","battery-v0.2","","""event"",""trial"",""time""
""fullscreenenter"",""1"",""1689""
","
","
","""event"",""trial"",""time""
""fullscreenenter"",""1"",""1689""
","
","","","684.6000000000931","","","21","9763","4389","&#9789;","elianto","#f73b6a7A"," "," ","1","0","[1535.8999999999069]","1","0","4","","","","","","","",""
"pit-trial","99","726564","0.0-2.0-17.3-3.3","battery-v0.2","","""event"",""trial"",""time""
""fullscreenenter"",""1"",""1689""
","
","
","""event"",""trial"",""time""
""fullscreenenter"",""1"",""1689""
","
","","","788.5999999998603","","","21","9763","4389","&#9789;","elianto","#f73b6a7A"," "," ","1","-10","[1645.3000000000466]","1","0","4","","","","","","","",""
"pit-trial","100","729871","0.0-2.0-17.3-4.3","battery-v0.2","","""event"",""trial"",""time""
""fullscreenenter"",""1"",""1689""
","
","
","""event"",""trial"",""time""
""fullscreenenter"",""1"",""1689""
","
","","","449.39999999990687","","","21","9763","4389","&#9789;","elianto","#f73b6a7A"," "," ","1","0","[1301.1999999999534]","1","0","4","","","","","","","",""
"call-function","101","729873","0.0-2.0-18.0","battery-v0.2","","""event"",""trial"",""time""
""fullscreenenter"",""1"",""1689""
","
","
","""event"",""trial"",""time""
""fullscreenenter"",""1"",""1689""
","
","","","","","","","","","","","","","","","","","","","","","","","","","","",""
"pit-instructions","102","792833","0.0-2.0-19.0","battery-v0.2","","""event"",""trial"",""time""
""fullscreenenter"",""1"",""1689""
","
","
","""event"",""trial"",""time""
""fullscreenenter"",""1"",""1689""
","
","","[{""page_index"":0,""viewing_time"":6558},{""page_index"":1,""viewing_time"":5959.899999999907},{""page_index"":2,""viewing_time"":9465.199999999953},{""page_index"":3,""viewing_time"":8914.40000000014},{""page_index"":4,""viewing_time"":7712.300000000047},{""page_index"":5,""viewing_time"":8788.5},{""page_index"":6,""viewing_time"":6242.199999999953},{""page_index"":7,""viewing_time"":5390.899999999907},{""page_index"":8,""viewing_time"":3926.600000000093}]","62958.39999999991","","","","","","","","","","","","","","","","","","","","","","","",""
"pit-comprehension","103","798074","0.0-2.0-20.0-0.0","battery-v0.2","","""event"",""trial"",""time""
""fullscreenenter"",""1"",""1689""
","
","
","""event"",""trial"",""time""
""fullscreenenter"",""1"",""1689""
","
","","","5236","[""SPACE""]","0","21","9763","4389","","","","","","","","","","","","","","","","","","",""
"pit-instructions","104","800671","0.0-2.0-20.0-1.0","battery-v0.2","","""event"",""trial"",""time""
""fullscreenenter"",""1"",""1689""
","
","
","""event"",""trial"",""time""
""fullscreenenter"",""1"",""1689""
","
","","[{""page_index"":0,""viewing_time"":2553.5999999998603}]","2553.899999999907","","","","","","","","","","","","","","","","","","","","","","","",""
"pit-comprehension","105","807191","0.0-2.0-21.0-0.0","battery-v0.2","","""event"",""trial"",""time""
""fullscreenenter"",""1"",""1689""
","
","
","""event"",""trial"",""time""
""fullscreenenter"",""1"",""1689""
","
","","","6515.300000000047","[""10""]","0","21","9763","4389","","","","","","","","","","","","","","","","","","",""
"pit-instructions","106","811940","0.0-2.0-21.0-1.0","battery-v0.2","","""event"",""trial"",""time""
""fullscreenenter"",""1"",""1689""
","
","
","""event"",""trial"",""time""
""fullscreenenter"",""1"",""1689""
","
","","[{""page_index"":0,""viewing_time"":4701.09999999986}]","4701.5","","","","","","","","","","","","","","","","","","","","","","","",""
"pit-comprehension","107","819166","0.0-2.0-22.0-0.0","battery-v0.2","","""event"",""trial"",""time""
""fullscreenenter"",""1"",""1689""
","
","
","""event"",""trial"",""time""
""fullscreenenter"",""1"",""1689""
","
","","","7221.59999999986","[""0""]","0","21","9763","4389","","","","","","","","","","","","","","","","","","",""
"pit-instructions","108","823391","0.0-2.0-22.0-1.0","battery-v0.2","","""event"",""trial"",""time""
""fullscreenenter"",""1"",""1689""
","
","
","""event"",""trial"",""time""
""fullscreenenter"",""1"",""1689""
","
","","[{""page_index"":0,""viewing_time"":4177.800000000047}]","4178.200000000186","","","","","","","","","","","","","","","","","","","","","","","",""
"pit-comprehension","109","836288","0.0-2.0-23.0-0.0","battery-v0.2","","""event"",""trial"",""time""
""fullscreenenter"",""1"",""1689""
","
","
","""event"",""trial"",""time""
""fullscreenenter"",""1"",""1689""
","
","","","12891.600000000093","[""True""]","0","21","9763","4389","","","","","","","","","","","","","","","","","","",""
"pit-instructions","110","838045","0.0-2.0-23.0-1.0","battery-v0.2","","""event"",""trial"",""time""
""fullscreenenter"",""1"",""1689""
","
","
","""event"",""trial"",""time""
""fullscreenenter"",""1"",""1689""
","
","","[{""page_index"":0,""viewing_time"":1707.8000000000466}]","1708.1000000000931","","","","","","","","","","","","","","","","","","","","","","","",""
"pit-comprehension","111","849410","0.0-2.0-24.0-0.0","battery-v0.2","","""event"",""trial"",""time""
""fullscreenenter"",""1"",""1689""
","
","
","""event"",""trial"",""time""
""fullscreenenter"",""1"",""1689""
","
","","","11360.300000000047","[""True""]","0","21","9763","4389","","","","","","","","","","","","","","","","","","",""
"pit-instructions","112","851465","0.0-2.0-24.0-1.0","battery-v0.2","","""event"",""trial"",""time""
""fullscreenenter"",""1"",""1689""
","
","
","""event"",""trial"",""time""
""fullscreenenter"",""1"",""1689""
","
","","[{""page_index"":0,""viewing_time"":2007.7999999998137}]","2008.1999999999534","","","","","","","","","","","","","","","","","","","","","","","",""
"pit-comprehension","113","860665","0.0-2.0-25.0-0.0","battery-v0.2","","""event"",""trial"",""time""
""fullscreenenter"",""1"",""1689""
","
","
","""event"",""trial"",""time""
""fullscreenenter"",""1"",""1689""
","
","","","9195.399999999907","[""True""]","0","21","9763","4389","","","","","","","","","","","","","","","","","","",""
"pit-instructions","114","865169","0.0-2.0-25.0-1.0","battery-v0.2","","""event"",""trial"",""time""
""fullscreenenter"",""1"",""1689""
","
","
","""event"",""trial"",""time""
""fullscreenenter"",""1"",""1689""
","
","","[{""page_index"":0,""viewing_time"":4454.90000000014}]","4455.300000000047","","","","","","","","","","","","","","","","","","","","","","","",""
"pit-comprehension","115","871410","0.0-2.0-26.0-0.0","battery-v0.2","","""event"",""trial"",""time""
""fullscreenenter"",""1"",""1689""
","
","
","""event"",""trial"",""time""
""fullscreenenter"",""1"",""1689""
","
","","","6237.199999999953","[""False""]","0","21","9763","4389","","","","","","","","","","","","","","","","","","",""
"pit-instructions","116","878047","0.0-2.0-26.0-1.0","battery-v0.2","","""event"",""trial"",""time""
""fullscreenenter"",""1"",""1689""
","
","
","""event"",""trial"",""time""
""fullscreenenter"",""1"",""1689""
","
","","[{""page_index"":0,""viewing_time"":6587}]","6587.399999999907","","","","","","","","","","","","","","","","","","","","","","","",""
"pit-instructions","117","902497","0.0-3.0","battery-v0.2","","""event"",""trial"",""time""
""fullscreenenter"",""1"",""1689""
","
","
","""event"",""trial"",""time""
""fullscreenenter"",""1"",""1689""
","
","","[{""page_index"":0,""viewing_time"":7478.199999999953},{""page_index"":1,""viewing_time"":6766},{""page_index"":2,""viewing_time"":10202.800000000047}]","24447.300000000047","","","","","","","","","","","","","","","","","","","","","","","",""
"pit-trial","118","906788","0.0-4.0","battery-v0.2","","""event"",""trial"",""time""
""fullscreenenter"",""1"",""1689""
","
","
","""event"",""trial"",""time""
""fullscreenenter"",""1"",""1689""
","
","","","1421.6000000000931","","","21","9763","4389","&#9733;","elianto","#3366ff99","-1"," ","0","0","[2272]","1","1","","","9763","1","2","2","win","no-go","0"
"pit-trial","119","911650","0.0-5.0","battery-v0.2","","""event"",""trial"",""time""
""fullscreenenter"",""1"",""1689""
","
","
","""event"",""trial"",""time""
""fullscreenenter"",""1"",""1689""
","
","","","-1","","","21","9763","4389","&#9728;","elianto","#f73b6a7A","-1","-1","1","0","[]","0","1","","","9763","2","0","4","lose","no-go","0"
"pit-trial","120","916502","0.0-6.0","battery-v0.2","","""event"",""trial"",""time""
""fullscreenenter"",""1"",""1689""
","
","
","""event"",""trial"",""time""
""fullscreenenter"",""1"",""1689""
","
","","","1986.8999999999069","","","21","9763","4389","&#9752;","elianto","#f73b6a7A"," "," ","1","0","[2840.0999999998603]","1","1","","","9763","3","3","3","lose","go","0"
"pit-trial","121","921370","0.0-7.0","battery-v0.2","","""event"",""trial"",""time""
""fullscreenenter"",""1"",""1689""
","
","
","""event"",""trial"",""time""
""fullscreenenter"",""1"",""1689""
","
","","","-1","","","21","9763","4389","&#9730;","elianto","#3366ff99"," ","-1","0","+10","[]","0","1","","","9763","4","1","1","win","go","1"
"pit-trial","122","925810","0.0-8.0","battery-v0.2","","""event"",""trial"",""time""
""fullscreenenter"",""1"",""1689""
","
","
","""event"",""trial"",""time""
""fullscreenenter"",""1"",""1689""
","
","","","1576.3999999999069","","","21","9763","4389","&#9752;","elianto","#f73b6a7A"," "," ","1","0","[2431.5999999998603]","1","1","","","9763","5","3","3","lose","go","0"
"pit-trial","123","930677","0.0-9.0","battery-v0.2","","""event"",""trial"",""time""
""fullscreenenter"",""1"",""1689""
","
","
","""event"",""trial"",""time""
""fullscreenenter"",""1"",""1689""
","
","","","-1","","","21","9763","4389","&#9728;","elianto","#f73b6a7A","-1","-1","1","0","[3409.0999999998603]","1","1","","","9763","6","0","4","lose","no-go","0"
"pit-trial","124","935542","0.0-10.0","battery-v0.2","","""event"",""trial"",""time""
""fullscreenenter"",""1"",""1689""
","
","
","""event"",""trial"",""time""
""fullscreenenter"",""1"",""1689""
","
","","","-1","","","21","9763","4389","&#9733;","elianto","#3366ff99","-1","-1","1","0","[3873]","1","1","","","9763","7","2","2","win","no-go","1"
"pit-trial","125","939318","0.0-11.0","battery-v0.2","","""event"",""trial"",""time""
""fullscreenenter"",""1"",""1689""
","
","
","""event"",""trial"",""time""
""fullscreenenter"",""1"",""1689""
","
","","","904.1999999999534","","","21","9763","4389","&#9730;","elianto","#3366ff99"," "," ","1","+10","[1764.8000000000466]","1","1","","","9763","8","1","1","win","go","0"
"pit-trial","126","943014","0.0-12.0","battery-v0.2","","""event"",""trial"",""time""
""fullscreenenter"",""1"",""1689""
","
","
","""event"",""trial"",""time""
""fullscreenenter"",""1"",""1689""
","
","","","837","","","21","9763","4389","&#9733;","elianto","#3366ff99","-1"," ","0","0","[1687.1000000000931]","1","1","","","9763","9","2","2","win","no-go","0"
"pit-trial","127","946971","0.0-13.0","battery-v0.2","","""event"",""trial"",""time""
""fullscreenenter"",""1"",""1689""
","
","
","""event"",""trial"",""time""
""fullscreenenter"",""1"",""1689""
","
","","","1092.1999999999534","","","21","9763","4389","&#9730;","elianto","#3366ff99"," "," ","1","+10","[1945.5999999998603]","1","1","","","9763","10","1","1","win","go","0"
"pit-trial","128","951527","0.0-14.0","battery-v0.2","","""event"",""trial"",""time""
""fullscreenenter"",""1"",""1689""
","
","
","""event"",""trial"",""time""
""fullscreenenter"",""1"",""1689""
","
","","","1691.8999999999069","","","21","9763","4389","&#9728;","elianto","#f73b6a7A","-1"," ","0","-10","[2544.600000000093]","1","1","","","9763","11","0","4","lose","no-go","0"
"pit-trial","129","956397","0.0-15.0","battery-v0.2","","""event"",""trial"",""time""
""fullscreenenter"",""1"",""1689""
","
","
","""event"",""trial"",""time""
""fullscreenenter"",""1"",""1689""
","
","","","-1","","","21","9763","4389","&#9752;","elianto","#f73b6a7A"," ","-1","0","-10","[]","0","1","","","9763","12","3","3","lose","go","0"
"pit-trial","130","960227","0.0-16.0","battery-v0.2","","""event"",""trial"",""time""
""fullscreenenter"",""1"",""1689""
","
","
","""event"",""trial"",""time""
""fullscreenenter"",""1"",""1689""
","
","","","971.8000000000466","","","21","9763","4389","&#9752;","elianto","#f73b6a7A"," "," ","1","0","[1824.4000000001397]","1","1","","","9763","13","3","3","lose","go","0"
"pit-trial","131","964658","0.0-17.0","battery-v0.2","","""event"",""trial"",""time""
""fullscreenenter"",""1"",""1689""
","
","
","""event"",""trial"",""time""
""fullscreenenter"",""1"",""1689""
","
","","","1571.4000000001397","","","21","9763","4389","&#9730;","elianto","#3366ff99"," "," ","1","+10","[2421.2000000001863]","1","1","","","9763","14","1","1","win","go","0"
"pit-trial","132","969527","0.0-18.0","battery-v0.2","","""event"",""trial"",""time""
""fullscreenenter"",""1"",""1689""
","
","
","""event"",""trial"",""time""
""fullscreenenter"",""1"",""1689""
","
","","","-1","","","21","9763","4389","&#9728;","elianto","#f73b6a7A","-1","-1","1","0","[]","0","1","","","9763","15","0","4","lose","no-go","0"
"pit-trial","133","974396","0.0-19.0","battery-v0.2","","""event"",""trial"",""time""
""fullscreenenter"",""1"",""1689""
","
","
","""event"",""trial"",""time""
""fullscreenenter"",""1"",""1689""
","
","","","-1","","","21","9763","4389","&#9733;","elianto","#3366ff99","-1","-1","1","+10","[]","0","1","","","9763","16","2","2","win","no-go","0"
"pit-trial","134","978107","0.0-20.0","battery-v0.2","","""event"",""trial"",""time""
""fullscreenenter"",""1"",""1689""
","
","
","""event"",""trial"",""time""
""fullscreenenter"",""1"",""1689""
","
","","","850.5","","","21","9763","4389","&#9752;","elianto","#f73b6a7A"," "," ","1","0","[1704.6999999999534]","1","1","","","9763","17","3","3","lose","go","0"
"pit-trial","135","981503","0.0-21.0","battery-v0.2","","""event"",""trial"",""time""
""fullscreenenter"",""1"",""1689""
","
","
","""event"",""trial"",""time""
""fullscreenenter"",""1"",""1689""
","
","","","536.0999999998603","","","21","9763","4389","&#9730;","elianto","#3366ff99"," "," ","1","0","[1386.3999999999069]","1","1","","","9763","18","1","1","win","go","1"
"pit-trial","136","986374","0.0-22.0","battery-v0.2","","""event"",""trial"",""time""
""fullscreenenter"",""1"",""1689""
","
","
","""event"",""trial"",""time""
""fullscreenenter"",""1"",""1689""
","
","","","-1","","","21","9763","4389","&#9728;","elianto","#f73b6a7A","-1","-1","1","-10","[]","0","1","","","9763","19","0","4","lose","no-go","1"
"pit-trial","137","991244","0.0-23.0","battery-v0.2","","""event"",""trial"",""time""
""fullscreenenter"",""1"",""1689""
","
","
","""event"",""trial"",""time""
""fullscreenenter"",""1"",""1689""
","
","","","-1","","","21","9763","4389","&#9733;","elianto","#3366ff99","-1","-1","1","+10","[]","0","1","","","9763","20","2","2","win","no-go","0"
"pit-instructions","138","1003670","0.0-24.0","battery-v0.2","","""event"",""trial"",""time""
""fullscreenenter"",""1"",""1689""
","
","
","""event"",""trial"",""time""
""fullscreenenter"",""1"",""1689""
","
","","[{""page_index"":0,""viewing_time"":5975},{""page_index"":1,""viewing_time"":6449.300000000047}]","12424.600000000093","","","","","","","","","","","","","","","","","","","","","","","",""
"pit-trial","139","1008544","0.0-25.0","battery-v0.2","","""event"",""trial"",""time""
""fullscreenenter"",""1"",""1689""
","
","
","""event"",""trial"",""time""
""fullscreenenter"",""1"",""1689""
","
","","","-1","","","21","9763","4389","n","elianto","#f73b6a7A","-1","-1","1","0","[]","0","2","","","9763","21","0","4","lose","no-go","0"
"pit-trial","140","1013247","0.0-26.0","battery-v0.2","","""event"",""trial"",""time""
""fullscreenenter"",""1"",""1689""
","
","
","""event"",""trial"",""time""
""fullscreenenter"",""1"",""1689""
","
","","","1843.4000000001397","","","21","9763","4389","f","elianto","#3366ff99"," "," ","1","+10","[2693.8000000000466]","1","2","","","9763","22","1","1","win","go","0"
"pit-trial","141","1018117","0.0-27.0","battery-v0.2","","""event"",""trial"",""time""
""fullscreenenter"",""1"",""1689""
","
","
","""event"",""trial"",""time""
""fullscreenenter"",""1"",""1689""
","
","","","-1","","","21","9763","4389","b","elianto","#f73b6a7A"," ","-1","0","-10","[]","0","2","","","9763","23","3","3","lose","go","0"
"pit-trial","142","1022367","0.0-28.0","battery-v0.2","","""event"",""trial"",""time""
""fullscreenenter"",""1"",""1689""
","
","
","""event"",""trial"",""time""
""fullscreenenter"",""1"",""1689""
","
","","","1383.8000000000466","","","21","9763","4389","t","elianto","#f73b6a7A","-1"," ","0","-10","[2235.5]","1","2","","","9763","24","2","4","lose","no-go","0"
"pit-trial","143","1027095","0.0-29.0","battery-v0.2","","""event"",""trial"",""time""
""fullscreenenter"",""1"",""1689""
","
","
","""event"",""trial"",""time""
""fullscreenenter"",""1"",""1689""
","
","","","1858.6999999999534","","","21","9763","4389","f","elianto","#3366ff99"," "," ","1","+10","[2717.6999999999534]","1","2","","","9763","25","1","1","win","go","0"
"pit-trial","144","1031963","0.0-30.0","battery-v0.2","","""event"",""trial"",""time""
""fullscreenenter"",""1"",""1689""
","
","
","""event"",""trial"",""time""
""fullscreenenter"",""1"",""1689""
","
","","","-1","","","21","9763","4389","t","elianto","#f73b6a7A","-1","-1","1","0","[]","0","2","","","9763","26","2","4","lose","no-go","0"
"pit-trial","145","1035725","0.0-31.0","battery-v0.2","","""event"",""trial"",""time""
""fullscreenenter"",""1"",""1689""
","
","
","""event"",""trial"",""time""
""fullscreenenter"",""1"",""1689""
","
","","","899.5","","","21","9763","4389","b","elianto","#f73b6a7A"," "," ","1","0","[1752.6000000000931]","1","2","","","9763","27","3","3","lose","go","0"
"pit-trial","146","1040589","0.0-32.0","battery-v0.2","","""event"",""trial"",""time""
""fullscreenenter"",""1"",""1689""
","
","
","""event"",""trial"",""time""
""fullscreenenter"",""1"",""1689""
","
","","","-1","","","21","9763","4389","n","elianto","#f73b6a7A","-1","-1","1","0","[]","0","2","","","9763","28","0","4","lose","no-go","0"
"pit-trial","147","1045452","0.0-33.0","battery-v0.2","","""event"",""trial"",""time""
""fullscreenenter"",""1"",""1689""
","
","
","""event"",""trial"",""time""
""fullscreenenter"",""1"",""1689""
","
","","","-1","","","21","9763","4389","n","elianto","#f73b6a7A","-1","-1","1","0","[]","0","2","","","9763","29","0","4","lose","no-go","0"
"pit-trial","148","1048908","0.0-34.0","battery-v0.2","","""event"",""trial"",""time""
""fullscreenenter"",""1"",""1689""
","
","
","""event"",""trial"",""time""
""fullscreenenter"",""1"",""1689""
","
","","","599.5","","","21","9763","4389","f","elianto","#3366ff99"," "," ","1","+10","[1451.7999999998137]","1","2","","","9763","30","1","1","win","go","0"
"pit-trial","149","1052847","0.0-35.0","battery-v0.2","","""event"",""trial"",""time""
""fullscreenenter"",""1"",""1689""
","
","
","""event"",""trial"",""time""
""fullscreenenter"",""1"",""1689""
","
","","","1076.6000000000931","","","21","9763","4389","b","elianto","#f73b6a7A"," "," ","1","-10","[1930.3000000000466]","1","2","","","9763","31","3","3","lose","go","1"
"pit-trial","150","1057716","0.0-36.0","battery-v0.2","","""event"",""trial"",""time""
""fullscreenenter"",""1"",""1689""
","
","
","""event"",""trial"",""time""
""fullscreenenter"",""1"",""1689""
","
","","","-1","","","21","9763","4389","t","elianto","#f73b6a7A","-1","-1","1","-10","[]","0","2","","","9763","32","2","4","lose","no-go","1"
"pit-trial","151","1062039","0.0-37.0","battery-v0.2","","""event"",""trial"",""time""
""fullscreenenter"",""1"",""1689""
","
","
","""event"",""trial"",""time""
""fullscreenenter"",""1"",""1689""
","
","","","1458.1999999999534","","","21","9763","4389","b","elianto","#f73b6a7A"," "," ","1","0","[2311]","1","2","","","9763","33","3","3","lose","go","0"
"pit-trial","152","1066909","0.0-38.0","battery-v0.2","","""event"",""trial"",""time""
""fullscreenenter"",""1"",""1689""
","
","
","""event"",""trial"",""time""
""fullscreenenter"",""1"",""1689""
","
","","","-1","","","21","9763","4389","n","elianto","#f73b6a7A","-1","-1","1","0","[]","0","2","","","9763","34","0","4","lose","no-go","0"
"pit-trial","153","1070493","0.0-39.0","battery-v0.2","","""event"",""trial"",""time""
""fullscreenenter"",""1"",""1689""
","
","
","""event"",""trial"",""time""
""fullscreenenter"",""1"",""1689""
","
","","","723.5","","","21","9763","4389","f","elianto","#3366ff99"," "," ","1","+10","[1577.6000000000931]","1","2","","","9763","35","1","1","win","go","0"
"pit-trial","154","1075357","0.0-40.0","battery-v0.2","","""event"",""trial"",""time""
""fullscreenenter"",""1"",""1689""
","
","
","""event"",""trial"",""time""
""fullscreenenter"",""1"",""1689""
","
","","","-1","","","21","9763","4389","t","elianto","#f73b6a7A","-1","-1","1","-10","[]","0","2","","","9763","36","2","4","lose","no-go","1"
"pit-trial","155","1079256","0.0-41.0","battery-v0.2","","""event"",""trial"",""time""
""fullscreenenter"",""1"",""1689""
","
","
","""event"",""trial"",""time""
""fullscreenenter"",""1"",""1689""
","
","","","1032","","","21","9763","4389","b","elianto","#f73b6a7A"," "," ","1","0","[1885.5]","1","2","","","9763","37","3","3","lose","go","0"
"pit-trial","156","1084125","0.0-42.0","battery-v0.2","","""event"",""trial"",""time""
""fullscreenenter"",""1"",""1689""
","
","
","""event"",""trial"",""time""
""fullscreenenter"",""1"",""1689""
","
","","","-1","","","21","9763","4389","n","elianto","#f73b6a7A","-1","-1","1","0","[]","0","2","","","9763","38","0","4","lose","no-go","0"
"pit-trial","157","1088552","0.0-43.0","battery-v0.2","","""event"",""trial"",""time""
""fullscreenenter"",""1"",""1689""
","
","
","""event"",""trial"",""time""
""fullscreenenter"",""1"",""1689""
","
","","","1566.5","","","21","9763","4389","t","elianto","#f73b6a7A","-1"," ","0","-10","[2419.0999999998603]","1","2","","","9763","39","2","4","lose","no-go","0"
"pit-trial","158","1091885","0.0-44.0","battery-v0.2","","""event"",""trial"",""time""
""fullscreenenter"",""1"",""1689""
","
","
","""event"",""trial"",""time""
""fullscreenenter"",""1"",""1689""
","
","","","463.69999999995343","","","21","9763","4389","f","elianto","#3366ff99"," "," ","1","+10","[1321.8999999999069]","1","2","","","9763","40","1","1","win","go","0"
"pit-trial","159","1095463","0.0-45.0","battery-v0.2","","""event"",""trial"",""time""
""fullscreenenter"",""1"",""1689""
","
","
","""event"",""trial"",""time""
""fullscreenenter"",""1"",""1689""
","
","","","712.3000000000466","","","21","9763","4389","b","elianto","#f73b6a7A"," "," ","1","0","[1565.3999999999069]","1","2","","","9763","41","3","3","lose","go","0"
"pit-trial","160","1100326","0.0-46.0","battery-v0.2","","""event"",""trial"",""time""
""fullscreenenter"",""1"",""1689""
","
","
","""event"",""trial"",""time""
""fullscreenenter"",""1"",""1689""
","
","","","-1","","","21","9763","4389","n","elianto","#f73b6a7A","-1","-1","1","0","[]","0","2","","","9763","42","0","4","lose","no-go","0"
"pit-trial","161","1105197","0.0-47.0","battery-v0.2","","""event"",""trial"",""time""
""fullscreenenter"",""1"",""1689""
","
","
","""event"",""trial"",""time""
""fullscreenenter"",""1"",""1689""
","
","","","-1","","","21","9763","4389","t","elianto","#f73b6a7A","-1","-1","1","-10","[]","0","2","","","9763","43","2","4","lose","no-go","1"
"pit-trial","162","1108520","0.0-48.0","battery-v0.2","","""event"",""trial"",""time""
""fullscreenenter"",""1"",""1689""
","
","
","""event"",""trial"",""time""
""fullscreenenter"",""1"",""1689""
","
","","","457.60000000009313","","","21","9763","4389","f","elianto","#3366ff99"," "," ","1","+10","[1311.2000000001863]","1","2","","","9763","44","1","1","win","go","0"
"pit-trial","163","1113134","0.0-49.0","battery-v0.2","","""event"",""trial"",""time""
""fullscreenenter"",""1"",""1689""
","
","
","""event"",""trial"",""time""
""fullscreenenter"",""1"",""1689""
","
","","","1756.3999999999069","","","21","9763","4389","c","elianto","#3366ff99","-1"," ","0","0","[2607.100000000093]","1","2","","","9763","45","4","2","win","no-go","0"
"pit-trial","164","1117998","0.0-50.0","battery-v0.2","","""event"",""trial"",""time""
""fullscreenenter"",""1"",""1689""
","
","
","""event"",""trial"",""time""
""fullscreenenter"",""1"",""1689""
","
","","","-1","","","21","9763","4389","b","elianto","#f73b6a7A"," ","-1","0","0","[3110.899999999907]","1","2","","","9763","46","3","3","lose","go","1"
"pit-trial","165","1122862","0.0-51.0","battery-v0.2","","""event"",""trial"",""time""
""fullscreenenter"",""1"",""1689""
","
","
","""event"",""trial"",""time""
""fullscreenenter"",""1"",""1689""
","
","","","-1","","","21","9763","4389","t","elianto","#f73b6a7A","-1","-1","1","-10","[]","0","2","","","9763","47","2","4","lose","no-go","1"
"pit-trial","166","1127726","0.0-52.0","battery-v0.2","","""event"",""trial"",""time""
""fullscreenenter"",""1"",""1689""
","
","
","""event"",""trial"",""time""
""fullscreenenter"",""1"",""1689""
","
","","","-1","","","21","9763","4389","n","elianto","#f73b6a7A","-1","-1","1","-10","[]","0","2","","","9763","48","0","4","lose","no-go","1"
"pit-trial","167","1132285","0.0-53.0","battery-v0.2","","""event"",""trial"",""time""
""fullscreenenter"",""1"",""1689""
","
","
","""event"",""trial"",""time""
""fullscreenenter"",""1"",""1689""
","
","","","1699.6000000000931","","","21","9763","4389","c","elianto","#3366ff99","-1"," ","0","+10","[2551.100000000093]","1","2","","","9763","49","4","2","win","no-go","1"
"pit-trial","168","1135801","0.0-54.0","battery-v0.2","","""event"",""trial"",""time""
""fullscreenenter"",""1"",""1689""
","
","
","""event"",""trial"",""time""
""fullscreenenter"",""1"",""1689""
","
","","","651.8000000000466","","","21","9763","4389","f","elianto","#3366ff99"," "," ","1","+10","[1505.3000000000466]","1","2","","","9763","50","1","1","win","go","0"
"pit-trial","169","1140633","0.0-55.0","battery-v0.2","","""event"",""trial"",""time""
""fullscreenenter"",""1"",""1689""
","
","
","""event"",""trial"",""time""
""fullscreenenter"",""1"",""1689""
","
","","","1967","","","21","9763","4389","b","elianto","#f73b6a7A"," "," ","1","0","[2823.899999999907]","1","2","","","9763","51","3","3","lose","go","0"
"pit-trial","170","1145502","0.0-56.0","battery-v0.2","","""event"",""trial"",""time""
""fullscreenenter"",""1"",""1689""
","
","
","""event"",""trial"",""time""
""fullscreenenter"",""1"",""1689""
","
","","","-1","","","21","9763","4389","n","elianto","#f73b6a7A","-1","-1","1","-10","[]","0","2","","","9763","52","0","4","lose","no-go","1"
"pit-trial","171","1149145","0.0-57.0","battery-v0.2","","""event"",""trial"",""time""
""fullscreenenter"",""1"",""1689""
","
","
","""event"",""trial"",""time""
""fullscreenenter"",""1"",""1689""
","
","","","777.8999999999069","","","21","9763","4389","f","elianto","#3366ff99"," "," ","1","0","[1630]","1","2","","","9763","53","1","1","win","go","1"
"pit-trial","172","1154015","0.0-58.0","battery-v0.2","","""event"",""trial"",""time""
""fullscreenenter"",""1"",""1689""
","
","
","""event"",""trial"",""time""
""fullscreenenter"",""1"",""1689""
","
","","","-1","","","21","9763","4389","n","elianto","#f73b6a7A","-1","-1","1","0","[]","0","2","","","9763","54","0","4","lose","no-go","0"
"pit-trial","173","1158878","0.0-59.0","battery-v0.2","","""event"",""trial"",""time""
""fullscreenenter"",""1"",""1689""
","
","
","""event"",""trial"",""time""
""fullscreenenter"",""1"",""1689""
","
","","","-1","","","21","9763","4389","c","elianto","#3366ff99","-1","-1","1","+10","[]","0","2","","","9763","55","4","2","win","no-go","0"
"pit-trial","174","1163744","0.0-60.0","battery-v0.2","","""event"",""trial"",""time""
""fullscreenenter"",""1"",""1689""
","
","
","""event"",""trial"",""time""
""fullscreenenter"",""1"",""1689""
","
","","","-1","","","21","9763","4389","t","elianto","#f73b6a7A","-1","-1","1","0","[]","0","2","","","9763","56","2","4","lose","no-go","0"
"pit-trial","175","1168605","0.0-61.0","battery-v0.2","","""event"",""trial"",""time""
""fullscreenenter"",""1"",""1689""
","
","
","""event"",""trial"",""time""
""fullscreenenter"",""1"",""1689""
","
","","","-1","","","21","9763","4389","n","elianto","#f73b6a7A","-1","-1","1","0","[]","0","2","","","9763","57","0","4","lose","no-go","0"
"pit-trial","176","1173469","0.0-62.0","battery-v0.2","","""event"",""trial"",""time""
""fullscreenenter"",""1"",""1689""
","
","
","""event"",""trial"",""time""
""fullscreenenter"",""1"",""1689""
","
","","","-1","","","21","9763","4389","c","elianto","#3366ff99","-1","-1","1","+10","[]","0","2","","","9763","58","4","2","win","no-go","0"
"pit-trial","177","1177305","0.0-63.0","battery-v0.2","","""event"",""trial"",""time""
""fullscreenenter"",""1"",""1689""
","
","
","""event"",""trial"",""time""
""fullscreenenter"",""1"",""1689""
","
","","","967.5","","","21","9763","4389","f","elianto","#3366ff99"," "," ","1","+10","[1821.9000000001397]","1","2","","","9763","59","1","1","win","go","0"
"pit-trial","178","1181129","0.0-64.0","battery-v0.2","","""event"",""trial"",""time""
""fullscreenenter"",""1"",""1689""
","
","
","""event"",""trial"",""time""
""fullscreenenter"",""1"",""1689""
","
","","","963.1999999999534","","","21","9763","4389","b","elianto","#f73b6a7A"," "," ","1","0","[1814.4000000001397]","1","2","","","9763","60","3","3","lose","go","0"
"pit-trial","179","1185999","0.0-65.0","battery-v0.2","","""event"",""trial"",""time""
""fullscreenenter"",""1"",""1689""
","
","
","""event"",""trial"",""time""
""fullscreenenter"",""1"",""1689""
","
","","","-1","","","21","9763","4389","c","elianto","#3366ff99","-1","-1","1","+10","[]","0","2","","","9763","61","4","2","win","no-go","0"
"pit-trial","180","1189951","0.0-66.0","battery-v0.2","","""event"",""trial"",""time""
""fullscreenenter"",""1"",""1689""
","
","
","""event"",""trial"",""time""
""fullscreenenter"",""1"",""1689""
","
","","","1088.3000000000466","","","21","9763","4389","b","elianto","#f73b6a7A"," "," ","1","0","[1943.6000000000931]","1","2","","","9763","62","3","3","lose","go","0"
"pit-trial","181","1194815","0.0-67.0","battery-v0.2","","""event"",""trial"",""time""
""fullscreenenter"",""1"",""1689""
","
","
","""event"",""trial"",""time""
""fullscreenenter"",""1"",""1689""
","
","","","-1","","","21","9763","4389","t","elianto","#f73b6a7A","-1","-1","1","0","[]","0","2","","","9763","63","2","4","lose","no-go","0"
"pit-trial","182","1198415","0.0-68.0","battery-v0.2","","""event"",""trial"",""time""
""fullscreenenter"",""1"",""1689""
","
","
","""event"",""trial"",""time""
""fullscreenenter"",""1"",""1689""
","
","","","740.1000000000931","","","21","9763","4389","f","elianto","#3366ff99"," "," ","1","0","[1592.7000000001863]","1","2","","","9763","64","1","1","win","go","1"
"pit-trial","183","1203277","0.0-69.0","battery-v0.2","","""event"",""trial"",""time""
""fullscreenenter"",""1"",""1689""
","
","
","""event"",""trial"",""time""
""fullscreenenter"",""1"",""1689""
","
","","","-1","","","21","9763","4389","c","elianto","#3366ff99","-1","-1","1","+10","[]","0","2","","","9763","65","4","2","win","no-go","0"
"pit-trial","184","1208138","0.0-70.0","battery-v0.2","","""event"",""trial"",""time""
""fullscreenenter"",""1"",""1689""
","
","
","""event"",""trial"",""time""
""fullscreenenter"",""1"",""1689""
","
","","","-1","","","21","9763","4389","t","elianto","#f73b6a7A","-1","-1","1","0","[]","0","2","","","9763","66","2","4","lose","no-go","0"
"pit-trial","185","1211602","0.0-71.0","battery-v0.2","","""event"",""trial"",""time""
""fullscreenenter"",""1"",""1689""
","
","
","""event"",""trial"",""time""
""fullscreenenter"",""1"",""1689""
","
","","","607.1999999999534","","","21","9763","4389","f","elianto","#3366ff99"," "," ","1","+10","[1459.8999999999069]","1","2","","","9763","67","1","1","win","go","0"
"pit-trial","186","1216266","0.0-72.0","battery-v0.2","","""event"",""trial"",""time""
""fullscreenenter"",""1"",""1689""
","
","
","""event"",""trial"",""time""
""fullscreenenter"",""1"",""1689""
","
","","","1807.6000000000931","","","21","9763","4389","b","elianto","#f73b6a7A"," "," ","1","0","[2659]","1","2","","","9763","68","3","3","lose","go","0"
"pit-trial","187","1219943","0.0-73.0","battery-v0.2","","""event"",""trial"",""time""
""fullscreenenter"",""1"",""1689""
","
","
","""event"",""trial"",""time""
""fullscreenenter"",""1"",""1689""
","
","","","816.8000000000466","","","21","9763","4389","f","elianto","#3366ff99"," "," ","1","+10","[1667.3999999999069]","1","2","","","9763","69","1","1","win","go","0"
"pit-trial","188","1224810","0.0-74.0","battery-v0.2","","""event"",""trial"",""time""
""fullscreenenter"",""1"",""1689""
","
","
","""event"",""trial"",""time""
""fullscreenenter"",""1"",""1689""
","
","","","-1","","","21","9763","4389","c","elianto","#3366ff99","-1","-1","1","+10","[]","0","2","","","9763","70","4","2","win","no-go","0"
"pit-trial","189","1228852","0.0-75.0","battery-v0.2","","""event"",""trial"",""time""
""fullscreenenter"",""1"",""1689""
","
","
","""event"",""trial"",""time""
""fullscreenenter"",""1"",""1689""
","
","","","1178.3000000000466","","","21","9763","4389","z","elianto","#3366ff99"," "," ","1","+10","[2031.1999999999534]","1","2","","","9763","71","5","1","win","go","0"
"pit-trial","190","1232626","0.0-76.0","battery-v0.2","","""event"",""trial"",""time""
""fullscreenenter"",""1"",""1689""
","
","
","""event"",""trial"",""time""
""fullscreenenter"",""1"",""1689""
","
","","","909.3000000000466","","","21","9763","4389","b","elianto","#f73b6a7A"," "," ","1","0","[1762.1999999999534]","1","2","","","9763","72","3","3","lose","go","0"
"pit-trial","191","1236231","0.0-77.0","battery-v0.2","","""event"",""trial"",""time""
""fullscreenenter"",""1"",""1689""
","
","
","""event"",""trial"",""time""
""fullscreenenter"",""1"",""1689""
","
","","","743.8999999999069","","","21","9763","4389","z","elianto","#3366ff99"," "," ","1","+10","[1595.2999999998137]","1","2","","","9763","73","5","1","win","go","0"
"pit-trial","192","1239597","0.0-78.0","battery-v0.2","","""event"",""trial"",""time""
""fullscreenenter"",""1"",""1689""
","
","
","""event"",""trial"",""time""
""fullscreenenter"",""1"",""1689""
","
","","","503.5","","","21","9763","4389","f","elianto","#3366ff99"," "," ","1","+10","[1356.6999999999534]","1","2","","","9763","74","1","1","win","go","0"
"pit-trial","193","1244463","0.0-79.0","battery-v0.2","","""event"",""trial"",""time""
""fullscreenenter"",""1"",""1689""
","
","
","""event"",""trial"",""time""
""fullscreenenter"",""1"",""1689""
","
","","","-1","","","21","9763","4389","c","elianto","#3366ff99","-1","-1","1","+10","[]","0","2","","","9763","75","4","2","win","no-go","0"
"pit-trial","194","1248325","0.0-80.0","battery-v0.2","","""event"",""trial"",""time""
""fullscreenenter"",""1"",""1689""
","
","
","""event"",""trial"",""time""
""fullscreenenter"",""1"",""1689""
","
","","","1000.8999999999069","","","21","9763","4389","b","elianto","#f73b6a7A"," "," ","1","0","[1851.5999999998603]","1","2","","","9763","76","3","3","lose","go","0"
"pit-trial","195","1252095","0.0-81.0","battery-v0.2","","""event"",""trial"",""time""
""fullscreenenter"",""1"",""1689""
","
","
","""event"",""trial"",""time""
""fullscreenenter"",""1"",""1689""
","
","","","906.6999999999534","","","21","9763","4389","c","elianto","#3366ff99","-1"," ","0","0","[1757]","1","2","","","9763","77","4","2","win","no-go","0"
"pit-trial","196","1256359","0.0-82.0","battery-v0.2","","""event"",""trial"",""time""
""fullscreenenter"",""1"",""1689""
","
","
","""event"",""trial"",""time""
""fullscreenenter"",""1"",""1689""
","
","","","1391.2999999998137","","","21","9763","4389","z","elianto","#3366ff99"," "," ","1","+10","[2250.899999999907]","1","2","","","9763","78","5","1","win","go","0"
"pit-trial","197","1260175","0.0-83.0","battery-v0.2","","""event"",""trial"",""time""
""fullscreenenter"",""1"",""1689""
","
","
","""event"",""trial"",""time""
""fullscreenenter"",""1"",""1689""
","
","","","947.1999999999534","","","21","9763","4389","b","elianto","#f73b6a7A"," "," ","1","0","[1806]","1","2","","","9763","79","3","3","lose","go","0"
"pit-trial","198","1265044","0.0-84.0","battery-v0.2","","""event"",""trial"",""time""
""fullscreenenter"",""1"",""1689""
","
","
","""event"",""trial"",""time""
""fullscreenenter"",""1"",""1689""
","
","","","-1","","","21","9763","4389","h","elianto","#f73b6a7A","-1","-1","1","-10","[]","0","2","","","9763","80","6","4","lose","no-go","1"
"pit-trial","199","1268910","0.0-85.0","battery-v0.2","","""event"",""trial"",""time""
""fullscreenenter"",""1"",""1689""
","
","
","""event"",""trial"",""time""
""fullscreenenter"",""1"",""1689""
","
","","","1001.9000000001397","","","21","9763","4389","h","elianto","#f73b6a7A","-1"," ","0","-10","[1855.2000000001863]","1","2","","","9763","81","6","4","lose","no-go","0"
"pit-trial","200","1273780","0.0-86.0","battery-v0.2","","""event"",""trial"",""time""
""fullscreenenter"",""1"",""1689""
","
","
","""event"",""trial"",""time""
""fullscreenenter"",""1"",""1689""
","
","","","-1","","","21","9763","4389","c","elianto","#3366ff99","-1","-1","1","0","[]","0","2","","","9763","82","4","2","win","no-go","1"
"pit-trial","201","1278132","0.0-87.0","battery-v0.2","","""event"",""trial"",""time""
""fullscreenenter"",""1"",""1689""
","
","
","""event"",""trial"",""time""
""fullscreenenter"",""1"",""1689""
","
","","","1486.8000000000466","","","21","9763","4389","y","elianto","#f73b6a7A"," "," ","1","0","[2341.600000000093]","1","2","","","9763","83","7","3","lose","go","0"
"pit-trial","202","1282759","0.0-88.0","battery-v0.2","","""event"",""trial"",""time""
""fullscreenenter"",""1"",""1689""
","
","
","""event"",""trial"",""time""
""fullscreenenter"",""1"",""1689""
","
","","","1765.1999999999534","","","21","9763","4389","z","elianto","#3366ff99"," "," ","1","+10","[2619.7999999998137]","1","2","","","9763","84","5","1","win","go","0"
"pit-trial","203","1287630","0.0-89.0","battery-v0.2","","""event"",""trial"",""time""
""fullscreenenter"",""1"",""1689""
","
","
","""event"",""trial"",""time""
""fullscreenenter"",""1"",""1689""
","
","","","-1","","","21","9763","4389","c","elianto","#3366ff99","-1","-1","1","0","[]","0","2","","","9763","85","4","2","win","no-go","1"
"pit-trial","204","1291930","0.0-90.0","battery-v0.2","","""event"",""trial"",""time""
""fullscreenenter"",""1"",""1689""
","
","
","""event"",""trial"",""time""
""fullscreenenter"",""1"",""1689""
","
","","","1444.8000000000466","","","21","9763","4389","y","elianto","#f73b6a7A"," "," ","1","0","[2295.899999999907]","1","2","","","9763","86","7","3","lose","go","0"
"pit-trial","205","1295775","0.0-91.0","battery-v0.2","","""event"",""trial"",""time""
""fullscreenenter"",""1"",""1689""
","
","
","""event"",""trial"",""time""
""fullscreenenter"",""1"",""1689""
","
","","","985.5","","","21","9763","4389","z","elianto","#3366ff99"," "," ","1","+10","[1835.9000000001397]","1","2","","","9763","87","5","1","win","go","0"
"pit-trial","206","1300643","0.0-92.0","battery-v0.2","","""event"",""trial"",""time""
""fullscreenenter"",""1"",""1689""
","
","
","""event"",""trial"",""time""
""fullscreenenter"",""1"",""1689""
","
","","","-1","","","21","9763","4389","h","elianto","#f73b6a7A","-1","-1","1","0","[]","0","2","","","9763","88","6","4","lose","no-go","0"
"pit-trial","207","1305507","0.0-93.0","battery-v0.2","","""event"",""trial"",""time""
""fullscreenenter"",""1"",""1689""
","
","
","""event"",""trial"",""time""
""fullscreenenter"",""1"",""1689""
","
","","","-1","","","21","9763","4389","c","elianto","#3366ff99","-1","-1","1","0","[]","0","2","","","9763","89","4","2","win","no-go","1"
"pit-trial","208","1309997","0.0-94.0","battery-v0.2","","""event"",""trial"",""time""
""fullscreenenter"",""1"",""1689""
","
","
","""event"",""trial"",""time""
""fullscreenenter"",""1"",""1689""
","
","","","1626.9000000001397","","","21","9763","4389","h","elianto","#f73b6a7A","-1"," ","0","0","[2480]","1","2","","","9763","90","6","4","lose","no-go","1"
"pit-trial","209","1313666","0.0-95.0","battery-v0.2","","""event"",""trial"",""time""
""fullscreenenter"",""1"",""1689""
","
","
","""event"",""trial"",""time""
""fullscreenenter"",""1"",""1689""
","
","","","808.3000000000466","","","21","9763","4389","z","elianto","#3366ff99"," "," ","1","+10","[1659.5]","1","2","","","9763","91","5","1","win","go","0"
"pit-trial","210","1318531","0.0-96.0","battery-v0.2","","""event"",""trial"",""time""
""fullscreenenter"",""1"",""1689""
","
","
","""event"",""trial"",""time""
""fullscreenenter"",""1"",""1689""
","
","","","-1","","","21","9763","4389","y","elianto","#f73b6a7A"," ","-1","0","-10","[]","0","2","","","9763","92","7","3","lose","go","0"
"pit-trial","211","1322378","0.0-97.0","battery-v0.2","","""event"",""trial"",""time""
""fullscreenenter"",""1"",""1689""
","
","
","""event"",""trial"",""time""
""fullscreenenter"",""1"",""1689""
","
","","","984.5","","","21","9763","4389","r","elianto","#3366ff99","-1"," ","0","0","[1837.6000000000931]","1","2","","","9763","93","8","2","win","no-go","0"
"pit-trial","212","1326381","0.0-98.0","battery-v0.2","","""event"",""trial"",""time""
""fullscreenenter"",""1"",""1689""
","
","
","""event"",""trial"",""time""
""fullscreenenter"",""1"",""1689""
","
","","","1136.5","","","21","9763","4389","h","elianto","#f73b6a7A","-1"," ","0","0","[1990.1000000000931]","1","2","","","9763","94","6","4","lose","no-go","1"
"pit-trial","213","1330061","0.0-99.0","battery-v0.2","","""event"",""trial"",""time""
""fullscreenenter"",""1"",""1689""
","
","
","""event"",""trial"",""time""
""fullscreenenter"",""1"",""1689""
","
","","","818.3000000000466","","","21","9763","4389","z","elianto","#3366ff99"," "," ","1","0","[1673]","1","2","","","9763","95","5","1","win","go","1"
"pit-trial","214","1333986","0.0-100.0","battery-v0.2","","""event"",""trial"",""time""
""fullscreenenter"",""1"",""1689""
","
","
","""event"",""trial"",""time""
""fullscreenenter"",""1"",""1689""
","
","","","1066.3999999999069","","","21","9763","4389","y","elianto","#f73b6a7A"," "," ","1","-10","[1919]","1","2","","","9763","96","7","3","lose","go","1"
"pit-trial","215","1337821","0.0-101.0","battery-v0.2","","""event"",""trial"",""time""
""fullscreenenter"",""1"",""1689""
","
","
","""event"",""trial"",""time""
""fullscreenenter"",""1"",""1689""
","
","","","976.0999999998603","","","21","9763","4389","h","elianto","#f73b6a7A","-1"," ","0","0","[1826.6000000000931]","1","2","","","9763","97","6","4","lose","no-go","1"
"pit-trial","216","1341645","0.0-102.0","battery-v0.2","","""event"",""trial"",""time""
""fullscreenenter"",""1"",""1689""
","
","
","""event"",""trial"",""time""
""fullscreenenter"",""1"",""1689""
","
","","","955.5999999998603","","","21","9763","4389","r","elianto","#3366ff99","-1"," ","0","0","[1812.5]","1","2","","","9763","98","8","2","win","no-go","0"
"pit-trial","217","1346515","0.0-103.0","battery-v0.2","","""event"",""trial"",""time""
""fullscreenenter"",""1"",""1689""
","
","
","""event"",""trial"",""time""
""fullscreenenter"",""1"",""1689""
","
","","","-1","","","21","9763","4389","y","elianto","#f73b6a7A"," ","-1","0","-10","[3261.9000000001397]","1","2","","","9763","99","7","3","lose","go","0"
"pit-trial","218","1350189","0.0-104.0","battery-v0.2","","""event"",""trial"",""time""
""fullscreenenter"",""1"",""1689""
","
","
","""event"",""trial"",""time""
""fullscreenenter"",""1"",""1689""
","
","","","812.6000000000931","","","21","9763","4389","z","elianto","#3366ff99"," "," ","1","+10","[1663.1000000000931]","1","2","","","9763","100","5","1","win","go","0"
"pit-trial","219","1353746","0.0-105.0","battery-v0.2","","""event"",""trial"",""time""
""fullscreenenter"",""1"",""1689""
","
","
","""event"",""trial"",""time""
""fullscreenenter"",""1"",""1689""
","
","","","696.1999999999534","","","21","9763","4389","z","elianto","#3366ff99"," "," ","1","+10","[1549.6999999999534]","1","2","","","9763","101","5","1","win","go","0"
"pit-trial","220","1357854","0.0-106.0","battery-v0.2","","""event"",""trial"",""time""
""fullscreenenter"",""1"",""1689""
","
","
","""event"",""trial"",""time""
""fullscreenenter"",""1"",""1689""
","
","","","1240.9000000001397","","","21","9763","4389","m","elianto","#3366ff99","-1"," ","0","0","[2094.2000000001863]","1","2","","","9763","102","9","2","win","no-go","0"
"pit-trial","221","1362723","0.0-107.0","battery-v0.2","","""event"",""trial"",""time""
""fullscreenenter"",""1"",""1689""
","
","
","""event"",""trial"",""time""
""fullscreenenter"",""1"",""1689""
","
","","","-1","","","21","9763","4389","r","elianto","#3366ff99","-1","-1","1","+10","[]","0","2","","","9763","103","8","2","win","no-go","0"
"pit-trial","222","1367586","0.0-108.0","battery-v0.2","","""event"",""trial"",""time""
""fullscreenenter"",""1"",""1689""
","
","
","""event"",""trial"",""time""
""fullscreenenter"",""1"",""1689""
","
","","","-1","","","21","9763","4389","h","elianto","#f73b6a7A","-1","-1","1","0","[]","0","2","","","9763","104","6","4","lose","no-go","0"
"pit-trial","223","1372450","0.0-109.0","battery-v0.2","","""event"",""trial"",""time""
""fullscreenenter"",""1"",""1689""
","
","
","""event"",""trial"",""time""
""fullscreenenter"",""1"",""1689""
","
","","","-1","","","21","9763","4389","h","elianto","#f73b6a7A","-1","-1","1","0","[]","0","2","","","9763","105","6","4","lose","no-go","0"
"pit-trial","224","1377314","0.0-110.0","battery-v0.2","","""event"",""trial"",""time""
""fullscreenenter"",""1"",""1689""
","
","
","""event"",""trial"",""time""
""fullscreenenter"",""1"",""1689""
","
","","","-1","","","21","9763","4389","r","elianto","#3366ff99","-1","-1","1","+10","[]","0","2","","","9763","106","8","2","win","no-go","0"
"pit-trial","225","1381323","0.0-111.0","battery-v0.2","","""event"",""trial"",""time""
""fullscreenenter"",""1"",""1689""
","
","
","""event"",""trial"",""time""
""fullscreenenter"",""1"",""1689""
","
","","","1147.5","","","21","9763","4389","z","elianto","#3366ff99"," "," ","1","0","[1999.8000000000466]","1","2","","","9763","107","5","1","win","go","1"
"pit-trial","226","1385986","0.0-112.0","battery-v0.2","","""event"",""trial"",""time""
""fullscreenenter"",""1"",""1689""
","
","
","""event"",""trial"",""time""
""fullscreenenter"",""1"",""1689""
","
","","","1805","","","21","9763","4389","m","elianto","#3366ff99","-1"," ","0","0","[2657.4000000001397]","1","2","","","9763","108","9","2","win","no-go","0"
"pit-trial","227","1389701","0.0-113.0","battery-v0.2","","""event"",""trial"",""time""
""fullscreenenter"",""1"",""1689""
","
","
","""event"",""trial"",""time""
""fullscreenenter"",""1"",""1689""
","
","","","854.3999999999069","","","21","9763","4389","z","elianto","#3366ff99"," "," ","1","0","[1704.6999999999534]","1","2","","","9763","109","5","1","win","go","1"
"pit-trial","228","1394573","0.0-114.0","battery-v0.2","","""event"",""trial"",""time""
""fullscreenenter"",""1"",""1689""
","
","
","""event"",""trial"",""time""
""fullscreenenter"",""1"",""1689""
","
","","","-1","","","21","9763","4389","h","elianto","#f73b6a7A","-1","-1","1","0","[]","0","2","","","9763","110","6","4","lose","no-go","0"
"pit-trial","229","1399441","0.0-115.0","battery-v0.2","","""event"",""trial"",""time""
""fullscreenenter"",""1"",""1689""
","
","
","""event"",""trial"",""time""
""fullscreenenter"",""1"",""1689""
","
","","","-1","","","21","9763","4389","m","elianto","#3366ff99","-1","-1","1","+10","[]","0","2","","","9763","111","9","2","win","no-go","0"
"pit-trial","230","1404306","0.0-116.0","battery-v0.2","","""event"",""trial"",""time""
""fullscreenenter"",""1"",""1689""
","
","
","""event"",""trial"",""time""
""fullscreenenter"",""1"",""1689""
","
","","","-1","","","21","9763","4389","r","elianto","#3366ff99","-1","-1","1","+10","[]","0","2","","","9763","112","8","2","win","no-go","0"
"pit-trial","231","1409169","0.0-117.0","battery-v0.2","","""event"",""trial"",""time""
""fullscreenenter"",""1"",""1689""
","
","
","""event"",""trial"",""time""
""fullscreenenter"",""1"",""1689""
","
","","","-1","","","21","9763","4389","m","elianto","#3366ff99","-1","-1","1","+10","[]","0","2","","","9763","113","9","2","win","no-go","0"
"pit-trial","232","1413649","0.0-118.0","battery-v0.2","","""event"",""trial"",""time""
""fullscreenenter"",""1"",""1689""
","
","
","""event"",""trial"",""time""
""fullscreenenter"",""1"",""1689""
","
","","","1620.6000000000931","","","21","9763","4389","y","elianto","#f73b6a7A"," "," ","1","0","[2474.8000000000466]","1","2","","","9763","114","7","3","lose","go","0"
"pit-trial","233","1417859","0.0-119.0","battery-v0.2","","""event"",""trial"",""time""
""fullscreenenter"",""1"",""1689""
","
","
","""event"",""trial"",""time""
""fullscreenenter"",""1"",""1689""
","
","","","1349","","","21","9763","4389","z","elianto","#3366ff99"," "," ","1","0","[2203.6999999999534]","1","2","","","9763","115","5","1","win","go","1"
"pit-trial","234","1422721","0.0-120.0","battery-v0.2","","""event"",""trial"",""time""
""fullscreenenter"",""1"",""1689""
","
","
","""event"",""trial"",""time""
""fullscreenenter"",""1"",""1689""
","
","","","-1","","","21","9763","4389","r","elianto","#3366ff99","-1","-1","1","+10","[]","0","2","","","9763","116","8","2","win","no-go","0"
"pit-trial","235","1427586","0.0-121.0","battery-v0.2","","""event"",""trial"",""time""
""fullscreenenter"",""1"",""1689""
","
","
","""event"",""trial"",""time""
""fullscreenenter"",""1"",""1689""
","
","","","-1","","","21","9763","4389","r","elianto","#3366ff99","-1","-1","1","+10","[]","0","2","","","9763","117","8","2","win","no-go","0"
"pit-trial","236","1432450","0.0-122.0","battery-v0.2","","""event"",""trial"",""time""
""fullscreenenter"",""1"",""1689""
","
","
","""event"",""trial"",""time""
""fullscreenenter"",""1"",""1689""
","
","","","-1","","","21","9763","4389","m","elianto","#3366ff99","-1","-1","1","+10","[]","0","2","","","9763","118","9","2","win","no-go","0"
"pit-trial","237","1437314","0.0-123.0","battery-v0.2","","""event"",""trial"",""time""
""fullscreenenter"",""1"",""1689""
","
","
","""event"",""trial"",""time""
""fullscreenenter"",""1"",""1689""
","
","","","-1","","","21","9763","4389","h","elianto","#f73b6a7A","-1","-1","1","0","[]","0","2","","","9763","119","6","4","lose","no-go","0"
"pit-trial","238","1442178","0.0-124.0","battery-v0.2","","""event"",""trial"",""time""
""fullscreenenter"",""1"",""1689""
","
","
","""event"",""trial"",""time""
""fullscreenenter"",""1"",""1689""
","
","","","-1","","","21","9763","4389","z","elianto","#3366ff99"," ","-1","0","0","[]","0","2","","","9763","120","5","1","win","go","0"
"pit-trial","239","1447045","0.0-125.0","battery-v0.2","","""event"",""trial"",""time""
""fullscreenenter"",""1"",""1689""
","
","
","""event"",""trial"",""time""
""fullscreenenter"",""1"",""1689""
","
","","","-1","","","21","9763","4389","z","elianto","#3366ff99"," ","-1","0","0","[]","0","2","","","9763","121","5","1","win","go","0"
"pit-trial","240","1451120","0.0-126.0","battery-v0.2","","""event"",""trial"",""time""
""fullscreenenter"",""1"",""1689""
","
","
","""event"",""trial"",""time""
""fullscreenenter"",""1"",""1689""
","
","","","1218.1999999999534","","","21","9763","4389","y","elianto","#f73b6a7A"," "," ","1","-10","[2069.1999999999534]","1","2","","","9763","122","7","3","lose","go","1"
"pit-trial","241","1455985","0.0-127.0","battery-v0.2","","""event"",""trial"",""time""
""fullscreenenter"",""1"",""1689""
","
","
","""event"",""trial"",""time""
""fullscreenenter"",""1"",""1689""
","
","","","-1","","","21","9763","4389","m","elianto","#3366ff99","-1","-1","1","+10","[]","0","2","","","9763","123","9","2","win","no-go","0"
"pit-trial","242","1460852","0.0-128.0","battery-v0.2","","""event"",""trial"",""time""
""fullscreenenter"",""1"",""1689""
","
","
","""event"",""trial"",""time""
""fullscreenenter"",""1"",""1689""
","
","","","-1","","","21","9763","4389","r","elianto","#3366ff99","-1","-1","1","+10","[]","0","2","","","9763","124","8","2","win","no-go","0"
"pit-trial","243","1465724","0.0-129.0","battery-v0.2","","""event"",""trial"",""time""
""fullscreenenter"",""1"",""1689""
","
","
","""event"",""trial"",""time""
""fullscreenenter"",""1"",""1689""
","
","","","-1","","","21","9763","4389","y","elianto","#f73b6a7A"," ","-1","0","-10","[]","0","2","","","9763","125","7","3","lose","go","0"
"pit-trial","244","1470595","0.0-130.0","battery-v0.2","","""event"",""trial"",""time""
""fullscreenenter"",""1"",""1689""
","
","
","""event"",""trial"",""time""
""fullscreenenter"",""1"",""1689""
","
","","","-1","","","21","9763","4389","r","elianto","#3366ff99","-1","-1","1","+10","[]","0","2","","","9763","126","8","2","win","no-go","0"
"pit-trial","245","1475460","0.0-131.0","battery-v0.2","","""event"",""trial"",""time""
""fullscreenenter"",""1"",""1689""
","
","
","""event"",""trial"",""time""
""fullscreenenter"",""1"",""1689""
","
","","","-1","","","21","9763","4389","m","elianto","#3366ff99","-1","-1","1","+10","[]","0","2","","","9763","127","9","2","win","no-go","0"
"pit-trial","246","1480332","0.0-132.0","battery-v0.2","","""event"",""trial"",""time""
""fullscreenenter"",""1"",""1689""
","
","
","""event"",""trial"",""time""
""fullscreenenter"",""1"",""1689""
","
","","","-1","","","21","9763","4389","h","elianto","#f73b6a7A","-1","-1","1","0","[]","0","2","","","9763","128","6","4","lose","no-go","0"
"pit-trial","247","1484977","0.0-133.0","battery-v0.2","","""event"",""trial"",""time""
""fullscreenenter"",""1"",""1689""
","
","
","""event"",""trial"",""time""
""fullscreenenter"",""1"",""1689""
","
","","","1775","","","21","9763","4389","y","elianto","#f73b6a7A"," "," ","1","0","[2635.8000000000466]","1","2","","","9763","129","7","3","lose","go","0"
"pit-trial","248","1489841","0.0-134.0","battery-v0.2","","""event"",""trial"",""time""
""fullscreenenter"",""1"",""1689""
","
","
","""event"",""trial"",""time""
""fullscreenenter"",""1"",""1689""
","
","","","-1","","","21","9763","4389","h","elianto","#f73b6a7A","-1","-1","1","-10","[]","0","2","","","9763","130","6","4","lose","no-go","1"
"pit-trial","249","1494705","0.0-135.0","battery-v0.2","","""event"",""trial"",""time""
""fullscreenenter"",""1"",""1689""
","
","
","""event"",""trial"",""time""
""fullscreenenter"",""1"",""1689""
","
","","","-1","","","21","9763","4389","m","elianto","#3366ff99","-1","-1","1","+10","[]","0","2","","","9763","131","9","2","win","no-go","0"
"pit-trial","250","1499569","0.0-136.0","battery-v0.2","","""event"",""trial"",""time""
""fullscreenenter"",""1"",""1689""
","
","
","""event"",""trial"",""time""
""fullscreenenter"",""1"",""1689""
","
","","","-1","","","21","9763","4389","r","elianto","#3366ff99","-1","-1","1","+10","[]","0","2","","","9763","132","8","2","win","no-go","0"
"pit-trial","251","1504433","0.0-137.0","battery-v0.2","","""event"",""trial"",""time""
""fullscreenenter"",""1"",""1689""
","
","
","""event"",""trial"",""time""
""fullscreenenter"",""1"",""1689""
","
","","","-1","","","21","9763","4389","r","elianto","#3366ff99","-1","-1","1","+10","[]","0","2","","","9763","133","8","2","win","no-go","0"
"pit-trial","252","1509297","0.0-138.0","battery-v0.2","","""event"",""trial"",""time""
""fullscreenenter"",""1"",""1689""
","
","
","""event"",""trial"",""time""
""fullscreenenter"",""1"",""1689""
","
","","","-1","","","21","9763","4389","h","elianto","#f73b6a7A","-1","-1","1","0","[]","0","2","","","9763","134","6","4","lose","no-go","0"
"pit-trial","253","1514160","0.0-139.0","battery-v0.2","","""event"",""trial"",""time""
""fullscreenenter"",""1"",""1689""
","
","
","""event"",""trial"",""time""
""fullscreenenter"",""1"",""1689""
","
","","","-1","","","21","9763","4389","y","elianto","#f73b6a7A"," ","-1","0","-10","[]","0","2","","","9763","135","7","3","lose","go","0"
"pit-trial","254","1519024","0.0-140.0","battery-v0.2","","""event"",""trial"",""time""
""fullscreenenter"",""1"",""1689""
","
","
","""event"",""trial"",""time""
""fullscreenenter"",""1"",""1689""
","
","","","-1","","","21","9763","4389","m","elianto","#3366ff99","-1","-1","1","+10","[]","0","2","","","9763","136","9","2","win","no-go","0"
"pit-trial","255","1523889","0.0-141.0","battery-v0.2","","""event"",""trial"",""time""
""fullscreenenter"",""1"",""1689""
","
","
","""event"",""trial"",""time""
""fullscreenenter"",""1"",""1689""
","
","","","-1","","","21","9763","4389","m","elianto","#3366ff99","-1","-1","1","+10","[]","0","2","","","9763","137","9","2","win","no-go","0"
"pit-trial","256","1528752","0.0-142.0","battery-v0.2","","""event"",""trial"",""time""
""fullscreenenter"",""1"",""1689""
","
","
","""event"",""trial"",""time""
""fullscreenenter"",""1"",""1689""
","
","","","-1","","","21","9763","4389","h","elianto","#f73b6a7A","-1","-1","1","0","[]","0","2","","","9763","138","6","4","lose","no-go","0"
"pit-trial","257","1533620","0.0-143.0","battery-v0.2","","""event"",""trial"",""time""
""fullscreenenter"",""1"",""1689""
","
","
","""event"",""trial"",""time""
""fullscreenenter"",""1"",""1689""
","
","","","-1","","","21","9763","4389","r","elianto","#3366ff99","-1","-1","1","+10","[]","0","2","","","9763","139","8","2","win","no-go","0"
"pit-trial","258","1537594","0.0-144.0","battery-v0.2","","""event"",""trial"",""time""
""fullscreenenter"",""1"",""1689""
","
","
","""event"",""trial"",""time""
""fullscreenenter"",""1"",""1689""
","
","","","1114","","","21","9763","4389","y","elianto","#f73b6a7A"," "," ","1","0","[1967.3000000000466]","1","2","","","9763","140","7","3","lose","go","0"
"pit-instructions","259","1608105","0.0-145.0","battery-v0.2","","""event"",""trial"",""time""
""fullscreenenter"",""1"",""1689""
","
","
","""event"",""trial"",""time""
""fullscreenenter"",""1"",""1689""
","
","","[{""page_index"":0,""viewing_time"":16516.90000000014},{""page_index"":1,""viewing_time"":53992.39999999991}]","70509.70000000019","","","","","","","","","","","","","","","","","","","","","","","",""
"pit-trial","260","1612286","0.0-146.0","battery-v0.2","","""event"",""trial"",""time""
""fullscreenenter"",""1"",""1689""
","
","
","""event"",""trial"",""time""
""fullscreenenter"",""1"",""1689""
","
","","","1311.1999999999534","","","21","9763","4389","w","elianto","#f73b6a7A","-1"," ","0","0","[2169.9000000001397]","1","3","","","9763","141","3","4","lose","no-go","1"
"pit-trial","261","1616346","0.0-147.0","battery-v0.2","","""event"",""trial"",""time""
""fullscreenenter"",""1"",""1689""
","
","
","""event"",""trial"",""time""
""fullscreenenter"",""1"",""1689""
","
","","","1197.8000000000466","","","21","9763","4389","d","elianto","#3366ff99","-1"," ","0","+10","[2053.100000000093]","1","3","","","9763","142","1","2","win","no-go","1"
"pit-trial","262","1621215","0.0-148.0","battery-v0.2","","""event"",""trial"",""time""
""fullscreenenter"",""1"",""1689""
","
","
","""event"",""trial"",""time""
""fullscreenenter"",""1"",""1689""
","
","","","-1","","","21","9763","4389","j","elianto","#f73b6a7A"," ","-1","0","-10","[]","0","3","","","9763","143","0","3","lose","go","0"
"pit-trial","263","1626083","0.0-149.0","battery-v0.2","","""event"",""trial"",""time""
""fullscreenenter"",""1"",""1689""
","
","
","""event"",""trial"",""time""
""fullscreenenter"",""1"",""1689""
","
","","","-1","","","21","9763","4389","e","elianto","#f73b6a7A"," ","-1","0","-10","[2968]","1","3","","","9763","144","2","3","lose","go","0"
"pit-trial","264","1630187","0.0-150.0","battery-v0.2","","""event"",""trial"",""time""
""fullscreenenter"",""1"",""1689""
","
","
","""event"",""trial"",""time""
""fullscreenenter"",""1"",""1689""
","
","","","1242.6999999999534","","","21","9763","4389","w","elianto","#f73b6a7A","-1"," ","0","-10","[2095.600000000093]","1","3","","","9763","145","3","4","lose","no-go","0"
"pit-trial","265","1634065","0.0-151.0","battery-v0.2","","""event"",""trial"",""time""
""fullscreenenter"",""1"",""1689""
","
","
","""event"",""trial"",""time""
""fullscreenenter"",""1"",""1689""
","
","","","1009.4000000001397","","","21","9763","4389","d","elianto","#3366ff99","-1"," ","0","+10","[1866.2000000001863]","1","3","","","9763","146","1","2","win","no-go","1"
"pit-trial","266","1638216","0.0-152.0","battery-v0.2","","""event"",""trial"",""time""
""fullscreenenter"",""1"",""1689""
","
","
","""event"",""trial"",""time""
""fullscreenenter"",""1"",""1689""
","
","","","1288.5","","","21","9763","4389","j","elianto","#f73b6a7A"," "," ","1","0","[2140.399999999907]","1","3","","","9763","147","0","3","lose","go","0"
"pit-trial","267","1641928","0.0-153.0","battery-v0.2","","""event"",""trial"",""time""
""fullscreenenter"",""1"",""1689""
","
","
","""event"",""trial"",""time""
""fullscreenenter"",""1"",""1689""
","
","","","848.7999999998137","","","21","9763","4389","e","elianto","#f73b6a7A"," "," ","1","0","[1700.9000000001397]","1","3","","","9763","148","2","3","lose","go","0"
"pit-trial","268","1645624","0.0-154.0","battery-v0.2","","""event"",""trial"",""time""
""fullscreenenter"",""1"",""1689""
","
","
","""event"",""trial"",""time""
""fullscreenenter"",""1"",""1689""
