"trial_type","trial_index","time_elapsed","internal_node_id","task_version","subject_id","interactions","blur_events","focus_events","fullscreenenter_events","fullscreenexit_events","success","view_history","rt","responses","num_errors","age","subject","participantId","rune","rune_set","hex","correct","choice","accuracy","outcome","keys","total_keys","block","practice","value","sub","trial","stimulus","robot","valence","action","sham"
"pavlovia","0","17","0.0-0.0","battery-v0.2","","""event"",""trial"",""time""
""fullscreenenter"",""1"",""6933""
","
","
","""event"",""trial"",""time""
""fullscreenenter"",""1"",""6933""
","
","","","","","","","","","","","","","","","","","","","","","","","","","","",""
"fullscreen","1","7916","0.0-1.0","battery-v0.2","","""event"",""trial"",""time""
""fullscreenenter"",""1"",""6933""
","
","
","""event"",""trial"",""time""
""fullscreenenter"",""1"",""6933""
","
","true","","","","","","","","","","","","","","","","","","","","","","","","","",""
"pit-instructions","2","15023","0.0-2.0-0.0","battery-v0.2","","""event"",""trial"",""time""
""fullscreenenter"",""1"",""6933""
","
","
","""event"",""trial"",""time""
""fullscreenenter"",""1"",""6933""
","
","","[{""page_index"":0,""viewing_time"":7095.5}]","7096.599999964237","","","","","","","","","","","","","","","","","","","","","","","",""
"pit-comprehension","3","19898","0.0-2.0-1.0-0.0","battery-v0.2","","""event"",""trial"",""time""
""fullscreenenter"",""1"",""6933""
","
","
","""event"",""trial"",""time""
""fullscreenenter"",""1"",""6933""
","
","","","4864.400000035763","[""shark""]","0","14","10986","1189","","","","","","","","","","","","","","","","","","",""
"pit-instructions","4","22303","0.0-2.0-1.0-1.0","battery-v0.2","","""event"",""trial"",""time""
""fullscreenenter"",""1"",""6933""
","
","
","""event"",""trial"",""time""
""fullscreenenter"",""1"",""6933""
","
","","[{""page_index"":0,""viewing_time"":2393.399999976158}]","2393.899999976158","","","","","","","","","","","","","","","","","","","","","","","",""
"pit-comprehension","5","33157","0.0-2.0-2.0-0.0","battery-v0.2","","""event"",""trial"",""time""
""fullscreenenter"",""1"",""6933""
","
","
","""event"",""trial"",""time""
""fullscreenenter"",""1"",""6933""
","
","","","10849.699999988079","[""tiger""]","0","14","10986","1189","","","","","","","","","","","","","","","","","","",""
"pit-instructions","6","34270","0.0-2.0-2.0-1.0","battery-v0.2","","""event"",""trial"",""time""
""fullscreenenter"",""1"",""6933""
","
","
","""event"",""trial"",""time""
""fullscreenenter"",""1"",""6933""
","
","","[{""page_index"":0,""viewing_time"":1109.7000000476837}]","1110.6000000238419","","","","","","","","","","","","","","","","","","","","","","","",""
"pit-instructions","7","142384","0.0-2.0-3.0","battery-v0.2","","""event"",""trial"",""time""
""fullscreenenter"",""1"",""6933""
","
","
","""event"",""trial"",""time""
""fullscreenenter"",""1"",""6933""
","
","","[{""page_index"":0,""viewing_time"":10115.699999988079},{""page_index"":1,""viewing_time"":7131.800000011921},{""page_index"":2,""viewing_time"":7634.199999988079},{""page_index"":3,""viewing_time"":6571.5},{""page_index"":4,""viewing_time"":7162.5},{""page_index"":5,""viewing_time"":6710.300000011921},{""page_index"":6,""viewing_time"":8727},{""page_index"":7,""viewing_time"":8419.699999988079},{""page_index"":8,""viewing_time"":6433.800000011921},{""page_index"":9,""viewing_time"":11359.399999976158},{""page_index"":10,""viewing_time"":7360.800000011921},{""page_index"":11,""viewing_time"":7810.599999964237},{""page_index"":12,""viewing_time"":6620.200000047684},{""page_index"":13,""viewing_time"":6048.099999964237}]","108106.59999996424","","","","","","","","","","","","","","","","","","","","","","","",""
"pit-trial","8","145967","0.0-2.0-4.0-0.0","battery-v0.2","","""event"",""trial"",""time""
""fullscreenenter"",""1"",""6933""
","
","
","""event"",""trial"",""time""
""fullscreenenter"",""1"",""6933""
","
","","","723","","","14","10986","1189","&#9784;","elianto","#FFFFF080"," "," ","1","&#10004","[1573.300000011921]","1","0","0","","","","","","","",""
"pit-trial","9","149471","0.0-2.0-4.1-0.1","battery-v0.2","","""event"",""trial"",""time""
""fullscreenenter"",""1"",""6933""
","
","
","""event"",""trial"",""time""
""fullscreenenter"",""1"",""6933""
","
","","","647.6000000238419","","","14","10986","1189","&#9784;","elianto","#FFFFF080"," "," ","1","&#10004","[1497.8999999761581]","1","0","0","","","","","","","",""
"pit-trial","10","152861","0.0-2.0-4.2-0.2","battery-v0.2","","""event"",""trial"",""time""
""fullscreenenter"",""1"",""6933""
","
","
","""event"",""trial"",""time""
""fullscreenenter"",""1"",""6933""
","
","","","531.1999999880791","","","14","10986","1189","&#9784;","elianto","#FFFFF080"," "," ","1","&#10004","[1384.6000000238419]","1","0","0","","","","","","","",""
"pit-trial","11","156241","0.0-2.0-4.3-0.3","battery-v0.2","","""event"",""trial"",""time""
""fullscreenenter"",""1"",""6933""
","
","
","""event"",""trial"",""time""
""fullscreenenter"",""1"",""6933""
","
","","","523.5","","","14","10986","1189","&#9784;","elianto","#FFFFF080"," "," ","1","&#10004","[1373.7999999523163]","1","0","0","","","","","","","",""
"pit-trial","12","159556","0.0-2.0-4.4-0.4","battery-v0.2","","""event"",""trial"",""time""
""fullscreenenter"",""1"",""6933""
","
","
","""event"",""trial"",""time""
""fullscreenenter"",""1"",""6933""
","
","","","458.10000002384186","","","14","10986","1189","&#9784;","elianto","#FFFFF080"," "," ","1","&#10004","[1308.199999988079]","1","0","0","","","","","","","",""
"pit-instructions","13","183367","0.0-2.0-5.0","battery-v0.2","","""event"",""trial"",""time""
""fullscreenenter"",""1"",""6933""
","
","
","""event"",""trial"",""time""
""fullscreenenter"",""1"",""6933""
","
","","[{""page_index"":0,""viewing_time"":5330.699999988079},{""page_index"":1,""viewing_time"":6699},{""page_index"":2,""viewing_time"":5478.099999964237},{""page_index"":3,""viewing_time"":6295}]","23803.599999964237","","","","","","","","","","","","","","","","","","","","","","","",""
"pit-trial","14","188223","0.0-2.0-6.0-0.0","battery-v0.2","","""event"",""trial"",""time""
""fullscreenenter"",""1"",""6933""
","
","
","""event"",""trial"",""time""
""fullscreenenter"",""1"",""6933""
","
","","","-1","","","14","10986","1189","&#9854;","elianto","#FFFFF080","-1","-1","1","&#10004","[]","0","0","1","","","","","","","",""
"pit-trial","15","193080","0.0-2.0-6.1-0.1","battery-v0.2","","""event"",""trial"",""time""
""fullscreenenter"",""1"",""6933""
","
","
","""event"",""trial"",""time""
""fullscreenenter"",""1"",""6933""
","
","","","-1","","","14","10986","1189","&#9854;","elianto","#FFFFF080","-1","-1","1","&#10004","[]","0","0","1","","","","","","","",""
"pit-trial","16","197936","0.0-2.0-6.2-0.2","battery-v0.2","","""event"",""trial"",""time""
""fullscreenenter"",""1"",""6933""
","
","
","""event"",""trial"",""time""
""fullscreenenter"",""1"",""6933""
","
","","","-1","","","14","10986","1189","&#9854;","elianto","#FFFFF080","-1","-1","1","&#10004","[]","0","0","1","","","","","","","",""
"pit-trial","17","202791","0.0-2.0-6.3-0.3","battery-v0.2","","""event"",""trial"",""time""
""fullscreenenter"",""1"",""6933""
","
","
","""event"",""trial"",""time""
""fullscreenenter"",""1"",""6933""
","
","","","-1","","","14","10986","1189","&#9854;","elianto","#FFFFF080","-1","-1","1","&#10004","[]","0","0","1","","","","","","","",""
"pit-trial","18","207649","0.0-2.0-6.4-0.4","battery-v0.2","","""event"",""trial"",""time""
""fullscreenenter"",""1"",""6933""
","
","
","""event"",""trial"",""time""
""fullscreenenter"",""1"",""6933""
","
","","","-1","","","14","10986","1189","&#9854;","elianto","#FFFFF080","-1","-1","1","&#10004","[]","0","0","1","","","","","","","",""
"pit-instructions","19","369146","0.0-2.0-7.0","battery-v0.2","","""event"",""trial"",""time""
""fullscreenenter"",""1"",""6933""
","
","
","""event"",""trial"",""time""
""fullscreenenter"",""1"",""6933""
","
","","[{""page_index"":0,""viewing_time"":8325.699999988079},{""page_index"":1,""viewing_time"":8959.699999988079},{""page_index"":2,""viewing_time"":7553.300000011921},{""page_index"":3,""viewing_time"":8125.300000011921},{""page_index"":4,""viewing_time"":7101.899999976158},{""page_index"":5,""viewing_time"":6935.800000011921},{""page_index"":6,""viewing_time"":9557.899999976158},{""page_index"":7,""viewing_time"":9452.900000035763},{""page_index"":8,""viewing_time"":8793.699999988079},{""page_index"":9,""viewing_time"":7293.399999976158},{""page_index"":10,""viewing_time"":7588.699999988079},{""page_index"":11,""viewing_time"":6212.300000011921},{""page_index"":12,""viewing_time"":8288.900000035763},{""page_index"":13,""viewing_time"":8607.799999952316},{""page_index"":14,""viewing_time"":10567.400000035763},{""page_index"":13,""viewing_time"":6383},{""page_index"":14,""viewing_time"":6893.5},{""page_index"":15,""viewing_time"":8116.599999964237},{""page_index"":16,""viewing_time"":8587.400000035763},{""page_index"":17,""viewing_time"":8143.899999976158}]","161490.29999995232","","","","","","","","","","","","","","","","","","","","","","","",""
"pit-trial","20","372621","0.0-2.0-8.0-0.0","battery-v0.2","","""event"",""trial"",""time""
""fullscreenenter"",""1"",""6933""
","
","
","""event"",""trial"",""time""
""fullscreenenter"",""1"",""6933""
","
","","","619.3999999761581","","","14","10986","1189","&#9776;","elianto","#3366ff99"," "," ","1","+10","[1469.5999999642372]","1","0","1","","","","","","","",""
"pit-trial","21","376125","0.0-2.0-8.0-1.0","battery-v0.2","","""event"",""trial"",""time""
""fullscreenenter"",""1"",""6933""
","
","
","""event"",""trial"",""time""
""fullscreenenter"",""1"",""6933""
","
","","","649","","","14","10986","1189","&#9776;","elianto","#3366ff99"," "," ","1","+10","[1499.6000000238419]","1","0","1","","","","","","","",""
"pit-trial","22","379504","0.0-2.0-8.0-2.0","battery-v0.2","","""event"",""trial"",""time""
""fullscreenenter"",""1"",""6933""
","
","
","""event"",""trial"",""time""
""fullscreenenter"",""1"",""6933""
","
","","","520.6999999880791","","","14","10986","1189","&#9776;","elianto","#3366ff99"," "," ","1","+10","[1374.5]","1","0","1","","","","","","","",""
"pit-trial","23","382870","0.0-2.0-8.0-3.0","battery-v0.2","","""event"",""trial"",""time""
""fullscreenenter"",""1"",""6933""
","
","
","""event"",""trial"",""time""
""fullscreenenter"",""1"",""6933""
","
","","","511.9000000357628","","","14","10986","1189","&#9776;","elianto","#3366ff99"," "," ","1","0","[1362.300000011921]","1","0","1","","","","","","","",""
"pit-trial","24","386253","0.0-2.0-8.0-4.0","battery-v0.2","","""event"",""trial"",""time""
""fullscreenenter"",""1"",""6933""
","
","
","""event"",""trial"",""time""
""fullscreenenter"",""1"",""6933""
","
","","","528.3999999761581","","","14","10986","1189","&#9776;","elianto","#3366ff99"," "," ","1","+10","[1378.5]","1","0","1","","","","","","","",""
"pit-trial","25","389599","0.0-2.0-8.1-0.1","battery-v0.2","","""event"",""trial"",""time""
""fullscreenenter"",""1"",""6933""
","
","
","""event"",""trial"",""time""
""fullscreenenter"",""1"",""6933""
","
","","","489.60000002384186","","","14","10986","1189","&#9776;","elianto","#3366ff99"," "," ","1","+10","[1339.5999999642372]","1","0","1","","","","","","","",""
"pit-trial","26","393081","0.0-2.0-8.1-1.1","battery-v0.2","","""event"",""trial"",""time""
""fullscreenenter"",""1"",""6933""
","
","
","""event"",""trial"",""time""
""fullscreenenter"",""1"",""6933""
","
","","","626.9000000357628","","","14","10986","1189","&#9776;","elianto","#3366ff99"," "," ","1","+10","[1477]","1","0","1","","","","","","","",""
"pit-trial","27","396432","0.0-2.0-8.1-2.1","battery-v0.2","","""event"",""trial"",""time""
""fullscreenenter"",""1"",""6933""
","
","
","""event"",""trial"",""time""
""fullscreenenter"",""1"",""6933""
","
","","","495.69999998807907","","","14","10986","1189","&#9776;","elianto","#3366ff99"," "," ","1","+10","[1346]","1","0","1","","","","","","","",""
"pit-trial","28","399861","0.0-2.0-8.1-3.1","battery-v0.2","","""event"",""trial"",""time""
""fullscreenenter"",""1"",""6933""
","
","
","""event"",""trial"",""time""
""fullscreenenter"",""1"",""6933""
","
","","","573.6999999880791","","","14","10986","1189","&#9776;","elianto","#3366ff99"," "," ","1","0","[1423.8999999761581]","1","0","1","","","","","","","",""
"pit-trial","29","403178","0.0-2.0-8.1-4.1","battery-v0.2","","""event"",""trial"",""time""
""fullscreenenter"",""1"",""6933""
","
","
","""event"",""trial"",""time""
""fullscreenenter"",""1"",""6933""
","
","","","463","","","14","10986","1189","&#9776;","elianto","#3366ff99"," "," ","1","+10","[1313.300000011921]","1","0","1","","","","","","","",""
"pit-trial","30","406588","0.0-2.0-8.2-0.2","battery-v0.2","","""event"",""trial"",""time""
""fullscreenenter"",""1"",""6933""
","
","
","""event"",""trial"",""time""
""fullscreenenter"",""1"",""6933""
","
","","","553.3999999761581","","","14","10986","1189","&#9776;","elianto","#3366ff99"," "," ","1","+10","[1403.5]","1","0","1","","","","","","","",""
"pit-trial","31","409916","0.0-2.0-8.2-1.2","battery-v0.2","","""event"",""trial"",""time""
""fullscreenenter"",""1"",""6933""
","
","
","""event"",""trial"",""time""
""fullscreenenter"",""1"",""6933""
","
","","","474.0999999642372","","","14","10986","1189","&#9776;","elianto","#3366ff99"," "," ","1","+10","[1324.2999999523163]","1","0","1","","","","","","","",""
"pit-trial","32","413265","0.0-2.0-8.2-2.2","battery-v0.2","","""event"",""trial"",""time""
""fullscreenenter"",""1"",""6933""
","
","
","""event"",""trial"",""time""
""fullscreenenter"",""1"",""6933""
","
","","","494.0999999642372","","","14","10986","1189","&#9776;","elianto","#3366ff99"," "," ","1","+10","[1344.1000000238419]","1","0","1","","","","","","","",""
"pit-trial","33","416585","0.0-2.0-8.2-3.2","battery-v0.2","","""event"",""trial"",""time""
""fullscreenenter"",""1"",""6933""
","
","
","""event"",""trial"",""time""
""fullscreenenter"",""1"",""6933""
","
","","","465.10000002384186","","","14","10986","1189","&#9776;","elianto","#3366ff99"," "," ","1","0","[1314.699999988079]","1","0","1","","","","","","","",""
"pit-trial","34","419909","0.0-2.0-8.2-4.2","battery-v0.2","","""event"",""trial"",""time""
""fullscreenenter"",""1"",""6933""
","
","
","""event"",""trial"",""time""
""fullscreenenter"",""1"",""6933""
","
","","","468.7999999523163","","","14","10986","1189","&#9776;","elianto","#3366ff99"," "," ","1","+10","[1319.0999999642372]","1","0","1","","","","","","","",""
"call-function","35","419913","0.0-2.0-9.0","battery-v0.2","","""event"",""trial"",""time""
""fullscreenenter"",""1"",""6933""
","
","
","""event"",""trial"",""time""
""fullscreenenter"",""1"",""6933""
","
","","","","","","","","","","","","","","","","","","","","","","","","","","",""
"pit-instructions","36","464833","0.0-2.0-10.0","battery-v0.2","","""event"",""trial"",""time""
""fullscreenenter"",""1"",""6933""
","
","
","""event"",""trial"",""time""
""fullscreenenter"",""1"",""6933""
","
","","[{""page_index"":0,""viewing_time"":5989.799999952316},{""page_index"":1,""viewing_time"":8400.200000047684},{""page_index"":2,""viewing_time"":10846.199999988079},{""page_index"":3,""viewing_time"":10435.399999976158},{""page_index"":4,""viewing_time"":9245.600000023842}]","44918.39999997616","","","","","","","","","","","","","","","","","","","","","","","",""
"pit-trial","37","468336","0.0-2.0-11.0-0.0","battery-v0.2","","""event"",""trial"",""time""
""fullscreenenter"",""1"",""6933""
","
","
","""event"",""trial"",""time""
""fullscreenenter"",""1"",""6933""
","
","","","647.7000000476837","","","14","10986","1189","&#9761;","elianto","#3366ff99","-1"," ","0","0","[1497.9000000357628]","1","0","2","","","","","","","",""
"pit-trial","38","471824","0.0-2.0-11.0-1.0","battery-v0.2","","""event"",""trial"",""time""
""fullscreenenter"",""1"",""6933""
","
","
","""event"",""trial"",""time""
""fullscreenenter"",""1"",""6933""
","
","","","632.8999999761581","","","14","10986","1189","&#9761;","elianto","#3366ff99","-1"," ","0","0","[1483]","1","0","2","","","","","","","",""
"pit-trial","39","475143","0.0-2.0-11.0-2.0","battery-v0.2","","""event"",""trial"",""time""
""fullscreenenter"",""1"",""6933""
","
","
","""event"",""trial"",""time""
""fullscreenenter"",""1"",""6933""
","
","","","464.7000000476837","","","14","10986","1189","&#9761;","elianto","#3366ff99","-1"," ","0","0","[1314.800000011921]","1","0","2","","","","","","","",""
"pit-trial","40","478201","0.0-2.0-11.0-3.0","battery-v0.2","","""event"",""trial"",""time""
""fullscreenenter"",""1"",""6933""
","
","
","""event"",""trial"",""time""
""fullscreenenter"",""1"",""6933""
","
","","","202.70000004768372","","","14","10986","1189","&#9761;","elianto","#3366ff99","-1"," ","0","+10","[1052.9000000357628]","1","0","2","","","","","","","",""
"pit-trial","41","481337","0.0-2.0-11.0-4.0","battery-v0.2","","""event"",""trial"",""time""
""fullscreenenter"",""1"",""6933""
","
","
","""event"",""trial"",""time""
""fullscreenenter"",""1"",""6933""
","
","","","281.5999999642372","","","14","10986","1189","&#9761;","elianto","#3366ff99","-1"," ","0","0","[1131.9000000357628]","1","0","2","","","","","","","",""
"pit-trial","42","484370","0.0-2.0-11.1-0.1","battery-v0.2","","""event"",""trial"",""time""
""fullscreenenter"",""1"",""6933""
","
","
","""event"",""trial"",""time""
""fullscreenenter"",""1"",""6933""
","
","","","175.60000002384186","","","14","10986","1189","&#9761;","elianto","#3366ff99","-1"," ","0","0","[1026.3999999761581]","1","0","2","","","","","","","",""
"pit-trial","43","489227","0.0-2.0-11.1-1.1","battery-v0.2","","""event"",""trial"",""time""
""fullscreenenter"",""1"",""6933""
","
","
","""event"",""trial"",""time""
""fullscreenenter"",""1"",""6933""
","
","","","-1","","","14","10986","1189","&#9761;","elianto","#3366ff99","-1","-1","1","+10","[]","0","0","2","","","","","","","",""
"pit-trial","44","492457","0.0-2.0-11.1-2.1","battery-v0.2","","""event"",""trial"",""time""
""fullscreenenter"",""1"",""6933""
","
","
","""event"",""trial"",""time""
""fullscreenenter"",""1"",""6933""
","
","","","374.7000000476837","","","14","10986","1189","&#9761;","elianto","#3366ff99","-1"," ","0","0","[1224.9000000357628]","1","0","2","","","","","","","",""
"pit-trial","45","495385","0.0-2.0-11.1-3.1","battery-v0.2","","""event"",""trial"",""time""
""fullscreenenter"",""1"",""6933""
","
","
","""event"",""trial"",""time""
""fullscreenenter"",""1"",""6933""
","
","","","73.5","","","14","10986","1189","&#9761;","elianto","#3366ff99","-1"," ","0","+10","[923.7000000476837]","1","0","2","","","","","","","",""
"pit-trial","46","499200","0.0-2.0-11.1-4.1","battery-v0.2","","""event"",""trial"",""time""
""fullscreenenter"",""1"",""6933""
","
","
","""event"",""trial"",""time""
""fullscreenenter"",""1"",""6933""
","
","","","954.1999999880791","","","14","10986","1189","&#9761;","elianto","#3366ff99","-1"," ","0","0","[1810]","1","0","2","","","","","","","",""
"pit-trial","47","502491","0.0-2.0-11.2-0.2","battery-v0.2","","""event"",""trial"",""time""
""fullscreenenter"",""1"",""6933""
","
","
","""event"",""trial"",""time""
""fullscreenenter"",""1"",""6933""
","
","","","435.60000002384186","","","14","10986","1189","&#9761;","elianto","#3366ff99","-1"," ","0","0","[1286.199999988079]","1","0","2","","","","","","","",""
"pit-trial","48","505773","0.0-2.0-11.2-1.2","battery-v0.2","","""event"",""trial"",""time""
""fullscreenenter"",""1"",""6933""
","
","
","""event"",""trial"",""time""
""fullscreenenter"",""1"",""6933""
","
","","","427.39999997615814","","","14","10986","1189","&#9761;","elianto","#3366ff99","-1"," ","0","0","[1277.4000000357628]","1","0","2","","","","","","","",""
"pit-trial","49","509029","0.0-2.0-11.2-2.2","battery-v0.2","","""event"",""trial"",""time""
""fullscreenenter"",""1"",""6933""
","
","
","""event"",""trial"",""time""
""fullscreenenter"",""1"",""6933""
","
","","","399.2000000476837","","","14","10986","1189","&#9761;","elianto","#3366ff99","-1"," ","0","0","[1249.300000011921]","1","0","2","","","","","","","",""
"pit-trial","50","512312","0.0-2.0-11.2-3.2","battery-v0.2","","""event"",""trial"",""time""
""fullscreenenter"",""1"",""6933""
","
","
","""event"",""trial"",""time""
""fullscreenenter"",""1"",""6933""
","
","","","428.39999997615814","","","14","10986","1189","&#9761;","elianto","#3366ff99","-1"," ","0","+10","[1278.699999988079]","1","0","2","","","","","","","",""
"pit-trial","51","515535","0.0-2.0-11.2-4.2","battery-v0.2","","""event"",""trial"",""time""
""fullscreenenter"",""1"",""6933""
","
","
","""event"",""trial"",""time""
""fullscreenenter"",""1"",""6933""
","
","","","368.10000002384186","","","14","10986","1189","&#9761;","elianto","#3366ff99","-1"," ","0","0","[1218.199999988079]","1","0","2","","","","","","","",""
"pit-trial","52","518702","0.0-2.0-11.3-0.3","battery-v0.2","","""event"",""trial"",""time""
""fullscreenenter"",""1"",""6933""
","
","
","""event"",""trial"",""time""
""fullscreenenter"",""1"",""6933""
","
","","","310.39999997615814","","","14","10986","1189","&#9761;","elianto","#3366ff99","-1"," ","0","0","[1162.199999988079]","1","0","2","","","","","","","",""
"pit-trial","53","521727","0.0-2.0-11.3-1.3","battery-v0.2","","""event"",""trial"",""time""
""fullscreenenter"",""1"",""6933""
","
","
","""event"",""trial"",""time""
""fullscreenenter"",""1"",""6933""
","
","","","167.5","","","14","10986","1189","&#9761;","elianto","#3366ff99","-1"," ","0","0","[1019.6000000238419]","1","0","2","","","","","","","",""
"pit-trial","54","524805","0.0-2.0-11.3-2.3","battery-v0.2","","""event"",""trial"",""time""
""fullscreenenter"",""1"",""6933""
","
","
","""event"",""trial"",""time""
""fullscreenenter"",""1"",""6933""
","
","","","223.0999999642372","","","14","10986","1189","&#9761;","elianto","#3366ff99","-1"," ","0","0","[1073.300000011921]","1","0","2","","","","","","","",""
"pit-trial","55","528120","0.0-2.0-11.3-3.3","battery-v0.2","","""event"",""trial"",""time""
""fullscreenenter"",""1"",""6933""
","
","
","""event"",""trial"",""time""
""fullscreenenter"",""1"",""6933""
","
","","","458.19999998807907","","","14","10986","1189","&#9761;","elianto","#3366ff99","-1"," ","0","+10","[1308.3999999761581]","1","0","2","","","","","","","",""
"pit-trial","56","531320","0.0-2.0-11.3-4.3","battery-v0.2","","""event"",""trial"",""time""
""fullscreenenter"",""1"",""6933""
","
","
","""event"",""trial"",""time""
""fullscreenenter"",""1"",""6933""
","
","","","344.5999999642372","","","14","10986","1189","&#9761;","elianto","#3366ff99","-1"," ","0","0","[1195.300000011921]","1","0","2","","","","","","","",""
"call-function","57","531324","0.0-2.0-12.0","battery-v0.2","","""event"",""trial"",""time""
""fullscreenenter"",""1"",""6933""
","
","
","""event"",""trial"",""time""
""fullscreenenter"",""1"",""6933""
","
","","","","","","","","","","","","","","","","","","","","","","","","","","",""
"pit-instructions","58","564683","0.0-2.0-13.0","battery-v0.2","","""event"",""trial"",""time""
""fullscreenenter"",""1"",""6933""
","
","
","""event"",""trial"",""time""
""fullscreenenter"",""1"",""6933""
","
","","[{""page_index"":0,""viewing_time"":4825},{""page_index"":1,""viewing_time"":7277.699999988079},{""page_index"":2,""viewing_time"":4022},{""page_index"":3,""viewing_time"":10799.599999964237},{""page_index"":4,""viewing_time"":6433}]","33358.299999952316","","","","","","","","","","","","","","","","","","","","","","","",""
"pit-trial","59","568181","0.0-2.0-14.0-0.0","battery-v0.2","","""event"",""trial"",""time""
""fullscreenenter"",""1"",""6933""
","
","
","""event"",""trial"",""time""
""fullscreenenter"",""1"",""6933""
","
","","","641.3999999761581","","","14","10986","1189","&#9826;","elianto","#f73b6a7A","-1"," ","0","-10","[1493.199999988079]","1","0","3","","","","","","","",""
"pit-trial","60","571211","0.0-2.0-14.0-1.0","battery-v0.2","","""event"",""trial"",""time""
""fullscreenenter"",""1"",""6933""
","
","
","""event"",""trial"",""time""
""fullscreenenter"",""1"",""6933""
","
","","","172.89999997615814","","","14","10986","1189","&#9826;","elianto","#f73b6a7A","-1"," ","0","-10","[1025.699999988079]","1","0","3","","","","","","","",""
"pit-trial","61","576066","0.0-2.0-14.0-2.0","battery-v0.2","","""event"",""trial"",""time""
""fullscreenenter"",""1"",""6933""
","
","
","""event"",""trial"",""time""
""fullscreenenter"",""1"",""6933""
","
","","","-1","","","14","10986","1189","&#9826;","elianto","#f73b6a7A","-1","-1","1","0","[]","0","0","3","","","","","","","",""
"pit-trial","62","580922","0.0-2.0-14.0-3.0","battery-v0.2","","""event"",""trial"",""time""
""fullscreenenter"",""1"",""6933""
","
","
","""event"",""trial"",""time""
""fullscreenenter"",""1"",""6933""
","
","","","-1","","","14","10986","1189","&#9826;","elianto","#f73b6a7A","-1","-1","1","-10","[]","0","0","3","","","","","","","",""
"pit-trial","63","585777","0.0-2.0-14.0-4.0","battery-v0.2","","""event"",""trial"",""time""
""fullscreenenter"",""1"",""6933""
","
","
","""event"",""trial"",""time""
""fullscreenenter"",""1"",""6933""
","
","","","-1","","","14","10986","1189","&#9826;","elianto","#f73b6a7A","-1","-1","1","0","[]","0","0","3","","","","","","","",""
"pit-trial","64","590634","0.0-2.0-14.1-0.1","battery-v0.2","","""event"",""trial"",""time""
""fullscreenenter"",""1"",""6933""
","
","
","""event"",""trial"",""time""
""fullscreenenter"",""1"",""6933""
","
","","","-1","","","14","10986","1189","&#9826;","elianto","#f73b6a7A","-1","-1","1","0","[]","0","0","3","","","","","","","",""
"pit-trial","65","595489","0.0-2.0-14.1-1.1","battery-v0.2","","""event"",""trial"",""time""
""fullscreenenter"",""1"",""6933""
","
","
","""event"",""trial"",""time""
""fullscreenenter"",""1"",""6933""
","
","","","-1","","","14","10986","1189","&#9826;","elianto","#f73b6a7A","-1","-1","1","0","[]","0","0","3","","","","","","","",""
"pit-trial","66","600344","0.0-2.0-14.1-2.1","battery-v0.2","","""event"",""trial"",""time""
""fullscreenenter"",""1"",""6933""
","
","
","""event"",""trial"",""time""
""fullscreenenter"",""1"",""6933""
","
","","","-1","","","14","10986","1189","&#9826;","elianto","#f73b6a7A","-1","-1","1","0","[]","0","0","3","","","","","","","",""
"pit-trial","67","605199","0.0-2.0-14.1-3.1","battery-v0.2","","""event"",""trial"",""time""
""fullscreenenter"",""1"",""6933""
","
","
","""event"",""trial"",""time""
""fullscreenenter"",""1"",""6933""
","
","","","-1","","","14","10986","1189","&#9826;","elianto","#f73b6a7A","-1","-1","1","-10","[]","0","0","3","","","","","","","",""
"pit-trial","68","610055","0.0-2.0-14.1-4.1","battery-v0.2","","""event"",""trial"",""time""
""fullscreenenter"",""1"",""6933""
","
","
","""event"",""trial"",""time""
""fullscreenenter"",""1"",""6933""
","
","","","-1","","","14","10986","1189","&#9826;","elianto","#f73b6a7A","-1","-1","1","0","[]","0","0","3","","","","","","","",""
"pit-trial","69","614911","0.0-2.0-14.2-0.2","battery-v0.2","","""event"",""trial"",""time""
""fullscreenenter"",""1"",""6933""
","
","
","""event"",""trial"",""time""
""fullscreenenter"",""1"",""6933""
","
","","","-1","","","14","10986","1189","&#9826;","elianto","#f73b6a7A","-1","-1","1","0","[]","0","0","3","","","","","","","",""
"pit-trial","70","619766","0.0-2.0-14.2-1.2","battery-v0.2","","""event"",""trial"",""time""
""fullscreenenter"",""1"",""6933""
","
","
","""event"",""trial"",""time""
""fullscreenenter"",""1"",""6933""
","
","","","-1","","","14","10986","1189","&#9826;","elianto","#f73b6a7A","-1","-1","1","0","[]","0","0","3","","","","","","","",""
"pit-trial","71","624621","0.0-2.0-14.2-2.2","battery-v0.2","","""event"",""trial"",""time""
""fullscreenenter"",""1"",""6933""
","
","
","""event"",""trial"",""time""
""fullscreenenter"",""1"",""6933""
","
","","","-1","","","14","10986","1189","&#9826;","elianto","#f73b6a7A","-1","-1","1","0","[]","0","0","3","","","","","","","",""
"pit-trial","72","629477","0.0-2.0-14.2-3.2","battery-v0.2","","""event"",""trial"",""time""
""fullscreenenter"",""1"",""6933""
","
","
","""event"",""trial"",""time""
""fullscreenenter"",""1"",""6933""
","
","","","-1","","","14","10986","1189","&#9826;","elianto","#f73b6a7A","-1","-1","1","-10","[]","0","0","3","","","","","","","",""
"pit-trial","73","634332","0.0-2.0-14.2-4.2","battery-v0.2","","""event"",""trial"",""time""
""fullscreenenter"",""1"",""6933""
","
","
","""event"",""trial"",""time""
""fullscreenenter"",""1"",""6933""
","
","","","-1","","","14","10986","1189","&#9826;","elianto","#f73b6a7A","-1","-1","1","0","[]","0","0","3","","","","","","","",""
"pit-trial","74","639188","0.0-2.0-14.3-0.3","battery-v0.2","","""event"",""trial"",""time""
""fullscreenenter"",""1"",""6933""
","
","
","""event"",""trial"",""time""
""fullscreenenter"",""1"",""6933""
","
","","","-1","","","14","10986","1189","&#9826;","elianto","#f73b6a7A","-1","-1","1","0","[]","0","0","3","","","","","","","",""
"pit-trial","75","644044","0.0-2.0-14.3-1.3","battery-v0.2","","""event"",""trial"",""time""
""fullscreenenter"",""1"",""6933""
","
","
","""event"",""trial"",""time""
""fullscreenenter"",""1"",""6933""
","
","","","-1","","","14","10986","1189","&#9826;","elianto","#f73b6a7A","-1","-1","1","0","[]","0","0","3","","","","","","","",""
"pit-trial","76","648898","0.0-2.0-14.3-2.3","battery-v0.2","","""event"",""trial"",""time""
""fullscreenenter"",""1"",""6933""
","
","
","""event"",""trial"",""time""
""fullscreenenter"",""1"",""6933""
","
","","","-1","","","14","10986","1189","&#9826;","elianto","#f73b6a7A","-1","-1","1","0","[]","0","0","3","","","","","","","",""
"pit-trial","77","653753","0.0-2.0-14.3-3.3","battery-v0.2","","""event"",""trial"",""time""
""fullscreenenter"",""1"",""6933""
","
","
","""event"",""trial"",""time""
""fullscreenenter"",""1"",""6933""
","
","","","-1","","","14","10986","1189","&#9826;","elianto","#f73b6a7A","-1","-1","1","-10","[]","0","0","3","","","","","","","",""
"pit-trial","78","658608","0.0-2.0-14.3-4.3","battery-v0.2","","""event"",""trial"",""time""
""fullscreenenter"",""1"",""6933""
","
","
","""event"",""trial"",""time""
""fullscreenenter"",""1"",""6933""
","
","","","-1","","","14","10986","1189","&#9826;","elianto","#f73b6a7A","-1","-1","1","0","[]","0","0","3","","","","","","","",""
"call-function","79","658612","0.0-2.0-15.0","battery-v0.2","","""event"",""trial"",""time""
""fullscreenenter"",""1"",""6933""
","
","
","""event"",""trial"",""time""
""fullscreenenter"",""1"",""6933""
","
","","","","","","","","","","","","","","","","","","","","","","","","","","",""
"pit-instructions","80","693518","0.0-2.0-16.0","battery-v0.2","","""event"",""trial"",""time""
""fullscreenenter"",""1"",""6933""
","
","
","""event"",""trial"",""time""
""fullscreenenter"",""1"",""6933""
","
","","[{""page_index"":0,""viewing_time"":7873.100000023842},{""page_index"":1,""viewing_time"":11256.699999988079},{""page_index"":2,""viewing_time"":5949.900000035763},{""page_index"":3,""viewing_time"":9824.5}]","34905","","","","","","","","","","","","","","","","","","","","","","","",""
"pit-trial","81","696534","0.0-2.0-17.0-0.0","battery-v0.2","","""event"",""trial"",""time""
""fullscreenenter"",""1"",""6933""
","
","
","""event"",""trial"",""time""
""fullscreenenter"",""1"",""6933""
","
","","","160.70000004768372","","","14","10986","1189","&#9789;","elianto","#f73b6a7A"," "," ","1","0","[1010.8000000119209,2270.199999988079]","2","0","4","","","","","","","",""
"pit-trial","82","699616","0.0-2.0-17.0-1.0","battery-v0.2","","""event"",""trial"",""time""
""fullscreenenter"",""1"",""6933""
","
","
","""event"",""trial"",""time""
""fullscreenenter"",""1"",""6933""
","
","","","226.60000002384186","","","14","10986","1189","&#9789;","elianto","#f73b6a7A"," "," ","1","0","[1076.800000011921]","1","0","4","","","","","","","",""
"pit-trial","83","704471","0.0-2.0-17.0-2.0","battery-v0.2","","""event"",""trial"",""time""
""fullscreenenter"",""1"",""6933""
","
","
","""event"",""trial"",""time""
""fullscreenenter"",""1"",""6933""
","
","","","-1","","","14","10986","1189","&#9789;","elianto","#f73b6a7A"," ","-1","0","-10","[]","0","0","4","","","","","","","",""
"pit-trial","84","709327","0.0-2.0-17.0-3.0","battery-v0.2","","""event"",""trial"",""time""
""fullscreenenter"",""1"",""6933""
","
","
","""event"",""trial"",""time""
""fullscreenenter"",""1"",""6933""
","
","","","-1","","","14","10986","1189","&#9789;","elianto","#f73b6a7A"," ","-1","0","0","[]","0","0","4","","","","","","","",""
"pit-trial","85","714182","0.0-2.0-17.0-4.0","battery-v0.2","","""event"",""trial"",""time""
""fullscreenenter"",""1"",""6933""
","
","
","""event"",""trial"",""time""
""fullscreenenter"",""1"",""6933""
","
","","","-1","","","14","10986","1189","&#9789;","elianto","#f73b6a7A"," ","-1","0","-10","[]","0","0","4","","","","","","","",""
"pit-trial","86","719038","0.0-2.0-17.1-0.1","battery-v0.2","","""event"",""trial"",""time""
""fullscreenenter"",""1"",""6933""
","
","
","""event"",""trial"",""time""
""fullscreenenter"",""1"",""6933""
","
","","","-1","","","14","10986","1189","&#9789;","elianto","#f73b6a7A"," ","-1","0","-10","[]","0","0","4","","","","","","","",""
"pit-trial","87","723894","0.0-2.0-17.1-1.1","battery-v0.2","","""event"",""trial"",""time""
""fullscreenenter"",""1"",""6933""
","
","
","""event"",""trial"",""time""
""fullscreenenter"",""1"",""6933""
","
","","","-1","","","14","10986","1189","&#9789;","elianto","#f73b6a7A"," ","-1","0","-10","[]","0","0","4","","","","","","","",""
"pit-trial","88","728749","0.0-2.0-17.1-2.1","battery-v0.2","","""event"",""trial"",""time""
""fullscreenenter"",""1"",""6933""
","
","
","""event"",""trial"",""time""
""fullscreenenter"",""1"",""6933""
","
","","","-1","","","14","10986","1189","&#9789;","elianto","#f73b6a7A"," ","-1","0","-10","[]","0","0","4","","","","","","","",""
"pit-trial","89","733606","0.0-2.0-17.1-3.1","battery-v0.2","","""event"",""trial"",""time""
""fullscreenenter"",""1"",""6933""
","
","
","""event"",""trial"",""time""
""fullscreenenter"",""1"",""6933""
","
","","","-1","","","14","10986","1189","&#9789;","elianto","#f73b6a7A"," ","-1","0","0","[]","0","0","4","","","","","","","",""
"pit-trial","90","738461","0.0-2.0-17.1-4.1","battery-v0.2","","""event"",""trial"",""time""
""fullscreenenter"",""1"",""6933""
","
","
","""event"",""trial"",""time""
""fullscreenenter"",""1"",""6933""
","
","","","-1","","","14","10986","1189","&#9789;","elianto","#f73b6a7A"," ","-1","0","-10","[]","0","0","4","","","","","","","",""
"pit-trial","91","743317","0.0-2.0-17.2-0.2","battery-v0.2","","""event"",""trial"",""time""
""fullscreenenter"",""1"",""6933""
","
","
","""event"",""trial"",""time""
""fullscreenenter"",""1"",""6933""
","
","","","-1","","","14","10986","1189","&#9789;","elianto","#f73b6a7A"," ","-1","0","-10","[]","0","0","4","","","","","","","",""
"pit-trial","92","748172","0.0-2.0-17.2-1.2","battery-v0.2","","""event"",""trial"",""time""
""fullscreenenter"",""1"",""6933""
","
","
","""event"",""trial"",""time""
""fullscreenenter"",""1"",""6933""
","
","","","-1","","","14","10986","1189","&#9789;","elianto","#f73b6a7A"," ","-1","0","-10","[]","0","0","4","","","","","","","",""
"pit-trial","93","753027","0.0-2.0-17.2-2.2","battery-v0.2","","""event"",""trial"",""time""
""fullscreenenter"",""1"",""6933""
","
","
","""event"",""trial"",""time""
""fullscreenenter"",""1"",""6933""
","
","","","-1","","","14","10986","1189","&#9789;","elianto","#f73b6a7A"," ","-1","0","-10","[]","0","0","4","","","","","","","",""
"pit-trial","94","757882","0.0-2.0-17.2-3.2","battery-v0.2","","""event"",""trial"",""time""
""fullscreenenter"",""1"",""6933""
","
","
","""event"",""trial"",""time""
""fullscreenenter"",""1"",""6933""
","
","","","-1","","","14","10986","1189","&#9789;","elianto","#f73b6a7A"," ","-1","0","0","[]","0","0","4","","","","","","","",""
"pit-trial","95","762737","0.0-2.0-17.2-4.2","battery-v0.2","","""event"",""trial"",""time""
""fullscreenenter"",""1"",""6933""
","
","
","""event"",""trial"",""time""
""fullscreenenter"",""1"",""6933""
","
","","","-1","","","14","10986","1189","&#9789;","elianto","#f73b6a7A"," ","-1","0","-10","[]","0","0","4","","","","","","","",""
"pit-trial","96","767594","0.0-2.0-17.3-0.3","battery-v0.2","","""event"",""trial"",""time""
""fullscreenenter"",""1"",""6933""
","
","
","""event"",""trial"",""time""
""fullscreenenter"",""1"",""6933""
","
","","","-1","","","14","10986","1189","&#9789;","elianto","#f73b6a7A"," ","-1","0","-10","[]","0","0","4","","","","","","","",""
"pit-trial","97","772448","0.0-2.0-17.3-1.3","battery-v0.2","","""event"",""trial"",""time""
""fullscreenenter"",""1"",""6933""
","
","
","""event"",""trial"",""time""
""fullscreenenter"",""1"",""6933""
","
","","","-1","","","14","10986","1189","&#9789;","elianto","#f73b6a7A"," ","-1","0","-10","[]","0","0","4","","","","","","","",""
"pit-trial","98","777303","0.0-2.0-17.3-2.3","battery-v0.2","","""event"",""trial"",""time""
""fullscreenenter"",""1"",""6933""
","
","
","""event"",""trial"",""time""
""fullscreenenter"",""1"",""6933""
","
","","","-1","","","14","10986","1189","&#9789;","elianto","#f73b6a7A"," ","-1","0","-10","[]","0","0","4","","","","","","","",""
"pit-trial","99","782158","0.0-2.0-17.3-3.3","battery-v0.2","","""event"",""trial"",""time""
""fullscreenenter"",""1"",""6933""
","
","
","""event"",""trial"",""time""
""fullscreenenter"",""1"",""6933""
","
","","","-1","","","14","10986","1189","&#9789;","elianto","#f73b6a7A"," ","-1","0","0","[]","0","0","4","","","","","","","",""
"pit-trial","100","787013","0.0-2.0-17.3-4.3","battery-v0.2","","""event"",""trial"",""time""
""fullscreenenter"",""1"",""6933""
","
","
","""event"",""trial"",""time""
""fullscreenenter"",""1"",""6933""
","
","","","-1","","","14","10986","1189","&#9789;","elianto","#f73b6a7A"," ","-1","0","-10","[]","0","0","4","","","","","","","",""
"call-function","101","787017","0.0-2.0-18.0","battery-v0.2","","""event"",""trial"",""time""
""fullscreenenter"",""1"",""6933""
","
","
","""event"",""trial"",""time""
""fullscreenenter"",""1"",""6933""
","
","","","","","","","","","","","","","","","","","","","","","","","","","","",""
"pit-instructions","102","876365","0.0-2.0-19.0","battery-v0.2","","""event"",""trial"",""time""
""fullscreenenter"",""1"",""6933""
","
","
","""event"",""trial"",""time""
""fullscreenenter"",""1"",""6933""
","
","","[{""page_index"":0,""viewing_time"":8583.599999964237},{""page_index"":1,""viewing_time"":7029.199999988079},{""page_index"":2,""viewing_time"":15380.300000011921},{""page_index"":3,""viewing_time"":8852.600000023842},{""page_index"":4,""viewing_time"":11462.5},{""page_index"":5,""viewing_time"":12947.399999976158},{""page_index"":6,""viewing_time"":10066.300000011921},{""page_index"":7,""viewing_time"":9907.5},{""page_index"":8,""viewing_time"":5116}]","89346.69999998808","","","","","","","","","","","","","","","","","","","","","","","",""
"pit-comprehension","103","881975","0.0-2.0-20.0-0.0","battery-v0.2","","""event"",""trial"",""time""
""fullscreenenter"",""1"",""6933""
","
","
","""event"",""trial"",""time""
""fullscreenenter"",""1"",""6933""
","
","","","5599","[""SPACE""]","0","14","10986","1189","","","","","","","","","","","","","","","","","","",""
"pit-instructions","104","884531","0.0-2.0-20.0-1.0","battery-v0.2","","""event"",""trial"",""time""
""fullscreenenter"",""1"",""6933""
","
","
","""event"",""trial"",""time""
""fullscreenenter"",""1"",""6933""
","
","","[{""page_index"":0,""viewing_time"":2527.100000023842}]","2528","","","","","","","","","","","","","","","","","","","","","","","",""
"pit-comprehension","105","889798","0.0-2.0-21.0-0.0","battery-v0.2","","""event"",""trial"",""time""
""fullscreenenter"",""1"",""6933""
","
","
","""event"",""trial"",""time""
""fullscreenenter"",""1"",""6933""
","
","","","5256.100000023842","[""10""]","0","14","10986","1189","","","","","","","","","","","","","","","","","","",""
"pit-instructions","106","891370","0.0-2.0-21.0-1.0","battery-v0.2","","""event"",""trial"",""time""
""fullscreenenter"",""1"",""6933""
","
","
","""event"",""trial"",""time""
""fullscreenenter"",""1"",""6933""
","
","","[{""page_index"":0,""viewing_time"":1539.6000000238419}]","1540.4000000357628","","","","","","","","","","","","","","","","","","","","","","","",""
"pit-comprehension","107","898890","0.0-2.0-22.0-0.0","battery-v0.2","","""event"",""trial"",""time""
""fullscreenenter"",""1"",""6933""
","
","
","""event"",""trial"",""time""
""fullscreenenter"",""1"",""6933""
","
","","","7510.899999976158","[""0""]","0","14","10986","1189","","","","","","","","","","","","","","","","","","",""
"pit-instructions","108","899932","0.0-2.0-22.0-1.0","battery-v0.2","","""event"",""trial"",""time""
""fullscreenenter"",""1"",""6933""
","
","
","""event"",""trial"",""time""
""fullscreenenter"",""1"",""6933""
","
","","[{""page_index"":0,""viewing_time"":1012.2999999523163}]","1012.7999999523163","","","","","","","","","","","","","","","","","","","","","","","",""
"pit-comprehension","109","912127","0.0-2.0-23.0-0.0","battery-v0.2","","""event"",""trial"",""time""
""fullscreenenter"",""1"",""6933""
","
","
","""event"",""trial"",""time""
""fullscreenenter"",""1"",""6933""
","
","","","12186.599999964237","[""True""]","0","14","10986","1189","","","","","","","","","","","","","","","","","","",""
"pit-instructions","110","913790","0.0-2.0-23.0-1.0","battery-v0.2","","""event"",""trial"",""time""
""fullscreenenter"",""1"",""6933""
","
","
","""event"",""trial"",""time""
""fullscreenenter"",""1"",""6933""
","
","","[{""page_index"":0,""viewing_time"":1629}]","1629.8999999761581","","","","","","","","","","","","","","","","","","","","","","","",""
"pit-comprehension","111","921201","0.0-2.0-24.0-0.0","battery-v0.2","","""event"",""trial"",""time""
""fullscreenenter"",""1"",""6933""
","
","
","""event"",""trial"",""time""
""fullscreenenter"",""1"",""6933""
","
","","","7404.399999976158","[""True""]","0","14","10986","1189","","","","","","","","","","","","","","","","","","",""
"pit-instructions","112","922635","0.0-2.0-24.0-1.0","battery-v0.2","","""event"",""trial"",""time""
""fullscreenenter"",""1"",""6933""
","
","
","""event"",""trial"",""time""
""fullscreenenter"",""1"",""6933""
","
","","[{""page_index"":0,""viewing_time"":1404.7000000476837}]","1405","","","","","","","","","","","","","","","","","","","","","","","",""
"pit-comprehension","113","928957","0.0-2.0-25.0-0.0","battery-v0.2","","""event"",""trial"",""time""
""fullscreenenter"",""1"",""6933""
","
","
","""event"",""trial"",""time""
""fullscreenenter"",""1"",""6933""
","
","","","6317.099999964237","[""True""]","0","14","10986","1189","","","","","","","","","","","","","","","","","","",""
"pit-instructions","114","930560","0.0-2.0-25.0-1.0","battery-v0.2","","""event"",""trial"",""time""
""fullscreenenter"",""1"",""6933""
","
","
","""event"",""trial"",""time""
""fullscreenenter"",""1"",""6933""
","
","","[{""page_index"":0,""viewing_time"":1573.2999999523163}]","1574.3999999761581","","","","","","","","","","","","","","","","","","","","","","","",""
"pit-comprehension","115","936536","0.0-2.0-26.0-0.0","battery-v0.2","","""event"",""trial"",""time""
""fullscreenenter"",""1"",""6933""
","
","
","""event"",""trial"",""time""
""fullscreenenter"",""1"",""6933""
","
","","","5966.900000035763","[""False""]","0","14","10986","1189","","","","","","","","","","","","","","","","","","",""
"pit-instructions","116","938365","0.0-2.0-26.0-1.0","battery-v0.2","","""event"",""trial"",""time""
""fullscreenenter"",""1"",""6933""
","
","
","""event"",""trial"",""time""
""fullscreenenter"",""1"",""6933""
","
","","[{""page_index"":0,""viewing_time"":1792.3999999761581}]","1793.199999988079","","","","","","","","","","","","","","","","","","","","","","","",""
"pit-instructions","117","954310","0.0-3.0","battery-v0.2","","""event"",""trial"",""time""
""fullscreenenter"",""1"",""6933""
","
","
","""event"",""trial"",""time""
""fullscreenenter"",""1"",""6933""
","
","","[{""page_index"":0,""viewing_time"":4306.100000023842},{""page_index"":1,""viewing_time"":5303.899999976158},{""page_index"":2,""viewing_time"":6328.900000035763}]","15939.699999988079","","","","","","","","","","","","","","","","","","","","","","","",""
"pit-trial","118","958089","0.0-4.0","battery-v0.2","","""event"",""trial"",""time""
""fullscreenenter"",""1"",""6933""
","
","
","""event"",""trial"",""time""
""fullscreenenter"",""1"",""6933""
","
","","","915.8000000119209","","","14","10986","1189","&#9733;","elianto","#3366ff99","-1"," ","0","0","[1766.0999999642372]","1","1","","","10986","1","2","2","win","no-go","0"
"pit-trial","119","962248","0.0-5.0","battery-v0.2","","""event"",""trial"",""time""
""fullscreenenter"",""1"",""6933""
","
","
","""event"",""trial"",""time""
""fullscreenenter"",""1"",""6933""
","
","","","1303.800000011921","","","14","10986","1189","&#9752;","elianto","#f73b6a7A"," "," ","1","0","[2153.900000035763]","1","1","","","10986","2","3","3","lose","go","0"
"pit-trial","120","965748","0.0-6.0","battery-v0.2","","""event"",""trial"",""time""
""fullscreenenter"",""1"",""6933""
","
","
","""event"",""trial"",""time""
""fullscreenenter"",""1"",""6933""
","
","","","644","","","14","10986","1189","&#9730;","elianto","#3366ff99"," "," ","1","+10","[1493.9000000357628]","1","1","","","10986","3","1","1","win","go","0"
"pit-trial","121","969374","0.0-7.0","battery-v0.2","","""event"",""trial"",""time""
""fullscreenenter"",""1"",""6933""
","
","
","""event"",""trial"",""time""
""fullscreenenter"",""1"",""6933""
","
","","","770.8999999761581","","","14","10986","1189","&#9728;","elianto","#f73b6a7A","-1"," ","0","0","[1621]","1","1","","","10986","4","0","4","lose","no-go","1"
"pit-trial","122","972439","0.0-8.0","battery-v0.2","","""event"",""trial"",""time""
""fullscreenenter"",""1"",""6933""
","
","
","""event"",""trial"",""time""
""fullscreenenter"",""1"",""6933""
","
","","","204.29999995231628","","","14","10986","1189","&#9730;","elianto","#3366ff99"," "," ","1","+10","[1059.699999988079]","1","1","","","10986","5","1","1","win","go","0"
"pit-trial","123","975749","0.0-9.0","battery-v0.2","","""event"",""trial"",""time""
""fullscreenenter"",""1"",""6933""
","
","
","""event"",""trial"",""time""
""fullscreenenter"",""1"",""6933""
","
","","","454.0999999642372","","","14","10986","1189","&#9733;","elianto","#3366ff99","-1"," ","0","0","[1304.2000000476837]","1","1","","","10986","6","2","2","win","no-go","0"
"pit-trial","124","979055","0.0-10.0","battery-v0.2","","""event"",""trial"",""time""
""fullscreenenter"",""1"",""6933""
","
","
","""event"",""trial"",""time""
""fullscreenenter"",""1"",""6933""
","
","","","451.0999999642372","","","14","10986","1189","&#9752;","elianto","#f73b6a7A"," "," ","1","0","[1301]","1","1","","","10986","7","3","3","lose","go","0"
"pit-trial","125","982471","0.0-11.0","battery-v0.2","","""event"",""trial"",""time""
""fullscreenenter"",""1"",""6933""
","
","
","""event"",""trial"",""time""
""fullscreenenter"",""1"",""6933""
","
","","","561","","","14","10986","1189","&#9728;","elianto","#f73b6a7A","-1"," ","0","-10","[1411.3999999761581]","1","1","","","10986","8","0","4","lose","no-go","0"
"pit-trial","126","987327","0.0-12.0","battery-v0.2","","""event"",""trial"",""time""
""fullscreenenter"",""1"",""6933""
","
","
","""event"",""trial"",""time""
""fullscreenenter"",""1"",""6933""
","
","","","-1","","","14","10986","1189","&#9728;","elianto","#f73b6a7A","-1","-1","1","0","[]","0","1","","","10986","9","0","4","lose","no-go","0"
"pit-trial","127","990698","0.0-13.0","battery-v0.2","","""event"",""trial"",""time""
""fullscreenenter"",""1"",""6933""
","
","
","""event"",""trial"",""time""
""fullscreenenter"",""1"",""6933""
","
","","","515.4000000357628","","","14","10986","1189","&#9733;","elianto","#3366ff99","-1"," ","0","0","[1367]","1","1","","","10986","10","2","2","win","no-go","0"
"pit-trial","128","994075","0.0-14.0","battery-v0.2","","""event"",""trial"",""time""
""fullscreenenter"",""1"",""6933""
","
","
","""event"",""trial"",""time""
""fullscreenenter"",""1"",""6933""
","
","","","521.1000000238419","","","14","10986","1189","&#9730;","elianto","#3366ff99"," "," ","1","+10","[1371.5]","1","1","","","10986","11","1","1","win","go","0"
"pit-trial","129","997789","0.0-15.0","battery-v0.2","","""event"",""trial"",""time""
""fullscreenenter"",""1"",""6933""
","
","
","""event"",""trial"",""time""
""fullscreenenter"",""1"",""6933""
","
","","","855.8999999761581","","","14","10986","1189","&#9752;","elianto","#f73b6a7A"," "," ","1","0","[1709.5]","1","1","","","10986","12","3","3","lose","go","0"
"pit-trial","130","1002644","0.0-16.0","battery-v0.2","","""event"",""trial"",""time""
""fullscreenenter"",""1"",""6933""
","
","
","""event"",""trial"",""time""
""fullscreenenter"",""1"",""6933""
","
","","","-1","","","14","10986","1189","&#9728;","elianto","#f73b6a7A","-1","-1","1","0","[]","0","1","","","10986","13","0","4","lose","no-go","0"
"pit-trial","131","1006007","0.0-17.0","battery-v0.2","","""event"",""trial"",""time""
""fullscreenenter"",""1"",""6933""
","
","
","""event"",""trial"",""time""
""fullscreenenter"",""1"",""6933""
","
","","","507.60000002384186","","","14","10986","1189","&#9733;","elianto","#3366ff99","-1"," ","0","0","[1357.6000000238419]","1","1","","","10986","14","2","2","win","no-go","0"
"pit-trial","132","1009540","0.0-18.0","battery-v0.2","","""event"",""trial"",""time""
""fullscreenenter"",""1"",""6933""
","
","
","""event"",""trial"",""time""
""fullscreenenter"",""1"",""6933""
","
","","","674.1999999880791","","","14","10986","1189","&#9730;","elianto","#3366ff99"," "," ","1","+10","[1527.7999999523163]","1","1","","","10986","15","1","1","win","go","0"
"pit-trial","133","1013270","0.0-19.0","battery-v0.2","","""event"",""trial"",""time""
""fullscreenenter"",""1"",""6933""
","
","
","""event"",""trial"",""time""
""fullscreenenter"",""1"",""6933""
","
","","","875.3999999761581","","","14","10986","1189","&#9752;","elianto","#f73b6a7A"," "," ","1","0","[1725.3999999761581]","1","1","","","10986","16","3","3","lose","go","0"
"pit-trial","134","1016792","0.0-20.0","battery-v0.2","","""event"",""trial"",""time""
""fullscreenenter"",""1"",""6933""
","
","
","""event"",""trial"",""time""
""fullscreenenter"",""1"",""6933""
","
","","","667.2000000476837","","","14","10986","1189","&#9733;","elianto","#3366ff99","-1"," ","0","+10","[1517.3999999761581]","1","1","","","10986","17","2","2","win","no-go","1"
"pit-trial","135","1020503","0.0-21.0","battery-v0.2","","""event"",""trial"",""time""
""fullscreenenter"",""1"",""6933""
","
","
","""event"",""trial"",""time""
""fullscreenenter"",""1"",""6933""
","
","","","854.2999999523163","","","14","10986","1189","&#9752;","elianto","#f73b6a7A"," "," ","1","0","[1705.699999988079]","1","1","","","10986","18","3","3","lose","go","0"
"pit-trial","136","1025358","0.0-22.0","battery-v0.2","","""event"",""trial"",""time""
""fullscreenenter"",""1"",""6933""
","
","
","""event"",""trial"",""time""
""fullscreenenter"",""1"",""6933""
","
","","","-1","","","14","10986","1189","&#9728;","elianto","#f73b6a7A","-1","-1","1","0","[]","0","1","","","10986","19","0","4","lose","no-go","0"
"pit-trial","137","1028733","0.0-23.0","battery-v0.2","","""event"",""trial"",""time""
""fullscreenenter"",""1"",""6933""
","
","
","""event"",""trial"",""time""
""fullscreenenter"",""1"",""6933""
","
","","","518.5","","","14","10986","1189","&#9730;","elianto","#3366ff99"," "," ","1","+10","[1370]","1","1","","","10986","20","1","1","win","go","0"
"pit-instructions","138","1043544","0.0-24.0","battery-v0.2","","""event"",""trial"",""time""
""fullscreenenter"",""1"",""6933""
","
","
","""event"",""trial"",""time""
""fullscreenenter"",""1"",""6933""
","
","","[{""page_index"":0,""viewing_time"":7526.299999952316},{""page_index"":1,""viewing_time"":7280}]","14807.199999988079","","","","","","","","","","","","","","","","","","","","","","","",""
"pit-trial","139","1046783","0.0-25.0","battery-v0.2","","""event"",""trial"",""time""
""fullscreenenter"",""1"",""6933""
","
","
","""event"",""trial"",""time""
""fullscreenenter"",""1"",""6933""
","
","","","382.10000002384186","","","14","10986","1189","r","elianto","#3366ff99"," "," ","1","0","[1232.199999988079]","1","2","","","10986","21","1","1","win","go","1"
"pit-trial","140","1050027","0.0-26.0","battery-v0.2","","""event"",""trial"",""time""
""fullscreenenter"",""1"",""6933""
","
","
","""event"",""trial"",""time""
""fullscreenenter"",""1"",""6933""
","
","","","389.4000000357628","","","14","10986","1189","m","elianto","#f73b6a7A","-1"," ","0","0","[1239.699999988079]","1","2","","","10986","22","0","4","lose","no-go","1"
"pit-trial","141","1053039","0.0-27.0","battery-v0.2","","""event"",""trial"",""time""
""fullscreenenter"",""1"",""6933""
","
","
","""event"",""trial"",""time""
""fullscreenenter"",""1"",""6933""
","
","","","157","","","14","10986","1189","y","elianto","#f73b6a7A","-1"," ","0","-10","[1007.1000000238419]","1","2","","","10986","23","2","4","lose","no-go","0"
"pit-trial","142","1056412","0.0-28.0","battery-v0.2","","""event"",""trial"",""time""
""fullscreenenter"",""1"",""6933""
","
","
","""event"",""trial"",""time""
""fullscreenenter"",""1"",""6933""
","
","","","514.5999999642372","","","14","10986","1189","h","elianto","#f73b6a7A"," "," ","1","0","[1368.2000000476837]","1","2","","","10986","24","3","3","lose","go","0"
"pit-trial","143","1059897","0.0-29.0","battery-v0.2","","""event"",""trial"",""time""
""fullscreenenter"",""1"",""6933""
","
","
","""event"",""trial"",""time""
""fullscreenenter"",""1"",""6933""
","
","","","629.8000000119209","","","14","10986","1189","m","elianto","#f73b6a7A","-1"," ","0","-10","[1479.9000000357628]","1","2","","","10986","25","0","4","lose","no-go","0"
"pit-trial","144","1064751","0.0-30.0","battery-v0.2","","""event"",""trial"",""time""
""fullscreenenter"",""1"",""6933""
","
","
","""event"",""trial"",""time""
""fullscreenenter"",""1"",""6933""
","
","","","-1","","","14","10986","1189","y","elianto","#f73b6a7A","-1","-1","1","0","[]","0","2","","","10986","26","2","4","lose","no-go","0"
"pit-trial","145","1068092","0.0-31.0","battery-v0.2","","""event"",""trial"",""time""
""fullscreenenter"",""1"",""6933""
","
","
","""event"",""trial"",""time""
""fullscreenenter"",""1"",""6933""
","
","","","485.5","","","14","10986","1189","r","elianto","#3366ff99"," "," ","1","+10","[1335.5]","1","2","","","10986","27","1","1","win","go","0"
"pit-trial","146","1071602","0.0-32.0","battery-v0.2","","""event"",""trial"",""time""
""fullscreenenter"",""1"",""6933""
","
","
","""event"",""trial"",""time""
""fullscreenenter"",""1"",""6933""
","
","","","654.6999999880791","","","14","10986","1189","h","elianto","#f73b6a7A"," "," ","1","0","[1504.800000011921]","1","2","","","10986","28","3","3","lose","go","0"
"pit-trial","147","1075154","0.0-33.0","battery-v0.2","","""event"",""trial"",""time""
""fullscreenenter"",""1"",""6933""
","
","
","""event"",""trial"",""time""
""fullscreenenter"",""1"",""6933""
","
","","","696.6000000238419","","","14","10986","1189","h","elianto","#f73b6a7A"," "," ","1","-10","[1546.699999988079]","1","2","","","10986","29","3","3","lose","go","1"
"pit-trial","148","1080008","0.0-34.0","battery-v0.2","","""event"",""trial"",""time""
""fullscreenenter"",""1"",""6933""
","
","
","""event"",""trial"",""time""
""fullscreenenter"",""1"",""6933""
","
","","","-1","","","14","10986","1189","y","elianto","#f73b6a7A","-1","-1","1","0","[]","0","2","","","10986","30","2","4","lose","no-go","0"
"pit-trial","149","1083395","0.0-35.0","battery-v0.2","","""event"",""trial"",""time""
""fullscreenenter"",""1"",""6933""
","
","
","""event"",""trial"",""time""
""fullscreenenter"",""1"",""6933""
","
","","","533.6000000238419","","","14","10986","1189","r","elianto","#3366ff99"," "," ","1","0","[1384.1000000238419]","1","2","","","10986","31","1","1","win","go","1"
"pit-trial","150","1087065","0.0-36.0","battery-v0.2","","""event"",""trial"",""time""
""fullscreenenter"",""1"",""6933""
","
","
","""event"",""trial"",""time""
""fullscreenenter"",""1"",""6933""
","
","","","815.1999999880791","","","14","10986","1189","m","elianto","#f73b6a7A","-1"," ","0","-10","[1665.199999988079]","1","2","","","10986","32","0","4","lose","no-go","0"
"pit-trial","151","1091921","0.0-37.0","battery-v0.2","","""event"",""trial"",""time""
""fullscreenenter"",""1"",""6933""
","
","
","""event"",""trial"",""time""
""fullscreenenter"",""1"",""6933""
","
","","","-1","","","14","10986","1189","h","elianto","#f73b6a7A"," ","-1","0","-10","[]","0","2","","","10986","33","3","3","lose","go","0"
"pit-trial","152","1096776","0.0-38.0","battery-v0.2","","""event"",""trial"",""time""
""fullscreenenter"",""1"",""6933""
","
","
","""event"",""trial"",""time""
""fullscreenenter"",""1"",""6933""
","
","","","-1","","","14","10986","1189","y","elianto","#f73b6a7A","-1","-1","1","0","[]","0","2","","","10986","34","2","4","lose","no-go","0"
"pit-trial","153","1101632","0.0-39.0","battery-v0.2","","""event"",""trial"",""time""
""fullscreenenter"",""1"",""6933""
","
","
","""event"",""trial"",""time""
""fullscreenenter"",""1"",""6933""
","
","","","-1","","","14","10986","1189","m","elianto","#f73b6a7A","-1","-1","1","0","[]","0","2","","","10986","35","0","4","lose","no-go","0"
"pit-trial","154","1105123","0.0-40.0","battery-v0.2","","""event"",""trial"",""time""
""fullscreenenter"",""1"",""6933""
","
","
","""event"",""trial"",""time""
""fullscreenenter"",""1"",""6933""
","
","","","636.5","","","14","10986","1189","r","elianto","#3366ff99"," "," ","1","+10","[1486.5999999642372]","1","2","","","10986","36","1","1","win","go","0"
"pit-trial","155","1109978","0.0-41.0","battery-v0.2","","""event"",""trial"",""time""
""fullscreenenter"",""1"",""6933""
","
","
","""event"",""trial"",""time""
""fullscreenenter"",""1"",""6933""
","
","","","-1","","","14","10986","1189","m","elianto","#f73b6a7A","-1","-1","1","0","[]","0","2","","","10986","37","0","4","lose","no-go","0"
"pit-trial","156","1114833","0.0-42.0","battery-v0.2","","""event"",""trial"",""time""
""fullscreenenter"",""1"",""6933""
","
","
","""event"",""trial"",""time""
""fullscreenenter"",""1"",""6933""
","
","","","-1","","","14","10986","1189","y","elianto","#f73b6a7A","-1","-1","1","0","[]","0","2","","","10986","38","2","4","lose","no-go","0"
"pit-trial","157","1119686","0.0-43.0","battery-v0.2","","""event"",""trial"",""time""
""fullscreenenter"",""1"",""6933""
","
","
","""event"",""trial"",""time""
""fullscreenenter"",""1"",""6933""
","
","","","-1","","","14","10986","1189","h","elianto","#f73b6a7A"," ","-1","0","-10","[]","0","2","","","10986","39","3","3","lose","go","0"
"pit-trial","158","1123053","0.0-44.0","battery-v0.2","","""event"",""trial"",""time""
""fullscreenenter"",""1"",""6933""
","
","
","""event"",""trial"",""time""
""fullscreenenter"",""1"",""6933""
","
","","","510.4000000357628","","","14","10986","1189","r","elianto","#3366ff99"," "," ","1","+10","[1361.300000011921]","1","2","","","10986","40","1","1","win","go","0"
"pit-trial","159","1127907","0.0-45.0","battery-v0.2","","""event"",""trial"",""time""
""fullscreenenter"",""1"",""6933""
","
","
","""event"",""trial"",""time""
""fullscreenenter"",""1"",""6933""
","
","","","-1","","","14","10986","1189","h","elianto","#f73b6a7A"," ","-1","0","-10","[]","0","2","","","10986","41","3","3","lose","go","0"
"pit-trial","160","1132762","0.0-46.0","battery-v0.2","","""event"",""trial"",""time""
""fullscreenenter"",""1"",""6933""
","
","
","""event"",""trial"",""time""
""fullscreenenter"",""1"",""6933""
","
","","","-1","","","14","10986","1189","m","elianto","#f73b6a7A","-1","-1","1","0","[]","0","2","","","10986","42","0","4","lose","no-go","0"
"pit-trial","161","1137618","0.0-47.0","battery-v0.2","","""event"",""trial"",""time""
""fullscreenenter"",""1"",""6933""
","
","
","""event"",""trial"",""time""
""fullscreenenter"",""1"",""6933""
","
","","","-1","","","14","10986","1189","y","elianto","#f73b6a7A","-1","-1","1","0","[]","0","2","","","10986","43","2","4","lose","no-go","0"
"pit-trial","162","1141104","0.0-48.0","battery-v0.2","","""event"",""trial"",""time""
""fullscreenenter"",""1"",""6933""
","
","
","""event"",""trial"",""time""
""fullscreenenter"",""1"",""6933""
","
","","","628.6000000238419","","","14","10986","1189","r","elianto","#3366ff99"," "," ","1","+10","[1481.199999988079]","1","2","","","10986","44","1","1","win","go","0"
"pit-trial","163","1144795","0.0-49.0","battery-v0.2","","""event"",""trial"",""time""
""fullscreenenter"",""1"",""6933""
","
","
","""event"",""trial"",""time""
""fullscreenenter"",""1"",""6933""
","
","","","836.5999999642372","","","14","10986","1189","m","elianto","#f73b6a7A","-1"," ","0","-10","[1686.7999999523163]","1","2","","","10986","45","0","4","lose","no-go","0"
"pit-trial","164","1148333","0.0-50.0","battery-v0.2","","""event"",""trial"",""time""
""fullscreenenter"",""1"",""6933""
","
","
","""event"",""trial"",""time""
""fullscreenenter"",""1"",""6933""
","
","","","682.0999999642372","","","14","10986","1189","z","elianto","#3366ff99","-1"," ","0","0","[1532.300000011921]","1","2","","","10986","46","4","2","win","no-go","0"
"pit-trial","165","1152278","0.0-51.0","battery-v0.2","","""event"",""trial"",""time""
""fullscreenenter"",""1"",""6933""
","
","
","""event"",""trial"",""time""
""fullscreenenter"",""1"",""6933""
","
","","","1086.3999999761581","","","14","10986","1189","y","elianto","#f73b6a7A","-1"," ","0","-10","[1939.4000000357628]","1","2","","","10986","47","2","4","lose","no-go","0"
"pit-trial","166","1155744","0.0-52.0","battery-v0.2","","""event"",""trial"",""time""
""fullscreenenter"",""1"",""6933""
","
","
","""event"",""trial"",""time""
""fullscreenenter"",""1"",""6933""
","
","","","610","","","14","10986","1189","h","elianto","#f73b6a7A"," "," ","1","-10","[1460.300000011921]","1","2","","","10986","48","3","3","lose","go","1"
"pit-trial","167","1160599","0.0-53.0","battery-v0.2","","""event"",""trial"",""time""
""fullscreenenter"",""1"",""6933""
","
","
","""event"",""trial"",""time""
""fullscreenenter"",""1"",""6933""
","
","","","-1","","","14","10986","1189","h","elianto","#f73b6a7A"," ","-1","0","-10","[]","0","2","","","10986","49","3","3","lose","go","0"
"pit-trial","168","1163985","0.0-54.0","battery-v0.2","","""event"",""trial"",""time""
""fullscreenenter"",""1"",""6933""
","
","
","""event"",""trial"",""time""
""fullscreenenter"",""1"",""6933""
","
","","","527","","","14","10986","1189","z","elianto","#3366ff99","-1"," ","0","0","[1380.199999988079]","1","2","","","10986","50","4","2","win","no-go","0"
"pit-trial","169","1167292","0.0-55.0","battery-v0.2","","""event"",""trial"",""time""
""fullscreenenter"",""1"",""6933""
","
","
","""event"",""trial"",""time""
""fullscreenenter"",""1"",""6933""
","
","","","452.2999999523163","","","14","10986","1189","r","elianto","#3366ff99"," "," ","1","+10","[1302.4000000357628]","1","2","","","10986","51","1","1","win","go","0"
"pit-trial","170","1172148","0.0-56.0","battery-v0.2","","""event"",""trial"",""time""
""fullscreenenter"",""1"",""6933""
","
","
","""event"",""trial"",""time""
""fullscreenenter"",""1"",""6933""
","
","","","-1","","","14","10986","1189","m","elianto","#f73b6a7A","-1","-1","1","0","[]","0","2","","","10986","52","0","4","lose","no-go","0"
"pit-trial","171","1177002","0.0-57.0","battery-v0.2","","""event"",""trial"",""time""
""fullscreenenter"",""1"",""6933""
","
","
","""event"",""trial"",""time""
""fullscreenenter"",""1"",""6933""
","
","","","-1","","","14","10986","1189","y","elianto","#f73b6a7A","-1","-1","1","0","[]","0","2","","","10986","53","2","4","lose","no-go","0"
"pit-trial","172","1180387","0.0-58.0","battery-v0.2","","""event"",""trial"",""time""
""fullscreenenter"",""1"",""6933""
","
","
","""event"",""trial"",""time""
""fullscreenenter"",""1"",""6933""
","
","","","529.9000000357628","","","14","10986","1189","r","elianto","#3366ff99"," "," ","1","+10","[1380.1000000238419]","1","2","","","10986","54","1","1","win","go","0"
"pit-trial","173","1183746","0.0-59.0","battery-v0.2","","""event"",""trial"",""time""
""fullscreenenter"",""1"",""6933""
","
","
","""event"",""trial"",""time""
""fullscreenenter"",""1"",""6933""
","
","","","502.10000002384186","","","14","10986","1189","z","elianto","#3366ff99","-1"," ","0","+10","[1352.199999988079]","1","2","","","10986","55","4","2","win","no-go","1"
"pit-trial","174","1188601","0.0-60.0","battery-v0.2","","""event"",""trial"",""time""
""fullscreenenter"",""1"",""6933""
","
","
","""event"",""trial"",""time""
""fullscreenenter"",""1"",""6933""
","
","","","-1","","","14","10986","1189","m","elianto","#f73b6a7A","-1","-1","1","0","[]","0","2","","","10986","56","0","4","lose","no-go","0"
"pit-trial","175","1191948","0.0-61.0","battery-v0.2","","""event"",""trial"",""time""
""fullscreenenter"",""1"",""6933""
","
","
","""event"",""trial"",""time""
""fullscreenenter"",""1"",""6933""
","
","","","492.10000002384186","","","14","10986","1189","z","elianto","#3366ff99","-1"," ","0","+10","[1342.199999988079]","1","2","","","10986","57","4","2","win","no-go","1"
"pit-trial","176","1196804","0.0-62.0","battery-v0.2","","""event"",""trial"",""time""
""fullscreenenter"",""1"",""6933""
","
","
","""event"",""trial"",""time""
""fullscreenenter"",""1"",""6933""
","
","","","-1","","","14","10986","1189","m","elianto","#f73b6a7A","-1","-1","1","0","[]","0","2","","","10986","58","0","4","lose","no-go","0"
"pit-trial","177","1200391","0.0-63.0","battery-v0.2","","""event"",""trial"",""time""
""fullscreenenter"",""1"",""6933""
","
","
","""event"",""trial"",""time""
""fullscreenenter"",""1"",""6933""
","
","","","731.6000000238419","","","14","10986","1189","r","elianto","#3366ff99"," "," ","1","+10","[1582]","1","2","","","10986","59","1","1","win","go","0"
"pit-trial","178","1205246","0.0-64.0","battery-v0.2","","""event"",""trial"",""time""
""fullscreenenter"",""1"",""6933""
","
","
","""event"",""trial"",""time""
""fullscreenenter"",""1"",""6933""
","
","","","-1","","","14","10986","1189","h","elianto","#f73b6a7A"," ","-1","0","0","[]","0","2","","","10986","60","3","3","lose","go","1"
"pit-trial","179","1208735","0.0-65.0","battery-v0.2","","""event"",""trial"",""time""
""fullscreenenter"",""1"",""6933""
","
","
","""event"",""trial"",""time""
""fullscreenenter"",""1"",""6933""
","
","","","630.1999999880791","","","14","10986","1189","z","elianto","#3366ff99","-1"," ","0","0","[1483.0999999642372]","1","2","","","10986","61","4","2","win","no-go","0"
"pit-trial","180","1213590","0.0-66.0","battery-v0.2","","""event"",""trial"",""time""
""fullscreenenter"",""1"",""6933""
","
","
","""event"",""trial"",""time""
""fullscreenenter"",""1"",""6933""
","
","","","-1","","","14","10986","1189","h","elianto","#f73b6a7A"," ","-1","0","0","[]","0","2","","","10986","62","3","3","lose","go","1"
"pit-trial","181","1217021","0.0-67.0","battery-v0.2","","""event"",""trial"",""time""
""fullscreenenter"",""1"",""6933""
","
","
","""event"",""trial"",""time""
""fullscreenenter"",""1"",""6933""
","
","","","575.3000000119209","","","14","10986","1189","r","elianto","#3366ff99"," "," ","1","+10","[1425.3999999761581]","1","2","","","10986","63","1","1","win","go","0"
"pit-trial","182","1221876","0.0-68.0","battery-v0.2","","""event"",""trial"",""time""
""fullscreenenter"",""1"",""6933""
","
","
","""event"",""trial"",""time""
""fullscreenenter"",""1"",""6933""
","
","","","-1","","","14","10986","1189","y","elianto","#f73b6a7A","-1","-1","1","0","[]","0","2","","","10986","64","2","4","lose","no-go","0"
"pit-trial","183","1225136","0.0-69.0","battery-v0.2","","""event"",""trial"",""time""
""fullscreenenter"",""1"",""6933""
","
","
","""event"",""trial"",""time""
""fullscreenenter"",""1"",""6933""
","
","","","406.9000000357628","","","14","10986","1189","z","elianto","#3366ff99","-1"," ","0","0","[1257]","1","2","","","10986","65","4","2","win","no-go","0"
"pit-trial","184","1229992","0.0-70.0","battery-v0.2","","""event"",""trial"",""time""
""fullscreenenter"",""1"",""6933""
","
","
","""event"",""trial"",""time""
""fullscreenenter"",""1"",""6933""
","
","","","-1","","","14","10986","1189","h","elianto","#f73b6a7A"," ","-1","0","-10","[]","0","2","","","10986","66","3","3","lose","go","0"
"pit-trial","185","1234847","0.0-71.0","battery-v0.2","","""event"",""trial"",""time""
""fullscreenenter"",""1"",""6933""
","
","
","""event"",""trial"",""time""
""fullscreenenter"",""1"",""6933""
","
","","","-1","","","14","10986","1189","y","elianto","#f73b6a7A","-1","-1","1","0","[]","0","2","","","10986","67","2","4","lose","no-go","0"
"pit-trial","186","1238486","0.0-72.0","battery-v0.2","","""event"",""trial"",""time""
""fullscreenenter"",""1"",""6933""
","
","
","""event"",""trial"",""time""
""fullscreenenter"",""1"",""6933""
","
","","","782","","","14","10986","1189","r","elianto","#3366ff99"," "," ","1","+10","[1633.3999999761581]","1","2","","","10986","68","1","1","win","go","0"
"pit-trial","187","1242102","0.0-73.0","battery-v0.2","","""event"",""trial"",""time""
""fullscreenenter"",""1"",""6933""
","
","
","""event"",""trial"",""time""
""fullscreenenter"",""1"",""6933""
","
","","","761.5999999642372","","","14","10986","1189","z","elianto","#3366ff99","-1"," ","0","0","[1611.9000000357628]","1","2","","","10986","69","4","2","win","no-go","0"
"pit-trial","188","1246958","0.0-74.0","battery-v0.2","","""event"",""trial"",""time""
""fullscreenenter"",""1"",""6933""
","
","
","""event"",""trial"",""time""
""fullscreenenter"",""1"",""6933""
","
","","","-1","","","14","10986","1189","h","elianto","#f73b6a7A"," ","-1","0","-10","[]","0","2","","","10986","70","3","3","lose","go","0"
"pit-trial","189","1250343","0.0-75.0","battery-v0.2","","""event"",""trial"",""time""
""fullscreenenter"",""1"",""6933""
","
","
","""event"",""trial"",""time""
""fullscreenenter"",""1"",""6933""
","
","","","529.3000000119209","","","14","10986","1189","r","elianto","#3366ff99"," "," ","1","0","[1379.6000000238419]","1","2","","","10986","71","1","1","win","go","1"
"pit-trial","190","1253695","0.0-76.0","battery-v0.2","","""event"",""trial"",""time""
""fullscreenenter"",""1"",""6933""
","
","
","""event"",""trial"",""time""
""fullscreenenter"",""1"",""6933""
","
","","","497","","","14","10986","1189","c","elianto","#3366ff99"," "," ","1","+10","[1347.300000011921]","1","2","","","10986","72","5","1","win","go","0"
"pit-trial","191","1258551","0.0-77.0","battery-v0.2","","""event"",""trial"",""time""
""fullscreenenter"",""1"",""6933""
","
","
","""event"",""trial"",""time""
""fullscreenenter"",""1"",""6933""
","
","","","-1","","","14","10986","1189","h","elianto","#f73b6a7A"," ","-1","0","0","[]","0","2","","","10986","73","3","3","lose","go","1"
"pit-trial","192","1261863","0.0-78.0","battery-v0.2","","""event"",""trial"",""time""
""fullscreenenter"",""1"",""6933""
","
","
","""event"",""trial"",""time""
""fullscreenenter"",""1"",""6933""
","
","","","457","","","14","10986","1189","c","elianto","#3366ff99"," "," ","1","+10","[1307.199999988079]","1","2","","","10986","74","5","1","win","go","0"
"pit-trial","193","1265221","0.0-79.0","battery-v0.2","","""event"",""trial"",""time""
""fullscreenenter"",""1"",""6933""
","
","
","""event"",""trial"",""time""
""fullscreenenter"",""1"",""6933""
","
","","","502.80000001192093","","","14","10986","1189","r","elianto","#3366ff99"," "," ","1","+10","[1353]","1","2","","","10986","75","1","1","win","go","0"
"pit-trial","194","1268544","0.0-80.0","battery-v0.2","","""event"",""trial"",""time""
""fullscreenenter"",""1"",""6933""
","
","
","""event"",""trial"",""time""
""fullscreenenter"",""1"",""6933""
","
","","","468.19999998807907","","","14","10986","1189","z","elianto","#3366ff99","-1"," ","0","0","[1318.5]","1","2","","","10986","76","4","2","win","no-go","0"
"pit-trial","195","1271884","0.0-81.0","battery-v0.2","","""event"",""trial"",""time""
""fullscreenenter"",""1"",""6933""
","
","
","""event"",""trial"",""time""
""fullscreenenter"",""1"",""6933""
","
","","","483.19999998807907","","","14","10986","1189","z","elianto","#3366ff99","-1"," ","0","+10","[1335]","1","2","","","10986","77","4","2","win","no-go","1"
"pit-trial","196","1276739","0.0-82.0","battery-v0.2","","""event"",""trial"",""time""
""fullscreenenter"",""1"",""6933""
","
","
","""event"",""trial"",""time""
""fullscreenenter"",""1"",""6933""
","
","","","-1","","","14","10986","1189","b","elianto","#f73b6a7A","-1","-1","1","0","[]","0","2","","","10986","78","6","4","lose","no-go","0"
"pit-trial","197","1280229","0.0-83.0","battery-v0.2","","""event"",""trial"",""time""
""fullscreenenter"",""1"",""6933""
","
","
","""event"",""trial"",""time""
""fullscreenenter"",""1"",""6933""
","
","","","634.8000000119209","","","14","10986","1189","c","elianto","#3366ff99"," "," ","1","+10","[1486.199999988079]","1","2","","","10986","79","5","1","win","go","0"
"pit-trial","198","1285084","0.0-84.0","battery-v0.2","","""event"",""trial"",""time""
""fullscreenenter"",""1"",""6933""
","
","
","""event"",""trial"",""time""
""fullscreenenter"",""1"",""6933""
","
","","","-1","","","14","10986","1189","h","elianto","#f73b6a7A"," ","-1","0","0","[]","0","2","","","10986","80","3","3","lose","go","1"
"pit-trial","199","1288458","0.0-85.0","battery-v0.2","","""event"",""trial"",""time""
""fullscreenenter"",""1"",""6933""
","
","
","""event"",""trial"",""time""
""fullscreenenter"",""1"",""6933""
","
","","","519","","","14","10986","1189","b","elianto","#f73b6a7A","-1"," ","0","-10","[1369.300000011921]","1","2","","","10986","81","6","4","lose","no-go","0"
"pit-trial","200","1291862","0.0-86.0","battery-v0.2","","""event"",""trial"",""time""
""fullscreenenter"",""1"",""6933""
","
","
","""event"",""trial"",""time""
""fullscreenenter"",""1"",""6933""
","
","","","545.1999999880791","","","14","10986","1189","t","elianto","#f73b6a7A"," "," ","1","0","[1399.7999999523163]","1","2","","","10986","82","7","3","lose","go","0"
"pit-trial","201","1295333","0.0-87.0","battery-v0.2","","""event"",""trial"",""time""
""fullscreenenter"",""1"",""6933""
","
","
","""event"",""trial"",""time""
""fullscreenenter"",""1"",""6933""
","
","","","616.1000000238419","","","14","10986","1189","z","elianto","#3366ff99","-1"," ","0","+10","[1466.0999999642372]","1","2","","","10986","83","4","2","win","no-go","1"
"pit-trial","202","1298729","0.0-88.0","battery-v0.2","","""event"",""trial"",""time""
""fullscreenenter"",""1"",""6933""
","
","
","""event"",""trial"",""time""
""fullscreenenter"",""1"",""6933""
","
","","","540.6999999880791","","","14","10986","1189","c","elianto","#3366ff99"," "," ","1","0","[1390.699999988079]","1","2","","","10986","84","5","1","win","go","1"
"pit-trial","203","1303583","0.0-89.0","battery-v0.2","","""event"",""trial"",""time""
""fullscreenenter"",""1"",""6933""
","
","
","""event"",""trial"",""time""
""fullscreenenter"",""1"",""6933""
","
","","","-1","","","14","10986","1189","t","elianto","#f73b6a7A"," ","-1","0","-10","[]","0","2","","","10986","85","7","3","lose","go","0"
"pit-trial","204","1306996","0.0-90.0","battery-v0.2","","""event"",""trial"",""time""
""fullscreenenter"",""1"",""6933""
","
","
","""event"",""trial"",""time""
""fullscreenenter"",""1"",""6933""
","
","","","557.5999999642372","","","14","10986","1189","c","elianto","#3366ff99"," "," ","1","+10","[1407.7000000476837]","1","2","","","10986","86","5","1","win","go","0"
"pit-trial","205","1311851","0.0-91.0","battery-v0.2","","""event"",""trial"",""time""
""fullscreenenter"",""1"",""6933""
","
","
","""event"",""trial"",""time""
""fullscreenenter"",""1"",""6933""
","
","","","-1","","","14","10986","1189","b","elianto","#f73b6a7A","-1","-1","1","0","[]","0","2","","","10986","87","6","4","lose","no-go","0"
"pit-trial","206","1315373","0.0-92.0","battery-v0.2","","""event"",""trial"",""time""
""fullscreenenter"",""1"",""6933""
","
","
","""event"",""trial"",""time""
""fullscreenenter"",""1"",""6933""
","
","","","666.8000000119209","","","14","10986","1189","z","elianto","#3366ff99","-1"," ","0","0","[1516.9000000357628]","1","2","","","10986","88","4","2","win","no-go","0"
"pit-trial","207","1318786","0.0-93.0","battery-v0.2","","""event"",""trial"",""time""
""fullscreenenter"",""1"",""6933""
","
","
","""event"",""trial"",""time""
""fullscreenenter"",""1"",""6933""
","
","","","559.5","","","14","10986","1189","c","elianto","#3366ff99"," "," ","1","+10","[1409.7999999523163]","1","2","","","10986","89","5","1","win","go","0"
"pit-trial","208","1322142","0.0-94.0","battery-v0.2","","""event"",""trial"",""time""
""fullscreenenter"",""1"",""6933""
","
","
","""event"",""trial"",""time""
""fullscreenenter"",""1"",""6933""
","
","","","501.10000002384186","","","14","10986","1189","z","elianto","#3366ff99","-1"," ","0","0","[1351.5]","1","2","","","10986","90","4","2","win","no-go","0"
"pit-trial","209","1326998","0.0-95.0","battery-v0.2","","""event"",""trial"",""time""
""fullscreenenter"",""1"",""6933""
","
","
","""event"",""trial"",""time""
""fullscreenenter"",""1"",""6933""
","
","","","-1","","","14","10986","1189","t","elianto","#f73b6a7A"," ","-1","0","-10","[]","0","2","","","10986","91","7","3","lose","go","0"
"pit-trial","210","1330407","0.0-96.0","battery-v0.2","","""event"",""trial"",""time""
""fullscreenenter"",""1"",""6933""
","
","
","""event"",""trial"",""time""
""fullscreenenter"",""1"",""6933""
","
","","","554.4000000357628","","","14","10986","1189","b","elianto","#f73b6a7A","-1"," ","0","0","[1404.7000000476837]","1","2","","","10986","92","6","4","lose","no-go","1"
"pit-trial","211","1333766","0.0-97.0","battery-v0.2","","""event"",""trial"",""time""
""fullscreenenter"",""1"",""6933""
","
","
","""event"",""trial"",""time""
""fullscreenenter"",""1"",""6933""
","
","","","501.39999997615814","","","14","10986","1189","c","elianto","#3366ff99"," "," ","1","+10","[1354.5]","1","2","","","10986","93","5","1","win","go","0"
"pit-trial","212","1338621","0.0-98.0","battery-v0.2","","""event"",""trial"",""time""
""fullscreenenter"",""1"",""6933""
","
","
","""event"",""trial"",""time""
""fullscreenenter"",""1"",""6933""
","
","","","-1","","","14","10986","1189","t","elianto","#f73b6a7A"," ","-1","0","-10","[]","0","2","","","10986","94","7","3","lose","go","0"
"pit-trial","213","1341973","0.0-99.0","battery-v0.2","","""event"",""trial"",""time""
""fullscreenenter"",""1"",""6933""
","
","
","""event"",""trial"",""time""
""fullscreenenter"",""1"",""6933""
","
","","","496.69999998807907","","","14","10986","1189","f","elianto","#3366ff99","-1"," ","0","0","[1346.800000011921]","1","2","","","10986","95","8","2","win","no-go","0"
"pit-trial","214","1346829","0.0-100.0","battery-v0.2","","""event"",""trial"",""time""
""fullscreenenter"",""1"",""6933""
","
","
","""event"",""trial"",""time""
""fullscreenenter"",""1"",""6933""
","
","","","-1","","","14","10986","1189","b","elianto","#f73b6a7A","-1","-1","1","0","[]","0","2","","","10986","96","6","4","lose","no-go","0"
"pit-trial","215","1350988","0.0-101.0","battery-v0.2","","""event"",""trial"",""time""
""fullscreenenter"",""1"",""6933""
","
","
","""event"",""trial"",""time""
""fullscreenenter"",""1"",""6933""
","
","","","1304.2000000476837","","","14","10986","1189","b","elianto","#f73b6a7A","-1"," ","0","-10","[2154.5]","1","2","","","10986","97","6","4","lose","no-go","0"
"pit-trial","216","1354335","0.0-102.0","battery-v0.2","","""event"",""trial"",""time""
""fullscreenenter"",""1"",""6933""
","
","
","""event"",""trial"",""time""
""fullscreenenter"",""1"",""6933""
","
","","","487.30000001192093","","","14","10986","1189","f","elianto","#3366ff99","-1"," ","0","0","[1340.9000000357628]","1","2","","","10986","98","8","2","win","no-go","0"
"pit-trial","217","1357655","0.0-103.0","battery-v0.2","","""event"",""trial"",""time""
""fullscreenenter"",""1"",""6933""
","
","
","""event"",""trial"",""time""
""fullscreenenter"",""1"",""6933""
","
","","","464","","","14","10986","1189","c","elianto","#3366ff99"," "," ","1","+10","[1314.300000011921]","1","2","","","10986","99","5","1","win","go","0"
"pit-trial","218","1362511","0.0-104.0","battery-v0.2","","""event"",""trial"",""time""
""fullscreenenter"",""1"",""6933""
","
","
","""event"",""trial"",""time""
""fullscreenenter"",""1"",""6933""
","
","","","-1","","","14","10986","1189","t","elianto","#f73b6a7A"," ","-1","0","0","[]","0","2","","","10986","100","7","3","lose","go","1"
"pit-trial","219","1366038","0.0-105.0","battery-v0.2","","""event"",""trial"",""time""
""fullscreenenter"",""1"",""6933""
","
","
","""event"",""trial"",""time""
""fullscreenenter"",""1"",""6933""
","
","","","671.3000000119209","","","14","10986","1189","n","elianto","#3366ff99","-1"," ","0","+10","[1521.6000000238419]","1","2","","","10986","101","9","2","win","no-go","1"
"pit-trial","220","1369365","0.0-106.0","battery-v0.2","","""event"",""trial"",""time""
""fullscreenenter"",""1"",""6933""
","
","
","""event"",""trial"",""time""
""fullscreenenter"",""1"",""6933""
","
","","","469.10000002384186","","","14","10986","1189","c","elianto","#3366ff99"," "," ","1","+10","[1322.300000011921]","1","2","","","10986","102","5","1","win","go","0"
"pit-trial","221","1372767","0.0-107.0","battery-v0.2","","""event"",""trial"",""time""
""fullscreenenter"",""1"",""6933""
","
","
","""event"",""trial"",""time""
""fullscreenenter"",""1"",""6933""
","
","","","547.1000000238419","","","14","10986","1189","f","elianto","#3366ff99","-1"," ","0","0","[1397.3999999761581]","1","2","","","10986","103","8","2","win","no-go","0"
"pit-trial","222","1377623","0.0-108.0","battery-v0.2","","""event"",""trial"",""time""
""fullscreenenter"",""1"",""6933""
","
","
","""event"",""trial"",""time""
""fullscreenenter"",""1"",""6933""
","
","","","-1","","","14","10986","1189","b","elianto","#f73b6a7A","-1","-1","1","-10","[]","0","2","","","10986","104","6","4","lose","no-go","1"
"pit-trial","223","1381024","0.0-109.0","battery-v0.2","","""event"",""trial"",""time""
""fullscreenenter"",""1"",""6933""
","
","
","""event"",""trial"",""time""
""fullscreenenter"",""1"",""6933""
","
","","","545.8000000119209","","","14","10986","1189","n","elianto","#3366ff99","-1"," ","0","+10","[1396.5]","1","2","","","10986","105","9","2","win","no-go","1"
"pit-trial","224","1384558","0.0-110.0","battery-v0.2","","""event"",""trial"",""time""
""fullscreenenter"",""1"",""6933""
","
","
","""event"",""trial"",""time""
""fullscreenenter"",""1"",""6933""
","
","","","678.8999999761581","","","14","10986","1189","f","elianto","#3366ff99","-1"," ","0","0","[1529]","1","2","","","10986","106","8","2","win","no-go","0"
"pit-trial","225","1387872","0.0-111.0","battery-v0.2","","""event"",""trial"",""time""
""fullscreenenter"",""1"",""6933""
","
","
","""event"",""trial"",""time""
""fullscreenenter"",""1"",""6933""
","
","","","458.7999999523163","","","14","10986","1189","c","elianto","#3366ff99"," "," ","1","0","[1309.0999999642372]","1","2","","","10986","107","5","1","win","go","1"
"pit-trial","226","1392728","0.0-112.0","battery-v0.2","","""event"",""trial"",""time""
""fullscreenenter"",""1"",""6933""
","
","
","""event"",""trial"",""time""
""fullscreenenter"",""1"",""6933""
","
","","","-1","","","14","10986","1189","b","elianto","#f73b6a7A","-1","-1","1","-10","[]","0","2","","","10986","108","6","4","lose","no-go","1"
"pit-trial","227","1396028","0.0-113.0","battery-v0.2","","""event"",""trial"",""time""
""fullscreenenter"",""1"",""6933""
","
","
","""event"",""trial"",""time""
""fullscreenenter"",""1"",""6933""
","
","","","445.30000001192093","","","14","10986","1189","n","elianto","#3366ff99","-1"," ","0","0","[1295.3999999761581]","1","2","","","10986","109","9","2","win","no-go","0"
"pit-trial","228","1399548","0.0-114.0","battery-v0.2","","""event"",""trial"",""time""
""fullscreenenter"",""1"",""6933""
","
","
","""event"",""trial"",""time""
""fullscreenenter"",""1"",""6933""
","
","","","665.3000000119209","","","14","10986","1189","c","elianto","#3366ff99"," "," ","1","+10","[1515.800000011921]","1","2","","","10986","110","5","1","win","go","0"
"pit-trial","229","1403170","0.0-115.0","battery-v0.2","","""event"",""trial"",""time""
""fullscreenenter"",""1"",""6933""
","
","
","""event"",""trial"",""time""
""fullscreenenter"",""1"",""6933""
","
","","","766.1999999880791","","","14","10986","1189","f","elianto","#3366ff99","-1"," ","0","0","[1616.300000011921]","1","2","","","10986","111","8","2","win","no-go","0"
"pit-trial","230","1408025","0.0-116.0","battery-v0.2","","""event"",""trial"",""time""
""fullscreenenter"",""1"",""6933""
","
","
","""event"",""trial"",""time""
""fullscreenenter"",""1"",""6933""
","
","","","-1","","","14","10986","1189","b","elianto","#f73b6a7A","-1","-1","1","0","[]","0","2","","","10986","112","6","4","lose","no-go","0"
"pit-trial","231","1411400","0.0-117.0","battery-v0.2","","""event"",""trial"",""time""
""fullscreenenter"",""1"",""6933""
","
","
","""event"",""trial"",""time""
""fullscreenenter"",""1"",""6933""
","
","","","520.3000000119209","","","14","10986","1189","n","elianto","#3366ff99","-1"," ","0","0","[1370.5]","1","2","","","10986","113","9","2","win","no-go","0"
"pit-trial","232","1414837","0.0-118.0","battery-v0.2","","""event"",""trial"",""time""
""fullscreenenter"",""1"",""6933""
","
","
","""event"",""trial"",""time""
""fullscreenenter"",""1"",""6933""
","
","","","582.1999999880791","","","14","10986","1189","f","elianto","#3366ff99","-1"," ","0","0","[1432.300000011921]","1","2","","","10986","114","8","2","win","no-go","0"
"pit-trial","233","1418196","0.0-119.0","battery-v0.2","","""event"",""trial"",""time""
""fullscreenenter"",""1"",""6933""
","
","
","""event"",""trial"",""time""
""fullscreenenter"",""1"",""6933""
","
","","","503.60000002384186","","","14","10986","1189","c","elianto","#3366ff99"," "," ","1","+10","[1353.5999999642372]","1","2","","","10986","115","5","1","win","go","0"
"pit-trial","234","1423051","0.0-120.0","battery-v0.2","","""event"",""trial"",""time""
""fullscreenenter"",""1"",""6933""
","
","
","""event"",""trial"",""time""
""fullscreenenter"",""1"",""6933""
","
","","","-1","","","14","10986","1189","t","elianto","#f73b6a7A"," ","-1","0","-10","[]","0","2","","","10986","116","7","3","lose","go","0"
"pit-trial","235","1426569","0.0-121.0","battery-v0.2","","""event"",""trial"",""time""
""fullscreenenter"",""1"",""6933""
","
","
","""event"",""trial"",""time""
""fullscreenenter"",""1"",""6933""
","
","","","659.4000000357628","","","14","10986","1189","c","elianto","#3366ff99"," "," ","1","+10","[1511.699999988079]","1","2","","","10986","117","5","1","win","go","0"
"pit-trial","236","1430321","0.0-122.0","battery-v0.2","","""event"",""trial"",""time""
""fullscreenenter"",""1"",""6933""
","
","
","""event"",""trial"",""time""
""fullscreenenter"",""1"",""6933""
","
","","","892.9000000357628","","","14","10986","1189","f","elianto","#3366ff99","-1"," ","0","0","[1747.4000000357628]","1","2","","","10986","118","8","2","win","no-go","0"
"pit-trial","237","1435177","0.0-123.0","battery-v0.2","","""event"",""trial"",""time""
""fullscreenenter"",""1"",""6933""
","
","
","""event"",""trial"",""time""
""fullscreenenter"",""1"",""6933""
","
","","","-1","","","14","10986","1189","b","elianto","#f73b6a7A","-1","-1","1","0","[]","0","2","","","10986","119","6","4","lose","no-go","0"
"pit-trial","238","1438464","0.0-124.0","battery-v0.2","","""event"",""trial"",""time""
""fullscreenenter"",""1"",""6933""
","
","
","""event"",""trial"",""time""
""fullscreenenter"",""1"",""6933""
","
","","","431.2000000476837","","","14","10986","1189","n","elianto","#3366ff99","-1"," ","0","0","[1281.6000000238419,2444.699999988079]","2","2","","","10986","120","9","2","win","no-go","0"
"pit-trial","239","1441794","0.0-125.0","battery-v0.2","","""event"",""trial"",""time""
""fullscreenenter"",""1"",""6933""
","
","
","""event"",""trial"",""time""
""fullscreenenter"",""1"",""6933""
","
","","","474.89999997615814","","","14","10986","1189","c","elianto","#3366ff99"," "," ","1","+10","[1325]","1","2","","","10986","121","5","1","win","go","0"
"pit-trial","240","1446650","0.0-126.0","battery-v0.2","","""event"",""trial"",""time""
""fullscreenenter"",""1"",""6933""
","
","
","""event"",""trial"",""time""
""fullscreenenter"",""1"",""6933""
","
","","","-1","","","14","10986","1189","t","elianto","#f73b6a7A"," ","-1","0","-10","[]","0","2","","","10986","122","7","3","lose","go","0"
"pit-trial","241","1450031","0.0-127.0","battery-v0.2","","""event"",""trial"",""time""
""fullscreenenter"",""1"",""6933""
","
","
","""event"",""trial"",""time""
""fullscreenenter"",""1"",""6933""
","
","","","526.4000000357628","","","14","10986","1189","n","elianto","#3366ff99","-1"," ","0","0","[1376.5]","1","2","","","10986","123","9","2","win","no-go","0"
"pit-trial","242","1453415","0.0-128.0","battery-v0.2","","""event"",""trial"",""time""
""fullscreenenter"",""1"",""6933""
","
","
","""event"",""trial"",""time""
""fullscreenenter"",""1"",""6933""
","
","","","528.9000000357628","","","14","10986","1189","f","elianto","#3366ff99","-1"," ","0","+10","[1379.1000000238419]","1","2","","","10986","124","8","2","win","no-go","1"
"pit-trial","243","1456790","0.0-129.0","battery-v0.2","","""event"",""trial"",""time""
""fullscreenenter"",""1"",""6933""
","
","
","""event"",""trial"",""time""
""fullscreenenter"",""1"",""6933""
","
","","","522.6999999880791","","","14","10986","1189","n","elianto","#3366ff99","-1"," ","0","0","[1372.800000011921]","1","2","","","10986","125","9","2","win","no-go","0"
"pit-trial","244","1461646","0.0-130.0","battery-v0.2","","""event"",""trial"",""time""
""fullscreenenter"",""1"",""6933""
","
","
","""event"",""trial"",""time""
""fullscreenenter"",""1"",""6933""
","
","","","-1","","","14","10986","1189","t","elianto","#f73b6a7A"," ","-1","0","-10","[]","0","2","","","10986","126","7","3","lose","go","0"
"pit-trial","245","1465013","0.0-131.0","battery-v0.2","","""event"",""trial"",""time""
""fullscreenenter"",""1"",""6933""
","
","
","""event"",""trial"",""time""
""fullscreenenter"",""1"",""6933""
","
","","","512.0999999642372","","","14","10986","1189","f","elianto","#3366ff99","-1"," ","0","0","[1362.300000011921]","1","2","","","10986","127","8","2","win","no-go","0"
"pit-trial","246","1469869","0.0-132.0","battery-v0.2","","""event"",""trial"",""time""
""fullscreenenter"",""1"",""6933""
","
","
","""event"",""trial"",""time""
""fullscreenenter"",""1"",""6933""
","
","","","-1","","","14","10986","1189","b","elianto","#f73b6a7A","-1","-1","1","0","[]","0","2","","","10986","128","6","4","lose","no-go","0"
"pit-trial","247","1473628","0.0-133.0","battery-v0.2","","""event"",""trial"",""time""
""fullscreenenter"",""1"",""6933""
","
","
","""event"",""trial"",""time""
""fullscreenenter"",""1"",""6933""
","
","","","903.8000000119209","","","14","10986","1189","f","elianto","#3366ff99","-1"," ","0","+10","[1753.7999999523163]","1","2","","","10986","129","8","2","win","no-go","1"
"pit-trial","248","1478483","0.0-134.0","battery-v0.2","","""event"",""trial"",""time""
""fullscreenenter"",""1"",""6933""
","
","
","""event"",""trial"",""time""
""fullscreenenter"",""1"",""6933""
","
","","","-1","","","14","10986","1189","b","elianto","#f73b6a7A","-1","-1","1","0","[]","0","2","","","10986","130","6","4","lose","no-go","0"
"pit-trial","249","1481930","0.0-135.0","battery-v0.2","","""event"",""trial"",""time""
""fullscreenenter"",""1"",""6933""
","
","
","""event"",""trial"",""time""
""fullscreenenter"",""1"",""6933""
","
","","","590.5999999642372","","","14","10986","1189","t","elianto","#f73b6a7A"," "," ","1","0","[1444]","1","2","","","10986","131","7","3","lose","go","0"
"pit-trial","250","1485414","0.0-136.0","battery-v0.2","","""event"",""trial"",""time""
""fullscreenenter"",""1"",""6933""
","
","
","""event"",""trial"",""time""
""fullscreenenter"",""1"",""6933""
","
","","","628.8999999761581","","","14","10986","1189","n","elianto","#3366ff99","-1"," ","0","0","[1479]","1","2","","","10986","132","9","2","win","no-go","0"
"pit-trial","251","1489691","0.0-137.0","battery-v0.2","","""event"",""trial"",""time""
""fullscreenenter"",""1"",""6933""
","
","
","""event"",""trial"",""time""
""fullscreenenter"",""1"",""6933""
","
","","","1418.800000011921","","","14","10986","1189","f","elianto","#3366ff99","-1"," ","0","+10","[2272.199999988079]","1","2","","","10986","133","8","2","win","no-go","1"
"pit-trial","252","1494547","0.0-138.0","battery-v0.2","","""event"",""trial"",""time""
""fullscreenenter"",""1"",""6933""
","
","
","""event"",""trial"",""time""
""fullscreenenter"",""1"",""6933""
","
","","","-1","","","14","10986","1189","b","elianto","#f73b6a7A","-1","-1","1","0","[]","0","2","","","10986","134","6","4","lose","no-go","0"
"pit-trial","253","1499402","0.0-139.0","battery-v0.2","","""event"",""trial"",""time""
""fullscreenenter"",""1"",""6933""
","
","
","""event"",""trial"",""time""
""fullscreenenter"",""1"",""6933""
","
","","","-1","","","14","10986","1189","t","elianto","#f73b6a7A"," ","-1","0","-10","[]","0","2","","","10986","135","7","3","lose","go","0"
"pit-trial","254","1502721","0.0-140.0","battery-v0.2","","""event"",""trial"",""time""
""fullscreenenter"",""1"",""6933""
","
","
","""event"",""trial"",""time""
""fullscreenenter"",""1"",""6933""
","
","","","463.7999999523163","","","14","10986","1189","n","elianto","#3366ff99","-1"," ","0","0","[1313.8999999761581]","1","2","","","10986","136","9","2","win","no-go","0"
"pit-trial","255","1507577","0.0-141.0","battery-v0.2","","""event"",""trial"",""time""
""fullscreenenter"",""1"",""6933""
","
","
","""event"",""trial"",""time""
""fullscreenenter"",""1"",""6933""
","
","","","-1","","","14","10986","1189","t","elianto","#f73b6a7A"," ","-1","0","-10","[]","0","2","","","10986","137","7","3","lose","go","0"
"pit-trial","256","1511445","0.0-142.0","battery-v0.2","","""event"",""trial"",""time""
""fullscreenenter"",""1"",""6933""
","
","
","""event"",""trial"",""time""
""fullscreenenter"",""1"",""6933""
","
","","","1013.1999999880791","","","14","10986","1189","n","elianto","#3366ff99","-1"," ","0","0","[1863.3999999761581]","1","2","","","10986","138","9","2","win","no-go","0"
"pit-trial","257","1516301","0.0-143.0","battery-v0.2","","""event"",""trial"",""time""
""fullscreenenter"",""1"",""6933""
","
","
","""event"",""trial"",""time""
""fullscreenenter"",""1"",""6933""
","
","","","-1","","","14","10986","1189","b","elianto","#f73b6a7A","-1","-1","1","0","[]","0","2","","","10986","139","6","4","lose","no-go","0"
"pit-trial","258","1519608","0.0-144.0","battery-v0.2","","""event"",""trial"",""time""
""fullscreenenter"",""1"",""6933""
","
","
","""event"",""trial"",""time""
""fullscreenenter"",""1"",""6933""
","
","","","453.5","","","14","10986","1189","f","elianto","#3366ff99","-1"," ","0","0","[1303.6000000238419]","1","2","","","10986","140","8","2","win","no-go","0"
"pit-instructions","259","1567204","0.0-145.0","battery-v0.2","","""event"",""trial"",""time""
""fullscreenenter"",""1"",""6933""
","
","
","""event"",""trial"",""time""
""fullscreenenter"",""1"",""6933""
","
","","[{""page_index"":0,""viewing_time"":38976.19999998808},{""page_index"":1,""viewing_time"":8617.100000023842}]","47594.39999997616","","","","","","","","","","","","","","","","","","","","","","","",""
"pit-trial","260","1570801","0.0-146.0","battery-v0.2","","""event"",""trial"",""time""
""fullscreenenter"",""1"",""6933""
","
","
","""event"",""trial"",""time""
""fullscreenenter"",""1"",""6933""
","
","","","731.3999999761581","","","14","10986","1189","l","elianto","#3366ff99","-1"," ","0","0","[1584.1000000238419]","1","3","","","10986","141","1","2","win","no-go","0"
"pit-trial","261","1574193","0.0-147.0","battery-v0.2","","""event"",""trial"",""time""
""fullscreenenter"",""1"",""6933""
","
","
","""event"",""trial"",""time""
""fullscreenenter"",""1"",""6933""
","
","","","537.3000000119209","","","14","10986","1189","u","elianto","#f73b6a7A"," "," ","1","0","[1387.3999999761581]","1","3","","","10986","142","0","3","lose","go","0"
"pit-trial","262","1579049","0.0-148.0","battery-v0.2","","""event"",""trial"",""time""
""fullscreenenter"",""1"",""6933""
","
","
","""event"",""trial"",""time""
""fullscreenenter"",""1"",""6933""
","
","","","-1","","","14","10986","1189","g","elianto","#f73b6a7A","-1","-1","1","0","[]","0","3","","","10986","143","3","4","lose","no-go","0"
"pit-trial","263","1582461","0.0-149.0","battery-v0.2","","""event"",""trial"",""time""
""fullscreenenter"",""1"",""6933""
","
","
","""event"",""trial"",""time""
""fullscreenenter"",""1"",""6933""
","
","","","557.1999999880791","","","14","10986","1189","a","elianto","#f73b6a7A"," "," ","1","0","[1407.3999999761581]","1","3","","","10986","144","2","3","lose","go","0"
"pit-trial","264","1585854","0.0-150.0","battery-v0.2","","""event"",""trial"",""time""
""fullscreenenter"",""1"",""6933""
","
","
","""event"",""trial"",""time""
""fullscreenenter"",""1"",""6933""
","
","","","536.8000000119209","","","14","10986","1189","a","elianto","#f73b6a7A"," "," ","1","0","[1387.1000000238419]","1","3","","","10986","145","2","3","lose","go","0"
"pit-trial","265","1589239","0.0-151.0","battery-v0.2","","""event"",""trial"",""time""
""fullscreenenter"",""1"",""6933""
","
","
","""event"",""trial"",""time""
