"trial_type","trial_index","time_elapsed","internal_node_id","task_version","subject_id","interactions","blur_events","focus_events","fullscreenenter_events","fullscreenexit_events","success","view_history","rt","responses","num_errors","age","subject","participantId","rune","rune_set","hex","correct","choice","accuracy","outcome","keys","total_keys","block","practice","value","sub","trial","stimulus","robot","valence","action","sham"
"pavlovia","0","20","0.0-0.0","battery-v0.2","","""event"",""trial"",""time""
""fullscreenenter"",""1"",""3422""
","
","
","""event"",""trial"",""time""
""fullscreenenter"",""1"",""3422""
","
","","","","","","","","","","","","","","","","","","","","","","","","","","",""
"fullscreen","1","4399","0.0-1.0","battery-v0.2","","""event"",""trial"",""time""
""fullscreenenter"",""1"",""3422""
","
","
","""event"",""trial"",""time""
""fullscreenenter"",""1"",""3422""
","
","true","","","","","","","","","","","","","","","","","","","","","","","","","",""
"pit-instructions","2","10774","0.0-2.0-0.0","battery-v0.2","","""event"",""trial"",""time""
""fullscreenenter"",""1"",""3422""
","
","
","""event"",""trial"",""time""
""fullscreenenter"",""1"",""3422""
","
","","[{""page_index"":0,""viewing_time"":6370.600000023842}]","6371","","","","","","","","","","","","","","","","","","","","","","","",""
"pit-comprehension","3","14288","0.0-2.0-1.0-0.0","battery-v0.2","","""event"",""trial"",""time""
""fullscreenenter"",""1"",""3422""
","
","
","""event"",""trial"",""time""
""fullscreenenter"",""1"",""3422""
","
","","","3510.099999964237","[""shark""]","0","20","10837","392","","","","","","","","","","","","","","","","","","",""
"pit-instructions","4","15874","0.0-2.0-1.0-1.0","battery-v0.2","","""event"",""trial"",""time""
""fullscreenenter"",""1"",""3422""
","
","
","""event"",""trial"",""time""
""fullscreenenter"",""1"",""3422""
","
","","[{""page_index"":0,""viewing_time"":1577.699999988079}]","1578","","","","","","","","","","","","","","","","","","","","","","","",""
"pit-comprehension","5","18294","0.0-2.0-2.0-0.0","battery-v0.2","","""event"",""trial"",""time""
""fullscreenenter"",""1"",""3422""
","
","
","""event"",""trial"",""time""
""fullscreenenter"",""1"",""3422""
","
","","","2416.099999964237","[""tiger""]","0","20","10837","392","","","","","","","","","","","","","","","","","","",""
"pit-instructions","6","18951","0.0-2.0-2.0-1.0","battery-v0.2","","""event"",""trial"",""time""
""fullscreenenter"",""1"",""3422""
""blur"",""7"",""649451""
""focus"",""7"",""2395634""
","""event"",""trial"",""time""
""blur"",""7"",""649451""
","""event"",""trial"",""time""
""focus"",""7"",""2395634""
","""event"",""trial"",""time""
""fullscreenenter"",""1"",""3422""
","
","","[{""page_index"":0,""viewing_time"":654.3000000119209}]","654.5","","","","","","","","","","","","","","","","","","","","","","","",""
"pit-instructions","7","2504517","0.0-2.0-3.0","battery-v0.2","","""event"",""trial"",""time""
""fullscreenenter"",""1"",""3422""
""blur"",""7"",""649451""
""focus"",""7"",""2395634""
","""event"",""trial"",""time""
""blur"",""7"",""649451""
","""event"",""trial"",""time""
""focus"",""7"",""2395634""
","""event"",""trial"",""time""
""fullscreenenter"",""1"",""3422""
","
","","[{""page_index"":0,""viewing_time"":9160.800000011921},{""page_index"":1,""viewing_time"":5893.600000023842},{""page_index"":2,""viewing_time"":1811271.3999999762},{""page_index"":3,""viewing_time"":11846.300000011921},{""page_index"":4,""viewing_time"":8583.599999964237},{""page_index"":5,""viewing_time"":9177.200000047684},{""page_index"":6,""viewing_time"":9350.099999964237},{""page_index"":7,""viewing_time"":8614.100000023842},{""page_index"":8,""viewing_time"":17604.5},{""page_index"":9,""viewing_time"":9044.300000011921},{""page_index"":10,""viewing_time"":9912.599999964237},{""page_index"":11,""viewing_time"":7917.5},{""page_index"":12,""viewing_time"":6865.100000023842},{""page_index"":13,""viewing_time"":4885.899999976158}]","1930127.300000012","","","","","","","","","","","","","","","","","","","","","","","",""
"pit-trial","8","2507832","0.0-2.0-4.0-0.0","battery-v0.2","","""event"",""trial"",""time""
""fullscreenenter"",""1"",""3422""
""blur"",""7"",""649451""
""focus"",""7"",""2395634""
","""event"",""trial"",""time""
""blur"",""7"",""649451""
","""event"",""trial"",""time""
""focus"",""7"",""2395634""
","""event"",""trial"",""time""
""fullscreenenter"",""1"",""3422""
","
","","","457.69999998807907","","","20","10837","392","&#9784;","elianto","#FFFFF080"," "," ","1","&#10004","[1308.199999988079,3145.800000011921]","2","0","0","","","","","","","",""
"pit-trial","9","2512244","0.0-2.0-4.1-0.1","battery-v0.2","","""event"",""trial"",""time""
""fullscreenenter"",""1"",""3422""
""blur"",""7"",""649451""
""focus"",""7"",""2395634""
","""event"",""trial"",""time""
""blur"",""7"",""649451""
","""event"",""trial"",""time""
""focus"",""7"",""2395634""
","""event"",""trial"",""time""
""fullscreenenter"",""1"",""3422""
","
","","","1551.5999999642372","","","20","10837","392","&#9784;","elianto","#FFFFF080"," "," ","1","&#10004","[2404]","1","0","0","","","","","","","",""
"pit-trial","10","2515779","0.0-2.0-4.2-0.2","battery-v0.2","","""event"",""trial"",""time""
""fullscreenenter"",""1"",""3422""
""blur"",""7"",""649451""
""focus"",""7"",""2395634""
","""event"",""trial"",""time""
""blur"",""7"",""649451""
","""event"",""trial"",""time""
""focus"",""7"",""2395634""
","""event"",""trial"",""time""
""fullscreenenter"",""1"",""3422""
","
","","","675.8999999761581","","","20","10837","392","&#9784;","elianto","#FFFFF080"," "," ","1","&#10004","[142.39999997615814,1528.699999988079]","2","0","0","","","","","","","",""
"pit-trial","11","2519272","0.0-2.0-4.3-0.3","battery-v0.2","","""event"",""trial"",""time""
""fullscreenenter"",""1"",""3422""
""blur"",""7"",""649451""
""focus"",""7"",""2395634""
","""event"",""trial"",""time""
""blur"",""7"",""649451""
","""event"",""trial"",""time""
""focus"",""7"",""2395634""
","""event"",""trial"",""time""
""fullscreenenter"",""1"",""3422""
","
","","","634.8999999761581","","","20","10837","392","&#9784;","elianto","#FFFFF080"," "," ","1","&#10004","[1485.800000011921]","1","0","0","","","","","","","",""
"pit-trial","12","2523181","0.0-2.0-4.4-0.4","battery-v0.2","","""event"",""trial"",""time""
""fullscreenenter"",""1"",""3422""
""blur"",""7"",""649451""
""focus"",""7"",""2395634""
","""event"",""trial"",""time""
""blur"",""7"",""649451""
","""event"",""trial"",""time""
""focus"",""7"",""2395634""
","""event"",""trial"",""time""
""fullscreenenter"",""1"",""3422""
","
","","","1053.8999999761581","","","20","10837","392","&#9784;","elianto","#FFFFF080"," "," ","1","&#10004","[1904.300000011921]","1","0","0","","","","","","","",""
"pit-instructions","13","2547531","0.0-2.0-5.0","battery-v0.2","","""event"",""trial"",""time""
""fullscreenenter"",""1"",""3422""
""blur"",""7"",""649451""
""focus"",""7"",""2395634""
","""event"",""trial"",""time""
""blur"",""7"",""649451""
","""event"",""trial"",""time""
""focus"",""7"",""2395634""
","""event"",""trial"",""time""
""fullscreenenter"",""1"",""3422""
","
","","[{""page_index"":0,""viewing_time"":7822.300000011921},{""page_index"":1,""viewing_time"":6648.199999988079},{""page_index"":2,""viewing_time"":4343.899999976158},{""page_index"":3,""viewing_time"":5530.600000023842}]","24345.399999976158","","","","","","","","","","","","","","","","","","","","","","","",""
"pit-trial","14","2552389","0.0-2.0-6.0-0.0","battery-v0.2","","""event"",""trial"",""time""
""fullscreenenter"",""1"",""3422""
""blur"",""7"",""649451""
""focus"",""7"",""2395634""
","""event"",""trial"",""time""
""blur"",""7"",""649451""
","""event"",""trial"",""time""
""focus"",""7"",""2395634""
","""event"",""trial"",""time""
""fullscreenenter"",""1"",""3422""
","
","","","-1","","","20","10837","392","&#9854;","elianto","#FFFFF080","-1","-1","1","&#10004","[]","0","0","1","","","","","","","",""
"pit-trial","15","2557249","0.0-2.0-6.1-0.1","battery-v0.2","","""event"",""trial"",""time""
""fullscreenenter"",""1"",""3422""
""blur"",""7"",""649451""
""focus"",""7"",""2395634""
","""event"",""trial"",""time""
""blur"",""7"",""649451""
","""event"",""trial"",""time""
""focus"",""7"",""2395634""
","""event"",""trial"",""time""
""fullscreenenter"",""1"",""3422""
","
","","","-1","","","20","10837","392","&#9854;","elianto","#FFFFF080","-1","-1","1","&#10004","[]","0","0","1","","","","","","","",""
"pit-trial","16","2562111","0.0-2.0-6.2-0.2","battery-v0.2","","""event"",""trial"",""time""
""fullscreenenter"",""1"",""3422""
""blur"",""7"",""649451""
""focus"",""7"",""2395634""
","""event"",""trial"",""time""
""blur"",""7"",""649451""
","""event"",""trial"",""time""
""focus"",""7"",""2395634""
","""event"",""trial"",""time""
""fullscreenenter"",""1"",""3422""
","
","","","-1","","","20","10837","392","&#9854;","elianto","#FFFFF080","-1","-1","1","&#10004","[]","0","0","1","","","","","","","",""
"pit-trial","17","2566970","0.0-2.0-6.3-0.3","battery-v0.2","","""event"",""trial"",""time""
""fullscreenenter"",""1"",""3422""
""blur"",""7"",""649451""
""focus"",""7"",""2395634""
","""event"",""trial"",""time""
""blur"",""7"",""649451""
","""event"",""trial"",""time""
""focus"",""7"",""2395634""
","""event"",""trial"",""time""
""fullscreenenter"",""1"",""3422""
","
","","","-1","","","20","10837","392","&#9854;","elianto","#FFFFF080","-1","-1","1","&#10004","[]","0","0","1","","","","","","","",""
"pit-trial","18","2571826","0.0-2.0-6.4-0.4","battery-v0.2","","""event"",""trial"",""time""
""fullscreenenter"",""1"",""3422""
""blur"",""7"",""649451""
""focus"",""7"",""2395634""
","""event"",""trial"",""time""
""blur"",""7"",""649451""
","""event"",""trial"",""time""
""focus"",""7"",""2395634""
","""event"",""trial"",""time""
""fullscreenenter"",""1"",""3422""
","
","","","-1","","","20","10837","392","&#9854;","elianto","#FFFFF080","-1","-1","1","&#10004","[]","0","0","1","","","","","","","",""
"pit-instructions","19","2704511","0.0-2.0-7.0","battery-v0.2","","""event"",""trial"",""time""
""fullscreenenter"",""1"",""3422""
""blur"",""7"",""649451""
""focus"",""7"",""2395634""
","""event"",""trial"",""time""
""blur"",""7"",""649451""
","""event"",""trial"",""time""
""focus"",""7"",""2395634""
","""event"",""trial"",""time""
""fullscreenenter"",""1"",""3422""
","
","","[{""page_index"":0,""viewing_time"":8300.5},{""page_index"":1,""viewing_time"":8779.199999988079},{""page_index"":2,""viewing_time"":8431.100000023842},{""page_index"":3,""viewing_time"":7368.199999988079},{""page_index"":4,""viewing_time"":7306.900000035763},{""page_index"":5,""viewing_time"":9169.299999952316},{""page_index"":6,""viewing_time"":5321},{""page_index"":7,""viewing_time"":8429.5},{""page_index"":8,""viewing_time"":6940.5},{""page_index"":9,""viewing_time"":6716.400000035763},{""page_index"":10,""viewing_time"":6853.800000011921},{""page_index"":11,""viewing_time"":6370.899999976158},{""page_index"":12,""viewing_time"":7653.5},{""page_index"":13,""viewing_time"":6801.199999988079},{""page_index"":14,""viewing_time"":8178.800000011921},{""page_index"":15,""viewing_time"":6503.600000023842},{""page_index"":16,""viewing_time"":6567.299999952316},{""page_index"":17,""viewing_time"":6988.400000035763}]","132680.69999998808","","","","","","","","","","","","","","","","","","","","","","","",""
"pit-trial","20","2708025","0.0-2.0-8.0-0.0","battery-v0.2","","""event"",""trial"",""time""
""fullscreenenter"",""1"",""3422""
""blur"",""7"",""649451""
""focus"",""7"",""2395634""
","""event"",""trial"",""time""
""blur"",""7"",""649451""
","""event"",""trial"",""time""
""focus"",""7"",""2395634""
","""event"",""trial"",""time""
""fullscreenenter"",""1"",""3422""
","
","","","653.3999999761581","","","20","10837","392","&#9776;","elianto","#3366ff99"," "," ","1","+10","[1506.6000000238419]","1","0","1","","","","","","","",""
"pit-trial","21","2711268","0.0-2.0-8.0-1.0","battery-v0.2","","""event"",""trial"",""time""
""fullscreenenter"",""1"",""3422""
""blur"",""7"",""649451""
""focus"",""7"",""2395634""
","""event"",""trial"",""time""
""blur"",""7"",""649451""
","""event"",""trial"",""time""
""focus"",""7"",""2395634""
","""event"",""trial"",""time""
""fullscreenenter"",""1"",""3422""
","
","","","386","","","20","10837","392","&#9776;","elianto","#3366ff99"," "," ","1","+10","[1238.5]","1","0","1","","","","","","","",""
"pit-trial","22","2714628","0.0-2.0-8.0-2.0","battery-v0.2","","""event"",""trial"",""time""
""fullscreenenter"",""1"",""3422""
""blur"",""7"",""649451""
""focus"",""7"",""2395634""
","""event"",""trial"",""time""
""blur"",""7"",""649451""
","""event"",""trial"",""time""
""focus"",""7"",""2395634""
","""event"",""trial"",""time""
""fullscreenenter"",""1"",""3422""
","
","","","504.5999999642372","","","20","10837","392","&#9776;","elianto","#3366ff99"," "," ","1","+10","[1355.300000011921]","1","0","1","","","","","","","",""
"pit-trial","23","2718120","0.0-2.0-8.0-3.0","battery-v0.2","","""event"",""trial"",""time""
""fullscreenenter"",""1"",""3422""
""blur"",""7"",""649451""
""focus"",""7"",""2395634""
","""event"",""trial"",""time""
""blur"",""7"",""649451""
","""event"",""trial"",""time""
""focus"",""7"",""2395634""
","""event"",""trial"",""time""
""fullscreenenter"",""1"",""3422""
","
","","","637.5","","","20","10837","392","&#9776;","elianto","#3366ff99"," "," ","1","0","[1488.2999999523163]","1","0","1","","","","","","","",""
"pit-trial","24","2721600","0.0-2.0-8.0-4.0","battery-v0.2","","""event"",""trial"",""time""
""fullscreenenter"",""1"",""3422""
""blur"",""7"",""649451""
""focus"",""7"",""2395634""
","""event"",""trial"",""time""
""blur"",""7"",""649451""
","""event"",""trial"",""time""
""focus"",""7"",""2395634""
","""event"",""trial"",""time""
""fullscreenenter"",""1"",""3422""
","
","","","624.6999999880791","","","20","10837","392","&#9776;","elianto","#3366ff99"," "," ","1","+10","[1476.0999999642372]","1","0","1","","","","","","","",""
"pit-trial","25","2724944","0.0-2.0-8.1-0.1","battery-v0.2","","""event"",""trial"",""time""
""fullscreenenter"",""1"",""3422""
""blur"",""7"",""649451""
""focus"",""7"",""2395634""
","""event"",""trial"",""time""
""blur"",""7"",""649451""
","""event"",""trial"",""time""
""focus"",""7"",""2395634""
","""event"",""trial"",""time""
""fullscreenenter"",""1"",""3422""
","
","","","486.7999999523163","","","20","10837","392","&#9776;","elianto","#3366ff99"," "," ","1","+10","[1337.8999999761581]","1","0","1","","","","","","","",""
"pit-trial","26","2728340","0.0-2.0-8.1-1.1","battery-v0.2","","""event"",""trial"",""time""
""fullscreenenter"",""1"",""3422""
""blur"",""7"",""649451""
""focus"",""7"",""2395634""
","""event"",""trial"",""time""
""blur"",""7"",""649451""
","""event"",""trial"",""time""
""focus"",""7"",""2395634""
","""event"",""trial"",""time""
""fullscreenenter"",""1"",""3422""
","
","","","535.6999999880791","","","20","10837","392","&#9776;","elianto","#3366ff99"," "," ","1","+10","[1388.7000000476837]","1","0","1","","","","","","","",""
"pit-trial","27","2732085","0.0-2.0-8.1-2.1","battery-v0.2","","""event"",""trial"",""time""
""fullscreenenter"",""1"",""3422""
""blur"",""7"",""649451""
""focus"",""7"",""2395634""
","""event"",""trial"",""time""
""blur"",""7"",""649451""
","""event"",""trial"",""time""
""focus"",""7"",""2395634""
","""event"",""trial"",""time""
""fullscreenenter"",""1"",""3422""
","
","","","887.5","","","20","10837","392","&#9776;","elianto","#3366ff99"," "," ","1","+10","[1739.9000000357628]","1","0","1","","","","","","","",""
"pit-trial","28","2735404","0.0-2.0-8.1-3.1","battery-v0.2","","""event"",""trial"",""time""
""fullscreenenter"",""1"",""3422""
""blur"",""7"",""649451""
""focus"",""7"",""2395634""
","""event"",""trial"",""time""
""blur"",""7"",""649451""
","""event"",""trial"",""time""
""focus"",""7"",""2395634""
","""event"",""trial"",""time""
""fullscreenenter"",""1"",""3422""
","
","","","463.10000002384186","","","20","10837","392","&#9776;","elianto","#3366ff99"," "," ","1","0","[1314.800000011921]","1","0","1","","","","","","","",""
"pit-trial","29","2738967","0.0-2.0-8.1-4.1","battery-v0.2","","""event"",""trial"",""time""
""fullscreenenter"",""1"",""3422""
""blur"",""7"",""649451""
""focus"",""7"",""2395634""
","""event"",""trial"",""time""
""blur"",""7"",""649451""
","""event"",""trial"",""time""
""focus"",""7"",""2395634""
","""event"",""trial"",""time""
""fullscreenenter"",""1"",""3422""
","
","","","708","","","20","10837","392","&#9776;","elianto","#3366ff99"," "," ","1","+10","[1559.2999999523163]","1","0","1","","","","","","","",""
"pit-trial","30","2742263","0.0-2.0-8.2-0.2","battery-v0.2","","""event"",""trial"",""time""
""fullscreenenter"",""1"",""3422""
""blur"",""7"",""649451""
""focus"",""7"",""2395634""
","""event"",""trial"",""time""
""blur"",""7"",""649451""
","""event"",""trial"",""time""
""focus"",""7"",""2395634""
","""event"",""trial"",""time""
""fullscreenenter"",""1"",""3422""
","
","","","437.19999998807907","","","20","10837","392","&#9776;","elianto","#3366ff99"," "," ","1","+10","[1288.5]","1","0","1","","","","","","","",""
"pit-trial","31","2745391","0.0-2.0-8.2-1.2","battery-v0.2","","""event"",""trial"",""time""
""fullscreenenter"",""1"",""3422""
""blur"",""7"",""649451""
""focus"",""7"",""2395634""
","""event"",""trial"",""time""
""blur"",""7"",""649451""
","""event"",""trial"",""time""
""focus"",""7"",""2395634""
","""event"",""trial"",""time""
""fullscreenenter"",""1"",""3422""
","
","","","271.10000002384186","","","20","10837","392","&#9776;","elianto","#3366ff99"," "," ","1","+10","[1122]","1","0","1","","","","","","","",""
"pit-trial","32","2748807","0.0-2.0-8.2-2.2","battery-v0.2","","""event"",""trial"",""time""
""fullscreenenter"",""1"",""3422""
""blur"",""7"",""649451""
""focus"",""7"",""2395634""
","""event"",""trial"",""time""
""blur"",""7"",""649451""
","""event"",""trial"",""time""
""focus"",""7"",""2395634""
","""event"",""trial"",""time""
""fullscreenenter"",""1"",""3422""
","
","","","556.5","","","20","10837","392","&#9776;","elianto","#3366ff99"," "," ","1","+10","[1408.1000000238419]","1","0","1","","","","","","","",""
"pit-trial","33","2751916","0.0-2.0-8.2-3.2","battery-v0.2","","""event"",""trial"",""time""
""fullscreenenter"",""1"",""3422""
""blur"",""7"",""649451""
""focus"",""7"",""2395634""
","""event"",""trial"",""time""
""blur"",""7"",""649451""
","""event"",""trial"",""time""
""focus"",""7"",""2395634""
","""event"",""trial"",""time""
""fullscreenenter"",""1"",""3422""
","
","","","253.5","","","20","10837","392","&#9776;","elianto","#3366ff99"," "," ","1","0","[1105.7999999523163]","1","0","1","","","","","","","",""
"pit-trial","34","2755612","0.0-2.0-8.2-4.2","battery-v0.2","","""event"",""trial"",""time""
""fullscreenenter"",""1"",""3422""
""blur"",""7"",""649451""
""focus"",""7"",""2395634""
","""event"",""trial"",""time""
""blur"",""7"",""649451""
","""event"",""trial"",""time""
""focus"",""7"",""2395634""
","""event"",""trial"",""time""
""fullscreenenter"",""1"",""3422""
","
","","","838.3000000119209","","","20","10837","392","&#9776;","elianto","#3366ff99"," "," ","1","+10","[1688.8999999761581]","1","0","1","","","","","","","",""
"call-function","35","2755614","0.0-2.0-9.0","battery-v0.2","","""event"",""trial"",""time""
""fullscreenenter"",""1"",""3422""
""blur"",""7"",""649451""
""focus"",""7"",""2395634""
","""event"",""trial"",""time""
""blur"",""7"",""649451""
","""event"",""trial"",""time""
""focus"",""7"",""2395634""
","""event"",""trial"",""time""
""fullscreenenter"",""1"",""3422""
","
","","","","","","","","","","","","","","","","","","","","","","","","","","",""
"pit-instructions","36","2796273","0.0-2.0-10.0","battery-v0.2","","""event"",""trial"",""time""
""fullscreenenter"",""1"",""3422""
""blur"",""7"",""649451""
""focus"",""7"",""2395634""
","""event"",""trial"",""time""
""blur"",""7"",""649451""
","""event"",""trial"",""time""
""focus"",""7"",""2395634""
","""event"",""trial"",""time""
""fullscreenenter"",""1"",""3422""
","
","","[{""page_index"":0,""viewing_time"":6315.600000023842},{""page_index"":1,""viewing_time"":7440.799999952316},{""page_index"":2,""viewing_time"":10089.300000011921},{""page_index"":3,""viewing_time"":8684.100000023842},{""page_index"":4,""viewing_time"":8127.800000011921}]","40657.89999997616","","","","","","","","","","","","","","","","","","","","","","","",""
"pit-trial","37","2799737","0.0-2.0-11.0-0.0","battery-v0.2","","""event"",""trial"",""time""
""fullscreenenter"",""1"",""3422""
""blur"",""7"",""649451""
""focus"",""7"",""2395634""
","""event"",""trial"",""time""
""blur"",""7"",""649451""
","""event"",""trial"",""time""
""focus"",""7"",""2395634""
","""event"",""trial"",""time""
""fullscreenenter"",""1"",""3422""
","
","","","610.6999999880791","","","20","10837","392","&#9761;","elianto","#3366ff99","-1"," ","0","0","[1460.8999999761581]","1","0","2","","","","","","","",""
"pit-trial","38","2802952","0.0-2.0-11.0-1.0","battery-v0.2","","""event"",""trial"",""time""
""fullscreenenter"",""1"",""3422""
""blur"",""7"",""649451""
""focus"",""7"",""2395634""
","""event"",""trial"",""time""
""blur"",""7"",""649451""
","""event"",""trial"",""time""
""focus"",""7"",""2395634""
","""event"",""trial"",""time""
""fullscreenenter"",""1"",""3422""
","
","","","356.30000001192093","","","20","10837","392","&#9761;","elianto","#3366ff99","-1"," ","0","0","[1207.699999988079]","1","0","2","","","","","","","",""
"pit-trial","39","2807809","0.0-2.0-11.0-2.0","battery-v0.2","","""event"",""trial"",""time""
""fullscreenenter"",""1"",""3422""
""blur"",""7"",""649451""
""focus"",""7"",""2395634""
","""event"",""trial"",""time""
""blur"",""7"",""649451""
","""event"",""trial"",""time""
""focus"",""7"",""2395634""
","""event"",""trial"",""time""
""fullscreenenter"",""1"",""3422""
","
","","","-1","","","20","10837","392","&#9761;","elianto","#3366ff99","-1","-1","1","+10","[]","0","0","2","","","","","","","",""
"pit-trial","40","2812670","0.0-2.0-11.0-3.0","battery-v0.2","","""event"",""trial"",""time""
""fullscreenenter"",""1"",""3422""
""blur"",""7"",""649451""
""focus"",""7"",""2395634""
","""event"",""trial"",""time""
""blur"",""7"",""649451""
","""event"",""trial"",""time""
""focus"",""7"",""2395634""
","""event"",""trial"",""time""
""fullscreenenter"",""1"",""3422""
","
","","","-1","","","20","10837","392","&#9761;","elianto","#3366ff99","-1","-1","1","0","[]","0","0","2","","","","","","","",""
"pit-trial","41","2817530","0.0-2.0-11.0-4.0","battery-v0.2","","""event"",""trial"",""time""
""fullscreenenter"",""1"",""3422""
""blur"",""7"",""649451""
""focus"",""7"",""2395634""
","""event"",""trial"",""time""
""blur"",""7"",""649451""
","""event"",""trial"",""time""
""focus"",""7"",""2395634""
","""event"",""trial"",""time""
""fullscreenenter"",""1"",""3422""
","
","","","-1","","","20","10837","392","&#9761;","elianto","#3366ff99","-1","-1","1","+10","[]","0","0","2","","","","","","","",""
"pit-trial","42","2822384","0.0-2.0-11.1-0.1","battery-v0.2","","""event"",""trial"",""time""
""fullscreenenter"",""1"",""3422""
""blur"",""7"",""649451""
""focus"",""7"",""2395634""
","""event"",""trial"",""time""
""blur"",""7"",""649451""
","""event"",""trial"",""time""
""focus"",""7"",""2395634""
","""event"",""trial"",""time""
""fullscreenenter"",""1"",""3422""
","
","","","-1","","","20","10837","392","&#9761;","elianto","#3366ff99","-1","-1","1","+10","[]","0","0","2","","","","","","","",""
"pit-trial","43","2827243","0.0-2.0-11.1-1.1","battery-v0.2","","""event"",""trial"",""time""
""fullscreenenter"",""1"",""3422""
""blur"",""7"",""649451""
""focus"",""7"",""2395634""
","""event"",""trial"",""time""
""blur"",""7"",""649451""
","""event"",""trial"",""time""
""focus"",""7"",""2395634""
","""event"",""trial"",""time""
""fullscreenenter"",""1"",""3422""
","
","","","-1","","","20","10837","392","&#9761;","elianto","#3366ff99","-1","-1","1","+10","[]","0","0","2","","","","","","","",""
"pit-trial","44","2832101","0.0-2.0-11.1-2.1","battery-v0.2","","""event"",""trial"",""time""
""fullscreenenter"",""1"",""3422""
""blur"",""7"",""649451""
""focus"",""7"",""2395634""
","""event"",""trial"",""time""
""blur"",""7"",""649451""
","""event"",""trial"",""time""
""focus"",""7"",""2395634""
","""event"",""trial"",""time""
""fullscreenenter"",""1"",""3422""
","
","","","-1","","","20","10837","392","&#9761;","elianto","#3366ff99","-1","-1","1","+10","[]","0","0","2","","","","","","","",""
"pit-trial","45","2836960","0.0-2.0-11.1-3.1","battery-v0.2","","""event"",""trial"",""time""
""fullscreenenter"",""1"",""3422""
""blur"",""7"",""649451""
""focus"",""7"",""2395634""
","""event"",""trial"",""time""
""blur"",""7"",""649451""
","""event"",""trial"",""time""
""focus"",""7"",""2395634""
","""event"",""trial"",""time""
""fullscreenenter"",""1"",""3422""
","
","","","-1","","","20","10837","392","&#9761;","elianto","#3366ff99","-1","-1","1","0","[]","0","0","2","","","","","","","",""
"pit-trial","46","2841819","0.0-2.0-11.1-4.1","battery-v0.2","","""event"",""trial"",""time""
""fullscreenenter"",""1"",""3422""
""blur"",""7"",""649451""
""focus"",""7"",""2395634""
","""event"",""trial"",""time""
""blur"",""7"",""649451""
","""event"",""trial"",""time""
""focus"",""7"",""2395634""
","""event"",""trial"",""time""
""fullscreenenter"",""1"",""3422""
","
","","","-1","","","20","10837","392","&#9761;","elianto","#3366ff99","-1","-1","1","+10","[]","0","0","2","","","","","","","",""
"pit-trial","47","2846678","0.0-2.0-11.2-0.2","battery-v0.2","","""event"",""trial"",""time""
""fullscreenenter"",""1"",""3422""
""blur"",""7"",""649451""
""focus"",""7"",""2395634""
","""event"",""trial"",""time""
""blur"",""7"",""649451""
","""event"",""trial"",""time""
""focus"",""7"",""2395634""
","""event"",""trial"",""time""
""fullscreenenter"",""1"",""3422""
","
","","","-1","","","20","10837","392","&#9761;","elianto","#3366ff99","-1","-1","1","+10","[]","0","0","2","","","","","","","",""
"pit-trial","48","2851536","0.0-2.0-11.2-1.2","battery-v0.2","","""event"",""trial"",""time""
""fullscreenenter"",""1"",""3422""
""blur"",""7"",""649451""
""focus"",""7"",""2395634""
","""event"",""trial"",""time""
""blur"",""7"",""649451""
","""event"",""trial"",""time""
""focus"",""7"",""2395634""
","""event"",""trial"",""time""
""fullscreenenter"",""1"",""3422""
","
","","","-1","","","20","10837","392","&#9761;","elianto","#3366ff99","-1","-1","1","+10","[]","0","0","2","","","","","","","",""
"pit-trial","49","2856395","0.0-2.0-11.2-2.2","battery-v0.2","","""event"",""trial"",""time""
""fullscreenenter"",""1"",""3422""
""blur"",""7"",""649451""
""focus"",""7"",""2395634""
","""event"",""trial"",""time""
""blur"",""7"",""649451""
","""event"",""trial"",""time""
""focus"",""7"",""2395634""
","""event"",""trial"",""time""
""fullscreenenter"",""1"",""3422""
","
","","","-1","","","20","10837","392","&#9761;","elianto","#3366ff99","-1","-1","1","+10","[]","0","0","2","","","","","","","",""
"pit-trial","50","2861253","0.0-2.0-11.2-3.2","battery-v0.2","","""event"",""trial"",""time""
""fullscreenenter"",""1"",""3422""
""blur"",""7"",""649451""
""focus"",""7"",""2395634""
","""event"",""trial"",""time""
""blur"",""7"",""649451""
","""event"",""trial"",""time""
""focus"",""7"",""2395634""
","""event"",""trial"",""time""
""fullscreenenter"",""1"",""3422""
","
","","","-1","","","20","10837","392","&#9761;","elianto","#3366ff99","-1","-1","1","0","[]","0","0","2","","","","","","","",""
"pit-trial","51","2866111","0.0-2.0-11.2-4.2","battery-v0.2","","""event"",""trial"",""time""
""fullscreenenter"",""1"",""3422""
""blur"",""7"",""649451""
""focus"",""7"",""2395634""
","""event"",""trial"",""time""
""blur"",""7"",""649451""
","""event"",""trial"",""time""
""focus"",""7"",""2395634""
","""event"",""trial"",""time""
""fullscreenenter"",""1"",""3422""
","
","","","-1","","","20","10837","392","&#9761;","elianto","#3366ff99","-1","-1","1","+10","[]","0","0","2","","","","","","","",""
"pit-trial","52","2870971","0.0-2.0-11.3-0.3","battery-v0.2","","""event"",""trial"",""time""
""fullscreenenter"",""1"",""3422""
""blur"",""7"",""649451""
""focus"",""7"",""2395634""
","""event"",""trial"",""time""
""blur"",""7"",""649451""
","""event"",""trial"",""time""
""focus"",""7"",""2395634""
","""event"",""trial"",""time""
""fullscreenenter"",""1"",""3422""
","
","","","-1","","","20","10837","392","&#9761;","elianto","#3366ff99","-1","-1","1","+10","[]","0","0","2","","","","","","","",""
"pit-trial","53","2875825","0.0-2.0-11.3-1.3","battery-v0.2","","""event"",""trial"",""time""
""fullscreenenter"",""1"",""3422""
""blur"",""7"",""649451""
""focus"",""7"",""2395634""
","""event"",""trial"",""time""
""blur"",""7"",""649451""
","""event"",""trial"",""time""
""focus"",""7"",""2395634""
","""event"",""trial"",""time""
""fullscreenenter"",""1"",""3422""
","
","","","-1","","","20","10837","392","&#9761;","elianto","#3366ff99","-1","-1","1","+10","[]","0","0","2","","","","","","","",""
"pit-trial","54","2880682","0.0-2.0-11.3-2.3","battery-v0.2","","""event"",""trial"",""time""
""fullscreenenter"",""1"",""3422""
""blur"",""7"",""649451""
""focus"",""7"",""2395634""
","""event"",""trial"",""time""
""blur"",""7"",""649451""
","""event"",""trial"",""time""
""focus"",""7"",""2395634""
","""event"",""trial"",""time""
""fullscreenenter"",""1"",""3422""
","
","","","-1","","","20","10837","392","&#9761;","elianto","#3366ff99","-1","-1","1","+10","[]","0","0","2","","","","","","","",""
"pit-trial","55","2885542","0.0-2.0-11.3-3.3","battery-v0.2","","""event"",""trial"",""time""
""fullscreenenter"",""1"",""3422""
""blur"",""7"",""649451""
""focus"",""7"",""2395634""
","""event"",""trial"",""time""
""blur"",""7"",""649451""
","""event"",""trial"",""time""
""focus"",""7"",""2395634""
","""event"",""trial"",""time""
""fullscreenenter"",""1"",""3422""
","
","","","-1","","","20","10837","392","&#9761;","elianto","#3366ff99","-1","-1","1","0","[]","0","0","2","","","","","","","",""
"pit-trial","56","2890401","0.0-2.0-11.3-4.3","battery-v0.2","","""event"",""trial"",""time""
""fullscreenenter"",""1"",""3422""
""blur"",""7"",""649451""
""focus"",""7"",""2395634""
","""event"",""trial"",""time""
""blur"",""7"",""649451""
","""event"",""trial"",""time""
""focus"",""7"",""2395634""
","""event"",""trial"",""time""
""fullscreenenter"",""1"",""3422""
","
","","","-1","","","20","10837","392","&#9761;","elianto","#3366ff99","-1","-1","1","+10","[]","0","0","2","","","","","","","",""
"call-function","57","2890403","0.0-2.0-12.0","battery-v0.2","","""event"",""trial"",""time""
""fullscreenenter"",""1"",""3422""
""blur"",""7"",""649451""
""focus"",""7"",""2395634""
","""event"",""trial"",""time""
""blur"",""7"",""649451""
","""event"",""trial"",""time""
""focus"",""7"",""2395634""
","""event"",""trial"",""time""
""fullscreenenter"",""1"",""3422""
","
","","","","","","","","","","","","","","","","","","","","","","","","","","",""
"pit-instructions","58","2937560","0.0-2.0-13.0","battery-v0.2","","""event"",""trial"",""time""
""fullscreenenter"",""1"",""3422""
""blur"",""7"",""649451""
""focus"",""7"",""2395634""
","""event"",""trial"",""time""
""blur"",""7"",""649451""
","""event"",""trial"",""time""
""focus"",""7"",""2395634""
","""event"",""trial"",""time""
""fullscreenenter"",""1"",""3422""
","
","","[{""page_index"":0,""viewing_time"":7022.699999988079},{""page_index"":1,""viewing_time"":8793.900000035763},{""page_index"":2,""viewing_time"":3282.800000011921},{""page_index"":3,""viewing_time"":19261.899999976158},{""page_index"":4,""viewing_time"":8793.699999988079}]","47155.30000001192","","","","","","","","","","","","","","","","","","","","","","","",""
"pit-trial","59","2941856","0.0-2.0-14.0-0.0","battery-v0.2","","""event"",""trial"",""time""
""fullscreenenter"",""1"",""3422""
""blur"",""7"",""649451""
""focus"",""7"",""2395634""
","""event"",""trial"",""time""
""blur"",""7"",""649451""
","""event"",""trial"",""time""
""focus"",""7"",""2395634""
","""event"",""trial"",""time""
""fullscreenenter"",""1"",""3422""
","
","","","1439.2000000476837","","","20","10837","392","&#9826;","elianto","#f73b6a7A","-1"," ","0","-10","[2289.600000023842]","1","0","3","","","","","","","",""
"pit-trial","60","2946713","0.0-2.0-14.0-1.0","battery-v0.2","","""event"",""trial"",""time""
""fullscreenenter"",""1"",""3422""
""blur"",""7"",""649451""
""focus"",""7"",""2395634""
","""event"",""trial"",""time""
""blur"",""7"",""649451""
","""event"",""trial"",""time""
""focus"",""7"",""2395634""
","""event"",""trial"",""time""
""fullscreenenter"",""1"",""3422""
","
","","","-1","","","20","10837","392","&#9826;","elianto","#f73b6a7A","-1","-1","1","0","[]","0","0","3","","","","","","","",""
"pit-trial","61","2951570","0.0-2.0-14.0-2.0","battery-v0.2","","""event"",""trial"",""time""
""fullscreenenter"",""1"",""3422""
""blur"",""7"",""649451""
""focus"",""7"",""2395634""
","""event"",""trial"",""time""
""blur"",""7"",""649451""
","""event"",""trial"",""time""
""focus"",""7"",""2395634""
","""event"",""trial"",""time""
""fullscreenenter"",""1"",""3422""
","
","","","-1","","","20","10837","392","&#9826;","elianto","#f73b6a7A","-1","-1","1","0","[]","0","0","3","","","","","","","",""
"pit-trial","62","2956431","0.0-2.0-14.0-3.0","battery-v0.2","","""event"",""trial"",""time""
""fullscreenenter"",""1"",""3422""
""blur"",""7"",""649451""
""focus"",""7"",""2395634""
","""event"",""trial"",""time""
""blur"",""7"",""649451""
","""event"",""trial"",""time""
""focus"",""7"",""2395634""
","""event"",""trial"",""time""
""fullscreenenter"",""1"",""3422""
","
","","","-1","","","20","10837","392","&#9826;","elianto","#f73b6a7A","-1","-1","1","-10","[]","0","0","3","","","","","","","",""
"pit-trial","63","2961293","0.0-2.0-14.0-4.0","battery-v0.2","","""event"",""trial"",""time""
""fullscreenenter"",""1"",""3422""
""blur"",""7"",""649451""
""focus"",""7"",""2395634""
","""event"",""trial"",""time""
""blur"",""7"",""649451""
","""event"",""trial"",""time""
""focus"",""7"",""2395634""
","""event"",""trial"",""time""
""fullscreenenter"",""1"",""3422""
","
","","","-1","","","20","10837","392","&#9826;","elianto","#f73b6a7A","-1","-1","1","0","[]","0","0","3","","","","","","","",""
"pit-trial","64","2966155","0.0-2.0-14.1-0.1","battery-v0.2","","""event"",""trial"",""time""
""fullscreenenter"",""1"",""3422""
""blur"",""7"",""649451""
""focus"",""7"",""2395634""
","""event"",""trial"",""time""
""blur"",""7"",""649451""
","""event"",""trial"",""time""
""focus"",""7"",""2395634""
","""event"",""trial"",""time""
""fullscreenenter"",""1"",""3422""
","
","","","-1","","","20","10837","392","&#9826;","elianto","#f73b6a7A","-1","-1","1","0","[]","0","0","3","","","","","","","",""
"pit-trial","65","2971014","0.0-2.0-14.1-1.1","battery-v0.2","","""event"",""trial"",""time""
""fullscreenenter"",""1"",""3422""
""blur"",""7"",""649451""
""focus"",""7"",""2395634""
","""event"",""trial"",""time""
""blur"",""7"",""649451""
","""event"",""trial"",""time""
""focus"",""7"",""2395634""
","""event"",""trial"",""time""
""fullscreenenter"",""1"",""3422""
","
","","","-1","","","20","10837","392","&#9826;","elianto","#f73b6a7A","-1","-1","1","0","[]","0","0","3","","","","","","","",""
"pit-trial","66","2975872","0.0-2.0-14.1-2.1","battery-v0.2","","""event"",""trial"",""time""
""fullscreenenter"",""1"",""3422""
""blur"",""7"",""649451""
""focus"",""7"",""2395634""
","""event"",""trial"",""time""
""blur"",""7"",""649451""
","""event"",""trial"",""time""
""focus"",""7"",""2395634""
","""event"",""trial"",""time""
""fullscreenenter"",""1"",""3422""
","
","","","-1","","","20","10837","392","&#9826;","elianto","#f73b6a7A","-1","-1","1","0","[]","0","0","3","","","","","","","",""
"pit-trial","67","2980731","0.0-2.0-14.1-3.1","battery-v0.2","","""event"",""trial"",""time""
""fullscreenenter"",""1"",""3422""
""blur"",""7"",""649451""
""focus"",""7"",""2395634""
","""event"",""trial"",""time""
""blur"",""7"",""649451""
","""event"",""trial"",""time""
""focus"",""7"",""2395634""
","""event"",""trial"",""time""
""fullscreenenter"",""1"",""3422""
","
","","","-1","","","20","10837","392","&#9826;","elianto","#f73b6a7A","-1","-1","1","-10","[]","0","0","3","","","","","","","",""
"pit-trial","68","2985590","0.0-2.0-14.1-4.1","battery-v0.2","","""event"",""trial"",""time""
""fullscreenenter"",""1"",""3422""
""blur"",""7"",""649451""
""focus"",""7"",""2395634""
","""event"",""trial"",""time""
""blur"",""7"",""649451""
","""event"",""trial"",""time""
""focus"",""7"",""2395634""
","""event"",""trial"",""time""
""fullscreenenter"",""1"",""3422""
","
","","","-1","","","20","10837","392","&#9826;","elianto","#f73b6a7A","-1","-1","1","0","[]","0","0","3","","","","","","","",""
"pit-trial","69","2990446","0.0-2.0-14.2-0.2","battery-v0.2","","""event"",""trial"",""time""
""fullscreenenter"",""1"",""3422""
""blur"",""7"",""649451""
""focus"",""7"",""2395634""
","""event"",""trial"",""time""
""blur"",""7"",""649451""
","""event"",""trial"",""time""
""focus"",""7"",""2395634""
","""event"",""trial"",""time""
""fullscreenenter"",""1"",""3422""
","
","","","-1","","","20","10837","392","&#9826;","elianto","#f73b6a7A","-1","-1","1","0","[]","0","0","3","","","","","","","",""
"pit-trial","70","2995307","0.0-2.0-14.2-1.2","battery-v0.2","","""event"",""trial"",""time""
""fullscreenenter"",""1"",""3422""
""blur"",""7"",""649451""
""focus"",""7"",""2395634""
","""event"",""trial"",""time""
""blur"",""7"",""649451""
","""event"",""trial"",""time""
""focus"",""7"",""2395634""
","""event"",""trial"",""time""
""fullscreenenter"",""1"",""3422""
","
","","","-1","","","20","10837","392","&#9826;","elianto","#f73b6a7A","-1","-1","1","0","[]","0","0","3","","","","","","","",""
"pit-trial","71","3000166","0.0-2.0-14.2-2.2","battery-v0.2","","""event"",""trial"",""time""
""fullscreenenter"",""1"",""3422""
""blur"",""7"",""649451""
""focus"",""7"",""2395634""
","""event"",""trial"",""time""
""blur"",""7"",""649451""
","""event"",""trial"",""time""
""focus"",""7"",""2395634""
","""event"",""trial"",""time""
""fullscreenenter"",""1"",""3422""
","
","","","-1","","","20","10837","392","&#9826;","elianto","#f73b6a7A","-1","-1","1","0","[]","0","0","3","","","","","","","",""
"pit-trial","72","3005025","0.0-2.0-14.2-3.2","battery-v0.2","","""event"",""trial"",""time""
""fullscreenenter"",""1"",""3422""
""blur"",""7"",""649451""
""focus"",""7"",""2395634""
","""event"",""trial"",""time""
""blur"",""7"",""649451""
","""event"",""trial"",""time""
""focus"",""7"",""2395634""
","""event"",""trial"",""time""
""fullscreenenter"",""1"",""3422""
","
","","","-1","","","20","10837","392","&#9826;","elianto","#f73b6a7A","-1","-1","1","-10","[]","0","0","3","","","","","","","",""
"pit-trial","73","3009884","0.0-2.0-14.2-4.2","battery-v0.2","","""event"",""trial"",""time""
""fullscreenenter"",""1"",""3422""
""blur"",""7"",""649451""
""focus"",""7"",""2395634""
","""event"",""trial"",""time""
""blur"",""7"",""649451""
","""event"",""trial"",""time""
""focus"",""7"",""2395634""
","""event"",""trial"",""time""
""fullscreenenter"",""1"",""3422""
","
","","","-1","","","20","10837","392","&#9826;","elianto","#f73b6a7A","-1","-1","1","0","[]","0","0","3","","","","","","","",""
"pit-trial","74","3014748","0.0-2.0-14.3-0.3","battery-v0.2","","""event"",""trial"",""time""
""fullscreenenter"",""1"",""3422""
""blur"",""7"",""649451""
""focus"",""7"",""2395634""
","""event"",""trial"",""time""
""blur"",""7"",""649451""
","""event"",""trial"",""time""
""focus"",""7"",""2395634""
","""event"",""trial"",""time""
""fullscreenenter"",""1"",""3422""
","
","","","-1","","","20","10837","392","&#9826;","elianto","#f73b6a7A","-1","-1","1","0","[]","0","0","3","","","","","","","",""
"pit-trial","75","3019602","0.0-2.0-14.3-1.3","battery-v0.2","","""event"",""trial"",""time""
""fullscreenenter"",""1"",""3422""
""blur"",""7"",""649451""
""focus"",""7"",""2395634""
","""event"",""trial"",""time""
""blur"",""7"",""649451""
","""event"",""trial"",""time""
""focus"",""7"",""2395634""
","""event"",""trial"",""time""
""fullscreenenter"",""1"",""3422""
","
","","","-1","","","20","10837","392","&#9826;","elianto","#f73b6a7A","-1","-1","1","0","[]","0","0","3","","","","","","","",""
"pit-trial","76","3024464","0.0-2.0-14.3-2.3","battery-v0.2","","""event"",""trial"",""time""
""fullscreenenter"",""1"",""3422""
""blur"",""7"",""649451""
""focus"",""7"",""2395634""
","""event"",""trial"",""time""
""blur"",""7"",""649451""
","""event"",""trial"",""time""
""focus"",""7"",""2395634""
","""event"",""trial"",""time""
""fullscreenenter"",""1"",""3422""
","
","","","-1","","","20","10837","392","&#9826;","elianto","#f73b6a7A","-1","-1","1","0","[]","0","0","3","","","","","","","",""
"pit-trial","77","3029324","0.0-2.0-14.3-3.3","battery-v0.2","","""event"",""trial"",""time""
""fullscreenenter"",""1"",""3422""
""blur"",""7"",""649451""
""focus"",""7"",""2395634""
","""event"",""trial"",""time""
""blur"",""7"",""649451""
","""event"",""trial"",""time""
""focus"",""7"",""2395634""
","""event"",""trial"",""time""
""fullscreenenter"",""1"",""3422""
","
","","","-1","","","20","10837","392","&#9826;","elianto","#f73b6a7A","-1","-1","1","-10","[]","0","0","3","","","","","","","",""
"pit-trial","78","3033335","0.0-2.0-14.3-4.3","battery-v0.2","","""event"",""trial"",""time""
""fullscreenenter"",""1"",""3422""
""blur"",""7"",""649451""
""focus"",""7"",""2395634""
","""event"",""trial"",""time""
""blur"",""7"",""649451""
","""event"",""trial"",""time""
""focus"",""7"",""2395634""
","""event"",""trial"",""time""
""fullscreenenter"",""1"",""3422""
","
","","","1153.199999988079","","","20","10837","392","&#9826;","elianto","#f73b6a7A","-1"," ","0","-10","[2005.0999999642372]","1","0","3","","","","","","","",""
"call-function","79","3033337","0.0-2.0-15.0","battery-v0.2","","""event"",""trial"",""time""
""fullscreenenter"",""1"",""3422""
""blur"",""7"",""649451""
""focus"",""7"",""2395634""
","""event"",""trial"",""time""
""blur"",""7"",""649451""
","""event"",""trial"",""time""
""focus"",""7"",""2395634""
","""event"",""trial"",""time""
""fullscreenenter"",""1"",""3422""
","
","","","","","","","","","","","","","","","","","","","","","","","","","","",""
"pit-instructions","80","3070284","0.0-2.0-16.0","battery-v0.2","","""event"",""trial"",""time""
""fullscreenenter"",""1"",""3422""
""blur"",""7"",""649451""
""focus"",""7"",""2395634""
","""event"",""trial"",""time""
""blur"",""7"",""649451""
","""event"",""trial"",""time""
""focus"",""7"",""2395634""
","""event"",""trial"",""time""
""fullscreenenter"",""1"",""3422""
","
","","[{""page_index"":0,""viewing_time"":8902.300000011921},{""page_index"":1,""viewing_time"":12311.800000011921},{""page_index"":2,""viewing_time"":8089},{""page_index"":3,""viewing_time"":7642.199999988079}]","36945.60000002384","","","","","","","","","","","","","","","","","","","","","","","",""
"pit-trial","81","3073519","0.0-2.0-17.0-0.0","battery-v0.2","","""event"",""trial"",""time""
""fullscreenenter"",""1"",""3422""
""blur"",""7"",""649451""
""focus"",""7"",""2395634""
","""event"",""trial"",""time""
""blur"",""7"",""649451""
","""event"",""trial"",""time""
""focus"",""7"",""2395634""
","""event"",""trial"",""time""
""fullscreenenter"",""1"",""3422""
","
","","","377.30000001192093","","","20","10837","392","&#9789;","elianto","#f73b6a7A"," "," ","1","0","[1228.300000011921]","1","0","4","","","","","","","",""
"pit-trial","82","3076511","0.0-2.0-17.0-1.0","battery-v0.2","","""event"",""trial"",""time""
""fullscreenenter"",""1"",""3422""
""blur"",""7"",""649451""
""focus"",""7"",""2395634""
","""event"",""trial"",""time""
""blur"",""7"",""649451""
","""event"",""trial"",""time""
""focus"",""7"",""2395634""
","""event"",""trial"",""time""
""fullscreenenter"",""1"",""3422""
","
","","","136.30000001192093","","","20","10837","392","&#9789;","elianto","#f73b6a7A"," "," ","1","0","[987.3999999761581]","1","0","4","","","","","","","",""
"pit-trial","83","3079596","0.0-2.0-17.0-2.0","battery-v0.2","","""event"",""trial"",""time""
""fullscreenenter"",""1"",""3422""
""blur"",""7"",""649451""
""focus"",""7"",""2395634""
","""event"",""trial"",""time""
""blur"",""7"",""649451""
","""event"",""trial"",""time""
""focus"",""7"",""2395634""
","""event"",""trial"",""time""
""fullscreenenter"",""1"",""3422""
","
","","","225.10000002384186","","","20","10837","392","&#9789;","elianto","#f73b6a7A"," "," ","1","0","[1078.4000000357628]","1","0","4","","","","","","","",""
"pit-trial","84","3082625","0.0-2.0-17.0-3.0","battery-v0.2","","""event"",""trial"",""time""
""fullscreenenter"",""1"",""3422""
""blur"",""7"",""649451""
""focus"",""7"",""2395634""
","""event"",""trial"",""time""
""blur"",""7"",""649451""
","""event"",""trial"",""time""
""focus"",""7"",""2395634""
","""event"",""trial"",""time""
""fullscreenenter"",""1"",""3422""
","
","","","172.19999998807907","","","20","10837","392","&#9789;","elianto","#f73b6a7A"," "," ","1","-10","[1022.6999999880791]","1","0","4","","","","","","","",""
"pit-trial","85","3085673","0.0-2.0-17.0-4.0","battery-v0.2","","""event"",""trial"",""time""
""fullscreenenter"",""1"",""3422""
""blur"",""7"",""649451""
""focus"",""7"",""2395634""
","""event"",""trial"",""time""
""blur"",""7"",""649451""
","""event"",""trial"",""time""
""focus"",""7"",""2395634""
","""event"",""trial"",""time""
""fullscreenenter"",""1"",""3422""
","
","","","192.5","","","20","10837","392","&#9789;","elianto","#f73b6a7A"," "," ","1","0","[1044.1000000238419]","1","0","4","","","","","","","",""
"pit-trial","86","3088932","0.0-2.0-17.1-0.1","battery-v0.2","","""event"",""trial"",""time""
""fullscreenenter"",""1"",""3422""
""blur"",""7"",""649451""
""focus"",""7"",""2395634""
","""event"",""trial"",""time""
""blur"",""7"",""649451""
","""event"",""trial"",""time""
""focus"",""7"",""2395634""
","""event"",""trial"",""time""
""fullscreenenter"",""1"",""3422""
","
","","","402.4000000357628","","","20","10837","392","&#9789;","elianto","#f73b6a7A"," "," ","1","0","[1254]","1","0","4","","","","","","","",""
"pit-trial","87","3092033","0.0-2.0-17.1-1.1","battery-v0.2","","""event"",""trial"",""time""
""fullscreenenter"",""1"",""3422""
""blur"",""7"",""649451""
""focus"",""7"",""2395634""
","""event"",""trial"",""time""
""blur"",""7"",""649451""
","""event"",""trial"",""time""
""focus"",""7"",""2395634""
","""event"",""trial"",""time""
""fullscreenenter"",""1"",""3422""
","
","","","247.5999999642372","","","20","10837","392","&#9789;","elianto","#f73b6a7A"," "," ","1","0","[1097.7999999523163]","1","0","4","","","","","","","",""
"pit-trial","88","3095301","0.0-2.0-17.1-2.1","battery-v0.2","","""event"",""trial"",""time""
""fullscreenenter"",""1"",""3422""
""blur"",""7"",""649451""
""focus"",""7"",""2395634""
","""event"",""trial"",""time""
""blur"",""7"",""649451""
","""event"",""trial"",""time""
""focus"",""7"",""2395634""
","""event"",""trial"",""time""
""fullscreenenter"",""1"",""3422""
","
","","","411.89999997615814","","","20","10837","392","&#9789;","elianto","#f73b6a7A"," "," ","1","0","[1262.5]","1","0","4","","","","","","","",""
"pit-trial","89","3098319","0.0-2.0-17.1-3.1","battery-v0.2","","""event"",""trial"",""time""
""fullscreenenter"",""1"",""3422""
""blur"",""7"",""649451""
""focus"",""7"",""2395634""
","""event"",""trial"",""time""
""blur"",""7"",""649451""
","""event"",""trial"",""time""
""focus"",""7"",""2395634""
","""event"",""trial"",""time""
""fullscreenenter"",""1"",""3422""
","
","","","162.89999997615814","","","20","10837","392","&#9789;","elianto","#f73b6a7A"," "," ","1","-10","[1014.3000000119209]","1","0","4","","","","","","","",""
"pit-trial","90","3101711","0.0-2.0-17.1-4.1","battery-v0.2","","""event"",""trial"",""time""
""fullscreenenter"",""1"",""3422""
""blur"",""7"",""649451""
""focus"",""7"",""2395634""
","""event"",""trial"",""time""
""blur"",""7"",""649451""
","""event"",""trial"",""time""
""focus"",""7"",""2395634""
","""event"",""trial"",""time""
""fullscreenenter"",""1"",""3422""
","
","","","537.5","","","20","10837","392","&#9789;","elianto","#f73b6a7A"," "," ","1","0","[487.2000000476837,1388.9000000357628]","2","0","4","","","","","","","",""
"pit-trial","91","3104861","0.0-2.0-17.2-0.2","battery-v0.2","","""event"",""trial"",""time""
""fullscreenenter"",""1"",""3422""
""blur"",""7"",""649451""
""focus"",""7"",""2395634""
","""event"",""trial"",""time""
""blur"",""7"",""649451""
","""event"",""trial"",""time""
""focus"",""7"",""2395634""
","""event"",""trial"",""time""
""fullscreenenter"",""1"",""3422""
","
","","","290.10000002384186","","","20","10837","392","&#9789;","elianto","#f73b6a7A"," "," ","1","0","[1144]","1","0","4","","","","","","","",""
"pit-trial","92","3107920","0.0-2.0-17.2-1.2","battery-v0.2","","""event"",""trial"",""time""
""fullscreenenter"",""1"",""3422""
""blur"",""7"",""649451""
""focus"",""7"",""2395634""
","""event"",""trial"",""time""
""blur"",""7"",""649451""
","""event"",""trial"",""time""
""focus"",""7"",""2395634""
","""event"",""trial"",""time""
""fullscreenenter"",""1"",""3422""
","
","","","200.19999998807907","","","20","10837","392","&#9789;","elianto","#f73b6a7A"," "," ","1","0","[1051.5]","1","0","4","","","","","","","",""
"pit-trial","93","3111158","0.0-2.0-17.2-2.2","battery-v0.2","","""event"",""trial"",""time""
""fullscreenenter"",""1"",""3422""
""blur"",""7"",""649451""
""focus"",""7"",""2395634""
","""event"",""trial"",""time""
""blur"",""7"",""649451""
","""event"",""trial"",""time""
""focus"",""7"",""2395634""
","""event"",""trial"",""time""
""fullscreenenter"",""1"",""3422""
","
","","","381.39999997615814","","","20","10837","392","&#9789;","elianto","#f73b6a7A"," "," ","1","0","[1232.300000011921]","1","0","4","","","","","","","",""
"pit-trial","94","3114634","0.0-2.0-17.2-3.2","battery-v0.2","","""event"",""trial"",""time""
""fullscreenenter"",""1"",""3422""
""blur"",""7"",""649451""
""focus"",""7"",""2395634""
","""event"",""trial"",""time""
""blur"",""7"",""649451""
","""event"",""trial"",""time""
""focus"",""7"",""2395634""
","""event"",""trial"",""time""
""fullscreenenter"",""1"",""3422""
","
","","","618","","","20","10837","392","&#9789;","elianto","#f73b6a7A"," "," ","1","-10","[1468.7999999523163]","1","0","4","","","","","","","",""
"pit-trial","95","3118317","0.0-2.0-17.2-4.2","battery-v0.2","","""event"",""trial"",""time""
""fullscreenenter"",""1"",""3422""
""blur"",""7"",""649451""
""focus"",""7"",""2395634""
","""event"",""trial"",""time""
""blur"",""7"",""649451""
","""event"",""trial"",""time""
""focus"",""7"",""2395634""
","""event"",""trial"",""time""
""fullscreenenter"",""1"",""3422""
","
","","","824.3999999761581","","","20","10837","392","&#9789;","elianto","#f73b6a7A"," "," ","1","0","[1675.5]","1","0","4","","","","","","","",""
"pit-trial","96","3121384","0.0-2.0-17.3-0.3","battery-v0.2","","""event"",""trial"",""time""
""fullscreenenter"",""1"",""3422""
""blur"",""7"",""649451""
""focus"",""7"",""2395634""
","""event"",""trial"",""time""
""blur"",""7"",""649451""
","""event"",""trial"",""time""
""focus"",""7"",""2395634""
","""event"",""trial"",""time""
""fullscreenenter"",""1"",""3422""
","
","","","213.19999998807907","","","20","10837","392","&#9789;","elianto","#f73b6a7A"," "," ","1","0","[1064.4000000357628]","1","0","4","","","","","","","",""
"pit-trial","97","3124965","0.0-2.0-17.3-1.3","battery-v0.2","","""event"",""trial"",""time""
""fullscreenenter"",""1"",""3422""
""blur"",""7"",""649451""
""focus"",""7"",""2395634""
","""event"",""trial"",""time""
""blur"",""7"",""649451""
","""event"",""trial"",""time""
""focus"",""7"",""2395634""
","""event"",""trial"",""time""
""fullscreenenter"",""1"",""3422""
","
","","","726.5999999642372","","","20","10837","392","&#9789;","elianto","#f73b6a7A"," "," ","1","0","[1577]","1","0","4","","","","","","","",""
"pit-trial","98","3129179","0.0-2.0-17.3-2.3","battery-v0.2","","""event"",""trial"",""time""
""fullscreenenter"",""1"",""3422""
""blur"",""7"",""649451""
""focus"",""7"",""2395634""
","""event"",""trial"",""time""
""blur"",""7"",""649451""
","""event"",""trial"",""time""
""focus"",""7"",""2395634""
","""event"",""trial"",""time""
""fullscreenenter"",""1"",""3422""
","
","","","1354.5","","","20","10837","392","&#9789;","elianto","#f73b6a7A"," "," ","1","0","[2207]","1","0","4","","","","","","","",""
"pit-trial","99","3132187","0.0-2.0-17.3-3.3","battery-v0.2","","""event"",""trial"",""time""
""fullscreenenter"",""1"",""3422""
""blur"",""7"",""649451""
""focus"",""7"",""2395634""
","""event"",""trial"",""time""
""blur"",""7"",""649451""
","""event"",""trial"",""time""
""focus"",""7"",""2395634""
","""event"",""trial"",""time""
""fullscreenenter"",""1"",""3422""
","
","","","151.80000001192093","","","20","10837","392","&#9789;","elianto","#f73b6a7A"," "," ","1","-10","[1003.0999999642372]","1","0","4","","","","","","","",""
"pit-trial","100","3135578","0.0-2.0-17.3-4.3","battery-v0.2","","""event"",""trial"",""time""
""fullscreenenter"",""1"",""3422""
""blur"",""7"",""649451""
""focus"",""7"",""2395634""
","""event"",""trial"",""time""
""blur"",""7"",""649451""
","""event"",""trial"",""time""
""focus"",""7"",""2395634""
","""event"",""trial"",""time""
""fullscreenenter"",""1"",""3422""
","
","","","534.3000000119209","","","20","10837","392","&#9789;","elianto","#f73b6a7A"," "," ","1","0","[1385.7000000476837]","1","0","4","","","","","","","",""
"call-function","101","3135579","0.0-2.0-18.0","battery-v0.2","","""event"",""trial"",""time""
""fullscreenenter"",""1"",""3422""
""blur"",""7"",""649451""
""focus"",""7"",""2395634""
","""event"",""trial"",""time""
""blur"",""7"",""649451""
","""event"",""trial"",""time""
""focus"",""7"",""2395634""
","""event"",""trial"",""time""
""fullscreenenter"",""1"",""3422""
","
","","","","","","","","","","","","","","","","","","","","","","","","","","",""
"pit-instructions","102","3247229","0.0-2.0-19.0","battery-v0.2","","""event"",""trial"",""time""
""fullscreenenter"",""1"",""3422""
""blur"",""7"",""649451""
""focus"",""7"",""2395634""
","""event"",""trial"",""time""
""blur"",""7"",""649451""
","""event"",""trial"",""time""
""focus"",""7"",""2395634""
","""event"",""trial"",""time""
""fullscreenenter"",""1"",""3422""
","
","","[{""page_index"":0,""viewing_time"":58511.5},{""page_index"":1,""viewing_time"":8097},{""page_index"":2,""viewing_time"":10413.5},{""page_index"":3,""viewing_time"":6580.600000023842},{""page_index"":4,""viewing_time"":6400.899999976158},{""page_index"":5,""viewing_time"":8446.700000047684},{""page_index"":6,""viewing_time"":5609.899999976158},{""page_index"":7,""viewing_time"":4048.199999988079},{""page_index"":8,""viewing_time"":3539.100000023842}]","111647.70000004768","","","","","","","","","","","","","","","","","","","","","","","",""
"pit-comprehension","103","3251700","0.0-2.0-20.0-0.0","battery-v0.2","","""event"",""trial"",""time""
""fullscreenenter"",""1"",""3422""
""blur"",""7"",""649451""
""focus"",""7"",""2395634""
","""event"",""trial"",""time""
""blur"",""7"",""649451""
","""event"",""trial"",""time""
""focus"",""7"",""2395634""
","""event"",""trial"",""time""
""fullscreenenter"",""1"",""3422""
","
","","","4467.300000011921","[""SPACE""]","0","20","10837","392","","","","","","","","","","","","","","","","","","",""
"pit-instructions","104","3254855","0.0-2.0-20.0-1.0","battery-v0.2","","""event"",""trial"",""time""
""fullscreenenter"",""1"",""3422""
""blur"",""7"",""649451""
""focus"",""7"",""2395634""
","""event"",""trial"",""time""
""blur"",""7"",""649451""
","""event"",""trial"",""time""
""focus"",""7"",""2395634""
","""event"",""trial"",""time""
""fullscreenenter"",""1"",""3422""
","
","","[{""page_index"":0,""viewing_time"":3115.599999964237}]","3116","","","","","","","","","","","","","","","","","","","","","","","",""
"pit-comprehension","105","3259766","0.0-2.0-21.0-0.0","battery-v0.2","","""event"",""trial"",""time""
""fullscreenenter"",""1"",""3422""
""blur"",""7"",""649451""
""focus"",""7"",""2395634""
","""event"",""trial"",""time""
""blur"",""7"",""649451""
","""event"",""trial"",""time""
""focus"",""7"",""2395634""
","""event"",""trial"",""time""
""fullscreenenter"",""1"",""3422""
","
","","","4906.600000023842","[""10""]","0","20","10837","392","","","","","","","","","","","","","","","","","","",""
"pit-instructions","106","3261656","0.0-2.0-21.0-1.0","battery-v0.2","","""event"",""trial"",""time""
""fullscreenenter"",""1"",""3422""
""blur"",""7"",""649451""
""focus"",""7"",""2395634""
","""event"",""trial"",""time""
""blur"",""7"",""649451""
","""event"",""trial"",""time""
""focus"",""7"",""2395634""
","""event"",""trial"",""time""
""fullscreenenter"",""1"",""3422""
","
","","[{""page_index"":0,""viewing_time"":1846.3999999761581}]","1846.800000011921","","","","","","","","","","","","","","","","","","","","","","","",""
"pit-comprehension","107","3268362","0.0-2.0-22.0-0.0","battery-v0.2","","""event"",""trial"",""time""
""fullscreenenter"",""1"",""3422""
""blur"",""7"",""649451""
""focus"",""7"",""2395634""
","""event"",""trial"",""time""
""blur"",""7"",""649451""
","""event"",""trial"",""time""
""focus"",""7"",""2395634""
","""event"",""trial"",""time""
""fullscreenenter"",""1"",""3422""
","
","","","6701.900000035763","[""0""]","0","20","10837","392","","","","","","","","","","","","","","","","","","",""
"pit-instructions","108","3270986","0.0-2.0-22.0-1.0","battery-v0.2","","""event"",""trial"",""time""
""fullscreenenter"",""1"",""3422""
""blur"",""7"",""649451""
""focus"",""7"",""2395634""
","""event"",""trial"",""time""
""blur"",""7"",""649451""
","""event"",""trial"",""time""
""focus"",""7"",""2395634""
","""event"",""trial"",""time""
""fullscreenenter"",""1"",""3422""
","
","","[{""page_index"":0,""viewing_time"":2584.900000035763}]","2585.100000023842","","","","","","","","","","","","","","","","","","","","","","","",""
"pit-comprehension","109","3279318","0.0-2.0-23.0-0.0","battery-v0.2","","""event"",""trial"",""time""
""fullscreenenter"",""1"",""3422""
""blur"",""7"",""649451""
""focus"",""7"",""2395634""
","""event"",""trial"",""time""
""blur"",""7"",""649451""
","""event"",""trial"",""time""
""focus"",""7"",""2395634""
","""event"",""trial"",""time""
""fullscreenenter"",""1"",""3422""
","
","","","8328.699999988079","[""True""]","0","20","10837","392","","","","","","","","","","","","","","","","","","",""
"pit-instructions","110","3282299","0.0-2.0-23.0-1.0","battery-v0.2","","""event"",""trial"",""time""
""fullscreenenter"",""1"",""3422""
""blur"",""7"",""649451""
""focus"",""7"",""2395634""
","""event"",""trial"",""time""
""blur"",""7"",""649451""
","""event"",""trial"",""time""
""focus"",""7"",""2395634""
","""event"",""trial"",""time""
""fullscreenenter"",""1"",""3422""
","
","","[{""page_index"":0,""viewing_time"":2940.399999976158}]","2940.599999964237","","","","","","","","","","","","","","","","","","","","","","","",""
"pit-comprehension","111","3289310","0.0-2.0-24.0-0.0","battery-v0.2","","""event"",""trial"",""time""
""fullscreenenter"",""1"",""3422""
""blur"",""7"",""649451""
""focus"",""7"",""2395634""
","""event"",""trial"",""time""
""blur"",""7"",""649451""
","""event"",""trial"",""time""
""focus"",""7"",""2395634""
","""event"",""trial"",""time""
""fullscreenenter"",""1"",""3422""
","
","","","7008.600000023842","[""True""]","0","20","10837","392","","","","","","","","","","","","","","","","","","",""
"pit-instructions","112","3291105","0.0-2.0-24.0-1.0","battery-v0.2","","""event"",""trial"",""time""
""fullscreenenter"",""1"",""3422""
""blur"",""7"",""649451""
""focus"",""7"",""2395634""
","""event"",""trial"",""time""
""blur"",""7"",""649451""
","""event"",""trial"",""time""
""focus"",""7"",""2395634""
","""event"",""trial"",""time""
""fullscreenenter"",""1"",""3422""
","
","","[{""page_index"":0,""viewing_time"":1753.199999988079}]","1753.5","","","","","","","","","","","","","","","","","","","","","","","",""
"pit-comprehension","113","3297242","0.0-2.0-25.0-0.0","battery-v0.2","","""event"",""trial"",""time""
""fullscreenenter"",""1"",""3422""
""blur"",""7"",""649451""
""focus"",""7"",""2395634""
","""event"",""trial"",""time""
""blur"",""7"",""649451""
","""event"",""trial"",""time""
""focus"",""7"",""2395634""
","""event"",""trial"",""time""
""fullscreenenter"",""1"",""3422""
","
","","","6133.900000035763","[""True""]","0","20","10837","392","","","","","","","","","","","","","","","","","","",""
"pit-instructions","114","3298616","0.0-2.0-25.0-1.0","battery-v0.2","","""event"",""trial"",""time""
""fullscreenenter"",""1"",""3422""
""blur"",""7"",""649451""
""focus"",""7"",""2395634""
","""event"",""trial"",""time""
""blur"",""7"",""649451""
","""event"",""trial"",""time""
""focus"",""7"",""2395634""
","""event"",""trial"",""time""
""fullscreenenter"",""1"",""3422""
","
","","[{""page_index"":0,""viewing_time"":1330}]","1330.0999999642372","","","","","","","","","","","","","","","","","","","","","","","",""
"pit-comprehension","115","3303755","0.0-2.0-26.0-0.0","battery-v0.2","","""event"",""trial"",""time""
""fullscreenenter"",""1"",""3422""
""blur"",""7"",""649451""
""focus"",""7"",""2395634""
","""event"",""trial"",""time""
""blur"",""7"",""649451""
","""event"",""trial"",""time""
""focus"",""7"",""2395634""
","""event"",""trial"",""time""
""fullscreenenter"",""1"",""3422""
","
","","","5136.399999976158","[""False""]","0","20","10837","392","","","","","","","","","","","","","","","","","","",""
"pit-instructions","116","3307241","0.0-2.0-26.0-1.0","battery-v0.2","","""event"",""trial"",""time""
""fullscreenenter"",""1"",""3422""
""blur"",""7"",""649451""
""focus"",""7"",""2395634""
""blur"",""117"",""3312196""
""focus"",""117"",""3314350""
","""event"",""trial"",""time""
""blur"",""7"",""649451""
""blur"",""117"",""3312196""
","""event"",""trial"",""time""
""focus"",""7"",""2395634""
""focus"",""117"",""3314350""
","""event"",""trial"",""time""
""fullscreenenter"",""1"",""3422""
","
","","[{""page_index"":0,""viewing_time"":3444.5}]","3444.7000000476837","","","","","","","","","","","","","","","","","","","","","","","",""
"pit-instructions","117","3327019","0.0-3.0","battery-v0.2","","""event"",""trial"",""time""
""fullscreenenter"",""1"",""3422""
""blur"",""7"",""649451""
""focus"",""7"",""2395634""
""blur"",""117"",""3312196""
""focus"",""117"",""3314350""
","""event"",""trial"",""time""
""blur"",""7"",""649451""
""blur"",""117"",""3312196""
","""event"",""trial"",""time""
""focus"",""7"",""2395634""
""focus"",""117"",""3314350""
","""event"",""trial"",""time""
""fullscreenenter"",""1"",""3422""
","
","","[{""page_index"":0,""viewing_time"":8008.600000023842},{""page_index"":1,""viewing_time"":5153.599999964237},{""page_index"":2,""viewing_time"":6613.5}]","19776.100000023842","","","","","","","","","","","","","","","","","","","","","","","",""
"pit-trial","118","3330676","0.0-4.0","battery-v0.2","","""event"",""trial"",""time""
""fullscreenenter"",""1"",""3422""
""blur"",""7"",""649451""
""focus"",""7"",""2395634""
""blur"",""117"",""3312196""
""focus"",""117"",""3314350""
","""event"",""trial"",""time""
""blur"",""7"",""649451""
""blur"",""117"",""3312196""
","""event"",""trial"",""time""
""focus"",""7"",""2395634""
""focus"",""117"",""3314350""
","""event"",""trial"",""time""
""fullscreenenter"",""1"",""3422""
","
","","","794.5","","","20","10837","392","&#9752;","elianto","#f73b6a7A"," "," ","1","0","[1645.300000011921]","1","1","","","10837","1","3","3","lose","go","0"
"pit-trial","119","3334050","0.0-5.0","battery-v0.2","","""event"",""trial"",""time""
""fullscreenenter"",""1"",""3422""
""blur"",""7"",""649451""
""focus"",""7"",""2395634""
""blur"",""117"",""3312196""
""focus"",""117"",""3314350""
","""event"",""trial"",""time""
""blur"",""7"",""649451""
""blur"",""117"",""3312196""
","""event"",""trial"",""time""
""focus"",""7"",""2395634""
""focus"",""117"",""3314350""
","""event"",""trial"",""time""
""fullscreenenter"",""1"",""3422""
","
","","","517.6000000238419","","","20","10837","392","&#9733;","elianto","#3366ff99","-1"," ","0","0","[1368.699999988079]","1","1","","","10837","2","2","2","win","no-go","0"
"pit-trial","120","3337763","0.0-6.0","battery-v0.2","","""event"",""trial"",""time""
""fullscreenenter"",""1"",""3422""
""blur"",""7"",""649451""
""focus"",""7"",""2395634""
""blur"",""117"",""3312196""
""focus"",""117"",""3314350""
","""event"",""trial"",""time""
""blur"",""7"",""649451""
""blur"",""117"",""3312196""
","""event"",""trial"",""time""
""focus"",""7"",""2395634""
""focus"",""117"",""3314350""
","""event"",""trial"",""time""
""fullscreenenter"",""1"",""3422""
","
","","","856.1999999880791","","","20","10837","392","&#9728;","elianto","#f73b6a7A","-1"," ","0","0","[1706.6000000238419]","1","1","","","10837","3","0","4","lose","no-go","1"
"pit-trial","121","3341137","0.0-7.0","battery-v0.2","","""event"",""trial"",""time""
""fullscreenenter"",""1"",""3422""
""blur"",""7"",""649451""
""focus"",""7"",""2395634""
""blur"",""117"",""3312196""
""focus"",""117"",""3314350""
","""event"",""trial"",""time""
""blur"",""7"",""649451""
""blur"",""117"",""3312196""
","""event"",""trial"",""time""
""focus"",""7"",""2395634""
""focus"",""117"",""3314350""
","""event"",""trial"",""time""
""fullscreenenter"",""1"",""3422""
","
","","","517.1999999880791","","","20","10837","392","&#9730;","elianto","#3366ff99"," "," ","1","+10","[1367.800000011921]","1","1","","","10837","4","1","1","win","go","0"
"pit-trial","122","3345096","0.0-8.0","battery-v0.2","","""event"",""trial"",""time""
""fullscreenenter"",""1"",""3422""
""blur"",""7"",""649451""
""focus"",""7"",""2395634""
""blur"",""117"",""3312196""
""focus"",""117"",""3314350""
","""event"",""trial"",""time""
""blur"",""7"",""649451""
""blur"",""117"",""3312196""
","""event"",""trial"",""time""
""focus"",""7"",""2395634""
""focus"",""117"",""3314350""
","""event"",""trial"",""time""
""fullscreenenter"",""1"",""3422""
","
","","","1100.3999999761581","","","20","10837","392","&#9728;","elianto","#f73b6a7A","-1"," ","0","-10","[1951.5]","1","1","","","10837","5","0","4","lose","no-go","0"
"pit-trial","123","3348906","0.0-9.0","battery-v0.2","","""event"",""trial"",""time""
""fullscreenenter"",""1"",""3422""
""blur"",""7"",""649451""
""focus"",""7"",""2395634""
""blur"",""117"",""3312196""
""focus"",""117"",""3314350""
","""event"",""trial"",""time""
""blur"",""7"",""649451""
""blur"",""117"",""3312196""
","""event"",""trial"",""time""
""focus"",""7"",""2395634""
""focus"",""117"",""3314350""
","""event"",""trial"",""time""
""fullscreenenter"",""1"",""3422""
","
","","","951.1000000238419","","","20","10837","392","&#9733;","elianto","#3366ff99","-1"," ","0","0","[1803.300000011921]","1","1","","","10837","6","2","2","win","no-go","0"
"pit-trial","124","3352390","0.0-10.0","battery-v0.2","","""event"",""trial"",""time""
""fullscreenenter"",""1"",""3422""
""blur"",""7"",""649451""
""focus"",""7"",""2395634""
""blur"",""117"",""3312196""
""focus"",""117"",""3314350""
","""event"",""trial"",""time""
""blur"",""7"",""649451""
""blur"",""117"",""3312196""
","""event"",""trial"",""time""
""focus"",""7"",""2395634""
""focus"",""117"",""3314350""
","""event"",""trial"",""time""
""fullscreenenter"",""1"",""3422""
","
","","","628.3000000119209","","","20","10837","392","&#9730;","elianto","#3366ff99"," "," ","1","+10","[1480.300000011921]","1","1","","","10837","7","1","1","win","go","0"
"pit-trial","125","3357250","0.0-11.0","battery-v0.2","","""event"",""trial"",""time""
""fullscreenenter"",""1"",""3422""
""blur"",""7"",""649451""
""focus"",""7"",""2395634""
""blur"",""117"",""3312196""
""focus"",""117"",""3314350""
","""event"",""trial"",""time""
""blur"",""7"",""649451""
""blur"",""117"",""3312196""
","""event"",""trial"",""time""
""focus"",""7"",""2395634""
""focus"",""117"",""3314350""
","""event"",""trial"",""time""
""fullscreenenter"",""1"",""3422""
","
","","","-1","","","20","10837","392","&#9752;","elianto","#f73b6a7A"," ","-1","0","-10","[]","0","1","","","10837","8","3","3","lose","go","0"
"pit-trial","126","3360922","0.0-12.0","battery-v0.2","","""event"",""trial"",""time""
""fullscreenenter"",""1"",""3422""
""blur"",""7"",""649451""
""focus"",""7"",""2395634""
""blur"",""117"",""3312196""
""focus"",""117"",""3314350""
","""event"",""trial"",""time""
""blur"",""7"",""649451""
""blur"",""117"",""3312196""
","""event"",""trial"",""time""
""focus"",""7"",""2395634""
""focus"",""117"",""3314350""
","""event"",""trial"",""time""
""fullscreenenter"",""1"",""3422""
","
","","","813.8000000119209","","","20","10837","392","&#9733;","elianto","#3366ff99","-1"," ","0","+10","[1663.8999999761581]","1","1","","","10837","9","2","2","win","no-go","1"
"pit-trial","127","3364606","0.0-13.0","battery-v0.2","","""event"",""trial"",""time""
""fullscreenenter"",""1"",""3422""
""blur"",""7"",""649451""
""focus"",""7"",""2395634""
""blur"",""117"",""3312196""
""focus"",""117"",""3314350""
","""event"",""trial"",""time""
""blur"",""7"",""649451""
""blur"",""117"",""3312196""
","""event"",""trial"",""time""
""focus"",""7"",""2395634""
""focus"",""117"",""3314350""
","""event"",""trial"",""time""
""fullscreenenter"",""1"",""3422""
","
","","","826.1999999880791","","","20","10837","392","&#9752;","elianto","#f73b6a7A"," "," ","1","0","[1676.8999999761581]","1","1","","","10837","10","3","3","lose","go","0"
"pit-trial","128","3369462","0.0-14.0","battery-v0.2","","""event"",""trial"",""time""
""fullscreenenter"",""1"",""3422""
""blur"",""7"",""649451""
""focus"",""7"",""2395634""
""blur"",""117"",""3312196""
""focus"",""117"",""3314350""
","""event"",""trial"",""time""
""blur"",""7"",""649451""
""blur"",""117"",""3312196""
","""event"",""trial"",""time""
""focus"",""7"",""2395634""
""focus"",""117"",""3314350""
","""event"",""trial"",""time""
""fullscreenenter"",""1"",""3422""
","
","","","-1","","","20","10837","392","&#9728;","elianto","#f73b6a7A","-1","-1","1","0","[]","0","1","","","10837","11","0","4","lose","no-go","0"
"pit-trial","129","3372940","0.0-15.0","battery-v0.2","","""event"",""trial"",""time""
""fullscreenenter"",""1"",""3422""
""blur"",""7"",""649451""
""focus"",""7"",""2395634""
""blur"",""117"",""3312196""
""focus"",""117"",""3314350""
","""event"",""trial"",""time""
""blur"",""7"",""649451""
""blur"",""117"",""3312196""
","""event"",""trial"",""time""
""focus"",""7"",""2395634""
""focus"",""117"",""3314350""
","""event"",""trial"",""time""
""fullscreenenter"",""1"",""3422""
","
","","","622.8000000119209","","","20","10837","392","&#9730;","elianto","#3366ff99"," "," ","1","+10","[1473.800000011921]","1","1","","","10837","12","1","1","win","go","0"
"pit-trial","130","3376414","0.0-16.0","battery-v0.2","","""event"",""trial"",""time""
""fullscreenenter"",""1"",""3422""
""blur"",""7"",""649451""
""focus"",""7"",""2395634""
""blur"",""117"",""3312196""
""focus"",""117"",""3314350""
","""event"",""trial"",""time""
""blur"",""7"",""649451""
""blur"",""117"",""3312196""
","""event"",""trial"",""time""
""focus"",""7"",""2395634""
""focus"",""117"",""3314350""
","""event"",""trial"",""time""
""fullscreenenter"",""1"",""3422""
","
","","","615.3000000119209","","","20","10837","392","&#9730;","elianto","#3366ff99"," "," ","1","+10","[1466.6000000238419]","1","1","","","10837","13","1","1","win","go","0"
"pit-trial","131","3379907","0.0-17.0","battery-v0.2","","""event"",""trial"",""time""
""fullscreenenter"",""1"",""3422""
""blur"",""7"",""649451""
""focus"",""7"",""2395634""
""blur"",""117"",""3312196""
""focus"",""117"",""3314350""
","""event"",""trial"",""time""
""blur"",""7"",""649451""
""blur"",""117"",""3312196""
","""event"",""trial"",""time""
""focus"",""7"",""2395634""
""focus"",""117"",""3314350""
","""event"",""trial"",""time""
""fullscreenenter"",""1"",""3422""
","
","","","633.9000000357628","","","20","10837","392","&#9733;","elianto","#3366ff99","-1"," ","0","0","[1485.6000000238419]","1","1","","","10837","14","2","2","win","no-go","0"
"pit-trial","132","3384768","0.0-18.0","battery-v0.2","","""event"",""trial"",""time""
""fullscreenenter"",""1"",""3422""
""blur"",""7"",""649451""
""focus"",""7"",""2395634""
""blur"",""117"",""3312196""
""focus"",""117"",""3314350""
","""event"",""trial"",""time""
""blur"",""7"",""649451""
""blur"",""117"",""3312196""
","""event"",""trial"",""time""
""focus"",""7"",""2395634""
""focus"",""117"",""3314350""
","""event"",""trial"",""time""
""fullscreenenter"",""1"",""3422""
","
","","","-1","","","20","10837","392","&#9728;","elianto","#f73b6a7A","-1","-1","1","-10","[]","0","1","","","10837","15","0","4","lose","no-go","1"
"pit-trial","133","3388367","0.0-19.0","battery-v0.2","","""event"",""trial"",""time""
""fullscreenenter"",""1"",""3422""
""blur"",""7"",""649451""
""focus"",""7"",""2395634""
""blur"",""117"",""3312196""
""focus"",""117"",""3314350""
","""event"",""trial"",""time""
""blur"",""7"",""649451""
""blur"",""117"",""3312196""
","""event"",""trial"",""time""
""focus"",""7"",""2395634""
""focus"",""117"",""3314350""
","""event"",""trial"",""time""
""fullscreenenter"",""1"",""3422""
","
","","","741.6999999880791","","","20","10837","392","&#9752;","elianto","#f73b6a7A"," "," ","1","0","[1592.5]","1","1","","","10837","16","3","3","lose","go","0"
"pit-trial","134","3392058","0.0-20.0","battery-v0.2","","""event"",""trial"",""time""
""fullscreenenter"",""1"",""3422""
""blur"",""7"",""649451""
""focus"",""7"",""2395634""
""blur"",""117"",""3312196""
""focus"",""117"",""3314350""
","""event"",""trial"",""time""
""blur"",""7"",""649451""
""blur"",""117"",""3312196""
","""event"",""trial"",""time""
""focus"",""7"",""2395634""
""focus"",""117"",""3314350""
","""event"",""trial"",""time""
""fullscreenenter"",""1"",""3422""
","
","","","835.8999999761581","","","20","10837","392","&#9752;","elianto","#f73b6a7A"," "," ","1","0","[1686.1000000238419]","1","1","","","10837","17","3","3","lose","go","0"
"pit-trial","135","3395583","0.0-21.0","battery-v0.2","","""event"",""trial"",""time""
""fullscreenenter"",""1"",""3422""
""blur"",""7"",""649451""
""focus"",""7"",""2395634""
""blur"",""117"",""3312196""
""focus"",""117"",""3314350""
","""event"",""trial"",""time""
""blur"",""7"",""649451""
""blur"",""117"",""3312196""
","""event"",""trial"",""time""
""focus"",""7"",""2395634""
""focus"",""117"",""3314350""
","""event"",""trial"",""time""
""fullscreenenter"",""1"",""3422""
","
","","","669.5","","","20","10837","392","&#9733;","elianto","#3366ff99","-1"," ","0","0","[1520.800000011921]","1","1","","","10837","18","2","2","win","no-go","0"
"pit-trial","136","3399082","0.0-22.0","battery-v0.2","","""event"",""trial"",""time""
""fullscreenenter"",""1"",""3422""
""blur"",""7"",""649451""
""focus"",""7"",""2395634""
""blur"",""117"",""3312196""
""focus"",""117"",""3314350""
","""event"",""trial"",""time""
""blur"",""7"",""649451""
""blur"",""117"",""3312196""
","""event"",""trial"",""time""
""focus"",""7"",""2395634""
""focus"",""117"",""3314350""
","""event"",""trial"",""time""
""fullscreenenter"",""1"",""3422""
","
","","","642.5","","","20","10837","392","&#9730;","elianto","#3366ff99"," "," ","1","0","[1493]","1","1","","","10837","19","1","1","win","go","1"
"pit-trial","137","3402680","0.0-23.0","battery-v0.2","","""event"",""trial"",""time""
""fullscreenenter"",""1"",""3422""
""blur"",""7"",""649451""
""focus"",""7"",""2395634""
""blur"",""117"",""3312196""
""focus"",""117"",""3314350""
","""event"",""trial"",""time""
""blur"",""7"",""649451""
""blur"",""117"",""3312196""
","""event"",""trial"",""time""
""focus"",""7"",""2395634""
""focus"",""117"",""3314350""
","""event"",""trial"",""time""
""fullscreenenter"",""1"",""3422""
","
","","","742.3000000119209","","","20","10837","392","&#9728;","elianto","#f73b6a7A","-1"," ","0","0","[1593.800000011921]","1","1","","","10837","20","0","4","lose","no-go","1"
"pit-instructions","138","3415261","0.0-24.0","battery-v0.2","","""event"",""trial"",""time""
""fullscreenenter"",""1"",""3422""
""blur"",""7"",""649451""
""focus"",""7"",""2395634""
""blur"",""117"",""3312196""
""focus"",""117"",""3314350""
","""event"",""trial"",""time""
""blur"",""7"",""649451""
""blur"",""117"",""3312196""
","""event"",""trial"",""time""
""focus"",""7"",""2395634""
""focus"",""117"",""3314350""
","""event"",""trial"",""time""
""fullscreenenter"",""1"",""3422""
","
","","[{""page_index"":0,""viewing_time"":5529.100000023842},{""page_index"":1,""viewing_time"":7049.300000011921}]","12578.699999988079","","","","","","","","","","","","","","","","","","","","","","","",""
"pit-trial","139","3418837","0.0-25.0","battery-v0.2","","""event"",""trial"",""time""
""fullscreenenter"",""1"",""3422""
""blur"",""7"",""649451""
""focus"",""7"",""2395634""
""blur"",""117"",""3312196""
""focus"",""117"",""3314350""
","""event"",""trial"",""time""
""blur"",""7"",""649451""
""blur"",""117"",""3312196""
","""event"",""trial"",""time""
""focus"",""7"",""2395634""
""focus"",""117"",""3314350""
","""event"",""trial"",""time""
""fullscreenenter"",""1"",""3422""
","
","","","715.6000000238419","","","20","10837","392","g","elianto","#f73b6a7A"," "," ","1","0","[1568.7999999523163]","1","2","","","10837","21","3","3","lose","go","0"
"pit-trial","140","3422166","0.0-26.0","battery-v0.2","","""event"",""trial"",""time""
""fullscreenenter"",""1"",""3422""
""blur"",""7"",""649451""
""focus"",""7"",""2395634""
""blur"",""117"",""3312196""
""focus"",""117"",""3314350""
","""event"",""trial"",""time""
""blur"",""7"",""649451""
""blur"",""117"",""3312196""
","""event"",""trial"",""time""
""focus"",""7"",""2395634""
""focus"",""117"",""3314350""
","""event"",""trial"",""time""
""fullscreenenter"",""1"",""3422""
","
","","","473.9000000357628","","","20","10837","392","l","elianto","#3366ff99"," "," ","1","+10","[1324.800000011921]","1","2","","","10837","22","1","1","win","go","0"
"pit-trial","141","3425549","0.0-27.0","battery-v0.2","","""event"",""trial"",""time""
""fullscreenenter"",""1"",""3422""
""blur"",""7"",""649451""
""focus"",""7"",""2395634""
""blur"",""117"",""3312196""
""focus"",""117"",""3314350""
","""event"",""trial"",""time""
""blur"",""7"",""649451""
""blur"",""117"",""3312196""
","""event"",""trial"",""time""
""focus"",""7"",""2395634""
""focus"",""117"",""3314350""
","""event"",""trial"",""time""
""fullscreenenter"",""1"",""3422""
","
","","","523.5999999642372","","","20","10837","392","u","elianto","#f73b6a7A","-1"," ","0","-10","[1375.800000011921]","1","2","","","10837","23","0","4","lose","no-go","0"
"pit-trial","142","3428990","0.0-28.0","battery-v0.2","","""event"",""trial"",""time""
""fullscreenenter"",""1"",""3422""
""blur"",""7"",""649451""
""focus"",""7"",""2395634""
""blur"",""117"",""3312196""
""focus"",""117"",""3314350""
","""event"",""trial"",""time""
""blur"",""7"",""649451""
""blur"",""117"",""3312196""
","""event"",""trial"",""time""
""focus"",""7"",""2395634""
""focus"",""117"",""3314350""
","""event"",""trial"",""time""
""fullscreenenter"",""1"",""3422""
","
","","","584","","","20","10837","392","a","elianto","#f73b6a7A","-1"," ","0","0","[1434.699999988079]","1","2","","","10837","24","2","4","lose","no-go","1"
"pit-trial","143","3432469","0.0-29.0","battery-v0.2","","""event"",""trial"",""time""
""fullscreenenter"",""1"",""3422""
""blur"",""7"",""649451""
""focus"",""7"",""2395634""
""blur"",""117"",""3312196""
""focus"",""117"",""3314350""
","""event"",""trial"",""time""
""blur"",""7"",""649451""
""blur"",""117"",""3312196""
","""event"",""trial"",""time""
""focus"",""7"",""2395634""
""focus"",""117"",""3314350""
","""event"",""trial"",""time""
""fullscreenenter"",""1"",""3422""
","
","","","624.6000000238419","","","20","10837","392","a","elianto","#f73b6a7A","-1"," ","0","0","[1476.300000011921]","1","2","","","10837","25","2","4","lose","no-go","1"
"pit-trial","144","3436014","0.0-30.0","battery-v0.2","","""event"",""trial"",""time""
""fullscreenenter"",""1"",""3422""
""blur"",""7"",""649451""
""focus"",""7"",""2395634""
""blur"",""117"",""3312196""
""focus"",""117"",""3314350""
","""event"",""trial"",""time""
""blur"",""7"",""649451""
""blur"",""117"",""3312196""
","""event"",""trial"",""time""
""focus"",""7"",""2395634""
""focus"",""117"",""3314350""
","""event"",""trial"",""time""
""fullscreenenter"",""1"",""3422""
","
","","","689.9000000357628","","","20","10837","392","l","elianto","#3366ff99"," "," ","1","+10","[1541]","1","2","","","10837","26","1","1","win","go","0"
"pit-trial","145","3440057","0.0-31.0","battery-v0.2","","""event"",""trial"",""time""
""fullscreenenter"",""1"",""3422""
""blur"",""7"",""649451""
""focus"",""7"",""2395634""
""blur"",""117"",""3312196""
""focus"",""117"",""3314350""
","""event"",""trial"",""time""
""blur"",""7"",""649451""
""blur"",""117"",""3312196""
","""event"",""trial"",""time""
""focus"",""7"",""2395634""
""focus"",""117"",""3314350""
","""event"",""trial"",""time""
""fullscreenenter"",""1"",""3422""
","
","","","1186.8999999761581","","","20","10837","392","g","elianto","#f73b6a7A"," "," ","1","0","[2038.1000000238419]","1","2","","","10837","27","3","3","lose","go","0"
"pit-trial","146","3444917","0.0-32.0","battery-v0.2","","""event"",""trial"",""time""
""fullscreenenter"",""1"",""3422""
""blur"",""7"",""649451""
""focus"",""7"",""2395634""
""blur"",""117"",""3312196""
""focus"",""117"",""3314350""
","""event"",""trial"",""time""
""blur"",""7"",""649451""
""blur"",""117"",""3312196""
","""event"",""trial"",""time""
""focus"",""7"",""2395634""
""focus"",""117"",""3314350""
","""event"",""trial"",""time""
""fullscreenenter"",""1"",""3422""
","
","","","-1","","","20","10837","392","u","elianto","#f73b6a7A","-1","-1","1","0","[]","0","2","","","10837","28","0","4","lose","no-go","0"
"pit-trial","147","3449778","0.0-33.0","battery-v0.2","","""event"",""trial"",""time""
""fullscreenenter"",""1"",""3422""
""blur"",""7"",""649451""
""focus"",""7"",""2395634""
""blur"",""117"",""3312196""
""focus"",""117"",""3314350""
","""event"",""trial"",""time""
""blur"",""7"",""649451""
""blur"",""117"",""3312196""
","""event"",""trial"",""time""
""focus"",""7"",""2395634""
""focus"",""117"",""3314350""
","""event"",""trial"",""time""
""fullscreenenter"",""1"",""3422""
","
","","","-1","","","20","10837","392","u","elianto","#f73b6a7A","-1","-1","1","0","[]","0","2","","","10837","29","0","4","lose","no-go","0"
"pit-trial","148","3453261","0.0-34.0","battery-v0.2","","""event"",""trial"",""time""
""fullscreenenter"",""1"",""3422""
""blur"",""7"",""649451""
""focus"",""7"",""2395634""
""blur"",""117"",""3312196""
""focus"",""117"",""3314350""
","""event"",""trial"",""time""
""blur"",""7"",""649451""
""blur"",""117"",""3312196""
","""event"",""trial"",""time""
""focus"",""7"",""2395634""
""focus"",""117"",""3314350""
","""event"",""trial"",""time""
""fullscreenenter"",""1"",""3422""
","
","","","624.3000000119209","","","20","10837","392","a","elianto","#f73b6a7A","-1"," ","0","-10","[1477.0999999642372]","1","2","","","10837","30","2","4","lose","no-go","0"
"pit-trial","149","3457052","0.0-35.0","battery-v0.2","","""event"",""trial"",""time""
""fullscreenenter"",""1"",""3422""
""blur"",""7"",""649451""
""focus"",""7"",""2395634""
""blur"",""117"",""3312196""
""focus"",""117"",""3314350""
","""event"",""trial"",""time""
""blur"",""7"",""649451""
""blur"",""117"",""3312196""
","""event"",""trial"",""time""
""focus"",""7"",""2395634""
""focus"",""117"",""3314350""
","""event"",""trial"",""time""
""fullscreenenter"",""1"",""3422""
","
","","","935.1999999880791","","","20","10837","392","g","elianto","#f73b6a7A"," "," ","1","0","[1787.199999988079]","1","2","","","10837","31","3","3","lose","go","0"
"pit-trial","150","3460530","0.0-36.0","battery-v0.2","","""event"",""trial"",""time""
""fullscreenenter"",""1"",""3422""
""blur"",""7"",""649451""
""focus"",""7"",""2395634""
""blur"",""117"",""3312196""
""focus"",""117"",""3314350""
","""event"",""trial"",""time""
""blur"",""7"",""649451""
""blur"",""117"",""3312196""
","""event"",""trial"",""time""
""focus"",""7"",""2395634""
""focus"",""117"",""3314350""
","""event"",""trial"",""time""
""fullscreenenter"",""1"",""3422""
","
","","","619.8999999761581","","","20","10837","392","l","elianto","#3366ff99"," "," ","1","0","[1470.5]","1","2","","","10837","32","1","1","win","go","1"
"pit-trial","151","3464524","0.0-37.0","battery-v0.2","","""event"",""trial"",""time""
""fullscreenenter"",""1"",""3422""
""blur"",""7"",""649451""
""focus"",""7"",""2395634""
""blur"",""117"",""3312196""
""focus"",""117"",""3314350""
","""event"",""trial"",""time""
""blur"",""7"",""649451""
""blur"",""117"",""3312196""
","""event"",""trial"",""time""
""focus"",""7"",""2395634""
""focus"",""117"",""3314350""
","""event"",""trial"",""time""
""fullscreenenter"",""1"",""3422""
","
","","","1136.5","","","20","10837","392","g","elianto","#f73b6a7A"," "," ","1","0","[1988]","1","2","","","10837","33","3","3","lose","go","0"
"pit-trial","152","3467932","0.0-38.0","battery-v0.2","","""event"",""trial"",""time""
""fullscreenenter"",""1"",""3422""
""blur"",""7"",""649451""
""focus"",""7"",""2395634""
""blur"",""117"",""3312196""
""focus"",""117"",""3314350""
","""event"",""trial"",""time""
""blur"",""7"",""649451""
""blur"",""117"",""3312196""
","""event"",""trial"",""time""
""focus"",""7"",""2395634""
""focus"",""117"",""3314350""
","""event"",""trial"",""time""
""fullscreenenter"",""1"",""3422""
","
","","","551.3000000119209","","","20","10837","392","a","elianto","#f73b6a7A","-1"," ","0","-10","[1402.7000000476837]","1","2","","","10837","34","2","4","lose","no-go","0"
"pit-trial","153","3471415","0.0-39.0","battery-v0.2","","""event"",""trial"",""time""
""fullscreenenter"",""1"",""3422""
""blur"",""7"",""649451""
""focus"",""7"",""2395634""
""blur"",""117"",""3312196""
""focus"",""117"",""3314350""
","""event"",""trial"",""time""
""blur"",""7"",""649451""
""blur"",""117"",""3312196""
","""event"",""trial"",""time""
""focus"",""7"",""2395634""
""focus"",""117"",""3314350""
","""event"",""trial"",""time""
""fullscreenenter"",""1"",""3422""
","
","","","630.1000000238419","","","20","10837","392","l","elianto","#3366ff99"," "," ","1","+10","[1480.199999988079]","1","2","","","10837","35","1","1","win","go","0"
"pit-trial","154","3476277","0.0-40.0","battery-v0.2","","""event"",""trial"",""time""
""fullscreenenter"",""1"",""3422""
""blur"",""7"",""649451""
""focus"",""7"",""2395634""
""blur"",""117"",""3312196""
""focus"",""117"",""3314350""
","""event"",""trial"",""time""
""blur"",""7"",""649451""
""blur"",""117"",""3312196""
","""event"",""trial"",""time""
""focus"",""7"",""2395634""
""focus"",""117"",""3314350""
","""event"",""trial"",""time""
""fullscreenenter"",""1"",""3422""
","
","","","-1","","","20","10837","392","u","elianto","#f73b6a7A","-1","-1","1","-10","[]","0","2","","","10837","36","0","4","lose","no-go","1"
"pit-trial","155","3479978","0.0-41.0","battery-v0.2","","""event"",""trial"",""time""
""fullscreenenter"",""1"",""3422""
""blur"",""7"",""649451""
""focus"",""7"",""2395634""
""blur"",""117"",""3312196""
""focus"",""117"",""3314350""
","""event"",""trial"",""time""
""blur"",""7"",""649451""
""blur"",""117"",""3312196""
","""event"",""trial"",""time""
""focus"",""7"",""2395634""
""focus"",""117"",""3314350""
","""event"",""trial"",""time""
""fullscreenenter"",""1"",""3422""
","
","","","842.1999999880791","","","20","10837","392","g","elianto","#f73b6a7A"," "," ","1","0","[1694.699999988079]","1","2","","","10837","37","3","3","lose","go","0"
"pit-trial","156","3484837","0.0-42.0","battery-v0.2","","""event"",""trial"",""time""
""fullscreenenter"",""1"",""3422""
""blur"",""7"",""649451""
""focus"",""7"",""2395634""
""blur"",""117"",""3312196""
""focus"",""117"",""3314350""
","""event"",""trial"",""time""
""blur"",""7"",""649451""
""blur"",""117"",""3312196""
","""event"",""trial"",""time""
""focus"",""7"",""2395634""
""focus"",""117"",""3314350""
","""event"",""trial"",""time""
""fullscreenenter"",""1"",""3422""
","
","","","-1","","","20","10837","392","a","elianto","#f73b6a7A","-1","-1","1","0","[]","0","2","","","10837","38","2","4","lose","no-go","0"
"pit-trial","157","3488555","0.0-43.0","battery-v0.2","","""event"",""trial"",""time""
""fullscreenenter"",""1"",""3422""
""blur"",""7"",""649451""
""focus"",""7"",""2395634""
""blur"",""117"",""3312196""
""focus"",""117"",""3314350""
","""event"",""trial"",""time""
""blur"",""7"",""649451""
""blur"",""117"",""3312196""
","""event"",""trial"",""time""
""focus"",""7"",""2395634""
""focus"",""117"",""3314350""
","""event"",""trial"",""time""
""fullscreenenter"",""1"",""3422""
","
","","","864.8000000119209","","","20","10837","392","u","elianto","#f73b6a7A","-1"," ","0","-10","[1715.2999999523163]","1","2","","","10837","39","0","4","lose","no-go","0"
"pit-trial","158","3491959","0.0-44.0","battery-v0.2","","""event"",""trial"",""time""
""fullscreenenter"",""1"",""3422""
""blur"",""7"",""649451""
""focus"",""7"",""2395634""
""blur"",""117"",""3312196""
""focus"",""117"",""3314350""
","""event"",""trial"",""time""
""blur"",""7"",""649451""
""blur"",""117"",""3312196""
","""event"",""trial"",""time""
""focus"",""7"",""2395634""
""focus"",""117"",""3314350""
","""event"",""trial"",""time""
""fullscreenenter"",""1"",""3422""
","
","","","545.3000000119209","","","20","10837","392","l","elianto","#3366ff99"," "," ","1","+10","[1396.5]","1","2","","","10837","40","1","1","win","go","0"
"pit-trial","159","3496813","0.0-45.0","battery-v0.2","","""event"",""trial"",""time""
""fullscreenenter"",""1"",""3422""
""blur"",""7"",""649451""
""focus"",""7"",""2395634""
""blur"",""117"",""3312196""
""focus"",""117"",""3314350""
","""event"",""trial"",""time""
""blur"",""7"",""649451""
""blur"",""117"",""3312196""
","""event"",""trial"",""time""
""focus"",""7"",""2395634""
""focus"",""117"",""3314350""
","""event"",""trial"",""time""
""fullscreenenter"",""1"",""3422""
","
","","","-1","","","20","10837","392","u","elianto","#f73b6a7A","-1","-1","1","0","[]","0","2","","","10837","41","0","4","lose","no-go","0"
"pit-trial","160","3500445","0.0-46.0","battery-v0.2","","""event"",""trial"",""time""
""fullscreenenter"",""1"",""3422""
""blur"",""7"",""649451""
""focus"",""7"",""2395634""
""blur"",""117"",""3312196""
""focus"",""117"",""3314350""
","""event"",""trial"",""time""
""blur"",""7"",""649451""
""blur"",""117"",""3312196""
","""event"",""trial"",""time""
""focus"",""7"",""2395634""
""focus"",""117"",""3314350""
","""event"",""trial"",""time""
""fullscreenenter"",""1"",""3422""
","
","","","775.6999999880791","","","20","10837","392","a","elianto","#f73b6a7A","-1"," ","0","-10","[1627]","1","2","","","10837","42","2","4","lose","no-go","0"
"pit-trial","161","3503905","0.0-47.0","battery-v0.2","","""event"",""trial"",""time""
""fullscreenenter"",""1"",""3422""
""blur"",""7"",""649451""
""focus"",""7"",""2395634""
""blur"",""117"",""3312196""
""focus"",""117"",""3314350""
","""event"",""trial"",""time""
""blur"",""7"",""649451""
""blur"",""117"",""3312196""
","""event"",""trial"",""time""
""focus"",""7"",""2395634""
""focus"",""117"",""3314350""
","""event"",""trial"",""time""
""fullscreenenter"",""1"",""3422""
","
","","","599.9000000357628","","","20","10837","392","l","elianto","#3366ff99"," "," ","1","+10","[1452.4000000357628]","1","2","","","10837","43","1","1","win","go","0"
"pit-trial","162","3507609","0.0-48.0","battery-v0.2","","""event"",""trial"",""time""
""fullscreenenter"",""1"",""3422""
""blur"",""7"",""649451""
""focus"",""7"",""2395634""
""blur"",""117"",""3312196""
""focus"",""117"",""3314350""
","""event"",""trial"",""time""
""blur"",""7"",""649451""
""blur"",""117"",""3312196""
","""event"",""trial"",""time""
""focus"",""7"",""2395634""
""focus"",""117"",""3314350""
","""event"",""trial"",""time""
""fullscreenenter"",""1"",""3422""
","
","","","847.8000000119209","","","20","10837","392","g","elianto","#f73b6a7A"," "," ","1","0","[1698.3999999761581]","1","2","","","10837","44","3","3","lose","go","0"
"pit-trial","163","3511239","0.0-49.0","battery-v0.2","","""event"",""trial"",""time""
""fullscreenenter"",""1"",""3422""
""blur"",""7"",""649451""
""focus"",""7"",""2395634""
""blur"",""117"",""3312196""
""focus"",""117"",""3314350""
","""event"",""trial"",""time""
""blur"",""7"",""649451""
""blur"",""117"",""3312196""
","""event"",""trial"",""time""
""focus"",""7"",""2395634""
""focus"",""117"",""3314350""
","""event"",""trial"",""time""
""fullscreenenter"",""1"",""3422""
","
","","","773.2999999523163","","","20","10837","392","p","elianto","#3366ff99","-1"," ","0","0","[1625.4000000357628]","1","2","","","10837","45","4","2","win","no-go","0"
"pit-trial","164","3514779","0.0-50.0","battery-v0.2","","""event"",""trial"",""time""
""fullscreenenter"",""1"",""3422""
""blur"",""7"",""649451""
""focus"",""7"",""2395634""
""blur"",""117"",""3312196""
""focus"",""117"",""3314350""
","""event"",""trial"",""time""
""blur"",""7"",""649451""
""blur"",""117"",""3312196""
","""event"",""trial"",""time""
""focus"",""7"",""2395634""
""focus"",""117"",""3314350""
","""event"",""trial"",""time""
""fullscreenenter"",""1"",""3422""
","
","","","682","","","20","10837","392","g","elianto","#f73b6a7A"," "," ","1","0","[1532.5]","1","2","","","10837","46","3","3","lose","go","0"
"pit-trial","165","3518429","0.0-51.0","battery-v0.2","","""event"",""trial"",""time""
""fullscreenenter"",""1"",""3422""
""blur"",""7"",""649451""
""focus"",""7"",""2395634""
""blur"",""117"",""3312196""
""focus"",""117"",""3314350""
","""event"",""trial"",""time""
""blur"",""7"",""649451""
""blur"",""117"",""3312196""
","""event"",""trial"",""time""
""focus"",""7"",""2395634""
""focus"",""117"",""3314350""
","""event"",""trial"",""time""
""fullscreenenter"",""1"",""3422""
","
","","","789.9000000357628","","","20","10837","392","u","elianto","#f73b6a7A","-1"," ","0","0","[1643.2000000476837]","1","2","","","10837","47","0","4","lose","no-go","1"
"pit-trial","166","3522856","0.0-52.0","battery-v0.2","","""event"",""trial"",""time""
""fullscreenenter"",""1"",""3422""
""blur"",""7"",""649451""
""focus"",""7"",""2395634""
""blur"",""117"",""3312196""
""focus"",""117"",""3314350""
","""event"",""trial"",""time""
""blur"",""7"",""649451""
""blur"",""117"",""3312196""
","""event"",""trial"",""time""
""focus"",""7"",""2395634""
""focus"",""117"",""3314350""
","""event"",""trial"",""time""
""fullscreenenter"",""1"",""3422""
","
","","","1572.2999999523163","","","20","10837","392","a","elianto","#f73b6a7A","-1"," ","0","0","[2423.199999988079]","1","2","","","10837","48","2","4","lose","no-go","1"
"pit-trial","167","3526403","0.0-53.0","battery-v0.2","","""event"",""trial"",""time""
""fullscreenenter"",""1"",""3422""
""blur"",""7"",""649451""
""focus"",""7"",""2395634""
""blur"",""117"",""3312196""
""focus"",""117"",""3314350""
","""event"",""trial"",""time""
""blur"",""7"",""649451""
""blur"",""117"",""3312196""
","""event"",""trial"",""time""
""focus"",""7"",""2395634""
""focus"",""117"",""3314350""
","""event"",""trial"",""time""
""fullscreenenter"",""1"",""3422""
","
","","","691.8000000119209","","","20","10837","392","g","elianto","#f73b6a7A"," "," ","1","0","[1543.699999988079]","1","2","","","10837","49","3","3","lose","go","0"
"pit-trial","168","3529858","0.0-54.0","battery-v0.2","","""event"",""trial"",""time""
""fullscreenenter"",""1"",""3422""
""blur"",""7"",""649451""
""focus"",""7"",""2395634""
""blur"",""117"",""3312196""
""focus"",""117"",""3314350""
","""event"",""trial"",""time""
""blur"",""7"",""649451""
""blur"",""117"",""3312196""
","""event"",""trial"",""time""
""focus"",""7"",""2395634""
""focus"",""117"",""3314350""
","""event"",""trial"",""time""
""fullscreenenter"",""1"",""3422""
","
","","","600.5","","","20","10837","392","p","elianto","#3366ff99","-1"," ","0","0","[1451]","1","2","","","10837","50","4","2","win","no-go","0"
"pit-trial","169","3533259","0.0-55.0","battery-v0.2","","""event"",""trial"",""time""
""fullscreenenter"",""1"",""3422""
""blur"",""7"",""649451""
""focus"",""7"",""2395634""
""blur"",""117"",""3312196""
""focus"",""117"",""3314350""
","""event"",""trial"",""time""
""blur"",""7"",""649451""
""blur"",""117"",""3312196""
","""event"",""trial"",""time""
""focus"",""7"",""2395634""
""focus"",""117"",""3314350""
","""event"",""trial"",""time""
""fullscreenenter"",""1"",""3422""
","
","","","542.3999999761581","","","20","10837","392","l","elianto","#3366ff99"," "," ","1","+10","[1393.7999999523163]","1","2","","","10837","51","1","1","win","go","0"
"pit-trial","170","3536878","0.0-56.0","battery-v0.2","","""event"",""trial"",""time""
""fullscreenenter"",""1"",""3422""
""blur"",""7"",""649451""
""focus"",""7"",""2395634""
""blur"",""117"",""3312196""
""focus"",""117"",""3314350""
","""event"",""trial"",""time""
""blur"",""7"",""649451""
""blur"",""117"",""3312196""
","""event"",""trial"",""time""
""focus"",""7"",""2395634""
""focus"",""117"",""3314350""
","""event"",""trial"",""time""
""fullscreenenter"",""1"",""3422""
","
","","","762.1999999880791","","","20","10837","392","u","elianto","#f73b6a7A","-1"," ","0","-10","[1613.2999999523163]","1","2","","","10837","52","0","4","lose","no-go","0"
"pit-trial","171","3540514","0.0-57.0","battery-v0.2","","""event"",""trial"",""time""
""fullscreenenter"",""1"",""3422""
""blur"",""7"",""649451""
""focus"",""7"",""2395634""
""blur"",""117"",""3312196""
""focus"",""117"",""3314350""
","""event"",""trial"",""time""
""blur"",""7"",""649451""
""blur"",""117"",""3312196""
