"trial_type","trial_index","time_elapsed","internal_node_id","task_version","subject_id","interactions","blur_events","focus_events","fullscreenenter_events","fullscreenexit_events","success","view_history","rt","responses","num_errors","age","subject","participantId","rune","rune_set","hex","correct","choice","accuracy","outcome","keys","total_keys","block","practice","value","sub","trial","stimulus","robot","valence","action","sham"
"pavlovia","0","10","0.0-0.0","battery-v0.2","","""event"",""trial"",""time""
""fullscreenenter"",""1"",""3024""
","
","
","""event"",""trial"",""time""
""fullscreenenter"",""1"",""3024""
","
","","","","","","","","","","","","","","","","","","","","","","","","","","",""
"fullscreen","1","4016","0.0-1.0","battery-v0.2","","""event"",""trial"",""time""
""fullscreenenter"",""1"",""3024""
","
","
","""event"",""trial"",""time""
""fullscreenenter"",""1"",""3024""
","
","true","","","","","","","","","","","","","","","","","","","","","","","","","",""
"pit-instructions","2","12632","0.0-2.0-0.0","battery-v0.2","","""event"",""trial"",""time""
""fullscreenenter"",""1"",""3024""
","
","
","""event"",""trial"",""time""
""fullscreenenter"",""1"",""3024""
","
","","[{""page_index"":0,""viewing_time"":8613.200000047684}]","8613.600000023842","","","","","","","","","","","","","","","","","","","","","","","",""
"pit-comprehension","3","49063","0.0-2.0-1.0-0.0","battery-v0.2","","""event"",""trial"",""time""
""fullscreenenter"",""1"",""3024""
","
","
","""event"",""trial"",""time""
""fullscreenenter"",""1"",""3024""
","
","","","36427.80000001192","[""fish""]","1","14","15049","6125","","","","","","","","","","","","","","","","","","",""
"pit-instructions","4","54743","0.0-2.0-1.0-1.0","battery-v0.2","","""event"",""trial"",""time""
""fullscreenenter"",""1"",""3024""
","
","
","""event"",""trial"",""time""
""fullscreenenter"",""1"",""3024""
","
","","[{""page_index"":0,""viewing_time"":5669.199999988079}]","5669.5","","","","","","","","","","","","","","","","","","","","","","","",""
"pit-instructions","5","57642","0.0-2.0-1.0-2.0-0.0","battery-v0.2","","""event"",""trial"",""time""
""fullscreenenter"",""1"",""3024""
","
","
","""event"",""trial"",""time""
""fullscreenenter"",""1"",""3024""
","
","","[{""page_index"":0,""viewing_time"":2897.7000000476837}]","2898","","","","","","","","","","","","","","","","","","","","","","","",""
"pit-comprehension","6","63879","0.0-2.0-1.1-0.1","battery-v0.2","","""event"",""trial"",""time""
""fullscreenenter"",""1"",""3024""
","
","
","""event"",""trial"",""time""
""fullscreenenter"",""1"",""3024""
","
","","","6233.199999988079","[""shark""]","0","14","15049","6125","","","","","","","","","","","","","","","","","","",""
"pit-instructions","7","65184","0.0-2.0-1.1-1.1","battery-v0.2","","""event"",""trial"",""time""
""fullscreenenter"",""1"",""3024""
","
","
","""event"",""trial"",""time""
""fullscreenenter"",""1"",""3024""
","
","","[{""page_index"":0,""viewing_time"":1302.5}]","1302.7999999523163","","","","","","","","","","","","","","","","","","","","","","","",""
"pit-comprehension","8","76256","0.0-2.0-2.0-0.0","battery-v0.2","","""event"",""trial"",""time""
""fullscreenenter"",""1"",""3024""
","
","
","""event"",""trial"",""time""
""fullscreenenter"",""1"",""3024""
","
","","","11068.5","[""tiger""]","0","14","15049","6125","","","","","","","","","","","","","","","","","","",""
"pit-instructions","9","84827","0.0-2.0-2.0-1.0","battery-v0.2","","""event"",""trial"",""time""
""fullscreenenter"",""1"",""3024""
","
","
","""event"",""trial"",""time""
""fullscreenenter"",""1"",""3024""
","
","","[{""page_index"":0,""viewing_time"":8567.099999964237}]","8567.5","","","","","","","","","","","","","","","","","","","","","","","",""
"pit-instructions","10","187427","0.0-2.0-3.0","battery-v0.2","","""event"",""trial"",""time""
""fullscreenenter"",""1"",""3024""
","
","
","""event"",""trial"",""time""
""fullscreenenter"",""1"",""3024""
","
","","[{""page_index"":0,""viewing_time"":12234.5},{""page_index"":1,""viewing_time"":5989.399999976158},{""page_index"":2,""viewing_time"":8919.199999988079},{""page_index"":3,""viewing_time"":6840.900000035763},{""page_index"":4,""viewing_time"":5835.5},{""page_index"":5,""viewing_time"":6192.599999964237},{""page_index"":6,""viewing_time"":7641.900000035763},{""page_index"":7,""viewing_time"":6504.399999976158},{""page_index"":8,""viewing_time"":6284.899999976158},{""page_index"":9,""viewing_time"":7931.200000047684},{""page_index"":10,""viewing_time"":8567.699999988079},{""page_index"":11,""viewing_time"":7293.899999976158},{""page_index"":12,""viewing_time"":6832.100000023842},{""page_index"":13,""viewing_time"":5528.699999988079}]","102597.29999995232","","","","","","","","","","","","","","","","","","","","","","","",""
"pit-trial","11","191300","0.0-2.0-4.0-0.0","battery-v0.2","","""event"",""trial"",""time""
""fullscreenenter"",""1"",""3024""
","
","
","""event"",""trial"",""time""
""fullscreenenter"",""1"",""3024""
","
","","","1004.1999999880791","","","14","15049","6125","&#9784;","elianto","#FFFFF080"," "," ","1","&#10004","[1862.2000000476837,3670.100000023842]","2","0","0","","","","","","","",""
"pit-trial","12","195356","0.0-2.0-4.1-0.1","battery-v0.2","","""event"",""trial"",""time""
""fullscreenenter"",""1"",""3024""
","
","
","""event"",""trial"",""time""
""fullscreenenter"",""1"",""3024""
","
","","","1193.0999999642372","","","14","15049","6125","&#9784;","elianto","#FFFFF080"," "," ","1","&#10004","[2045,3213.600000023842]","2","0","0","","","","","","","",""
"pit-trial","13","199167","0.0-2.0-4.2-0.2","battery-v0.2","","""event"",""trial"",""time""
""fullscreenenter"",""1"",""3024""
","
","
","""event"",""trial"",""time""
""fullscreenenter"",""1"",""3024""
","
","","","936.6999999880791","","","14","15049","6125","&#9784;","elianto","#FFFFF080"," "," ","1","&#10004","[1797.7999999523163]","1","0","0","","","","","","","",""
"pit-trial","14","203497","0.0-2.0-4.3-0.3","battery-v0.2","","""event"",""trial"",""time""
""fullscreenenter"",""1"",""3024""
","
","
","""event"",""trial"",""time""
""fullscreenenter"",""1"",""3024""
","
","","","1474.699999988079","","","14","15049","6125","&#9784;","elianto","#FFFFF080"," "," ","1","&#10004","[2324.699999988079,3523.2999999523163]","2","0","0","","","","","","","",""
"pit-trial","15","208360","0.0-2.0-4.4-0.4","battery-v0.2","","""event"",""trial"",""time""
""fullscreenenter"",""1"",""3024""
","
","
","""event"",""trial"",""time""
""fullscreenenter"",""1"",""3024""
","
","","","-1","","","14","15049","6125","&#9784;","elianto","#FFFFF080"," ","-1","0","&#10060","[2905.2999999523163]","1","0","0","","","","","","","",""
"pit-trial","16","212979","0.0-2.0-4.5-0.5","battery-v0.2","","""event"",""trial"",""time""
""fullscreenenter"",""1"",""3024""
","
","
","""event"",""trial"",""time""
""fullscreenenter"",""1"",""3024""
","
","","","1751.9000000357628","","","14","15049","6125","&#9784;","elianto","#FFFFF080"," "," ","1","&#10004","[2603.5]","1","0","0","","","","","","","",""
"pit-trial","17","216661","0.0-2.0-4.6-0.6","battery-v0.2","","""event"",""trial"",""time""
""fullscreenenter"",""1"",""3024""
","
","
","""event"",""trial"",""time""
""fullscreenenter"",""1"",""3024""
","
","","","823.1999999880791","","","14","15049","6125","&#9784;","elianto","#FFFFF080"," "," ","1","&#10004","[1673.699999988079]","1","0","0","","","","","","","",""
"pit-instructions","18","231479","0.0-2.0-4.6-1.6-0.6","battery-v0.2","","""event"",""trial"",""time""
""fullscreenenter"",""1"",""3024""
","
","
","""event"",""trial"",""time""
""fullscreenenter"",""1"",""3024""
","
","","[{""page_index"":0,""viewing_time"":6205},{""page_index"":1,""viewing_time"":8612.100000023842}]","14817.400000035763","","","","","","","","","","","","","","","","","","","","","","","",""
"pit-trial","19","235167","0.0-2.0-4.7-0.7","battery-v0.2","","""event"",""trial"",""time""
""fullscreenenter"",""1"",""3024""
","
","
","""event"",""trial"",""time""
""fullscreenenter"",""1"",""3024""
","
","","","809.5","","","14","15049","6125","&#9784;","elianto","#FFFFF080"," "," ","1","&#10004","[1670.9000000357628]","1","0","0","","","","","","","",""
"pit-instructions","20","258653","0.0-2.0-5.0","battery-v0.2","","""event"",""trial"",""time""
""fullscreenenter"",""1"",""3024""
","
","
","""event"",""trial"",""time""
""fullscreenenter"",""1"",""3024""
","
","","[{""page_index"":0,""viewing_time"":5430.800000011921},{""page_index"":1,""viewing_time"":5872.199999988079},{""page_index"":2,""viewing_time"":5417.600000023842},{""page_index"":3,""viewing_time"":6762.800000011921}]","23483.5","","","","","","","","","","","","","","","","","","","","","","","",""
"pit-trial","21","263517","0.0-2.0-6.0-0.0","battery-v0.2","","""event"",""trial"",""time""
""fullscreenenter"",""1"",""3024""
","
","
","""event"",""trial"",""time""
""fullscreenenter"",""1"",""3024""
","
","","","-1","","","14","15049","6125","&#9854;","elianto","#FFFFF080","-1","-1","1","&#10004","[]","0","0","1","","","","","","","",""
"pit-trial","22","268380","0.0-2.0-6.1-0.1","battery-v0.2","","""event"",""trial"",""time""
""fullscreenenter"",""1"",""3024""
","
","
","""event"",""trial"",""time""
""fullscreenenter"",""1"",""3024""
","
","","","-1","","","14","15049","6125","&#9854;","elianto","#FFFFF080","-1","-1","1","&#10004","[]","0","0","1","","","","","","","",""
"pit-trial","23","273243","0.0-2.0-6.2-0.2","battery-v0.2","","""event"",""trial"",""time""
""fullscreenenter"",""1"",""3024""
","
","
","""event"",""trial"",""time""
""fullscreenenter"",""1"",""3024""
","
","","","-1","","","14","15049","6125","&#9854;","elianto","#FFFFF080","-1","-1","1","&#10004","[]","0","0","1","","","","","","","",""
"pit-trial","24","278105","0.0-2.0-6.3-0.3","battery-v0.2","","""event"",""trial"",""time""
""fullscreenenter"",""1"",""3024""
","
","
","""event"",""trial"",""time""
""fullscreenenter"",""1"",""3024""
","
","","","-1","","","14","15049","6125","&#9854;","elianto","#FFFFF080","-1","-1","1","&#10004","[]","0","0","1","","","","","","","",""
"pit-trial","25","282988","0.0-2.0-6.4-0.4","battery-v0.2","","""event"",""trial"",""time""
""fullscreenenter"",""1"",""3024""
","
","
","""event"",""trial"",""time""
""fullscreenenter"",""1"",""3024""
","
","","","-1","","","14","15049","6125","&#9854;","elianto","#FFFFF080","-1","-1","1","&#10004","[]","0","0","1","","","","","","","",""
"pit-instructions","26","401646","0.0-2.0-7.0","battery-v0.2","","""event"",""trial"",""time""
""fullscreenenter"",""1"",""3024""
","
","
","""event"",""trial"",""time""
""fullscreenenter"",""1"",""3024""
","
","","[{""page_index"":0,""viewing_time"":5981.199999988079},{""page_index"":1,""viewing_time"":7092.600000023842},{""page_index"":2,""viewing_time"":5762.699999988079},{""page_index"":3,""viewing_time"":6583},{""page_index"":4,""viewing_time"":5547.600000023842},{""page_index"":5,""viewing_time"":5611},{""page_index"":6,""viewing_time"":4924.799999952316},{""page_index"":7,""viewing_time"":8052.900000035763},{""page_index"":8,""viewing_time"":6560.800000011921},{""page_index"":9,""viewing_time"":6022.599999964237},{""page_index"":10,""viewing_time"":6375.600000023842},{""page_index"":11,""viewing_time"":5065.800000011921},{""page_index"":12,""viewing_time"":6982.699999988079},{""page_index"":13,""viewing_time"":7204.599999964237},{""page_index"":14,""viewing_time"":7011},{""page_index"":15,""viewing_time"":6321.5},{""page_index"":16,""viewing_time"":9197.200000047684},{""page_index"":17,""viewing_time"":8356.199999988079}]","118654.19999998808","","","","","","","","","","","","","","","","","","","","","","","",""
"pit-trial","27","405708","0.0-2.0-8.0-0.0","battery-v0.2","","""event"",""trial"",""time""
""fullscreenenter"",""1"",""3024""
","
","
","""event"",""trial"",""time""
""fullscreenenter"",""1"",""3024""
","
","","","1201.5","","","14","15049","6125","&#9776;","elianto","#3366ff99"," "," ","1","+10","[2052.100000023842]","1","0","1","","","","","","","",""
"pit-trial","28","409292","0.0-2.0-8.0-1.0","battery-v0.2","","""event"",""trial"",""time""
""fullscreenenter"",""1"",""3024""
","
","
","""event"",""trial"",""time""
""fullscreenenter"",""1"",""3024""
","
","","","713.3999999761581","","","14","15049","6125","&#9776;","elianto","#3366ff99"," "," ","1","+10","[1566.0999999642372]","1","0","1","","","","","","","",""
"pit-trial","29","412861","0.0-2.0-8.0-2.0","battery-v0.2","","""event"",""trial"",""time""
""fullscreenenter"",""1"",""3024""
","
","
","""event"",""trial"",""time""
""fullscreenenter"",""1"",""3024""
","
","","","699.3000000119209","","","14","15049","6125","&#9776;","elianto","#3366ff99"," "," ","1","+10","[1550.4000000357628]","1","0","1","","","","","","","",""
"pit-trial","30","417019","0.0-2.0-8.0-3.0","battery-v0.2","","""event"",""trial"",""time""
""fullscreenenter"",""1"",""3024""
","
","
","""event"",""trial"",""time""
""fullscreenenter"",""1"",""3024""
","
","","","1299.4000000357628","","","14","15049","6125","&#9776;","elianto","#3366ff99"," "," ","1","0","[2150.2000000476837]","1","0","1","","","","","","","",""
"pit-trial","31","420538","0.0-2.0-8.0-4.0","battery-v0.2","","""event"",""trial"",""time""
""fullscreenenter"",""1"",""3024""
","
","
","""event"",""trial"",""time""
""fullscreenenter"",""1"",""3024""
","
","","","647.1999999880791","","","14","15049","6125","&#9776;","elianto","#3366ff99"," "," ","1","+10","[1504.800000011921]","1","0","1","","","","","","","",""
"pit-trial","32","423926","0.0-2.0-8.1-0.1","battery-v0.2","","""event"",""trial"",""time""
""fullscreenenter"",""1"",""3024""
","
","
","""event"",""trial"",""time""
""fullscreenenter"",""1"",""3024""
","
","","","532.5999999642372","","","14","15049","6125","&#9776;","elianto","#3366ff99"," "," ","1","+10","[1385.0999999642372]","1","0","1","","","","","","","",""
"pit-trial","33","427383","0.0-2.0-8.1-1.1","battery-v0.2","","""event"",""trial"",""time""
""fullscreenenter"",""1"",""3024""
","
","
","""event"",""trial"",""time""
""fullscreenenter"",""1"",""3024""
","
","","","583.1000000238419","","","14","15049","6125","&#9776;","elianto","#3366ff99"," "," ","1","+10","[1446.8999999761581]","1","0","1","","","","","","","",""
"pit-trial","34","430486","0.0-2.0-8.1-2.1","battery-v0.2","","""event"",""trial"",""time""
""fullscreenenter"",""1"",""3024""
","
","
","""event"",""trial"",""time""
""fullscreenenter"",""1"",""3024""
","
","","","243.19999998807907","","","14","15049","6125","&#9776;","elianto","#3366ff99"," "," ","1","+10","[1100.199999988079]","1","0","1","","","","","","","",""
"pit-trial","35","433711","0.0-2.0-8.1-3.1","battery-v0.2","","""event"",""trial"",""time""
""fullscreenenter"",""1"",""3024""
","
","
","""event"",""trial"",""time""
""fullscreenenter"",""1"",""3024""
","
","","","370.69999998807907","","","14","15049","6125","&#9776;","elianto","#3366ff99"," "," ","1","0","[1221.6000000238419]","1","0","1","","","","","","","",""
"pit-trial","36","437055","0.0-2.0-8.1-4.1","battery-v0.2","","""event"",""trial"",""time""
""fullscreenenter"",""1"",""3024""
","
","
","""event"",""trial"",""time""
""fullscreenenter"",""1"",""3024""
","
","","","491.39999997615814","","","14","15049","6125","&#9776;","elianto","#3366ff99"," "," ","1","+10","[1341.6000000238419]","1","0","1","","","","","","","",""
"pit-trial","37","440345","0.0-2.0-8.2-0.2","battery-v0.2","","""event"",""trial"",""time""
""fullscreenenter"",""1"",""3024""
","
","
","""event"",""trial"",""time""
""fullscreenenter"",""1"",""3024""
","
","","","435.5999999642372","","","14","15049","6125","&#9776;","elianto","#3366ff99"," "," ","1","+10","[1286]","1","0","1","","","","","","","",""
"pit-trial","38","443624","0.0-2.0-8.2-1.2","battery-v0.2","","""event"",""trial"",""time""
""fullscreenenter"",""1"",""3024""
","
","
","""event"",""trial"",""time""
""fullscreenenter"",""1"",""3024""
","
","","","426.69999998807907","","","14","15049","6125","&#9776;","elianto","#3366ff99"," "," ","1","+10","[1277.2999999523163]","1","0","1","","","","","","","",""
"pit-trial","39","447001","0.0-2.0-8.2-2.2","battery-v0.2","","""event"",""trial"",""time""
""fullscreenenter"",""1"",""3024""
","
","
","""event"",""trial"",""time""
""fullscreenenter"",""1"",""3024""
","
","","","523.8999999761581","","","14","15049","6125","&#9776;","elianto","#3366ff99"," "," ","1","+10","[1374.199999988079]","1","0","1","","","","","","","",""
"pit-trial","40","450370","0.0-2.0-8.2-3.2","battery-v0.2","","""event"",""trial"",""time""
""fullscreenenter"",""1"",""3024""
","
","
","""event"",""trial"",""time""
""fullscreenenter"",""1"",""3024""
","
","","","516.6000000238419","","","14","15049","6125","&#9776;","elianto","#3366ff99"," "," ","1","0","[1366.800000011921]","1","0","1","","","","","","","",""
"pit-trial","41","453681","0.0-2.0-8.2-4.2","battery-v0.2","","""event"",""trial"",""time""
""fullscreenenter"",""1"",""3024""
","
","
","""event"",""trial"",""time""
""fullscreenenter"",""1"",""3024""
","
","","","457.7000000476837","","","14","15049","6125","&#9776;","elianto","#3366ff99"," "," ","1","+10","[1308]","1","0","1","","","","","","","",""
"call-function","42","453683","0.0-2.0-9.0","battery-v0.2","","""event"",""trial"",""time""
""fullscreenenter"",""1"",""3024""
","
","
","""event"",""trial"",""time""
""fullscreenenter"",""1"",""3024""
","
","","","","","","","","","","","","","","","","","","","","","","","","","","",""
"pit-instructions","43","496923","0.0-2.0-10.0","battery-v0.2","","""event"",""trial"",""time""
""fullscreenenter"",""1"",""3024""
","
","
","""event"",""trial"",""time""
""fullscreenenter"",""1"",""3024""
","
","","[{""page_index"":0,""viewing_time"":6538.800000011921},{""page_index"":1,""viewing_time"":7503.199999988079},{""page_index"":2,""viewing_time"":9445.5},{""page_index"":3,""viewing_time"":9384.100000023842},{""page_index"":4,""viewing_time"":10367.599999964237}]","43239.39999997616","","","","","","","","","","","","","","","","","","","","","","","",""
"pit-trial","44","501788","0.0-2.0-11.0-0.0","battery-v0.2","","""event"",""trial"",""time""
""fullscreenenter"",""1"",""3024""
","
","
","""event"",""trial"",""time""
""fullscreenenter"",""1"",""3024""
","
","","","-1","","","14","15049","6125","&#9761;","elianto","#3366ff99","-1","-1","1","+10","[]","0","0","2","","","","","","","",""
"pit-trial","45","506667","0.0-2.0-11.0-1.0","battery-v0.2","","""event"",""trial"",""time""
""fullscreenenter"",""1"",""3024""
","
","
","""event"",""trial"",""time""
""fullscreenenter"",""1"",""3024""
","
","","","-1","","","14","15049","6125","&#9761;","elianto","#3366ff99","-1","-1","1","+10","[]","0","0","2","","","","","","","",""
"pit-trial","46","511546","0.0-2.0-11.0-2.0","battery-v0.2","","""event"",""trial"",""time""
""fullscreenenter"",""1"",""3024""
","
","
","""event"",""trial"",""time""
""fullscreenenter"",""1"",""3024""
","
","","","-1","","","14","15049","6125","&#9761;","elianto","#3366ff99","-1","-1","1","+10","[]","0","0","2","","","","","","","",""
"pit-trial","47","516407","0.0-2.0-11.0-3.0","battery-v0.2","","""event"",""trial"",""time""
""fullscreenenter"",""1"",""3024""
","
","
","""event"",""trial"",""time""
""fullscreenenter"",""1"",""3024""
","
","","","-1","","","14","15049","6125","&#9761;","elianto","#3366ff99","-1","-1","1","0","[]","0","0","2","","","","","","","",""
"pit-trial","48","521272","0.0-2.0-11.0-4.0","battery-v0.2","","""event"",""trial"",""time""
""fullscreenenter"",""1"",""3024""
","
","
","""event"",""trial"",""time""
""fullscreenenter"",""1"",""3024""
","
","","","-1","","","14","15049","6125","&#9761;","elianto","#3366ff99","-1","-1","1","+10","[]","0","0","2","","","","","","","",""
"pit-trial","49","526133","0.0-2.0-11.1-0.1","battery-v0.2","","""event"",""trial"",""time""
""fullscreenenter"",""1"",""3024""
","
","
","""event"",""trial"",""time""
""fullscreenenter"",""1"",""3024""
","
","","","-1","","","14","15049","6125","&#9761;","elianto","#3366ff99","-1","-1","1","+10","[]","0","0","2","","","","","","","",""
"pit-trial","50","530986","0.0-2.0-11.1-1.1","battery-v0.2","","""event"",""trial"",""time""
""fullscreenenter"",""1"",""3024""
","
","
","""event"",""trial"",""time""
""fullscreenenter"",""1"",""3024""
","
","","","-1","","","14","15049","6125","&#9761;","elianto","#3366ff99","-1","-1","1","+10","[]","0","0","2","","","","","","","",""
"pit-trial","51","535839","0.0-2.0-11.1-2.1","battery-v0.2","","""event"",""trial"",""time""
""fullscreenenter"",""1"",""3024""
","
","
","""event"",""trial"",""time""
""fullscreenenter"",""1"",""3024""
","
","","","-1","","","14","15049","6125","&#9761;","elianto","#3366ff99","-1","-1","1","+10","[]","0","0","2","","","","","","","",""
"pit-trial","52","540692","0.0-2.0-11.1-3.1","battery-v0.2","","""event"",""trial"",""time""
""fullscreenenter"",""1"",""3024""
","
","
","""event"",""trial"",""time""
""fullscreenenter"",""1"",""3024""
","
","","","-1","","","14","15049","6125","&#9761;","elianto","#3366ff99","-1","-1","1","0","[]","0","0","2","","","","","","","",""
"pit-trial","53","545545","0.0-2.0-11.1-4.1","battery-v0.2","","""event"",""trial"",""time""
""fullscreenenter"",""1"",""3024""
","
","
","""event"",""trial"",""time""
""fullscreenenter"",""1"",""3024""
","
","","","-1","","","14","15049","6125","&#9761;","elianto","#3366ff99","-1","-1","1","+10","[]","0","0","2","","","","","","","",""
"pit-trial","54","550399","0.0-2.0-11.2-0.2","battery-v0.2","","""event"",""trial"",""time""
""fullscreenenter"",""1"",""3024""
","
","
","""event"",""trial"",""time""
""fullscreenenter"",""1"",""3024""
","
","","","-1","","","14","15049","6125","&#9761;","elianto","#3366ff99","-1","-1","1","+10","[]","0","0","2","","","","","","","",""
"pit-trial","55","555252","0.0-2.0-11.2-1.2","battery-v0.2","","""event"",""trial"",""time""
""fullscreenenter"",""1"",""3024""
","
","
","""event"",""trial"",""time""
""fullscreenenter"",""1"",""3024""
","
","","","-1","","","14","15049","6125","&#9761;","elianto","#3366ff99","-1","-1","1","+10","[]","0","0","2","","","","","","","",""
"pit-trial","56","560106","0.0-2.0-11.2-2.2","battery-v0.2","","""event"",""trial"",""time""
""fullscreenenter"",""1"",""3024""
","
","
","""event"",""trial"",""time""
""fullscreenenter"",""1"",""3024""
","
","","","-1","","","14","15049","6125","&#9761;","elianto","#3366ff99","-1","-1","1","+10","[]","0","0","2","","","","","","","",""
"pit-trial","57","564959","0.0-2.0-11.2-3.2","battery-v0.2","","""event"",""trial"",""time""
""fullscreenenter"",""1"",""3024""
","
","
","""event"",""trial"",""time""
""fullscreenenter"",""1"",""3024""
","
","","","-1","","","14","15049","6125","&#9761;","elianto","#3366ff99","-1","-1","1","0","[]","0","0","2","","","","","","","",""
"pit-trial","58","569812","0.0-2.0-11.2-4.2","battery-v0.2","","""event"",""trial"",""time""
""fullscreenenter"",""1"",""3024""
","
","
","""event"",""trial"",""time""
""fullscreenenter"",""1"",""3024""
","
","","","-1","","","14","15049","6125","&#9761;","elianto","#3366ff99","-1","-1","1","+10","[]","0","0","2","","","","","","","",""
"pit-trial","59","574666","0.0-2.0-11.3-0.3","battery-v0.2","","""event"",""trial"",""time""
""fullscreenenter"",""1"",""3024""
","
","
","""event"",""trial"",""time""
""fullscreenenter"",""1"",""3024""
","
","","","-1","","","14","15049","6125","&#9761;","elianto","#3366ff99","-1","-1","1","+10","[]","0","0","2","","","","","","","",""
"pit-trial","60","579520","0.0-2.0-11.3-1.3","battery-v0.2","","""event"",""trial"",""time""
""fullscreenenter"",""1"",""3024""
","
","
","""event"",""trial"",""time""
""fullscreenenter"",""1"",""3024""
","
","","","-1","","","14","15049","6125","&#9761;","elianto","#3366ff99","-1","-1","1","+10","[]","0","0","2","","","","","","","",""
"pit-trial","61","584373","0.0-2.0-11.3-2.3","battery-v0.2","","""event"",""trial"",""time""
""fullscreenenter"",""1"",""3024""
","
","
","""event"",""trial"",""time""
""fullscreenenter"",""1"",""3024""
","
","","","-1","","","14","15049","6125","&#9761;","elianto","#3366ff99","-1","-1","1","+10","[]","0","0","2","","","","","","","",""
"pit-trial","62","589227","0.0-2.0-11.3-3.3","battery-v0.2","","""event"",""trial"",""time""
""fullscreenenter"",""1"",""3024""
","
","
","""event"",""trial"",""time""
""fullscreenenter"",""1"",""3024""
","
","","","-1","","","14","15049","6125","&#9761;","elianto","#3366ff99","-1","-1","1","0","[]","0","0","2","","","","","","","",""
"pit-trial","63","594080","0.0-2.0-11.3-4.3","battery-v0.2","","""event"",""trial"",""time""
""fullscreenenter"",""1"",""3024""
","
","
","""event"",""trial"",""time""
""fullscreenenter"",""1"",""3024""
","
","","","-1","","","14","15049","6125","&#9761;","elianto","#3366ff99","-1","-1","1","+10","[]","0","0","2","","","","","","","",""
"call-function","64","594082","0.0-2.0-12.0","battery-v0.2","","""event"",""trial"",""time""
""fullscreenenter"",""1"",""3024""
","
","
","""event"",""trial"",""time""
""fullscreenenter"",""1"",""3024""
","
","","","","","","","","","","","","","","","","","","","","","","","","","","",""
"pit-instructions","65","626238","0.0-2.0-13.0","battery-v0.2","","""event"",""trial"",""time""
""fullscreenenter"",""1"",""3024""
","
","
","""event"",""trial"",""time""
""fullscreenenter"",""1"",""3024""
","
","","[{""page_index"":0,""viewing_time"":5078.5},{""page_index"":1,""viewing_time"":7197.899999976158},{""page_index"":2,""viewing_time"":4267.5},{""page_index"":3,""viewing_time"":10624.899999976158},{""page_index"":4,""viewing_time"":4989.800000011921}]","32158.799999952316","","","","","","","","","","","","","","","","","","","","","","","",""
"pit-trial","66","630182","0.0-2.0-14.0-0.0","battery-v0.2","","""event"",""trial"",""time""
""fullscreenenter"",""1"",""3024""
","
","
","""event"",""trial"",""time""
""fullscreenenter"",""1"",""3024""
","
","","","1073.699999988079","","","14","15049","6125","&#9826;","elianto","#f73b6a7A","-1"," ","0","-10","[1936.699999988079]","1","0","3","","","","","","","",""
"pit-trial","67","635044","0.0-2.0-14.0-1.0","battery-v0.2","","""event"",""trial"",""time""
""fullscreenenter"",""1"",""3024""
","
","
","""event"",""trial"",""time""
""fullscreenenter"",""1"",""3024""
","
","","","-1","","","14","15049","6125","&#9826;","elianto","#f73b6a7A","-1","-1","1","0","[]","0","0","3","","","","","","","",""
"pit-trial","68","639907","0.0-2.0-14.0-2.0","battery-v0.2","","""event"",""trial"",""time""
""fullscreenenter"",""1"",""3024""
","
","
","""event"",""trial"",""time""
""fullscreenenter"",""1"",""3024""
","
","","","-1","","","14","15049","6125","&#9826;","elianto","#f73b6a7A","-1","-1","1","0","[]","0","0","3","","","","","","","",""
"pit-trial","69","644769","0.0-2.0-14.0-3.0","battery-v0.2","","""event"",""trial"",""time""
""fullscreenenter"",""1"",""3024""
","
","
","""event"",""trial"",""time""
""fullscreenenter"",""1"",""3024""
","
","","","-1","","","14","15049","6125","&#9826;","elianto","#f73b6a7A","-1","-1","1","-10","[]","0","0","3","","","","","","","",""
"pit-trial","70","649629","0.0-2.0-14.0-4.0","battery-v0.2","","""event"",""trial"",""time""
""fullscreenenter"",""1"",""3024""
","
","
","""event"",""trial"",""time""
""fullscreenenter"",""1"",""3024""
","
","","","-1","","","14","15049","6125","&#9826;","elianto","#f73b6a7A","-1","-1","1","0","[]","0","0","3","","","","","","","",""
"pit-trial","71","654492","0.0-2.0-14.1-0.1","battery-v0.2","","""event"",""trial"",""time""
""fullscreenenter"",""1"",""3024""
","
","
","""event"",""trial"",""time""
""fullscreenenter"",""1"",""3024""
","
","","","-1","","","14","15049","6125","&#9826;","elianto","#f73b6a7A","-1","-1","1","0","[]","0","0","3","","","","","","","",""
"pit-trial","72","659345","0.0-2.0-14.1-1.1","battery-v0.2","","""event"",""trial"",""time""
""fullscreenenter"",""1"",""3024""
","
","
","""event"",""trial"",""time""
""fullscreenenter"",""1"",""3024""
","
","","","-1","","","14","15049","6125","&#9826;","elianto","#f73b6a7A","-1","-1","1","0","[]","0","0","3","","","","","","","",""
"pit-trial","73","664198","0.0-2.0-14.1-2.1","battery-v0.2","","""event"",""trial"",""time""
""fullscreenenter"",""1"",""3024""
","
","
","""event"",""trial"",""time""
""fullscreenenter"",""1"",""3024""
","
","","","-1","","","14","15049","6125","&#9826;","elianto","#f73b6a7A","-1","-1","1","0","[]","0","0","3","","","","","","","",""
"pit-trial","74","669055","0.0-2.0-14.1-3.1","battery-v0.2","","""event"",""trial"",""time""
""fullscreenenter"",""1"",""3024""
","
","
","""event"",""trial"",""time""
""fullscreenenter"",""1"",""3024""
","
","","","-1","","","14","15049","6125","&#9826;","elianto","#f73b6a7A","-1","-1","1","-10","[]","0","0","3","","","","","","","",""
"pit-trial","75","673908","0.0-2.0-14.1-4.1","battery-v0.2","","""event"",""trial"",""time""
""fullscreenenter"",""1"",""3024""
","
","
","""event"",""trial"",""time""
""fullscreenenter"",""1"",""3024""
","
","","","-1","","","14","15049","6125","&#9826;","elianto","#f73b6a7A","-1","-1","1","0","[]","0","0","3","","","","","","","",""
"pit-trial","76","678761","0.0-2.0-14.2-0.2","battery-v0.2","","""event"",""trial"",""time""
""fullscreenenter"",""1"",""3024""
","
","
","""event"",""trial"",""time""
""fullscreenenter"",""1"",""3024""
","
","","","-1","","","14","15049","6125","&#9826;","elianto","#f73b6a7A","-1","-1","1","0","[]","0","0","3","","","","","","","",""
"pit-trial","77","683615","0.0-2.0-14.2-1.2","battery-v0.2","","""event"",""trial"",""time""
""fullscreenenter"",""1"",""3024""
","
","
","""event"",""trial"",""time""
""fullscreenenter"",""1"",""3024""
","
","","","-1","","","14","15049","6125","&#9826;","elianto","#f73b6a7A","-1","-1","1","0","[]","0","0","3","","","","","","","",""
"pit-trial","78","688469","0.0-2.0-14.2-2.2","battery-v0.2","","""event"",""trial"",""time""
""fullscreenenter"",""1"",""3024""
","
","
","""event"",""trial"",""time""
""fullscreenenter"",""1"",""3024""
","
","","","-1","","","14","15049","6125","&#9826;","elianto","#f73b6a7A","-1","-1","1","0","[]","0","0","3","","","","","","","",""
"pit-trial","79","693322","0.0-2.0-14.2-3.2","battery-v0.2","","""event"",""trial"",""time""
""fullscreenenter"",""1"",""3024""
","
","
","""event"",""trial"",""time""
""fullscreenenter"",""1"",""3024""
","
","","","-1","","","14","15049","6125","&#9826;","elianto","#f73b6a7A","-1","-1","1","-10","[]","0","0","3","","","","","","","",""
"pit-trial","80","698176","0.0-2.0-14.2-4.2","battery-v0.2","","""event"",""trial"",""time""
""fullscreenenter"",""1"",""3024""
","
","
","""event"",""trial"",""time""
""fullscreenenter"",""1"",""3024""
","
","","","-1","","","14","15049","6125","&#9826;","elianto","#f73b6a7A","-1","-1","1","0","[]","0","0","3","","","","","","","",""
"pit-trial","81","703044","0.0-2.0-14.3-0.3","battery-v0.2","","""event"",""trial"",""time""
""fullscreenenter"",""1"",""3024""
","
","
","""event"",""trial"",""time""
""fullscreenenter"",""1"",""3024""
","
","","","-1","","","14","15049","6125","&#9826;","elianto","#f73b6a7A","-1","-1","1","0","[]","0","0","3","","","","","","","",""
"pit-trial","82","707897","0.0-2.0-14.3-1.3","battery-v0.2","","""event"",""trial"",""time""
""fullscreenenter"",""1"",""3024""
","
","
","""event"",""trial"",""time""
""fullscreenenter"",""1"",""3024""
","
","","","-1","","","14","15049","6125","&#9826;","elianto","#f73b6a7A","-1","-1","1","0","[]","0","0","3","","","","","","","",""
"pit-trial","83","712750","0.0-2.0-14.3-2.3","battery-v0.2","","""event"",""trial"",""time""
""fullscreenenter"",""1"",""3024""
","
","
","""event"",""trial"",""time""
""fullscreenenter"",""1"",""3024""
","
","","","-1","","","14","15049","6125","&#9826;","elianto","#f73b6a7A","-1","-1","1","0","[]","0","0","3","","","","","","","",""
"pit-trial","84","717603","0.0-2.0-14.3-3.3","battery-v0.2","","""event"",""trial"",""time""
""fullscreenenter"",""1"",""3024""
","
","
","""event"",""trial"",""time""
""fullscreenenter"",""1"",""3024""
","
","","","-1","","","14","15049","6125","&#9826;","elianto","#f73b6a7A","-1","-1","1","-10","[]","0","0","3","","","","","","","",""
"pit-trial","85","722456","0.0-2.0-14.3-4.3","battery-v0.2","","""event"",""trial"",""time""
""fullscreenenter"",""1"",""3024""
","
","
","""event"",""trial"",""time""
""fullscreenenter"",""1"",""3024""
","
","","","-1","","","14","15049","6125","&#9826;","elianto","#f73b6a7A","-1","-1","1","0","[]","0","0","3","","","","","","","",""
"call-function","86","722458","0.0-2.0-15.0","battery-v0.2","","""event"",""trial"",""time""
""fullscreenenter"",""1"",""3024""
","
","
","""event"",""trial"",""time""
""fullscreenenter"",""1"",""3024""
","
","","","","","","","","","","","","","","","","","","","","","","","","","","",""
"pit-instructions","87","753083","0.0-2.0-16.0","battery-v0.2","","""event"",""trial"",""time""
""fullscreenenter"",""1"",""3024""
","
","
","""event"",""trial"",""time""
""fullscreenenter"",""1"",""3024""
","
","","[{""page_index"":0,""viewing_time"":7413.100000023842},{""page_index"":1,""viewing_time"":9970.699999988079},{""page_index"":2,""viewing_time"":6925.300000011921},{""page_index"":3,""viewing_time"":6314.899999976158}]","30624.5","","","","","","","","","","","","","","","","","","","","","","","",""
"pit-trial","88","756551","0.0-2.0-17.0-0.0","battery-v0.2","","""event"",""trial"",""time""
""fullscreenenter"",""1"",""3024""
","
","
","""event"",""trial"",""time""
""fullscreenenter"",""1"",""3024""
","
","","","597.3999999761581","","","14","15049","6125","&#9789;","elianto","#f73b6a7A"," "," ","1","0","[1453.5]","1","0","4","","","","","","","",""
"pit-trial","89","759897","0.0-2.0-17.0-1.0","battery-v0.2","","""event"",""trial"",""time""
""fullscreenenter"",""1"",""3024""
","
","
","""event"",""trial"",""time""
""fullscreenenter"",""1"",""3024""
","
","","","478.39999997615814","","","14","15049","6125","&#9789;","elianto","#f73b6a7A"," "," ","1","0","[1331.5]","1","0","4","","","","","","","",""
"pit-trial","90","763254","0.0-2.0-17.0-2.0","battery-v0.2","","""event"",""trial"",""time""
""fullscreenenter"",""1"",""3024""
","
","
","""event"",""trial"",""time""
""fullscreenenter"",""1"",""3024""
","
","","","496.10000002384186","","","14","15049","6125","&#9789;","elianto","#f73b6a7A"," "," ","1","0","[1351.800000011921]","1","0","4","","","","","","","",""
"pit-trial","91","766643","0.0-2.0-17.0-3.0","battery-v0.2","","""event"",""trial"",""time""
""fullscreenenter"",""1"",""3024""
","
","
","""event"",""trial"",""time""
""fullscreenenter"",""1"",""3024""
","
","","","507.30000001192093","","","14","15049","6125","&#9789;","elianto","#f73b6a7A"," "," ","1","-10","[1371.6000000238419]","1","0","4","","","","","","","",""
"pit-trial","92","769812","0.0-2.0-17.0-4.0","battery-v0.2","","""event"",""trial"",""time""
""fullscreenenter"",""1"",""3024""
","
","
","""event"",""trial"",""time""
""fullscreenenter"",""1"",""3024""
","
","","","291.5","","","14","15049","6125","&#9789;","elianto","#f73b6a7A"," "," ","1","0","[1150.5]","1","0","4","","","","","","","",""
"pit-trial","93","773115","0.0-2.0-17.1-0.1","battery-v0.2","","""event"",""trial"",""time""
""fullscreenenter"",""1"",""3024""
","
","
","""event"",""trial"",""time""
""fullscreenenter"",""1"",""3024""
","
","","","431.10000002384186","","","14","15049","6125","&#9789;","elianto","#f73b6a7A"," "," ","1","0","[1287.300000011921]","1","0","4","","","","","","","",""
"pit-trial","94","776598","0.0-2.0-17.1-1.1","battery-v0.2","","""event"",""trial"",""time""
""fullscreenenter"",""1"",""3024""
","
","
","""event"",""trial"",""time""
""fullscreenenter"",""1"",""3024""
","
","","","613.3000000119209","","","14","15049","6125","&#9789;","elianto","#f73b6a7A"," "," ","1","0","[1464.4000000357628]","1","0","4","","","","","","","",""
"pit-trial","95","779925","0.0-2.0-17.1-2.1","battery-v0.2","","""event"",""trial"",""time""
""fullscreenenter"",""1"",""3024""
","
","
","""event"",""trial"",""time""
""fullscreenenter"",""1"",""3024""
","
","","","459","","","14","15049","6125","&#9789;","elianto","#f73b6a7A"," "," ","1","0","[1309.8999999761581]","1","0","4","","","","","","","",""
"pit-trial","96","783303","0.0-2.0-17.1-3.1","battery-v0.2","","""event"",""trial"",""time""
""fullscreenenter"",""1"",""3024""
","
","
","""event"",""trial"",""time""
""fullscreenenter"",""1"",""3024""
","
","","","518.8000000119209","","","14","15049","6125","&#9789;","elianto","#f73b6a7A"," "," ","1","-10","[1376.5]","1","0","4","","","","","","","",""
"pit-trial","97","786575","0.0-2.0-17.1-4.1","battery-v0.2","","""event"",""trial"",""time""
""fullscreenenter"",""1"",""3024""
","
","
","""event"",""trial"",""time""
""fullscreenenter"",""1"",""3024""
","
","","","420","","","14","15049","6125","&#9789;","elianto","#f73b6a7A"," "," ","1","0","[1270.0999999642372]","1","0","4","","","","","","","",""
"pit-trial","98","789630","0.0-2.0-17.2-0.2","battery-v0.2","","""event"",""trial"",""time""
""fullscreenenter"",""1"",""3024""
","
","
","""event"",""trial"",""time""
""fullscreenenter"",""1"",""3024""
","
","","","198.30000001192093","","","14","15049","6125","&#9789;","elianto","#f73b6a7A"," "," ","1","0","[1051.6000000238419]","1","0","4","","","","","","","",""
"pit-trial","99","792726","0.0-2.0-17.2-1.2","battery-v0.2","","""event"",""trial"",""time""
""fullscreenenter"",""1"",""3024""
","
","
","""event"",""trial"",""time""
""fullscreenenter"",""1"",""3024""
","
","","","243.89999997615814","","","14","15049","6125","&#9789;","elianto","#f73b6a7A"," "," ","1","0","[1094.300000011921]","1","0","4","","","","","","","",""
"pit-trial","100","795727","0.0-2.0-17.2-2.2","battery-v0.2","","""event"",""trial"",""time""
""fullscreenenter"",""1"",""3024""
","
","
","""event"",""trial"",""time""
""fullscreenenter"",""1"",""3024""
","
","","","147.0999999642372","","","14","15049","6125","&#9789;","elianto","#f73b6a7A"," "," ","1","0","[997.8999999761581]","1","0","4","","","","","","","",""
"pit-trial","101","798782","0.0-2.0-17.2-3.2","battery-v0.2","","""event"",""trial"",""time""
""fullscreenenter"",""1"",""3024""
","
","
","""event"",""trial"",""time""
""fullscreenenter"",""1"",""3024""
","
","","","202.79999995231628","","","14","15049","6125","&#9789;","elianto","#f73b6a7A"," "," ","1","-10","[1053.199999988079]","1","0","4","","","","","","","",""
"pit-trial","102","802280","0.0-2.0-17.2-4.2","battery-v0.2","","""event"",""trial"",""time""
""fullscreenenter"",""1"",""3024""
","
","
","""event"",""trial"",""time""
""fullscreenenter"",""1"",""3024""
","
","","","644.6999999880791","","","14","15049","6125","&#9789;","elianto","#f73b6a7A"," "," ","1","0","[1495.300000011921]","1","0","4","","","","","","","",""
"pit-trial","103","805151","0.0-2.0-17.3-0.3","battery-v0.2","","""event"",""trial"",""time""
""fullscreenenter"",""1"",""3024""
","
","
","""event"",""trial"",""time""
""fullscreenenter"",""1"",""3024""
","
","","","18.19999998807907","","","14","15049","6125","&#9789;","elianto","#f73b6a7A"," "," ","1","0","[869.0999999642372]","1","0","4","","","","","","","",""
"pit-trial","104","808664","0.0-2.0-17.3-1.3","battery-v0.2","","""event"",""trial"",""time""
""fullscreenenter"",""1"",""3024""
","
","
","""event"",""trial"",""time""
""fullscreenenter"",""1"",""3024""
","
","","","660.3999999761581","","","14","15049","6125","&#9789;","elianto","#f73b6a7A"," "," ","1","0","[1511.0999999642372]","1","0","4","","","","","","","",""
"pit-trial","105","811816","0.0-2.0-17.3-2.3","battery-v0.2","","""event"",""trial"",""time""
""fullscreenenter"",""1"",""3024""
","
","
","""event"",""trial"",""time""
""fullscreenenter"",""1"",""3024""
","
","","","298.5999999642372","","","14","15049","6125","&#9789;","elianto","#f73b6a7A"," "," ","1","0","[1149.699999988079]","1","0","4","","","","","","","",""
"pit-trial","106","814952","0.0-2.0-17.3-3.3","battery-v0.2","","""event"",""trial"",""time""
""fullscreenenter"",""1"",""3024""
","
","
","""event"",""trial"",""time""
""fullscreenenter"",""1"",""3024""
","
","","","283.19999998807907","","","14","15049","6125","&#9789;","elianto","#f73b6a7A"," "," ","1","-10","[1134.3999999761581]","1","0","4","","","","","","","",""
"pit-trial","107","818258","0.0-2.0-17.3-4.3","battery-v0.2","","""event"",""trial"",""time""
""fullscreenenter"",""1"",""3024""
","
","
","""event"",""trial"",""time""
""fullscreenenter"",""1"",""3024""
","
","","","452","","","14","15049","6125","&#9789;","elianto","#f73b6a7A"," "," ","1","0","[1302.7999999523163]","1","0","4","","","","","","","",""
"call-function","108","818259","0.0-2.0-18.0","battery-v0.2","","""event"",""trial"",""time""
""fullscreenenter"",""1"",""3024""
","
","
","""event"",""trial"",""time""
""fullscreenenter"",""1"",""3024""
","
","","","","","","","","","","","","","","","","","","","","","","","","","","",""
"pit-instructions","109","888805","0.0-2.0-19.0","battery-v0.2","","""event"",""trial"",""time""
""fullscreenenter"",""1"",""3024""
","
","
","""event"",""trial"",""time""
""fullscreenenter"",""1"",""3024""
","
","","[{""page_index"":0,""viewing_time"":7649.900000035763},{""page_index"":1,""viewing_time"":5167},{""page_index"":2,""viewing_time"":12936},{""page_index"":3,""viewing_time"":8388.299999952316},{""page_index"":4,""viewing_time"":8258.900000035763},{""page_index"":5,""viewing_time"":10217.199999988079},{""page_index"":6,""viewing_time"":7747.699999988079},{""page_index"":7,""viewing_time"":6121.800000011921},{""page_index"":8,""viewing_time"":4057.600000023842}]","70544.69999998808","","","","","","","","","","","","","","","","","","","","","","","",""
"pit-comprehension","110","895700","0.0-2.0-20.0-0.0","battery-v0.2","","""event"",""trial"",""time""
""fullscreenenter"",""1"",""3024""
","
","
","""event"",""trial"",""time""
""fullscreenenter"",""1"",""3024""
","
","","","6891.799999952316","[""SPACE""]","0","14","15049","6125","","","","","","","","","","","","","","","","","","",""
"pit-instructions","111","899044","0.0-2.0-20.0-1.0","battery-v0.2","","""event"",""trial"",""time""
""fullscreenenter"",""1"",""3024""
","
","
","""event"",""trial"",""time""
""fullscreenenter"",""1"",""3024""
","
","","[{""page_index"":0,""viewing_time"":3306.600000023842}]","3306.800000011921","","","","","","","","","","","","","","","","","","","","","","","",""
"pit-comprehension","112","905735","0.0-2.0-21.0-0.0","battery-v0.2","","""event"",""trial"",""time""
""fullscreenenter"",""1"",""3024""
","
","
","""event"",""trial"",""time""
""fullscreenenter"",""1"",""3024""
","
","","","6687.699999988079","[""10""]","0","14","15049","6125","","","","","","","","","","","","","","","","","","",""
"pit-instructions","113","907606","0.0-2.0-21.0-1.0","battery-v0.2","","""event"",""trial"",""time""
""fullscreenenter"",""1"",""3024""
","
","
","""event"",""trial"",""time""
""fullscreenenter"",""1"",""3024""
","
","","[{""page_index"":0,""viewing_time"":1838.6000000238419}]","1838.800000011921","","","","","","","","","","","","","","","","","","","","","","","",""
"pit-comprehension","114","915243","0.0-2.0-22.0-0.0","battery-v0.2","","""event"",""trial"",""time""
""fullscreenenter"",""1"",""3024""
","
","
","""event"",""trial"",""time""
""fullscreenenter"",""1"",""3024""
","
","","","7634.199999988079","[""0""]","0","14","15049","6125","","","","","","","","","","","","","","","","","","",""
"pit-instructions","115","918497","0.0-2.0-22.0-1.0","battery-v0.2","","""event"",""trial"",""time""
""fullscreenenter"",""1"",""3024""
","
","
","""event"",""trial"",""time""
""fullscreenenter"",""1"",""3024""
","
","","[{""page_index"":0,""viewing_time"":3213.899999976158}]","3214.099999964237","","","","","","","","","","","","","","","","","","","","","","","",""
"pit-comprehension","116","932935","0.0-2.0-23.0-0.0","battery-v0.2","","""event"",""trial"",""time""
""fullscreenenter"",""1"",""3024""
","
","
","""event"",""trial"",""time""
""fullscreenenter"",""1"",""3024""
","
","","","14435.699999988079","[""True""]","0","14","15049","6125","","","","","","","","","","","","","","","","","","",""
"pit-instructions","117","933993","0.0-2.0-23.0-1.0","battery-v0.2","","""event"",""trial"",""time""
""fullscreenenter"",""1"",""3024""
","
","
","""event"",""trial"",""time""
""fullscreenenter"",""1"",""3024""
","
","","[{""page_index"":0,""viewing_time"":1019.9000000357628}]","1020","","","","","","","","","","","","","","","","","","","","","","","",""
"pit-comprehension","118","941496","0.0-2.0-24.0-0.0","battery-v0.2","","""event"",""trial"",""time""
""fullscreenenter"",""1"",""3024""
","
","
","""event"",""trial"",""time""
""fullscreenenter"",""1"",""3024""
","
","","","7500.600000023842","[""True""]","0","14","15049","6125","","","","","","","","","","","","","","","","","","",""
"pit-instructions","119","943140","0.0-2.0-24.0-1.0","battery-v0.2","","""event"",""trial"",""time""
""fullscreenenter"",""1"",""3024""
","
","
","""event"",""trial"",""time""
""fullscreenenter"",""1"",""3024""
","
","","[{""page_index"":0,""viewing_time"":1607.5999999642372}]","1607.800000011921","","","","","","","","","","","","","","","","","","","","","","","",""
"pit-comprehension","120","949705","0.0-2.0-25.0-0.0","battery-v0.2","","""event"",""trial"",""time""
""fullscreenenter"",""1"",""3024""
","
","
","""event"",""trial"",""time""
""fullscreenenter"",""1"",""3024""
","
","","","6561.5","[""True""]","0","14","15049","6125","","","","","","","","","","","","","","","","","","",""
"pit-instructions","121","951228","0.0-2.0-25.0-1.0","battery-v0.2","","""event"",""trial"",""time""
""fullscreenenter"",""1"",""3024""
","
","
","""event"",""trial"",""time""
""fullscreenenter"",""1"",""3024""
","
","","[{""page_index"":0,""viewing_time"":1489.800000011921}]","1490.1000000238419","","","","","","","","","","","","","","","","","","","","","","","",""
"pit-comprehension","122","956637","0.0-2.0-26.0-0.0","battery-v0.2","","""event"",""trial"",""time""
""fullscreenenter"",""1"",""3024""
","
","
","""event"",""trial"",""time""
""fullscreenenter"",""1"",""3024""
","
","","","5406.199999988079","[""False""]","0","14","15049","6125","","","","","","","","","","","","","","","","","","",""
"pit-instructions","123","958227","0.0-2.0-26.0-1.0","battery-v0.2","","""event"",""trial"",""time""
""fullscreenenter"",""1"",""3024""
","
","
","""event"",""trial"",""time""
""fullscreenenter"",""1"",""3024""
","
","","[{""page_index"":0,""viewing_time"":1551.7999999523163}]","1552.0999999642372","","","","","","","","","","","","","","","","","","","","","","","",""
"pit-instructions","124","975388","0.0-3.0","battery-v0.2","","""event"",""trial"",""time""
""fullscreenenter"",""1"",""3024""
","
","
","""event"",""trial"",""time""
""fullscreenenter"",""1"",""3024""
","
","","[{""page_index"":0,""viewing_time"":4222},{""page_index"":1,""viewing_time"":5159.699999988079},{""page_index"":2,""viewing_time"":7777.599999964237}]","17159.5","","","","","","","","","","","","","","","","","","","","","","","",""
"pit-trial","125","979197","0.0-4.0","battery-v0.2","","""event"",""trial"",""time""
""fullscreenenter"",""1"",""3024""
","
","
","""event"",""trial"",""time""
""fullscreenenter"",""1"",""3024""
","
","","","947.3999999761581","","","14","15049","6125","&#9728;","elianto","#f73b6a7A","-1"," ","0","-10","[1804.7999999523163]","1","1","","","15049","1","0","4","lose","no-go","0"
"pit-trial","126","982705","0.0-5.0","battery-v0.2","","""event"",""trial"",""time""
""fullscreenenter"",""1"",""3024""
","
","
","""event"",""trial"",""time""
""fullscreenenter"",""1"",""3024""
","
","","","650.6999999880791","","","14","15049","6125","&#9752;","elianto","#f73b6a7A"," "," ","1","-10","[1501.5999999642372]","1","1","","","15049","2","3","3","lose","go","1"
"pit-trial","127","986387","0.0-6.0","battery-v0.2","","""event"",""trial"",""time""
""fullscreenenter"",""1"",""3024""
","
","
","""event"",""trial"",""time""
""fullscreenenter"",""1"",""3024""
","
","","","815.3000000119209","","","14","15049","6125","&#9730;","elianto","#3366ff99"," "," ","1","+10","[1673.199999988079]","1","1","","","15049","3","1","1","win","go","0"
"pit-trial","128","990135","0.0-7.0","battery-v0.2","","""event"",""trial"",""time""
""fullscreenenter"",""1"",""3024""
","
","
","""event"",""trial"",""time""
""fullscreenenter"",""1"",""3024""
","
","","","885.3000000119209","","","14","15049","6125","&#9733;","elianto","#3366ff99","-1"," ","0","0","[1743]","1","1","","","15049","4","2","2","win","no-go","0"
"pit-trial","129","993804","0.0-8.0","battery-v0.2","","""event"",""trial"",""time""
""fullscreenenter"",""1"",""3024""
","
","
","""event"",""trial"",""time""
""fullscreenenter"",""1"",""3024""
","
","","","795.4000000357628","","","14","15049","6125","&#9733;","elianto","#3366ff99","-1"," ","0","+10","[1653.300000011921]","1","1","","","15049","5","2","2","win","no-go","1"
"pit-trial","130","997858","0.0-9.0","battery-v0.2","","""event"",""trial"",""time""
""fullscreenenter"",""1"",""3024""
","
","
","""event"",""trial"",""time""
""fullscreenenter"",""1"",""3024""
","
","","","1193.5","","","14","15049","6125","&#9752;","elianto","#f73b6a7A"," "," ","1","0","[2048.5]","1","1","","","15049","6","3","3","lose","go","0"
"pit-trial","131","1002720","0.0-10.0","battery-v0.2","","""event"",""trial"",""time""
""fullscreenenter"",""1"",""3024""
","
","
","""event"",""trial"",""time""
""fullscreenenter"",""1"",""3024""
","
","","","-1","","","14","15049","6125","&#9728;","elianto","#f73b6a7A","-1","-1","1","0","[]","0","1","","","15049","7","0","4","lose","no-go","0"
"pit-trial","132","1006776","0.0-11.0","battery-v0.2","","""event"",""trial"",""time""
""fullscreenenter"",""1"",""3024""
","
","
","""event"",""trial"",""time""
""fullscreenenter"",""1"",""3024""
","
","","","1199.5","","","14","15049","6125","&#9730;","elianto","#3366ff99"," "," ","1","+10","[2052.600000023842]","1","1","","","15049","8","1","1","win","go","0"
"pit-trial","133","1011629","0.0-12.0","battery-v0.2","","""event"",""trial"",""time""
""fullscreenenter"",""1"",""3024""
","
","
","""event"",""trial"",""time""
""fullscreenenter"",""1"",""3024""
","
","","","-1","","","14","15049","6125","&#9728;","elianto","#f73b6a7A","-1","-1","1","0","[]","0","1","","","15049","9","0","4","lose","no-go","0"
"pit-trial","134","1016483","0.0-13.0","battery-v0.2","","""event"",""trial"",""time""
""fullscreenenter"",""1"",""3024""
","
","
","""event"",""trial"",""time""
""fullscreenenter"",""1"",""3024""
","
","","","-1","","","14","15049","6125","&#9752;","elianto","#f73b6a7A"," ","-1","0","0","[]","0","1","","","15049","10","3","3","lose","go","1"
"pit-trial","135","1020359","0.0-14.0","battery-v0.2","","""event"",""trial"",""time""
""fullscreenenter"",""1"",""3024""
","
","
","""event"",""trial"",""time""
""fullscreenenter"",""1"",""3024""
","
","","","1024.199999988079","","","14","15049","6125","&#9733;","elianto","#3366ff99","-1"," ","0","0","[1874.699999988079]","1","1","","","15049","11","2","2","win","no-go","0"
"pit-trial","136","1024083","0.0-15.0","battery-v0.2","","""event"",""trial"",""time""
""fullscreenenter"",""1"",""3024""
","
","
","""event"",""trial"",""time""
""fullscreenenter"",""1"",""3024""
","
","","","868.3000000119209","","","14","15049","6125","&#9730;","elianto","#3366ff99"," "," ","1","+10","[1719.6000000238419]","1","1","","","15049","12","1","1","win","go","0"
"pit-trial","137","1027770","0.0-16.0","battery-v0.2","","""event"",""trial"",""time""
""fullscreenenter"",""1"",""3024""
","
","
","""event"",""trial"",""time""
""fullscreenenter"",""1"",""3024""
","
","","","833.3999999761581","","","14","15049","6125","&#9730;","elianto","#3366ff99"," "," ","1","+10","[1684.199999988079]","1","1","","","15049","13","1","1","win","go","0"
"pit-trial","138","1031219","0.0-17.0","battery-v0.2","","""event"",""trial"",""time""
""fullscreenenter"",""1"",""3024""
","
","
","""event"",""trial"",""time""
""fullscreenenter"",""1"",""3024""
","
","","","595.0999999642372","","","14","15049","6125","&#9733;","elianto","#3366ff99","-1"," ","0","0","[1446.6000000238419]","1","1","","","15049","14","2","2","win","no-go","0"
"pit-trial","139","1036072","0.0-18.0","battery-v0.2","","""event"",""trial"",""time""
""fullscreenenter"",""1"",""3024""
","
","
","""event"",""trial"",""time""
""fullscreenenter"",""1"",""3024""
","
","","","-1","","","14","15049","6125","&#9728;","elianto","#f73b6a7A","-1","-1","1","0","[]","0","1","","","15049","15","0","4","lose","no-go","0"
"pit-trial","140","1040924","0.0-19.0","battery-v0.2","","""event"",""trial"",""time""
""fullscreenenter"",""1"",""3024""
","
","
","""event"",""trial"",""time""
""fullscreenenter"",""1"",""3024""
","
","","","-1","","","14","15049","6125","&#9752;","elianto","#f73b6a7A"," ","-1","0","-10","[]","0","1","","","15049","16","3","3","lose","go","0"
"pit-trial","141","1044709","0.0-20.0","battery-v0.2","","""event"",""trial"",""time""
""fullscreenenter"",""1"",""3024""
","
","
","""event"",""trial"",""time""
""fullscreenenter"",""1"",""3024""
","
","","","930.5","","","14","15049","6125","&#9733;","elianto","#3366ff99","-1"," ","0","0","[1781.300000011921]","1","1","","","15049","17","2","2","win","no-go","0"
"pit-trial","142","1048102","0.0-21.0","battery-v0.2","","""event"",""trial"",""time""
""fullscreenenter"",""1"",""3024""
","
","
","""event"",""trial"",""time""
""fullscreenenter"",""1"",""3024""
","
","","","538.5","","","14","15049","6125","&#9730;","elianto","#3366ff99"," "," ","1","0","[1389.4000000357628]","1","1","","","15049","18","1","1","win","go","1"
"pit-trial","143","1052955","0.0-22.0","battery-v0.2","","""event"",""trial"",""time""
""fullscreenenter"",""1"",""3024""
","
","
","""event"",""trial"",""time""
""fullscreenenter"",""1"",""3024""
","
","","","-1","","","14","15049","6125","&#9728;","elianto","#f73b6a7A","-1","-1","1","0","[]","0","1","","","15049","19","0","4","lose","no-go","0"
"pit-trial","144","1057809","0.0-23.0","battery-v0.2","","""event"",""trial"",""time""
""fullscreenenter"",""1"",""3024""
","
","
","""event"",""trial"",""time""
""fullscreenenter"",""1"",""3024""
","
","","","-1","","","14","15049","6125","&#9752;","elianto","#f73b6a7A"," ","-1","0","0","[]","0","1","","","15049","20","3","3","lose","go","1"
"pit-instructions","145","1071303","0.0-24.0","battery-v0.2","","""event"",""trial"",""time""
""fullscreenenter"",""1"",""3024""
","
","
","""event"",""trial"",""time""
""fullscreenenter"",""1"",""3024""
","
","","[{""page_index"":0,""viewing_time"":5696.199999988079},{""page_index"":1,""viewing_time"":7796.100000023842}]","13492.800000011921","","","","","","","","","","","","","","","","","","","","","","","",""
"pit-trial","146","1075090","0.0-25.0","battery-v0.2","","""event"",""trial"",""time""
""fullscreenenter"",""1"",""3024""
","
","
","""event"",""trial"",""time""
""fullscreenenter"",""1"",""3024""
","
","","","929","","","14","15049","6125","u","elianto","#f73b6a7A","-1"," ","0","0","[1779.5999999642372]","1","2","","","15049","21","0","4","lose","no-go","1"
"pit-trial","147","1078902","0.0-26.0","battery-v0.2","","""event"",""trial"",""time""
""fullscreenenter"",""1"",""3024""
","
","
","""event"",""trial"",""time""
""fullscreenenter"",""1"",""3024""
","
","","","946.3999999761581","","","14","15049","6125","l","elianto","#3366ff99"," "," ","1","+10","[1796.6000000238419]","1","2","","","15049","22","1","1","win","go","0"
"pit-trial","148","1082538","0.0-27.0","battery-v0.2","","""event"",""trial"",""time""
""fullscreenenter"",""1"",""3024""
","
","
","""event"",""trial"",""time""
""fullscreenenter"",""1"",""3024""
","
","","","773.6000000238419","","","14","15049","6125","a","elianto","#f73b6a7A","-1"," ","0","-10","[1623.8999999761581]","1","2","","","15049","23","2","4","lose","no-go","0"
"pit-trial","149","1086203","0.0-28.0","battery-v0.2","","""event"",""trial"",""time""
""fullscreenenter"",""1"",""3024""
","
","
","""event"",""trial"",""time""
""fullscreenenter"",""1"",""3024""
","
","","","786.8999999761581","","","14","15049","6125","g","elianto","#f73b6a7A"," "," ","1","0","[1651.5999999642372]","1","2","","","15049","24","3","3","lose","go","0"
"pit-trial","150","1089707","0.0-29.0","battery-v0.2","","""event"",""trial"",""time""
""fullscreenenter"",""1"",""3024""
","
","
","""event"",""trial"",""time""
""fullscreenenter"",""1"",""3024""
","
","","","649.8999999761581","","","14","15049","6125","u","elianto","#f73b6a7A","-1"," ","0","-10","[1500.199999988079]","1","2","","","15049","25","0","4","lose","no-go","0"
"pit-trial","151","1093311","0.0-30.0","battery-v0.2","","""event"",""trial"",""time""
""fullscreenenter"",""1"",""3024""
","
","
","""event"",""trial"",""time""
""fullscreenenter"",""1"",""3024""
","
","","","725.6000000238419","","","14","15049","6125","l","elianto","#3366ff99"," "," ","1","+10","[1587.1000000238419]","1","2","","","15049","26","1","1","win","go","0"
"pit-trial","152","1098177","0.0-31.0","battery-v0.2","","""event"",""trial"",""time""
""fullscreenenter"",""1"",""3024""
","
","
","""event"",""trial"",""time""
""fullscreenenter"",""1"",""3024""
","
","","","-1","","","14","15049","6125","g","elianto","#f73b6a7A"," ","-1","0","-10","[]","0","2","","","15049","27","3","3","lose","go","0"
"pit-trial","153","1101867","0.0-32.0","battery-v0.2","","""event"",""trial"",""time""
""fullscreenenter"",""1"",""3024""
","
","
","""event"",""trial"",""time""
""fullscreenenter"",""1"",""3024""
","
","","","832.1000000238419","","","14","15049","6125","a","elianto","#f73b6a7A","-1"," ","0","-10","[1688.699999988079]","1","2","","","15049","28","2","4","lose","no-go","0"
"pit-trial","154","1105604","0.0-33.0","battery-v0.2","","""event"",""trial"",""time""
""fullscreenenter"",""1"",""3024""
","
","
","""event"",""trial"",""time""
""fullscreenenter"",""1"",""3024""
","
","","","882.6000000238419","","","14","15049","6125","a","elianto","#f73b6a7A","-1"," ","0","-10","[1733.699999988079]","1","2","","","15049","29","2","4","lose","no-go","0"
"pit-trial","155","1110456","0.0-34.0","battery-v0.2","","""event"",""trial"",""time""
""fullscreenenter"",""1"",""3024""
","
","
","""event"",""trial"",""time""
""fullscreenenter"",""1"",""3024""
","
","","","-1","","","14","15049","6125","l","elianto","#3366ff99"," ","-1","0","+10","[]","0","2","","","15049","30","1","1","win","go","1"
"pit-trial","156","1115308","0.0-35.0","battery-v0.2","","""event"",""trial"",""time""
""fullscreenenter"",""1"",""3024""
","
","
","""event"",""trial"",""time""
""fullscreenenter"",""1"",""3024""
","
","","","-1","","","14","15049","6125","u","elianto","#f73b6a7A","-1","-1","1","0","[]","0","2","","","15049","31","0","4","lose","no-go","0"
"pit-trial","157","1120162","0.0-36.0","battery-v0.2","","""event"",""trial"",""time""
""fullscreenenter"",""1"",""3024""
","
","
","""event"",""trial"",""time""
""fullscreenenter"",""1"",""3024""
","
","","","-1","","","14","15049","6125","g","elianto","#f73b6a7A"," ","-1","0","-10","[]","0","2","","","15049","32","3","3","lose","go","0"
"pit-trial","158","1123780","0.0-37.0","battery-v0.2","","""event"",""trial"",""time""
""fullscreenenter"",""1"",""3024""
","
","
","""event"",""trial"",""time""
""fullscreenenter"",""1"",""3024""
","
","","","766.3000000119209","","","14","15049","6125","g","elianto","#f73b6a7A"," "," ","1","-10","[1616.699999988079]","1","2","","","15049","33","3","3","lose","go","1"
"pit-trial","159","1128634","0.0-38.0","battery-v0.2","","""event"",""trial"",""time""
""fullscreenenter"",""1"",""3024""
","
","
","""event"",""trial"",""time""
""fullscreenenter"",""1"",""3024""
","
","","","-1","","","14","15049","6125","a","elianto","#f73b6a7A","-1","-1","1","-10","[]","0","2","","","15049","34","2","4","lose","no-go","1"
"pit-trial","160","1132318","0.0-39.0","battery-v0.2","","""event"",""trial"",""time""
""fullscreenenter"",""1"",""3024""
","
","
","""event"",""trial"",""time""
""fullscreenenter"",""1"",""3024""
","
","","","830.4000000357628","","","14","15049","6125","l","elianto","#3366ff99"," "," ","1","0","[1681.199999988079]","1","2","","","15049","35","1","1","win","go","1"
"pit-trial","161","1137172","0.0-40.0","battery-v0.2","","""event"",""trial"",""time""
""fullscreenenter"",""1"",""3024""
","
","
","""event"",""trial"",""time""
""fullscreenenter"",""1"",""3024""
","
","","","-1","","","14","15049","6125","u","elianto","#f73b6a7A","-1","-1","1","0","[]","0","2","","","15049","36","0","4","lose","no-go","0"
"pit-trial","162","1141335","0.0-41.0","battery-v0.2","","""event"",""trial"",""time""
""fullscreenenter"",""1"",""3024""
","
","
","""event"",""trial"",""time""
""fullscreenenter"",""1"",""3024""
","
","","","1309.199999988079","","","14","15049","6125","g","elianto","#f73b6a7A"," "," ","1","0","[2160]","1","2","","","15049","37","3","3","lose","go","0"
"pit-trial","163","1146188","0.0-42.0","battery-v0.2","","""event"",""trial"",""time""
""fullscreenenter"",""1"",""3024""
","
","
","""event"",""trial"",""time""
""fullscreenenter"",""1"",""3024""
","
","","","-1","","","14","15049","6125","a","elianto","#f73b6a7A","-1","-1","1","0","[]","0","2","","","15049","38","2","4","lose","no-go","0"
"pit-trial","164","1149720","0.0-43.0","battery-v0.2","","""event"",""trial"",""time""
""fullscreenenter"",""1"",""3024""
","
","
","""event"",""trial"",""time""
""fullscreenenter"",""1"",""3024""
","
","","","677.7000000476837","","","14","15049","6125","l","elianto","#3366ff99"," "," ","1","0","[1529.7000000476837]","1","2","","","15049","39","1","1","win","go","1"
"pit-trial","165","1154574","0.0-44.0","battery-v0.2","","""event"",""trial"",""time""
""fullscreenenter"",""1"",""3024""
","
","
","""event"",""trial"",""time""
""fullscreenenter"",""1"",""3024""
","
","","","-1","","","14","15049","6125","u","elianto","#f73b6a7A","-1","-1","1","-10","[]","0","2","","","15049","40","0","4","lose","no-go","1"
"pit-trial","166","1158073","0.0-45.0","battery-v0.2","","""event"",""trial"",""time""
""fullscreenenter"",""1"",""3024""
","
","
","""event"",""trial"",""time""
""fullscreenenter"",""1"",""3024""
","
","","","644.6999999880791","","","14","15049","6125","g","elianto","#f73b6a7A"," "," ","1","0","[1495.300000011921]","1","2","","","15049","41","3","3","lose","go","0"
"pit-trial","167","1161753","0.0-46.0","battery-v0.2","","""event"",""trial"",""time""
""fullscreenenter"",""1"",""3024""
","
","
","""event"",""trial"",""time""
""fullscreenenter"",""1"",""3024""
","
","","","827.9000000357628","","","14","15049","6125","a","elianto","#f73b6a7A","-1"," ","0","-10","[1678.300000011921]","1","2","","","15049","42","2","4","lose","no-go","0"
"pit-trial","168","1166607","0.0-47.0","battery-v0.2","","""event"",""trial"",""time""
""fullscreenenter"",""1"",""3024""
","
","
","""event"",""trial"",""time""
""fullscreenenter"",""1"",""3024""
","
","","","-1","","","14","15049","6125","u","elianto","#f73b6a7A","-1","-1","1","0","[]","0","2","","","15049","43","0","4","lose","no-go","0"
"pit-trial","169","1170363","0.0-48.0","battery-v0.2","","""event"",""trial"",""time""
""fullscreenenter"",""1"",""3024""
","
","
","""event"",""trial"",""time""
""fullscreenenter"",""1"",""3024""
","
","","","902.3000000119209","","","14","15049","6125","l","elianto","#3366ff99"," "," ","1","+10","[1753]","1","2","","","15049","44","1","1","win","go","0"
"pit-trial","170","1174018","0.0-49.0","battery-v0.2","","""event"",""trial"",""time""
""fullscreenenter"",""1"",""3024""
","
","
","""event"",""trial"",""time""
""fullscreenenter"",""1"",""3024""
","
","","","802.0999999642372","","","14","15049","6125","p","elianto","#3366ff99","-1"," ","0","0","[1652.300000011921]","1","2","","","15049","45","4","2","win","no-go","0"
"pit-trial","171","1177826","0.0-50.0","battery-v0.2","","""event"",""trial"",""time""
""fullscreenenter"",""1"",""3024""
","
","
","""event"",""trial"",""time""
""fullscreenenter"",""1"",""3024""
","
","","","954.8999999761581","","","14","15049","6125","g","elianto","#f73b6a7A"," "," ","1","-10","[1805.5999999642372]","1","2","","","15049","46","3","3","lose","go","1"
"pit-trial","172","1182679","0.0-51.0","battery-v0.2","","""event"",""trial"",""time""
""fullscreenenter"",""1"",""3024""
","
","
","""event"",""trial"",""time""
""fullscreenenter"",""1"",""3024""
","
","","","-1","","","14","15049","6125","u","elianto","#f73b6a7A","-1","-1","1","0","[]","0","2","","","15049","47","0","4","lose","no-go","0"
"pit-trial","173","1187533","0.0-52.0","battery-v0.2","","""event"",""trial"",""time""
""fullscreenenter"",""1"",""3024""
","
","
","""event"",""trial"",""time""
""fullscreenenter"",""1"",""3024""
","
","","","-1","","","14","15049","6125","a","elianto","#f73b6a7A","-1","-1","1","0","[2921.900000035763]","1","2","","","15049","48","2","4","lose","no-go","0"
"pit-trial","174","1191652","0.0-53.0","battery-v0.2","","""event"",""trial"",""time""
""fullscreenenter"",""1"",""3024""
","
","
","""event"",""trial"",""time""
""fullscreenenter"",""1"",""3024""
","
","","","1265","","","14","15049","6125","g","elianto","#f73b6a7A"," "," ","1","-10","[2115.800000011921]","1","2","","","15049","49","3","3","lose","go","1"
"pit-trial","175","1195535","0.0-54.0","battery-v0.2","","""event"",""trial"",""time""
""fullscreenenter"",""1"",""3024""
","
","
","""event"",""trial"",""time""
""fullscreenenter"",""1"",""3024""
","
","","","1028","","","14","15049","6125","l","elianto","#3366ff99"," "," ","1","+10","[1878.800000011921]","1","2","","","15049","50","1","1","win","go","0"
"pit-trial","176","1200389","0.0-55.0","battery-v0.2","","""event"",""trial"",""time""
""fullscreenenter"",""1"",""3024""
","
","
","""event"",""trial"",""time""
""fullscreenenter"",""1"",""3024""
","
","","","-1","","","14","15049","6125","u","elianto","#f73b6a7A","-1","-1","1","0","[]","0","2","","","15049","51","0","4","lose","no-go","0"
"pit-trial","177","1204238","0.0-56.0","battery-v0.2","","""event"",""trial"",""time""
""fullscreenenter"",""1"",""3024""
","
","
","""event"",""trial"",""time""
""fullscreenenter"",""1"",""3024""
","
","","","994.5","","","14","15049","6125","p","elianto","#3366ff99","-1"," ","0","+10","[1845.8999999761581]","1","2","","","15049","52","4","2","win","no-go","1"
"pit-trial","178","1207887","0.0-57.0","battery-v0.2","","""event"",""trial"",""time""
""fullscreenenter"",""1"",""3024""
","
","
","""event"",""trial"",""time""
""fullscreenenter"",""1"",""3024""
","
","","","793.6999999880791","","","14","15049","6125","p","elianto","#3366ff99","-1"," ","0","0","[1644.1000000238419]","1","2","","","15049","53","4","2","win","no-go","0"
"pit-trial","179","1212740","0.0-58.0","battery-v0.2","","""event"",""trial"",""time""
""fullscreenenter"",""1"",""3024""
","
","
","""event"",""trial"",""time""
""fullscreenenter"",""1"",""3024""
","
","","","-1","","","14","15049","6125","u","elianto","#f73b6a7A","-1","-1","1","0","[]","0","2","","","15049","54","0","4","lose","no-go","0"
"pit-trial","180","1217594","0.0-59.0","battery-v0.2","","""event"",""trial"",""time""
""fullscreenenter"",""1"",""3024""
","
","
","""event"",""trial"",""time""
""fullscreenenter"",""1"",""3024""
","
","","","-1","","","14","15049","6125","a","elianto","#f73b6a7A","-1","-1","1","0","[]","0","2","","","15049","55","2","4","lose","no-go","0"
"pit-trial","181","1221279","0.0-60.0","battery-v0.2","","""event"",""trial"",""time""
""fullscreenenter"",""1"",""3024""
","
","
","""event"",""trial"",""time""
""fullscreenenter"",""1"",""3024""
","
","","","833.3999999761581","","","14","15049","6125","l","elianto","#3366ff99"," "," ","1","+10","[1684.0999999642372]","1","2","","","15049","56","1","1","win","go","0"
"pit-trial","182","1226133","0.0-61.0","battery-v0.2","","""event"",""trial"",""time""
""fullscreenenter"",""1"",""3024""
","
","
","""event"",""trial"",""time""
""fullscreenenter"",""1"",""3024""
","
","","","-1","","","14","15049","6125","u","elianto","#f73b6a7A","-1","-1","1","-10","[]","0","2","","","15049","57","0","4","lose","no-go","1"
"pit-trial","183","1229744","0.0-62.0","battery-v0.2","","""event"",""trial"",""time""
""fullscreenenter"",""1"",""3024""
","
","
","""event"",""trial"",""time""
""fullscreenenter"",""1"",""3024""
","
","","","757.6999999880791","","","14","15049","6125","p","elianto","#3366ff99","-1"," ","0","0","[1607.800000011921]","1","2","","","15049","58","4","2","win","no-go","0"
"pit-trial","184","1233257","0.0-63.0","battery-v0.2","","""event"",""trial"",""time""
""fullscreenenter"",""1"",""3024""
","
","
","""event"",""trial"",""time""
""fullscreenenter"",""1"",""3024""
","
","","","658.8000000119209","","","14","15049","6125","l","elianto","#3366ff99"," "," ","1","+10","[1509.5]","1","2","","","15049","59","1","1","win","go","0"
"pit-trial","185","1236937","0.0-64.0","battery-v0.2","","""event"",""trial"",""time""
""fullscreenenter"",""1"",""3024""
","
","
","""event"",""trial"",""time""
""fullscreenenter"",""1"",""3024""
","
","","","826.7000000476837","","","14","15049","6125","g","elianto","#f73b6a7A"," "," ","1","0","[1676.7000000476837]","1","2","","","15049","60","3","3","lose","go","0"
"pit-trial","186","1240578","0.0-65.0","battery-v0.2","","""event"",""trial"",""time""
""fullscreenenter"",""1"",""3024""
","
","
","""event"",""trial"",""time""
""fullscreenenter"",""1"",""3024""
","
","","","787.8000000119209","","","14","15049","6125","g","elianto","#f73b6a7A"," "," ","1","0","[1639]","1","2","","","15049","61","3","3","lose","go","0"
"pit-trial","187","1245433","0.0-66.0","battery-v0.2","","""event"",""trial"",""time""
""fullscreenenter"",""1"",""3024""
","
","
","""event"",""trial"",""time""
""fullscreenenter"",""1"",""3024""
","
","","","-1","","","14","15049","6125","a","elianto","#f73b6a7A","-1","-1","1","0","[]","0","2","","","15049","62","2","4","lose","no-go","0"
"pit-trial","188","1249154","0.0-67.0","battery-v0.2","","""event"",""trial"",""time""
""fullscreenenter"",""1"",""3024""
","
","
","""event"",""trial"",""time""
""fullscreenenter"",""1"",""3024""
","
","","","868.6999999880791","","","14","15049","6125","p","elianto","#3366ff99","-1"," ","0","0","[1718.800000011921]","1","2","","","15049","63","4","2","win","no-go","0"
"pit-trial","189","1252594","0.0-68.0","battery-v0.2","","""event"",""trial"",""time""
""fullscreenenter"",""1"",""3024""
","
","
","""event"",""trial"",""time""
""fullscreenenter"",""1"",""3024""
","
","","","587","","","14","15049","6125","l","elianto","#3366ff99"," "," ","1","0","[1437.9000000357628]","1","2","","","15049","64","1","1","win","go","1"
"pit-trial","190","1256491","0.0-69.0","battery-v0.2","","""event"",""trial"",""time""
""fullscreenenter"",""1"",""3024""
","
","
","""event"",""trial"",""time""
""fullscreenenter"",""1"",""3024""
","
","","","1043.7000000476837","","","14","15049","6125","g","elianto","#f73b6a7A"," "," ","1","0","[1895.300000011921]","1","2","","","15049","65","3","3","lose","go","0"
"pit-trial","191","1261353","0.0-70.0","battery-v0.2","","""event"",""trial"",""time""
""fullscreenenter"",""1"",""3024""
","
","
","""event"",""trial"",""time""
""fullscreenenter"",""1"",""3024""
","
","","","-1","","","14","15049","6125","a","elianto","#f73b6a7A","-1","-1","1","0","[]","0","2","","","15049","66","2","4","lose","no-go","0"
"pit-trial","192","1264950","0.0-71.0","battery-v0.2","","""event"",""trial"",""time""
""fullscreenenter"",""1"",""3024""
","
","
","""event"",""trial"",""time""
""fullscreenenter"",""1"",""3024""
","
","","","743.1000000238419","","","14","15049","6125","l","elianto","#3366ff99"," "," ","1","+10","[1593.3999999761581]","1","2","","","15049","67","1","1","win","go","0"
"pit-trial","193","1268454","0.0-72.0","battery-v0.2","","""event"",""trial"",""time""
""fullscreenenter"",""1"",""3024""
","
","
","""event"",""trial"",""time""
""fullscreenenter"",""1"",""3024""
","
","","","649.5999999642372","","","14","15049","6125","p","elianto","#3366ff99","-1"," ","0","0","[1500.9000000357628]","1","2","","","15049","68","4","2","win","no-go","0"
"pit-trial","194","1272189","0.0-73.0","battery-v0.2","","""event"",""trial"",""time""
""fullscreenenter"",""1"",""3024""
","
","
","""event"",""trial"",""time""
""fullscreenenter"",""1"",""3024""
","
","","","883","","","14","15049","6125","g","elianto","#f73b6a7A"," "," ","1","0","[1733.199999988079]","1","2","","","15049","69","3","3","lose","go","0"
"pit-trial","195","1277043","0.0-74.0","battery-v0.2","","""event"",""trial"",""time""
""fullscreenenter"",""1"",""3024""
","
","
","""event"",""trial"",""time""
""fullscreenenter"",""1"",""3024""
","
","","","-1","","","14","15049","6125","p","elianto","#3366ff99","-1","-1","1","0","[]","0","2","","","15049","70","4","2","win","no-go","1"
"pit-trial","196","1280503","0.0-75.0","battery-v0.2","","""event"",""trial"",""time""
""fullscreenenter"",""1"",""3024""
","
","
","""event"",""trial"",""time""
""fullscreenenter"",""1"",""3024""
","
","","","607.1000000238419","","","14","15049","6125","l","elianto","#3366ff99"," "," ","1","+10","[1457.7000000476837]","1","2","","","15049","71","1","1","win","go","0"
"pit-trial","197","1284486","0.0-76.0","battery-v0.2","","""event"",""trial"",""time""
""fullscreenenter"",""1"",""3024""
","
","
","""event"",""trial"",""time""
""fullscreenenter"",""1"",""3024""
","
","","","1128.6000000238419","","","14","15049","6125","s","elianto","#3366ff99"," "," ","1","+10","[1980.5]","1","2","","","15049","72","5","1","win","go","0"
"pit-trial","198","1288086","0.0-77.0","battery-v0.2","","""event"",""trial"",""time""
""fullscreenenter"",""1"",""3024""
","
","
","""event"",""trial"",""time""
""fullscreenenter"",""1"",""3024""
","
","","","746.8000000119209","","","14","15049","6125","l","elianto","#3366ff99"," "," ","1","+10","[1598.0999999642372]","1","2","","","15049","73","1","1","win","go","0"
"pit-trial","199","1291856","0.0-78.0","battery-v0.2","","""event"",""trial"",""time""
""fullscreenenter"",""1"",""3024""
","
","
","""event"",""trial"",""time""
""fullscreenenter"",""1"",""3024""
","
","","","915.8999999761581","","","14","15049","6125","g","elianto","#f73b6a7A"," "," ","1","-10","[1766.5999999642372]","1","2","","","15049","74","3","3","lose","go","1"
"pit-trial","200","1295441","0.0-79.0","battery-v0.2","","""event"",""trial"",""time""
""fullscreenenter"",""1"",""3024""
","
","
","""event"",""trial"",""time""
""fullscreenenter"",""1"",""3024""
","
","","","731.0999999642372","","","14","15049","6125","s","elianto","#3366ff99"," "," ","1","+10","[1581.1000000238419]","1","2","","","15049","75","5","1","win","go","0"
"pit-trial","201","1298992","0.0-80.0","battery-v0.2","","""event"",""trial"",""time""
""fullscreenenter"",""1"",""3024""
","
","
","""event"",""trial"",""time""
""fullscreenenter"",""1"",""3024""
","
","","","698.7000000476837","","","14","15049","6125","p","elianto","#3366ff99","-1"," ","0","0","[1549.7000000476837]","1","2","","","15049","76","4","2","win","no-go","0"
"pit-trial","202","1302705","0.0-81.0","battery-v0.2","","""event"",""trial"",""time""
""fullscreenenter"",""1"",""3024""
","
","
","""event"",""trial"",""time""
""fullscreenenter"",""1"",""3024""
","
","","","860.1000000238419","","","14","15049","6125","g","elianto","#f73b6a7A"," "," ","1","0","[1710.300000011921]","1","2","","","15049","77","3","3","lose","go","0"
"pit-trial","203","1307558","0.0-82.0","battery-v0.2","","""event"",""trial"",""time""
""fullscreenenter"",""1"",""3024""
","
","
","""event"",""trial"",""time""
""fullscreenenter"",""1"",""3024""
","
","","","-1","","","14","15049","6125","w","elianto","#f73b6a7A","-1","-1","1","0","[]","0","2","","","15049","78","6","4","lose","no-go","0"
"pit-trial","204","1311162","0.0-83.0","battery-v0.2","","""event"",""trial"",""time""
""fullscreenenter"",""1"",""3024""
","
","
","""event"",""trial"",""time""
""fullscreenenter"",""1"",""3024""
","
","","","750.6999999880791","","","14","15049","6125","p","elianto","#3366ff99","-1"," ","0","+10","[1600.800000011921]","1","2","","","15049","79","4","2","win","no-go","1"
"pit-trial","205","1314674","0.0-84.0","battery-v0.2","","""event"",""trial"",""time""
""fullscreenenter"",""1"",""3024""
","
","
","""event"",""trial"",""time""
""fullscreenenter"",""1"",""3024""
","
","","","659.1000000238419","","","14","15049","6125","s","elianto","#3366ff99"," "," ","1","+10","[1509.7000000476837]","1","2","","","15049","80","5","1","win","go","0"
"pit-trial","206","1319527","0.0-85.0","battery-v0.2","","""event"",""trial"",""time""
""fullscreenenter"",""1"",""3024""
","
","
","""event"",""trial"",""time""
""fullscreenenter"",""1"",""3024""
","
","","","-1","","","14","15049","6125","w","elianto","#f73b6a7A","-1","-1","1","0","[]","0","2","","","15049","81","6","4","lose","no-go","0"
"pit-trial","207","1323027","0.0-86.0","battery-v0.2","","""event"",""trial"",""time""
""fullscreenenter"",""1"",""3024""
","
","
","""event"",""trial"",""time""
""fullscreenenter"",""1"",""3024""
","
","","","647.8000000119209","","","14","15049","6125","s","elianto","#3366ff99"," "," ","1","+10","[1497.9000000357628]","1","2","","","15049","82","5","1","win","go","0"
"pit-trial","208","1327879","0.0-87.0","battery-v0.2","","""event"",""trial"",""time""
""fullscreenenter"",""1"",""3024""
","
","
","""event"",""trial"",""time""
""fullscreenenter"",""1"",""3024""
","
","","","-1","","","14","15049","6125","e","elianto","#f73b6a7A"," ","-1","0","-10","[]","0","2","","","15049","83","7","3","lose","go","0"
"pit-trial","209","1331497","0.0-88.0","battery-v0.2","","""event"",""trial"",""time""
""fullscreenenter"",""1"",""3024""
","
","
","""event"",""trial"",""time""
""fullscreenenter"",""1"",""3024""
","
","","","759.4000000357628","","","14","15049","6125","p","elianto","#3366ff99","-1"," ","0","+10","[1610.4000000357628]","1","2","","","15049","84","4","2","win","no-go","1"
"pit-trial","210","1336353","0.0-89.0","battery-v0.2","","""event"",""trial"",""time""
""fullscreenenter"",""1"",""3024""
","
","
","""event"",""trial"",""time""
""fullscreenenter"",""1"",""3024""
","
","","","-1","","","14","15049","6125","w","elianto","#f73b6a7A","-1","-1","1","0","[]","0","2","","","15049","85","6","4","lose","no-go","0"
"pit-trial","211","1339790","0.0-90.0","battery-v0.2","","""event"",""trial"",""time""
""fullscreenenter"",""1"",""3024""
","
","
","""event"",""trial"",""time""
""fullscreenenter"",""1"",""3024""
","
","","","583.6000000238419","","","14","15049","6125","s","elianto","#3366ff99"," "," ","1","+10","[1434.4000000357628]","1","2","","","15049","86","5","1","win","go","0"
"pit-trial","212","1343374","0.0-91.0","battery-v0.2","","""event"",""trial"",""time""
""fullscreenenter"",""1"",""3024""
","
","
","""event"",""trial"",""time""
""fullscreenenter"",""1"",""3024""
","
","","","730.3000000119209","","","14","15049","6125","p","elianto","#3366ff99","-1"," ","0","0","[1581.8999999761581]","1","2","","","15049","87","4","2","win","no-go","0"
"pit-trial","213","1347206","0.0-92.0","battery-v0.2","","""event"",""trial"",""time""
""fullscreenenter"",""1"",""3024""
","
","
","""event"",""trial"",""time""
""fullscreenenter"",""1"",""3024""
","
","","","972","","","14","15049","6125","e","elianto","#f73b6a7A"," "," ","1","-10","[1830.199999988079]","1","2","","","15049","88","7","3","lose","go","1"
"pit-trial","214","1350670","0.0-93.0","battery-v0.2","","""event"",""trial"",""time""
""fullscreenenter"",""1"",""3024""
","
","
","""event"",""trial"",""time""
""fullscreenenter"",""1"",""3024""
","
","","","610.6999999880791","","","14","15049","6125","s","elianto","#3366ff99"," "," ","1","+10","[1461.0999999642372]","1","2","","","15049","89","5","1","win","go","0"
"pit-trial","215","1355525","0.0-94.0","battery-v0.2","","""event"",""trial"",""time""
""fullscreenenter"",""1"",""3024""
","
","
","""event"",""trial"",""time""
""fullscreenenter"",""1"",""3024""
","
","","","-1","","","14","15049","6125","e","elianto","#f73b6a7A"," ","-1","0","-10","[]","0","2","","","15049","90","7","3","lose","go","0"
"pit-trial","216","1358960","0.0-95.0","battery-v0.2","","""event"",""trial"",""time""
""fullscreenenter"",""1"",""3024""
","
","
","""event"",""trial"",""time""
""fullscreenenter"",""1"",""3024""
","
","","","581.1000000238419","","","14","15049","6125","p","elianto","#3366ff99","-1"," ","0","0","[1431.699999988079]","1","2","","","15049","91","4","2","win","no-go","0"
"pit-trial","217","1363033","0.0-96.0","battery-v0.2","","""event"",""trial"",""time""
""fullscreenenter"",""1"",""3024""
","
","
","""event"",""trial"",""time""
""fullscreenenter"",""1"",""3024""
","
","","","1218.300000011921","","","14","15049","6125","w","elianto","#f73b6a7A","-1"," ","0","-10","[2070]","1","2","","","15049","92","6","4","lose","no-go","0"
"pit-trial","218","1367891","0.0-97.0","battery-v0.2","","""event"",""trial"",""time""
""fullscreenenter"",""1"",""3024""
","
","
","""event"",""trial"",""time""
""fullscreenenter"",""1"",""3024""
","
","","","-1","","","14","15049","6125","e","elianto","#f73b6a7A"," ","-1","0","0","[]","0","2","","","15049","93","7","3","lose","go","1"
"pit-trial","219","1372744","0.0-98.0","battery-v0.2","","""event"",""trial"",""time""
""fullscreenenter"",""1"",""3024""
","
","
","""event"",""trial"",""time""
""fullscreenenter"",""1"",""3024""
","
","","","-1","","","14","15049","6125","w","elianto","#f73b6a7A","-1","-1","1","-10","[]","0","2","","","15049","94","6","4","lose","no-go","1"
"pit-trial","220","1376305","0.0-99.0","battery-v0.2","","""event"",""trial"",""time""
""fullscreenenter"",""1"",""3024""
","
","
","""event"",""trial"",""time""
""fullscreenenter"",""1"",""3024""
","
","","","706.9000000357628","","","14","15049","6125","s","elianto","#3366ff99"," "," ","1","0","[1558.800000011921]","1","2","","","15049","95","5","1","win","go","1"
"pit-trial","221","1380298","0.0-100.0","battery-v0.2","","""event"",""trial"",""time""
""fullscreenenter"",""1"",""3024""
","
","
","""event"",""trial"",""time""
""fullscreenenter"",""1"",""3024""
","
","","","1140.8999999761581","","","14","15049","6125","d","elianto","#3366ff99","-1"," ","0","0","[1991.3999999761581]","1","2","","","15049","96","8","2","win","no-go","0"
"pit-trial","222","1385151","0.0-101.0","battery-v0.2","","""event"",""trial"",""time""
""fullscreenenter"",""1"",""3024""
","
","
","""event"",""trial"",""time""
""fullscreenenter"",""1"",""3024""
","
","","","-1","","","14","15049","6125","w","elianto","#f73b6a7A","-1","-1","1","-10","[]","0","2","","","15049","97","6","4","lose","no-go","1"
"pit-trial","223","1388826","0.0-102.0","battery-v0.2","","""event"",""trial"",""time""
""fullscreenenter"",""1"",""3024""
","
","
","""event"",""trial"",""time""
""fullscreenenter"",""1"",""3024""
","
","","","822.0999999642372","","","14","15049","6125","s","elianto","#3366ff99"," "," ","1","+10","[1672.7999999523163]","1","2","","","15049","98","5","1","win","go","0"
"pit-trial","224","1393075","0.0-103.0","battery-v0.2","","""event"",""trial"",""time""
""fullscreenenter"",""1"",""3024""
","
","
","""event"",""trial"",""time""
""fullscreenenter"",""1"",""3024""
","
","","","1394.5","","","14","15049","6125","d","elianto","#3366ff99","-1"," ","0","+10","[2246.300000011921]","1","2","","","15049","99","8","2","win","no-go","1"
"pit-trial","225","1397929","0.0-104.0","battery-v0.2","","""event"",""trial"",""time""
""fullscreenenter"",""1"",""3024""
","
","
","""event"",""trial"",""time""
""fullscreenenter"",""1"",""3024""
","
","","","-1","","","14","15049","6125","e","elianto","#f73b6a7A"," ","-1","0","0","[]","0","2","","","15049","100","7","3","lose","go","1"
"pit-trial","226","1401563","0.0-105.0","battery-v0.2","","""event"",""trial"",""time""
""fullscreenenter"",""1"",""3024""
","
","
","""event"",""trial"",""time""
""fullscreenenter"",""1"",""3024""
","
","","","781.1000000238419","","","14","15049","6125","d","elianto","#3366ff99","-1"," ","0","0","[1631.5]","1","2","","","15049","101","8","2","win","no-go","0"
"pit-trial","227","1405108","0.0-106.0","battery-v0.2","","""event"",""trial"",""time""
""fullscreenenter"",""1"",""3024""
","
","
","""event"",""trial"",""time""
""fullscreenenter"",""1"",""3024""
","
","","","691.3000000119209","","","14","15049","6125","j","elianto","#3366ff99","-1"," ","0","+10","[1542.0999999642372]","1","2","","","15049","102","9","2","win","no-go","1"
"pit-trial","228","1409970","0.0-107.0","battery-v0.2","","""event"",""trial"",""time""
""fullscreenenter"",""1"",""3024""
","
","
","""event"",""trial"",""time""
""fullscreenenter"",""1"",""3024""
","
","","","-1","","","14","15049","6125","w","elianto","#f73b6a7A","-1","-1","1","0","[]","0","2","","","15049","103","6","4","lose","no-go","0"
"pit-trial","229","1413454","0.0-108.0","battery-v0.2","","""event"",""trial"",""time""
""fullscreenenter"",""1"",""3024""
","
","
","""event"",""trial"",""time""
""fullscreenenter"",""1"",""3024""
","
","","","624.1000000238419","","","14","15049","6125","s","elianto","#3366ff99"," "," ","1","+10","[1481.5]","1","2","","","15049","104","5","1","win","go","0"
"pit-trial","230","1416901","0.0-109.0","battery-v0.2","","""event"",""trial"",""time""
""fullscreenenter"",""1"",""3024""
","
","
","""event"",""trial"",""time""
""fullscreenenter"",""1"",""3024""
","
","","","594.1999999880791","","","14","15049","6125","d","elianto","#3366ff99","-1"," ","0","0","[1444.5999999642372]","1","2","","","15049","105","8","2","win","no-go","0"
"pit-trial","231","1421754","0.0-110.0","battery-v0.2","","""event"",""trial"",""time""
""fullscreenenter"",""1"",""3024""
","
","
","""event"",""trial"",""time""
""fullscreenenter"",""1"",""3024""
","
","","","-1","","","14","15049","6125","w","elianto","#f73b6a7A","-1","-1","1","0","[]","0","2","","","15049","106","6","4","lose","no-go","0"
"pit-trial","232","1425426","0.0-111.0","battery-v0.2","","""event"",""trial"",""time""
""fullscreenenter"",""1"",""3024""
","
","
","""event"",""trial"",""time""
""fullscreenenter"",""1"",""3024""
","
","","","815.5","","","14","15049","6125","s","elianto","#3366ff99"," "," ","1","0","[1666.5]","1","2","","","15049","107","5","1","win","go","1"
"pit-trial","233","1429433","0.0-112.0","battery-v0.2","","""event"",""trial"",""time""
""fullscreenenter"",""1"",""3024""
","
","
","""event"",""trial"",""time""
""fullscreenenter"",""1"",""3024""
","
","","","1144.1000000238419","","","14","15049","6125","j","elianto","#3366ff99","-1"," ","0","0","[1994.6000000238419]","1","2","","","15049","108","9","2","win","no-go","0"
"pit-trial","234","1433407","0.0-113.0","battery-v0.2","","""event"",""trial"",""time""
""fullscreenenter"",""1"",""3024""
","
","
","""event"",""trial"",""time""
""fullscreenenter"",""1"",""3024""
","
","","","1120.699999988079","","","14","15049","6125","w","elianto","#f73b6a7A","-1"," ","0","-10","[1972.199999988079]","1","2","","","15049","109","6","4","lose","no-go","0"
"pit-trial","235","1436970","0.0-114.0","battery-v0.2","","""event"",""trial"",""time""
""fullscreenenter"",""1"",""3024""
","
","
","""event"",""trial"",""time""
""fullscreenenter"",""1"",""3024""
","
","","","706.8000000119209","","","14","15049","6125","j","elianto","#3366ff99","-1"," ","0","0","[1557.6000000238419]","1","2","","","15049","110","9","2","win","no-go","0"
"pit-trial","236","1440808","0.0-115.0","battery-v0.2","","""event"",""trial"",""time""
""fullscreenenter"",""1"",""3024""
","
","
","""event"",""trial"",""time""
""fullscreenenter"",""1"",""3024""
","
","","","984.7000000476837","","","14","15049","6125","d","elianto","#3366ff99","-1"," ","0","+10","[1835.6000000238419]","1","2","","","15049","111","8","2","win","no-go","1"
"pit-trial","237","1444264","0.0-116.0","battery-v0.2","","""event"",""trial"",""time""
""fullscreenenter"",""1"",""3024""
","
","
","""event"",""trial"",""time""
""fullscreenenter"",""1"",""3024""
","
","","","602.6000000238419","","","14","15049","6125","s","elianto","#3366ff99"," "," ","1","+10","[1453.2999999523163]","1","2","","","15049","112","5","1","win","go","0"
"pit-trial","238","1447730","0.0-117.0","battery-v0.2","","""event"",""trial"",""time""
""fullscreenenter"",""1"",""3024""
","
","
","""event"",""trial"",""time""
""fullscreenenter"",""1"",""3024""
","
","","","612.1999999880791","","","14","15049","6125","j","elianto","#3366ff99","-1"," ","0","+10","[1462.5]","1","2","","","15049","113","9","2","win","no-go","1"
"pit-trial","239","1451177","0.0-118.0","battery-v0.2","","""event"",""trial"",""time""
""fullscreenenter"",""1"",""3024""
","
","
","""event"",""trial"",""time""
""fullscreenenter"",""1"",""3024""
","
","","","593","","","14","15049","6125","d","elianto","#3366ff99","-1"," ","0","+10","[1443.7000000476837]","1","2","","","15049","114","8","2","win","no-go","1"
"pit-trial","240","1456030","0.0-119.0","battery-v0.2","","""event"",""trial"",""time""
""fullscreenenter"",""1"",""3024""
","
","
","""event"",""trial"",""time""
""fullscreenenter"",""1"",""3024""
","
","","","-1","","","14","15049","6125","e","elianto","#f73b6a7A"," ","-1","0","-10","[]","0","2","","","15049","115","7","3","lose","go","0"
"pit-trial","241","1459820","0.0-120.0","battery-v0.2","","""event"",""trial"",""time""
""fullscreenenter"",""1"",""3024""
","
","
","""event"",""trial"",""time""
""fullscreenenter"",""1"",""3024""
","
","","","936.4000000357628","","","14","15049","6125","s","elianto","#3366ff99"," "," ","1","+10","[1787.300000011921]","1","2","","","15049","116","5","1","win","go","0"
"pit-trial","242","1463314","0.0-121.0","battery-v0.2","","""event"",""trial"",""time""
""fullscreenenter"",""1"",""3024""
","
","
","""event"",""trial"",""time""
""fullscreenenter"",""1"",""3024""
","
","","","641","","","14","15049","6125","j","elianto","#3366ff99","-1"," ","0","0","[1492.300000011921]","1","2","","","15049","117","9","2","win","no-go","0"
"pit-trial","243","1466763","0.0-122.0","battery-v0.2","","""event"",""trial"",""time""
""fullscreenenter"",""1"",""3024""
","
","
","""event"",""trial"",""time""
""fullscreenenter"",""1"",""3024""
","
","","","595.4000000357628","","","14","15049","6125","s","elianto","#3366ff99"," "," ","1","+10","[1446.300000011921]","1","2","","","15049","118","5","1","win","go","0"
"pit-trial","244","1470171","0.0-123.0","battery-v0.2","","""event"",""trial"",""time""
""fullscreenenter"",""1"",""3024""
","
","
","""event"",""trial"",""time""
""fullscreenenter"",""1"",""3024""
","
","","","556","","","14","15049","6125","d","elianto","#3366ff99","-1"," ","0","0","[1406.4000000357628]","1","2","","","15049","119","8","2","win","no-go","0"
"pit-trial","245","1475026","0.0-124.0","battery-v0.2","","""event"",""trial"",""time""
""fullscreenenter"",""1"",""3024""
","
","
","""event"",""trial"",""time""
""fullscreenenter"",""1"",""3024""
","
","","","-1","","","14","15049","6125","w","elianto","#f73b6a7A","-1","-1","1","-10","[]","0","2","","","15049","120","6","4","lose","no-go","1"
"pit-trial","246","1479880","0.0-125.0","battery-v0.2","","""event"",""trial"",""time""
""fullscreenenter"",""1"",""3024""
","
","
","""event"",""trial"",""time""
""fullscreenenter"",""1"",""3024""
","
","","","-1","","","14","15049","6125","d","elianto","#3366ff99","-1","-1","1","+10","[]","0","2","","","15049","121","8","2","win","no-go","0"
"pit-trial","247","1484733","0.0-126.0","battery-v0.2","","""event"",""trial"",""time""
""fullscreenenter"",""1"",""3024""
","
","
","""event"",""trial"",""time""
""fullscreenenter"",""1"",""3024""
","
","","","-1","","","14","15049","6125","e","elianto","#f73b6a7A"," ","-1","0","-10","[]","0","2","","","15049","122","7","3","lose","go","0"
"pit-trial","248","1488358","0.0-127.0","battery-v0.2","","""event"",""trial"",""time""
""fullscreenenter"",""1"",""3024""
","
","
","""event"",""trial"",""time""
""fullscreenenter"",""1"",""3024""
","
","","","772.6000000238419","","","14","15049","6125","j","elianto","#3366ff99","-1"," ","0","0","[1622.699999988079]","1","2","","","15049","123","9","2","win","no-go","0"
"pit-trial","249","1491934","0.0-128.0","battery-v0.2","","""event"",""trial"",""time""
""fullscreenenter"",""1"",""3024""
","
","
","""event"",""trial"",""time""
""fullscreenenter"",""1"",""3024""
","
","","","723","","","14","15049","6125","s","elianto","#3366ff99"," "," ","1","0","[1573.3999999761581]","1","2","","","15049","124","5","1","win","go","1"
"pit-trial","250","1496788","0.0-129.0","battery-v0.2","","""event"",""trial"",""time""
""fullscreenenter"",""1"",""3024""
","
","
","""event"",""trial"",""time""
""fullscreenenter"",""1"",""3024""
","
","","","-1","","","14","15049","6125","d","elianto","#3366ff99","-1","-1","1","+10","[]","0","2","","","15049","125","8","2","win","no-go","0"
"pit-trial","251","1501641","0.0-130.0","battery-v0.2","","""event"",""trial"",""time""
""fullscreenenter"",""1"",""3024""
","
","
","""event"",""trial"",""time""
""fullscreenenter"",""1"",""3024""
","
","","","-1","","","14","15049","6125","w","elianto","#f73b6a7A","-1","-1","1","0","[]","0","2","","","15049","126","6","4","lose","no-go","0"
"pit-trial","252","1505880","0.0-131.0","battery-v0.2","","""event"",""trial"",""time""
""fullscreenenter"",""1"",""3024""
","
","
","""event"",""trial"",""time""
""fullscreenenter"",""1"",""3024""
","
","","","1385.0999999642372","","","14","15049","6125","j","elianto","#3366ff99","-1"," ","0","0","[2235.800000011921]","1","2","","","15049","127","9","2","win","no-go","0"
"pit-trial","253","1510732","0.0-132.0","battery-v0.2","","""event"",""trial"",""time""
""fullscreenenter"",""1"",""3024""
","
","
","""event"",""trial"",""time""
""fullscreenenter"",""1"",""3024""
","
","","","-1","","","14","15049","6125","e","elianto","#f73b6a7A"," ","-1","0","-10","[]","0","2","","","15049","128","7","3","lose","go","0"
"pit-trial","254","1515584","0.0-133.0","battery-v0.2","","""event"",""trial"",""time""
""fullscreenenter"",""1"",""3024""
","
","
","""event"",""trial"",""time""
""fullscreenenter"",""1"",""3024""
","
","","","-1","","","14","15049","6125","j","elianto","#3366ff99","-1","-1","1","+10","[]","0","2","","","15049","129","9","2","win","no-go","0"
"pit-trial","255","1519075","0.0-134.0","battery-v0.2","","""event"",""trial"",""time""
""fullscreenenter"",""1"",""3024""
","
","
","""event"",""trial"",""time""
""fullscreenenter"",""1"",""3024""
","
","","","637.1999999880791","","","14","15049","6125","d","elianto","#3366ff99","-1"," ","0","0","[1487.6000000238419]","1","2","","","15049","130","8","2","win","no-go","0"
"pit-trial","256","1523928","0.0-135.0","battery-v0.2","","""event"",""trial"",""time""
""fullscreenenter"",""1"",""3024""
","
","
","""event"",""trial"",""time""
""fullscreenenter"",""1"",""3024""
","
","","","-1","","","14","15049","6125","w","elianto","#f73b6a7A","-1","-1","1","0","[]","0","2","","","15049","131","6","4","lose","no-go","0"
"pit-trial","257","1528781","0.0-136.0","battery-v0.2","","""event"",""trial"",""time""
""fullscreenenter"",""1"",""3024""
","
","
","""event"",""trial"",""time""
""fullscreenenter"",""1"",""3024""
","
","","","-1","","","14","15049","6125","e","elianto","#f73b6a7A"," ","-1","0","-10","[]","0","2","","","15049","132","7","3","lose","go","0"
"pit-trial","258","1532251","0.0-137.0","battery-v0.2","","""event"",""trial"",""time""
""fullscreenenter"",""1"",""3024""
","
","
","""event"",""trial"",""time""
""fullscreenenter"",""1"",""3024""
","
","","","616.5999999642372","","","14","15049","6125","e","elianto","#f73b6a7A"," "," ","1","0","[1467.199999988079]","1","2","","","15049","133","7","3","lose","go","0"
"pit-trial","259","1537104","0.0-138.0","battery-v0.2","","""event"",""trial"",""time""
""fullscreenenter"",""1"",""3024""
","
","
","""event"",""trial"",""time""
""fullscreenenter"",""1"",""3024""
","
","","","-1","","","14","15049","6125","j","elianto","#3366ff99","-1","-1","1","+10","[]","0","2","","","15049","134","9","2","win","no-go","0"
"pit-trial","260","1541957","0.0-139.0","battery-v0.2","","""event"",""trial"",""time""
""fullscreenenter"",""1"",""3024""
","
","
","""event"",""trial"",""time""
""fullscreenenter"",""1"",""3024""
","
","","","-1","","","14","15049","6125","w","elianto","#f73b6a7A","-1","-1","1","0","[]","0","2","","","15049","135","6","4","lose","no-go","0"
"pit-trial","261","1546810","0.0-140.0","battery-v0.2","","""event"",""trial"",""time""
""fullscreenenter"",""1"",""3024""
","
","
","""event"",""trial"",""time""
""fullscreenenter"",""1"",""3024""
","
","","","-1","","","14","15049","6125","d","elianto","#3366ff99","-1","-1","1","0","[]","0","2","","","15049","136","8","2","win","no-go","1"
"pit-trial","262","1550942","0.0-141.0","battery-v0.2","","""event"",""trial"",""time""
""fullscreenenter"",""1"",""3024""
","
","
","""event"",""trial"",""time""
""fullscreenenter"",""1"",""3024""
","
","","","1272.800000011921","","","14","15049","6125","e","elianto","#f73b6a7A"," "," ","1","0","[2128.699999988079]","1","2","","","15049","137","7","3","lose","go","0"
"pit-trial","263","1555795","0.0-142.0","battery-v0.2","","""event"",""trial"",""time""
""fullscreenenter"",""1"",""3024""
","
","
","""event"",""trial"",""time""
""fullscreenenter"",""1"",""3024""
","
","","","-1","","","14","15049","6125","w","elianto","#f73b6a7A","-1","-1","1","0","[]","0","2","","","15049","138","6","4","lose","no-go","0"
"pit-trial","264","1560649","0.0-143.0","battery-v0.2","","""event"",""trial"",""time""
""fullscreenenter"",""1"",""3024""
","
","
","""event"",""trial"",""time""
""fullscreenenter"",""1"",""3024""
","
","","","-1","","","14","15049","6125","j","elianto","#3366ff99","-1","-1","1","0","[]","0","2","","","15049","139","9","2","win","no-go","1"
"pit-trial","265","1565503","0.0-144.0","battery-v0.2","","""event"",""trial"",""time""
""fullscreenenter"",""1"",""3024""
","
","
","""event"",""trial"",""time""
""fullscreenenter"",""1"",""3024""
","
","","","-1","","","14","15049","6125","d","elianto","#3366ff99","-1","-1","1","+10","[]","0","2","","","15049","140","8","2","win","no-go","0"
